[{"responses":{"Q13":"1","Q12":"1","Q02":"1","Q14":"1","Q04":"1","Q05":"1","Q06":"1","Q01":"1","Q09":"1","Q03":"1","Q07":"1","Q15":"0","Q08":"0","Q11":"1","Q10":"1"},"rt":126114.4400000012,"survey":"7up7down","trial_type":"survey-template","trial_index":0,"time_elapsed":126146,"internal_node_id":"0.0-0.0","task_version":"screening-prolific"},{"responses":{"Q10":"2","Q01":"2","Q02":"2","Q13":"3","Q11":"1","Q03":"2","Q08":"1","Q07":"2","Q06":"3","Q12":"1","Q04":"2","Q05":"2","Q09":"1"},"rt":77628.81999999992,"survey":"bisbas","trial_type":"survey-template","trial_index":1,"time_elapsed":203790,"internal_node_id":"0.0-1.0","task_version":"screening-prolific"},{"responses":{"Q02":"1","Q01":"3","Q03":"1"},"rt":12935.779999999795,"survey":"pswq","trial_type":"survey-template","trial_index":2,"time_elapsed":216737,"internal_node_id":"0.0-2.0","task_version":"screening-prolific"},{"responses":{"Q03":"2","Q04":"2","Q13":"2","Q14":"2","Q06":"2","Q12":"2","Q11":"2","Q10":"3","Q01":"2","Q05":"2","Q15":"3","Q09":"2","Q07":"2","Q08":"2","Q02":"2"},"rt":77038.92500000075,"survey":"shaps","trial_type":"survey-template","trial_index":3,"time_elapsed":293792,"internal_node_id":"0.0-3.0","task_version":"screening-prolific"},{"responses":{"Q07":"0","Q01":"1","Q08":"0","Q05":"0","Q06":"1","Q03":"0","Q04":"0","Q02":"0"},"rt":44534.99999999988,"survey":"gad7","trial_type":"survey-template","trial_index":4,"time_elapsed":338339,"internal_node_id":"0.0-4.0","task_version":"screening-prolific"},{"view_history":"[{\"page_index\":0,\"viewing_time\":8770.585000000196},{\"page_index\":1,\"viewing_time\":12302.86999999953},{\"page_index\":2,\"viewing_time\":10875.66999999946},{\"page_index\":3,\"viewing_time\":10131.945000000997},{\"page_index\":4,\"viewing_time\":8217.97499999957},{\"page_index\":5,\"viewing_time\":4712.239999998885},{\"page_index\":6,\"viewing_time\":5237.740000000515},{\"page_index\":7,\"viewing_time\":7492.809999999765}]","rt":67742.63499999867,"trial_type":"instructions","trial_index":5,"time_elapsed":406087,"internal_node_id":"0.0-5.0-0.0","task_version":"screening-prolific"},{"responses":["True","True","False","False","True"],"num_errors":0,"rt":26167.96500000055,"trial_type":"three-arm-comprehension","trial_index":6,"time_elapsed":432263,"internal_node_id":"0.0-5.0-1.0","task_version":"screening-prolific"},{"view_history":"[{\"page_index\":0,\"viewing_time\":3078.880000000936}]","rt":3079.300000001269,"trial_type":"instructions","trial_index":7,"time_elapsed":435357,"internal_node_id":"0.0-6.0","task_version":"screening-prolific"},{"contexts":["blue","green","red"],"outcomes":[1,0,0],"key":37,"choice":0,"rt":2412.699999998964,"outcome":1,"trial":1,"correct":0,"trial_type":"three-arm-trial","trial_index":8,"time_elapsed":438976,"internal_node_id":"0.0-7.0-0.0","task_version":"screening-prolific","missing":false,"accuracy":1},{"contexts":["blue","green","red"],"outcomes":[1,1,0],"key":38,"choice":1,"rt":1853.914999999688,"outcome":1,"trial":2,"correct":0,"trial_type":"three-arm-trial","trial_index":9,"time_elapsed":442036,"internal_node_id":"0.0-8.0-0.0","task_version":"screening-prolific","missing":false,"accuracy":0},{"contexts":["blue","green","red"],"outcomes":[1,0,1],"key":37,"choice":0,"rt":404.6900000012247,"outcome":1,"trial":3,"correct":0,"trial_type":"three-arm-trial","trial_index":10,"time_elapsed":443648,"internal_node_id":"0.0-9.0-0.0","task_version":"screening-prolific","missing":false,"accuracy":1},{"contexts":["blue","green","red"],"outcomes":[1,0,0],"key":39,"choice":2,"rt":565.9400000004098,"outcome":0,"trial":4,"correct":0,"trial_type":"three-arm-trial","trial_index":11,"time_elapsed":445420,"internal_node_id":"0.0-10.0-0.0","task_version":"screening-prolific","missing":false,"accuracy":0},{"contexts":["blue","green","red"],"outcomes":[1,0,0],"key":39,"choice":2,"rt":524.690000000177,"outcome":0,"trial":5,"correct":0,"trial_type":"three-arm-trial","trial_index":12,"time_elapsed":447152,"internal_node_id":"0.0-11.0-0.0","task_version":"screening-prolific","missing":false,"accuracy":0},{"contexts":["blue","green","red"],"outcomes":[1,0,0],"key":37,"choice":0,"rt":388.03000000008615,"outcome":1,"trial":6,"correct":0,"trial_type":"three-arm-trial","trial_index":13,"time_elapsed":448746,"internal_node_id":"0.0-12.0-0.0","task_version":"screening-prolific","missing":false,"accuracy":1},{"contexts":["blue","green","red"],"outcomes":[1,0,1],"key":38,"choice":1,"rt":504.7899999990477,"outcome":0,"trial":7,"correct":0,"trial_type":"three-arm-trial","trial_index":14,"time_elapsed":450457,"internal_node_id":"0.0-13.0-0.0","task_version":"screening-prolific","missing":false,"accuracy":0},{"contexts":["blue","green","red"],"outcomes":[1,0,1],"key":37,"choice":0,"rt":807.4550000001327,"outcome":1,"trial":8,"correct":0,"trial_type":"three-arm-trial","trial_index":15,"time_elapsed":452470,"internal_node_id":"0.0-14.0-0.0","task_version":"screening-prolific","missing":false,"accuracy":1},{"contexts":["blue","green","red"],"outcomes":[1,1,1],"key":37,"choice":0,"rt":406.58999999868684,"outcome":1,"trial":9,"correct":0,"trial_type":"three-arm-trial","trial_index":16,"time_elapsed":454082,"internal_node_id":"0.0-15.0-0.0","task_version":"screening-prolific","missing":false,"accuracy":1},{"contexts":["blue","green","red"],"outcomes":[1,0,1],"key":38,"choice":1,"rt":605.4199999998091,"outcome":0,"trial":10,"correct":0,"trial_type":"three-arm-trial","trial_index":17,"time_elapsed":455894,"internal_node_id":"0.0-16.0-0.0","task_version":"screening-prolific","missing":false,"accuracy":0},{"contexts":["blue","green","red"],"outcomes":[0,1,0],"key":39,"choice":2,"rt":303.1300000002375,"outcome":0,"trial":11,"correct":0,"trial_type":"three-arm-trial","trial_index":18,"time_elapsed":457405,"internal_node_id":"0.0-17.0-0.0","task_version":"screening-prolific","missing":false,"accuracy":0},{"contexts":["blue","green","red"],"outcomes":[1,1,1],"key":37,"choice":0,"rt":346.6550000011921,"outcome":1,"trial":12,"correct":0,"trial_type":"three-arm-trial","trial_index":19,"time_elapsed":458957,"internal_node_id":"0.0-18.0-0.0","task_version":"screening-prolific","missing":false,"accuracy":1},{"contexts":["blue","green","red"],"outcomes":[1,0,0],"key":37,"choice":0,"rt":363.600000000617,"outcome":1,"trial":13,"correct":0,"trial_type":"three-arm-trial","trial_index":20,"time_elapsed":460526,"internal_node_id":"0.0-19.0-0.0","task_version":"screening-prolific","missing":false,"accuracy":1},{"contexts":["blue","green","red"],"outcomes":[1,1,0],"key":37,"choice":0,"rt":406.91999999945983,"outcome":1,"trial":14,"correct":0,"trial_type":"three-arm-trial","trial_index":21,"time_elapsed":462139,"internal_node_id":"0.0-20.0-0.0","task_version":"screening-prolific","missing":false,"accuracy":1},{"contexts":["blue","green","red"],"outcomes":[1,0,0],"key":37,"choice":0,"rt":706.3399999988033,"outcome":1,"trial":15,"correct":0,"trial_type":"three-arm-trial","trial_index":22,"time_elapsed":464052,"internal_node_id":"0.0-21.0-0.0","task_version":"screening-prolific","missing":false,"accuracy":1},{"contexts":["blue","green","red"],"outcomes":[0,0,0],"key":37,"choice":0,"rt":424.7699999996694,"outcome":0,"trial":16,"correct":1,"trial_type":"three-arm-trial","trial_index":23,"time_elapsed":465685,"internal_node_id":"0.0-22.0-0.0","task_version":"screening-prolific","missing":false,"accuracy":0},{"contexts":["blue","green","red"],"outcomes":[1,1,0],"key":38,"choice":1,"rt":280.7049999992014,"outcome":1,"trial":17,"correct":1,"trial_type":"three-arm-trial","trial_index":24,"time_elapsed":467173,"internal_node_id":"0.0-23.0-0.0","task_version":"screening-prolific","missing":false,"accuracy":1},{"contexts":["blue","green","red"],"outcomes":[0,1,0],"key":38,"choice":1,"rt":283.77499999990687,"outcome":1,"trial":18,"correct":1,"trial_type":"three-arm-trial","trial_index":25,"time_elapsed":468662,"internal_node_id":"0.0-24.0-0.0","task_version":"screening-prolific","missing":false,"accuracy":1},{"contexts":["blue","green","red"],"outcomes":[0,1,0],"key":38,"choice":1,"rt":367.70000000071013,"outcome":1,"trial":19,"correct":1,"trial_type":"three-arm-trial","trial_index":26,"time_elapsed":470237,"internal_node_id":"0.0-25.0-0.0","task_version":"screening-prolific","missing":false,"accuracy":1},{"contexts":["blue","green","red"],"outcomes":[0,0,1],"key":38,"choice":1,"rt":340.96999999927357,"outcome":0,"trial":20,"correct":1,"trial_type":"three-arm-trial","trial_index":27,"time_elapsed":471784,"internal_node_id":"0.0-26.0-0.0","task_version":"screening-prolific","missing":false,"accuracy":1},{"contexts":["blue","green","red"],"outcomes":[0,1,0],"key":37,"choice":0,"rt":265.85499999969034,"outcome":0,"trial":21,"correct":1,"trial_type":"three-arm-trial","trial_index":28,"time_elapsed":473257,"internal_node_id":"0.0-27.0-0.0","task_version":"screening-prolific","missing":false,"accuracy":0},{"contexts":["blue","green","red"],"outcomes":[1,1,0],"key":39,"choice":2,"rt":625.7699999987381,"outcome":0,"trial":22,"correct":1,"trial_type":"three-arm-trial","trial_index":29,"time_elapsed":475089,"internal_node_id":"0.0-28.0-0.0","task_version":"screening-prolific","missing":false,"accuracy":0},{"contexts":["blue","green","red"],"outcomes":[0,1,0],"key":39,"choice":2,"rt":344.8050000006333,"outcome":0,"trial":23,"correct":1,"trial_type":"three-arm-trial","trial_index":30,"time_elapsed":476639,"internal_node_id":"0.0-29.0-0.0","task_version":"screening-prolific","missing":false,"accuracy":0},{"contexts":["blue","green","red"],"outcomes":[0,1,1],"key":38,"choice":1,"rt":265.45000000076834,"outcome":1,"trial":24,"correct":1,"trial_type":"three-arm-trial","trial_index":31,"time_elapsed":478111,"internal_node_id":"0.0-30.0-0.0","task_version":"screening-prolific","missing":false,"accuracy":1},{"contexts":["blue","green","red"],"outcomes":[0,1,0],"key":38,"choice":1,"rt":283.4949999997043,"outcome":1,"trial":25,"correct":1,"trial_type":"three-arm-trial","trial_index":32,"time_elapsed":479600,"internal_node_id":"0.0-31.0-0.0","task_version":"screening-prolific","missing":false,"accuracy":1},{"contexts":["blue","green","red"],"outcomes":[0,1,1],"key":38,"choice":1,"rt":322.99000000057276,"outcome":1,"trial":26,"correct":1,"trial_type":"three-arm-trial","trial_index":33,"time_elapsed":481131,"internal_node_id":"0.0-32.0-0.0","task_version":"screening-prolific","missing":false,"accuracy":1},{"contexts":["blue","green","red"],"outcomes":[1,1,0],"key":38,"choice":1,"rt":387.05500000104075,"outcome":1,"trial":27,"correct":1,"trial_type":"three-arm-trial","trial_index":34,"time_elapsed":482724,"internal_node_id":"0.0-33.0-0.0","task_version":"screening-prolific","missing":false,"accuracy":1},{"contexts":["blue","green","red"],"outcomes":[0,1,0],"key":38,"choice":1,"rt":501.44499999983236,"outcome":1,"trial":28,"correct":1,"trial_type":"three-arm-trial","trial_index":35,"time_elapsed":484434,"internal_node_id":"0.0-34.0-0.0","task_version":"screening-prolific","missing":false,"accuracy":1},{"contexts":["blue","green","red"],"outcomes":[0,0,1],"key":37,"choice":0,"rt":263.33999999950174,"outcome":0,"trial":29,"correct":1,"trial_type":"three-arm-trial","trial_index":36,"time_elapsed":485904,"internal_node_id":"0.0-35.0-0.0","task_version":"screening-prolific","missing":false,"accuracy":0},{"contexts":["blue","green","red"],"outcomes":[0,1,0],"key":37,"choice":0,"rt":283.8350000001956,"outcome":0,"trial":30,"correct":1,"trial_type":"three-arm-trial","trial_index":37,"time_elapsed":487395,"internal_node_id":"0.0-36.0-0.0","task_version":"screening-prolific","missing":false,"accuracy":0},{"contexts":["blue","green","red"],"outcomes":[0,0,1],"key":38,"choice":1,"rt":303.36499999975786,"outcome":0,"trial":31,"correct":2,"trial_type":"three-arm-trial","trial_index":38,"time_elapsed":488904,"internal_node_id":"0.0-37.0-0.0","task_version":"screening-prolific","missing":false,"accuracy":0},{"contexts":["blue","green","red"],"outcomes":[0,0,0],"key":39,"choice":2,"rt":243.50000000046566,"outcome":0,"trial":32,"correct":2,"trial_type":"three-arm-trial","trial_index":39,"time_elapsed":490354,"internal_node_id":"0.0-38.0-0.0","task_version":"screening-prolific","missing":false,"accuracy":1},{"contexts":["blue","green","red"],"outcomes":[0,0,1],"key":38,"choice":1,"rt":325.6899999996531,"outcome":0,"trial":33,"correct":2,"trial_type":"three-arm-trial","trial_index":40,"time_elapsed":491887,"internal_node_id":"0.0-39.0-0.0","task_version":"screening-prolific","missing":false,"accuracy":0},{"contexts":["blue","green","red"],"outcomes":[1,0,1],"key":39,"choice":2,"rt":39.850000001024455,"outcome":1,"trial":34,"correct":2,"trial_type":"three-arm-trial","trial_index":41,"time_elapsed":493133,"internal_node_id":"0.0-40.0-0.0","task_version":"screening-prolific","missing":false,"accuracy":1},{"contexts":["blue","green","red"],"outcomes":[1,0,1],"key":39,"choice":2,"rt":264.98999999969965,"outcome":1,"trial":35,"correct":2,"trial_type":"three-arm-trial","trial_index":42,"time_elapsed":494604,"internal_node_id":"0.0-41.0-0.0","task_version":"screening-prolific","missing":false,"accuracy":1},{"contexts":["blue","green","red"],"outcomes":[0,0,0],"key":39,"choice":2,"rt":286.2999999997555,"outcome":0,"trial":36,"correct":2,"trial_type":"three-arm-trial","trial_index":43,"time_elapsed":496098,"internal_node_id":"0.0-42.0-0.0","task_version":"screening-prolific","missing":false,"accuracy":1},{"contexts":["blue","green","red"],"outcomes":[1,1,0],"key":38,"choice":1,"rt":302.11500000045635,"outcome":1,"trial":37,"correct":2,"trial_type":"three-arm-trial","trial_index":44,"time_elapsed":497607,"internal_node_id":"0.0-43.0-0.0","task_version":"screening-prolific","missing":false,"accuracy":0},{"contexts":["blue","green","red"],"outcomes":[0,1,1],"key":39,"choice":2,"rt":262.3249999997206,"outcome":1,"trial":38,"correct":2,"trial_type":"three-arm-trial","trial_index":45,"time_elapsed":499077,"internal_node_id":"0.0-44.0-0.0","task_version":"screening-prolific","missing":false,"accuracy":1},{"contexts":["blue","green","red"],"outcomes":[0,0,1],"key":39,"choice":2,"rt":305.5899999999092,"outcome":1,"trial":39,"correct":2,"trial_type":"three-arm-trial","trial_index":46,"time_elapsed":500589,"internal_node_id":"0.0-45.0-0.0","task_version":"screening-prolific","missing":false,"accuracy":1},{"contexts":["blue","green","red"],"outcomes":[0,1,1],"key":39,"choice":2,"rt":344.82500000012806,"outcome":1,"trial":40,"correct":2,"trial_type":"three-arm-trial","trial_index":47,"time_elapsed":502139,"internal_node_id":"0.0-46.0-0.0","task_version":"screening-prolific","missing":false,"accuracy":1},{"contexts":["blue","green","red"],"outcomes":[0,0,1],"key":39,"choice":2,"rt":323.96499999961816,"outcome":1,"trial":41,"correct":2,"trial_type":"three-arm-trial","trial_index":48,"time_elapsed":503668,"internal_node_id":"0.0-47.0-0.0","task_version":"screening-prolific","missing":false,"accuracy":1},{"contexts":["blue","green","red"],"outcomes":[0,0,1],"key":39,"choice":2,"rt":345.94499999913387,"outcome":1,"trial":42,"correct":2,"trial_type":"three-arm-trial","trial_index":49,"time_elapsed":505221,"internal_node_id":"0.0-48.0-0.0","task_version":"screening-prolific","missing":false,"accuracy":1},{"contexts":["blue","green","red"],"outcomes":[0,1,1],"key":39,"choice":2,"rt":364.50999999942724,"outcome":1,"trial":43,"correct":2,"trial_type":"three-arm-trial","trial_index":50,"time_elapsed":506791,"internal_node_id":"0.0-49.0-0.0","task_version":"screening-prolific","missing":false,"accuracy":1},{"contexts":["blue","green","red"],"outcomes":[0,0,1],"key":39,"choice":2,"rt":326.21999999904074,"outcome":1,"trial":44,"correct":2,"trial_type":"three-arm-trial","trial_index":51,"time_elapsed":508322,"internal_node_id":"0.0-50.0-0.0","task_version":"screening-prolific","missing":false,"accuracy":1},{"contexts":["blue","green","red"],"outcomes":[0,0,1],"key":39,"choice":2,"rt":306.1450000004843,"outcome":1,"trial":45,"correct":2,"trial_type":"three-arm-trial","trial_index":52,"time_elapsed":509835,"internal_node_id":"0.0-51.0-0.0","task_version":"screening-prolific","missing":false,"accuracy":1},{"contexts":["blue","green","red"],"outcomes":[1,1,1],"key":39,"choice":2,"rt":300.8099999988917,"outcome":1,"trial":46,"correct":0,"trial_type":"three-arm-trial","trial_index":53,"time_elapsed":511342,"internal_node_id":"0.0-52.0-0.0","task_version":"screening-prolific","missing":false,"accuracy":0},{"contexts":["blue","green","red"],"outcomes":[0,0,0],"key":39,"choice":2,"rt":287.9599999996135,"outcome":0,"trial":47,"correct":0,"trial_type":"three-arm-trial","trial_index":54,"time_elapsed":512837,"internal_node_id":"0.0-53.0-0.0","task_version":"screening-prolific","missing":false,"accuracy":0},{"contexts":["blue","green","red"],"outcomes":[1,0,0],"key":38,"choice":1,"rt":281.3550000009127,"outcome":0,"trial":48,"correct":0,"trial_type":"three-arm-trial","trial_index":55,"time_elapsed":514325,"internal_node_id":"0.0-54.0-0.0","task_version":"screening-prolific","missing":false,"accuracy":0},{"contexts":["blue","green","red"],"outcomes":[1,0,0],"key":37,"choice":0,"rt":105.91500000003725,"outcome":1,"trial":49,"correct":0,"trial_type":"three-arm-trial","trial_index":56,"time_elapsed":515637,"internal_node_id":"0.0-55.0-0.0","task_version":"screening-prolific","missing":false,"accuracy":1},{"contexts":["blue","green","red"],"outcomes":[1,0,0],"key":37,"choice":0,"rt":322.0249999994412,"outcome":1,"trial":50,"correct":0,"trial_type":"three-arm-trial","trial_index":57,"time_elapsed":517165,"internal_node_id":"0.0-56.0-0.0","task_version":"screening-prolific","missing":false,"accuracy":1},{"contexts":["blue","green","red"],"outcomes":[1,0,0],"key":37,"choice":0,"rt":283.294999999227,"outcome":1,"trial":51,"correct":0,"trial_type":"three-arm-trial","trial_index":58,"time_elapsed":518655,"internal_node_id":"0.0-57.0-0.0","task_version":"screening-prolific","missing":false,"accuracy":1},{"contexts":["blue","green","red"],"outcomes":[1,0,0],"key":37,"choice":0,"rt":305.5199999999022,"outcome":1,"trial":52,"correct":0,"trial_type":"three-arm-trial","trial_index":59,"time_elapsed":520167,"internal_node_id":"0.0-58.0-0.0","task_version":"screening-prolific","missing":false,"accuracy":1},{"contexts":["blue","green","red"],"outcomes":[1,0,0],"key":37,"choice":0,"rt":264.9100000016624,"outcome":1,"trial":53,"correct":0,"trial_type":"three-arm-trial","trial_index":60,"time_elapsed":521639,"internal_node_id":"0.0-59.0-0.0","task_version":"screening-prolific","missing":false,"accuracy":1},{"contexts":["blue","green","red"],"outcomes":[1,1,1],"key":37,"choice":0,"rt":343.29000000073574,"outcome":1,"trial":54,"correct":0,"trial_type":"three-arm-trial","trial_index":61,"time_elapsed":523190,"internal_node_id":"0.0-60.0-0.0","task_version":"screening-prolific","missing":false,"accuracy":1},{"contexts":["blue","green","red"],"outcomes":[1,0,0],"key":37,"choice":0,"rt":280.87500000046566,"outcome":1,"trial":55,"correct":0,"trial_type":"three-arm-trial","trial_index":62,"time_elapsed":524677,"internal_node_id":"0.0-61.0-0.0","task_version":"screening-prolific","missing":false,"accuracy":1},{"contexts":["blue","green","red"],"outcomes":[1,0,0],"key":37,"choice":0,"rt":325.7849999991013,"outcome":1,"trial":56,"correct":0,"trial_type":"three-arm-trial","trial_index":63,"time_elapsed":526209,"internal_node_id":"0.0-62.0-0.0","task_version":"screening-prolific","missing":false,"accuracy":1},{"contexts":["blue","green","red"],"outcomes":[1,1,0],"key":37,"choice":0,"rt":303.81499999924563,"outcome":1,"trial":57,"correct":0,"trial_type":"three-arm-trial","trial_index":64,"time_elapsed":527719,"internal_node_id":"0.0-63.0-0.0","task_version":"screening-prolific","missing":false,"accuracy":1},{"contexts":["blue","green","red"],"outcomes":[1,0,0],"key":37,"choice":0,"rt":323.85500000056345,"outcome":1,"trial":58,"correct":0,"trial_type":"three-arm-trial","trial_index":65,"time_elapsed":529249,"internal_node_id":"0.0-64.0-0.0","task_version":"screening-prolific","missing":false,"accuracy":1},{"contexts":["blue","green","red"],"outcomes":[1,0,0],"key":37,"choice":0,"rt":265.199999999837,"outcome":1,"trial":59,"correct":0,"trial_type":"three-arm-trial","trial_index":66,"time_elapsed":530720,"internal_node_id":"0.0-65.0-0.0","task_version":"screening-prolific","missing":false,"accuracy":1},{"contexts":["blue","green","red"],"outcomes":[0,0,0],"key":37,"choice":0,"rt":266.0649999998277,"outcome":0,"trial":60,"correct":0,"trial_type":"three-arm-trial","trial_index":67,"time_elapsed":532193,"internal_node_id":"0.0-66.0-0.0","task_version":"screening-prolific","missing":false,"accuracy":1},{"contexts":["blue","green","red"],"outcomes":[0,0,1],"key":37,"choice":0,"rt":281.83999999961816,"outcome":0,"trial":61,"correct":2,"trial_type":"three-arm-trial","trial_index":68,"time_elapsed":533681,"internal_node_id":"0.0-67.0-0.0","task_version":"screening-prolific","missing":false,"accuracy":0},{"contexts":["blue","green","red"],"outcomes":[0,0,1],"key":38,"choice":1,"rt":263.63999999919906,"outcome":0,"trial":62,"correct":2,"trial_type":"three-arm-trial","trial_index":69,"time_elapsed":535151,"internal_node_id":"0.0-68.0-0.0","task_version":"screening-prolific","missing":false,"accuracy":0},{"contexts":["blue","green","red"],"outcomes":[0,0,1],"key":39,"choice":2,"rt":144.74999999941792,"outcome":1,"trial":63,"correct":2,"trial_type":"three-arm-trial","trial_index":70,"time_elapsed":536501,"internal_node_id":"0.0-69.0-0.0","task_version":"screening-prolific","missing":false,"accuracy":1},{"contexts":["blue","green","red"],"outcomes":[0,0,1],"key":39,"choice":2,"rt":184.53500000038184,"outcome":1,"trial":64,"correct":2,"trial_type":"three-arm-trial","trial_index":71,"time_elapsed":537892,"internal_node_id":"0.0-70.0-0.0","task_version":"screening-prolific","missing":false,"accuracy":1},{"contexts":["blue","green","red"],"outcomes":[0,0,0],"key":39,"choice":2,"rt":341.420000000624,"outcome":0,"trial":65,"correct":2,"trial_type":"three-arm-trial","trial_index":72,"time_elapsed":539441,"internal_node_id":"0.0-71.0-0.0","task_version":"screening-prolific","missing":false,"accuracy":1},{"contexts":["blue","green","red"],"outcomes":[0,1,0],"key":39,"choice":2,"rt":285.52500000118744,"outcome":0,"trial":66,"correct":2,"trial_type":"three-arm-trial","trial_index":73,"time_elapsed":540933,"internal_node_id":"0.0-72.0-0.0","task_version":"screening-prolific","missing":false,"accuracy":1},{"contexts":["blue","green","red"],"outcomes":[1,0,1],"key":38,"choice":1,"rt":41.32499999832362,"outcome":0,"trial":67,"correct":2,"trial_type":"three-arm-trial","trial_index":74,"time_elapsed":542180,"internal_node_id":"0.0-73.0-0.0","task_version":"screening-prolific","missing":false,"accuracy":0},{"contexts":["blue","green","red"],"outcomes":[1,1,1],"key":38,"choice":1,"rt":80.69499999878462,"outcome":1,"trial":68,"correct":2,"trial_type":"three-arm-trial","trial_index":75,"time_elapsed":543468,"internal_node_id":"0.0-74.0-0.0","task_version":"screening-prolific","missing":false,"accuracy":0},{"contexts":["blue","green","red"],"outcomes":[0,0,0],"key":38,"choice":1,"rt":246.5800000008894,"outcome":0,"trial":69,"correct":2,"trial_type":"three-arm-trial","trial_index":76,"time_elapsed":544920,"internal_node_id":"0.0-75.0-0.0","task_version":"screening-prolific","missing":false,"accuracy":0},{"contexts":["blue","green","red"],"outcomes":[0,1,1],"key":38,"choice":1,"rt":182.3100000001723,"outcome":1,"trial":70,"correct":2,"trial_type":"three-arm-trial","trial_index":77,"time_elapsed":546308,"internal_node_id":"0.0-76.0-0.0","task_version":"screening-prolific","missing":false,"accuracy":0},{"contexts":["blue","green","red"],"outcomes":[1,0,1],"key":38,"choice":1,"rt":305.1500000001397,"outcome":0,"trial":71,"correct":2,"trial_type":"three-arm-trial","trial_index":78,"time_elapsed":547821,"internal_node_id":"0.0-77.0-0.0","task_version":"screening-prolific","missing":false,"accuracy":0},{"contexts":["blue","green","red"],"outcomes":[0,0,0],"key":37,"choice":0,"rt":259.7249999998603,"outcome":0,"trial":72,"correct":2,"trial_type":"three-arm-trial","trial_index":79,"time_elapsed":549291,"internal_node_id":"0.0-78.0-0.0","task_version":"screening-prolific","missing":false,"accuracy":0},{"contexts":["blue","green","red"],"outcomes":[0,0,0],"key":39,"choice":2,"rt":263.4149999994552,"outcome":0,"trial":73,"correct":2,"trial_type":"three-arm-trial","trial_index":80,"time_elapsed":550761,"internal_node_id":"0.0-79.0-0.0","task_version":"screening-prolific","missing":false,"accuracy":1},{"contexts":["blue","green","red"],"outcomes":[1,1,1],"key":39,"choice":2,"rt":265.1000000005588,"outcome":1,"trial":74,"correct":2,"trial_type":"three-arm-trial","trial_index":81,"time_elapsed":552232,"internal_node_id":"0.0-80.0-0.0","task_version":"screening-prolific","missing":false,"accuracy":1},{"contexts":["blue","green","red"],"outcomes":[0,0,0],"key":39,"choice":2,"rt":285.120000000461,"outcome":0,"trial":75,"correct":2,"trial_type":"three-arm-trial","trial_index":82,"time_elapsed":553721,"internal_node_id":"0.0-81.0-0.0","task_version":"screening-prolific","missing":false,"accuracy":1},{"contexts":["blue","green","red"],"outcomes":[1,1,0],"key":38,"choice":1,"rt":104.51000000105705,"outcome":1,"trial":76,"correct":0,"trial_type":"three-arm-trial","trial_index":83,"time_elapsed":555031,"internal_node_id":"0.0-82.0-0.0","task_version":"screening-prolific","missing":false,"accuracy":0},{"contexts":["blue","green","red"],"outcomes":[1,0,1],"key":38,"choice":1,"rt":342.58000000042375,"outcome":0,"trial":77,"correct":0,"trial_type":"three-arm-trial","trial_index":84,"time_elapsed":556581,"internal_node_id":"0.0-83.0-0.0","task_version":"screening-prolific","missing":false,"accuracy":0},{"contexts":["blue","green","red"],"outcomes":[1,0,0],"key":37,"choice":0,"rt":203.41499999992084,"outcome":1,"trial":78,"correct":0,"trial_type":"three-arm-trial","trial_index":85,"time_elapsed":557991,"internal_node_id":"0.0-84.0-0.0","task_version":"screening-prolific","missing":false,"accuracy":1},{"contexts":["blue","green","red"],"outcomes":[1,0,0],"key":39,"choice":2,"rt":161.43500000005588,"outcome":0,"trial":79,"correct":0,"trial_type":"three-arm-trial","trial_index":86,"time_elapsed":559361,"internal_node_id":"0.0-85.0-0.0","task_version":"screening-prolific","missing":false,"accuracy":0},{"contexts":["blue","green","red"],"outcomes":[1,1,1],"key":37,"choice":0,"rt":223.11000000080094,"outcome":1,"trial":80,"correct":0,"trial_type":"three-arm-trial","trial_index":87,"time_elapsed":560791,"internal_node_id":"0.0-86.0-0.0","task_version":"screening-prolific","missing":false,"accuracy":1},{"contexts":["blue","green","red"],"outcomes":[1,0,1],"key":37,"choice":0,"rt":62.11500000057276,"outcome":1,"trial":81,"correct":0,"trial_type":"three-arm-trial","trial_index":88,"time_elapsed":562059,"internal_node_id":"0.0-87.0-0.0","task_version":"screening-prolific","missing":false,"accuracy":1},{"contexts":["blue","green","red"],"outcomes":[1,0,0],"key":37,"choice":0,"rt":223.56000000040513,"outcome":1,"trial":82,"correct":0,"trial_type":"three-arm-trial","trial_index":89,"time_elapsed":563489,"internal_node_id":"0.0-88.0-0.0","task_version":"screening-prolific","missing":false,"accuracy":1},{"contexts":["blue","green","red"],"outcomes":[1,0,1],"key":37,"choice":0,"rt":285.31499999924563,"outcome":1,"trial":83,"correct":0,"trial_type":"three-arm-trial","trial_index":90,"time_elapsed":564981,"internal_node_id":"0.0-89.0-0.0","task_version":"screening-prolific","missing":false,"accuracy":1},{"contexts":["blue","green","red"],"outcomes":[0,0,0],"key":37,"choice":0,"rt":284.3250000005355,"outcome":0,"trial":84,"correct":0,"trial_type":"three-arm-trial","trial_index":91,"time_elapsed":566472,"internal_node_id":"0.0-90.0-0.0","task_version":"screening-prolific","missing":false,"accuracy":1},{"contexts":["blue","green","red"],"outcomes":[1,0,1],"key":38,"choice":1,"rt":121.49499999941327,"outcome":0,"trial":85,"correct":0,"trial_type":"three-arm-trial","trial_index":92,"time_elapsed":567799,"internal_node_id":"0.0-91.0-0.0","task_version":"screening-prolific","missing":false,"accuracy":0},{"contexts":["blue","green","red"],"outcomes":[1,0,0],"key":39,"choice":2,"rt":62.480000000447035,"outcome":0,"trial":86,"correct":0,"trial_type":"three-arm-trial","trial_index":93,"time_elapsed":569068,"internal_node_id":"0.0-92.0-0.0","task_version":"screening-prolific","missing":false,"accuracy":0},{"contexts":["blue","green","red"],"outcomes":[1,0,0],"key":37,"choice":0,"rt":83.8000000002794,"outcome":1,"trial":87,"correct":0,"trial_type":"three-arm-trial","trial_index":94,"time_elapsed":570358,"internal_node_id":"0.0-93.0-0.0","task_version":"screening-prolific","missing":false,"accuracy":1},{"contexts":["blue","green","red"],"outcomes":[1,0,1],"key":37,"choice":0,"rt":203.05999999982305,"outcome":1,"trial":88,"correct":0,"trial_type":"three-arm-trial","trial_index":95,"time_elapsed":571767,"internal_node_id":"0.0-94.0-0.0","task_version":"screening-prolific","missing":false,"accuracy":1},{"contexts":["blue","green","red"],"outcomes":[1,0,0],"key":37,"choice":0,"rt":345.0100000008242,"outcome":1,"trial":89,"correct":0,"trial_type":"three-arm-trial","trial_index":96,"time_elapsed":573318,"internal_node_id":"0.0-95.0-0.0","task_version":"screening-prolific","missing":false,"accuracy":1},{"contexts":["blue","green","red"],"outcomes":[1,1,0],"key":37,"choice":0,"rt":324.02499999990687,"outcome":1,"trial":90,"correct":0,"trial_type":"three-arm-trial","trial_index":97,"time_elapsed":574849,"internal_node_id":"0.0-96.0-0.0","task_version":"screening-prolific","missing":false,"accuracy":1},{"rt":30752.90499999933,"responses":{"age":"42","gender-categorical":"Male","gender-free-response":"","ethnicity":"Not Hispanic or Latino","race":["White"],"language":"Yes","fluency":"Very well","mturk":"No","mturk-this-study":"No"},"survey":"demographics","trial_type":"survey-demo","trial_index":98,"time_elapsed":605621,"internal_node_id":"0.0-97.0","task_version":"screening-prolific","interactions":"[{\"event\":\"blur\",\"trial\":0,\"time\":0},{\"event\":\"focus\",\"trial\":0,\"time\":789}]"}]