[{"responses":{"Q03":"0","Q02":"0","Q01":"0"},"rt":11210.819999978412,"survey":"pswq","trial_type":"survey-template","trial_index":0,"time_elapsed":11222,"internal_node_id":"0.0-0.0","task_version":"screening-prolific"},{"responses":{"Q01":"3","Q04":"2","Q06":"2","Q07":"3","Q12":"2","Q08":"2","Q14":"2","Q15":"2","Q11":"2","Q05":"2","Q03":"3","Q09":"2","Q13":"3","Q10":"2","Q02":"3"},"rt":116355.85499997251,"survey":"shaps","trial_type":"survey-template","trial_index":1,"time_elapsed":127582,"internal_node_id":"0.0-1.0","task_version":"screening-prolific"},{"responses":{"Q07":"0","Q06":"0","Q05":"0","Q01":"0","Q04":"0","Q03":"0","Q02":"0","Q08":"0"},"rt":27860.010000003967,"survey":"gad7","trial_type":"survey-template","trial_index":2,"time_elapsed":155445,"internal_node_id":"0.0-2.0","task_version":"screening-prolific"},{"responses":{"Q05":"0","Q11":"0","Q13":"1","Q08":"1","Q15":"0","Q06":"1","Q01":"1","Q09":"0","Q10":"0","Q12":"0","Q14":"0","Q02":"0","Q04":"1","Q03":"1","Q07":"1"},"rt":615477.5499999523,"survey":"7up7down","trial_type":"survey-template","trial_index":3,"time_elapsed":770927,"internal_node_id":"0.0-3.0","task_version":"screening-prolific"},{"responses":{"Q01":"2","Q04":"2","Q06":"3","Q05":"3","Q10":"1","Q07":"3","Q03":"3","Q02":"2","Q13":"3","Q08":"2","Q11":"2","Q09":"2","Q12":"1"},"rt":128786.16999997757,"survey":"bisbas","trial_type":"survey-template","trial_index":4,"time_elapsed":899718,"internal_node_id":"0.0-4.0","task_version":"screening-prolific"},{"view_history":"[{\"page_index\":0,\"viewing_time\":8643.555000016931},{\"page_index\":1,\"viewing_time\":11759.514999983367},{\"page_index\":2,\"viewing_time\":14832.49000000069},{\"page_index\":3,\"viewing_time\":10863.574999966659},{\"page_index\":4,\"viewing_time\":11431.875000009313},{\"page_index\":5,\"viewing_time\":9256.044999987353},{\"page_index\":6,\"viewing_time\":6015.965000027791},{\"page_index\":7,\"viewing_time\":4976.075000013225}]","rt":77779.88499996718,"trial_type":"instructions","trial_index":5,"time_elapsed":977499,"internal_node_id":"0.0-5.0-0.0","task_version":"screening-prolific"},{"responses":["True","True","False","True","True"],"num_errors":1,"rt":29718.055000004824,"trial_type":"three-arm-comprehension","trial_index":6,"time_elapsed":1007219,"internal_node_id":"0.0-5.0-1.0","task_version":"screening-prolific"},{"view_history":"[{\"page_index\":0,\"viewing_time\":4347.475000016857},{\"page_index\":1,\"viewing_time\":4152.754999988247},{\"page_index\":2,\"viewing_time\":2103.270000021439},{\"page_index\":3,\"viewing_time\":1735.9099999885075},{\"page_index\":4,\"viewing_time\":864.1049999860115},{\"page_index\":5,\"viewing_time\":5120.020000031218},{\"page_index\":6,\"viewing_time\":815.9100000048056},{\"page_index\":7,\"viewing_time\":472.20999997807667}]","rt":19611.95500002941,"trial_type":"instructions","trial_index":7,"time_elapsed":1026834,"internal_node_id":"0.0-5.1-0.1","task_version":"screening-prolific"},{"responses":["True","True","False","False","True"],"num_errors":0,"rt":20974.30499998154,"trial_type":"three-arm-comprehension","trial_index":8,"time_elapsed":1047811,"internal_node_id":"0.0-5.1-1.1","task_version":"screening-prolific"},{"view_history":"[{\"page_index\":0,\"viewing_time\":5379.435000009835}]","rt":5379.70500002848,"trial_type":"instructions","trial_index":9,"time_elapsed":1053194,"internal_node_id":"0.0-6.0","task_version":"screening-prolific"},{"contexts":["green","blue","red"],"outcomes":[1,0,1],"key":38,"choice":1,"rt":3095.1099999947473,"outcome":0,"trial":1,"correct":2,"trial_type":"three-arm-trial","trial_index":10,"time_elapsed":1057493,"internal_node_id":"0.0-7.0-0.0","task_version":"screening-prolific","missing":false,"accuracy":0},{"contexts":["green","blue","red"],"outcomes":[0,1,1],"key":38,"choice":1,"rt":3582.849999947939,"outcome":1,"trial":2,"correct":2,"trial_type":"three-arm-trial","trial_index":11,"time_elapsed":1062280,"internal_node_id":"0.0-8.0-0.0","task_version":"screening-prolific","missing":false,"accuracy":0},{"contexts":["green","blue","red"],"outcomes":[0,1,0],"key":38,"choice":1,"rt":2181.3599999877624,"outcome":1,"trial":3,"correct":2,"trial_type":"three-arm-trial","trial_index":12,"time_elapsed":1065664,"internal_node_id":"0.0-9.0-0.0","task_version":"screening-prolific","missing":false,"accuracy":0},{"contexts":["green","blue","red"],"outcomes":[0,0,1],"key":38,"choice":1,"rt":1738.0300000077114,"outcome":0,"trial":4,"correct":2,"trial_type":"three-arm-trial","trial_index":13,"time_elapsed":1068608,"internal_node_id":"0.0-10.0-0.0","task_version":"screening-prolific","missing":false,"accuracy":0},{"contexts":["green","blue","red"],"outcomes":[1,0,1],"key":38,"choice":1,"rt":1876.4749999972992,"outcome":0,"trial":5,"correct":2,"trial_type":"three-arm-trial","trial_index":14,"time_elapsed":1071688,"internal_node_id":"0.0-11.0-0.0","task_version":"screening-prolific","missing":false,"accuracy":0},{"contexts":["green","blue","red"],"outcomes":[1,0,1],"key":null,"rt":null,"trial":6,"correct":2,"trial_type":"three-arm-trial","trial_index":15,"time_elapsed":1086692,"internal_node_id":"0.0-12.0-0.0","task_version":"screening-prolific","missing":true},{"contexts":["green","blue","red"],"outcomes":[1,0,1],"key":38,"choice":1,"rt":1894.1350000095554,"outcome":0,"trial":6,"correct":2,"trial_type":"three-arm-trial","trial_index":16,"time_elapsed":1089788,"internal_node_id":"0.0-12.1-0.1","task_version":"screening-prolific","missing":false,"accuracy":0},{"contexts":["green","blue","red"],"outcomes":[0,1,0],"key":37,"choice":0,"rt":3929.5600000186823,"outcome":0,"trial":7,"correct":2,"trial_type":"three-arm-trial","trial_index":17,"time_elapsed":1094921,"internal_node_id":"0.0-13.0-0.0","task_version":"screening-prolific","missing":false,"accuracy":0},{"contexts":["green","blue","red"],"outcomes":[0,0,1],"key":38,"choice":1,"rt":1236.3749999785796,"outcome":0,"trial":8,"correct":2,"trial_type":"three-arm-trial","trial_index":18,"time_elapsed":1097360,"internal_node_id":"0.0-14.0-0.0","task_version":"screening-prolific","missing":false,"accuracy":0},{"contexts":["green","blue","red"],"outcomes":[0,0,1],"key":39,"choice":2,"rt":485.06500001531094,"outcome":1,"trial":9,"correct":2,"trial_type":"three-arm-trial","trial_index":19,"time_elapsed":1099048,"internal_node_id":"0.0-15.0-0.0","task_version":"screening-prolific","missing":false,"accuracy":1},{"contexts":["green","blue","red"],"outcomes":[0,1,1],"key":37,"choice":0,"rt":1525.2399999881163,"outcome":0,"trial":10,"correct":2,"trial_type":"three-arm-trial","trial_index":20,"time_elapsed":1101778,"internal_node_id":"0.0-16.0-0.0","task_version":"screening-prolific","missing":false,"accuracy":0},{"contexts":["green","blue","red"],"outcomes":[0,1,1],"key":39,"choice":2,"rt":1718.155000009574,"outcome":1,"trial":11,"correct":2,"trial_type":"three-arm-trial","trial_index":21,"time_elapsed":1104698,"internal_node_id":"0.0-17.0-0.0","task_version":"screening-prolific","missing":false,"accuracy":1},{"contexts":["green","blue","red"],"outcomes":[1,1,1],"key":37,"choice":0,"rt":1235.7549999724142,"outcome":1,"trial":12,"correct":2,"trial_type":"three-arm-trial","trial_index":22,"time_elapsed":1107136,"internal_node_id":"0.0-18.0-0.0","task_version":"screening-prolific","missing":false,"accuracy":0},{"contexts":["green","blue","red"],"outcomes":[0,0,0],"key":37,"choice":0,"rt":932.0450000232086,"outcome":0,"trial":13,"correct":2,"trial_type":"three-arm-trial","trial_index":23,"time_elapsed":1109271,"internal_node_id":"0.0-19.0-0.0","task_version":"screening-prolific","missing":false,"accuracy":0},{"contexts":["green","blue","red"],"outcomes":[1,0,1],"key":38,"choice":1,"rt":1452.3649999755435,"outcome":0,"trial":14,"correct":2,"trial_type":"three-arm-trial","trial_index":24,"time_elapsed":1111928,"internal_node_id":"0.0-20.0-0.0","task_version":"screening-prolific","missing":false,"accuracy":0},{"contexts":["green","blue","red"],"outcomes":[0,0,1],"key":38,"choice":1,"rt":1298.1550000258721,"outcome":0,"trial":15,"correct":2,"trial_type":"three-arm-trial","trial_index":25,"time_elapsed":1114428,"internal_node_id":"0.0-21.0-0.0","task_version":"screening-prolific","missing":false,"accuracy":0},{"contexts":["green","blue","red"],"outcomes":[1,0,1],"key":38,"choice":1,"rt":3358.2750000059605,"outcome":0,"trial":16,"correct":1,"trial_type":"three-arm-trial","trial_index":26,"time_elapsed":1118989,"internal_node_id":"0.0-22.0-0.0","task_version":"screening-prolific","missing":false,"accuracy":1},{"contexts":["green","blue","red"],"outcomes":[0,1,0],"key":39,"choice":2,"rt":3226.0549999773502,"outcome":0,"trial":17,"correct":1,"trial_type":"three-arm-trial","trial_index":27,"time_elapsed":1123419,"internal_node_id":"0.0-23.0-0.0","task_version":"screening-prolific","missing":false,"accuracy":0},{"contexts":["green","blue","red"],"outcomes":[0,1,0],"key":37,"choice":0,"rt":2481.079999997746,"outcome":0,"trial":18,"correct":1,"trial_type":"three-arm-trial","trial_index":28,"time_elapsed":1127104,"internal_node_id":"0.0-24.0-0.0","task_version":"screening-prolific","missing":false,"accuracy":0},{"contexts":["green","blue","red"],"outcomes":[0,0,0],"key":38,"choice":1,"rt":3098.4349999926053,"outcome":0,"trial":19,"correct":1,"trial_type":"three-arm-trial","trial_index":29,"time_elapsed":1131406,"internal_node_id":"0.0-25.0-0.0","task_version":"screening-prolific","missing":false,"accuracy":1},{"contexts":["green","blue","red"],"outcomes":[0,1,0],"key":38,"choice":1,"rt":1887.589999998454,"outcome":1,"trial":20,"correct":1,"trial_type":"three-arm-trial","trial_index":30,"time_elapsed":1134497,"internal_node_id":"0.0-26.0-0.0","task_version":"screening-prolific","missing":false,"accuracy":1},{"contexts":["green","blue","red"],"outcomes":[0,1,0],"key":37,"choice":0,"rt":2874.8199999681674,"outcome":0,"trial":21,"correct":1,"trial_type":"three-arm-trial","trial_index":31,"time_elapsed":1138574,"internal_node_id":"0.0-27.0-0.0","task_version":"screening-prolific","missing":false,"accuracy":0},{"contexts":["green","blue","red"],"outcomes":[0,0,0],"key":38,"choice":1,"rt":341.07000002404675,"outcome":0,"trial":22,"correct":1,"trial_type":"three-arm-trial","trial_index":32,"time_elapsed":1140118,"internal_node_id":"0.0-28.0-0.0","task_version":"screening-prolific","missing":false,"accuracy":1},{"contexts":["green","blue","red"],"outcomes":[0,1,0],"key":37,"choice":0,"rt":507.5349999824539,"outcome":0,"trial":23,"correct":1,"trial_type":"three-arm-trial","trial_index":33,"time_elapsed":1141829,"internal_node_id":"0.0-29.0-0.0","task_version":"screening-prolific","missing":false,"accuracy":0},{"contexts":["green","blue","red"],"outcomes":[1,1,0],"key":39,"choice":2,"rt":274.6000000042841,"outcome":0,"trial":24,"correct":1,"trial_type":"three-arm-trial","trial_index":34,"time_elapsed":1143306,"internal_node_id":"0.0-30.0-0.0","task_version":"screening-prolific","missing":false,"accuracy":0},{"contexts":["green","blue","red"],"outcomes":[0,0,0],"key":39,"choice":2,"rt":2359.515000018291,"outcome":0,"trial":25,"correct":1,"trial_type":"three-arm-trial","trial_index":35,"time_elapsed":1146869,"internal_node_id":"0.0-31.0-0.0","task_version":"screening-prolific","missing":false,"accuracy":0},{"contexts":["green","blue","red"],"outcomes":[0,1,0],"key":38,"choice":1,"rt":5423.185000021476,"outcome":1,"trial":26,"correct":1,"trial_type":"three-arm-trial","trial_index":36,"time_elapsed":1153494,"internal_node_id":"0.0-32.0-0.0","task_version":"screening-prolific","missing":false,"accuracy":1},{"contexts":["green","blue","red"],"outcomes":[0,1,1],"key":37,"choice":0,"rt":4572.675000003073,"outcome":0,"trial":27,"correct":1,"trial_type":"three-arm-trial","trial_index":37,"time_elapsed":1159271,"internal_node_id":"0.0-33.0-0.0","task_version":"screening-prolific","missing":false,"accuracy":0},{"contexts":["green","blue","red"],"outcomes":[0,0,0],"key":38,"choice":1,"rt":6068.039999983739,"outcome":0,"trial":28,"correct":1,"trial_type":"three-arm-trial","trial_index":38,"time_elapsed":1166542,"internal_node_id":"0.0-34.0-0.0","task_version":"screening-prolific","missing":false,"accuracy":1},{"contexts":["green","blue","red"],"outcomes":[0,1,0],"key":37,"choice":0,"rt":6405.589999980293,"outcome":0,"trial":29,"correct":1,"trial_type":"three-arm-trial","trial_index":39,"time_elapsed":1174150,"internal_node_id":"0.0-35.0-0.0","task_version":"screening-prolific","missing":false,"accuracy":0},{"contexts":["green","blue","red"],"outcomes":[1,1,0],"key":38,"choice":1,"rt":3986.994999984745,"outcome":1,"trial":30,"correct":1,"trial_type":"three-arm-trial","trial_index":40,"time_elapsed":1179340,"internal_node_id":"0.0-36.0-0.0","task_version":"screening-prolific","missing":false,"accuracy":1},{"contexts":["green","blue","red"],"outcomes":[1,0,0],"key":38,"choice":1,"rt":3299.3600000045262,"outcome":0,"trial":31,"correct":0,"trial_type":"three-arm-trial","trial_index":41,"time_elapsed":1183842,"internal_node_id":"0.0-37.0-0.0","task_version":"screening-prolific","missing":false,"accuracy":0},{"contexts":["green","blue","red"],"outcomes":[1,0,0],"key":39,"choice":2,"rt":2257.210000010673,"outcome":0,"trial":32,"correct":0,"trial_type":"three-arm-trial","trial_index":42,"time_elapsed":1187302,"internal_node_id":"0.0-38.0-0.0","task_version":"screening-prolific","missing":false,"accuracy":0},{"contexts":["green","blue","red"],"outcomes":[0,0,1],"key":39,"choice":2,"rt":2193.4750000364147,"outcome":1,"trial":33,"correct":0,"trial_type":"three-arm-trial","trial_index":43,"time_elapsed":1190698,"internal_node_id":"0.0-39.0-0.0","task_version":"screening-prolific","missing":false,"accuracy":0},{"contexts":["green","blue","red"],"outcomes":[0,0,1],"key":37,"choice":0,"rt":2014.8550000158139,"outcome":0,"trial":34,"correct":0,"trial_type":"three-arm-trial","trial_index":44,"time_elapsed":1193917,"internal_node_id":"0.0-40.0-0.0","task_version":"screening-prolific","missing":false,"accuracy":1},{"contexts":["green","blue","red"],"outcomes":[1,1,0],"key":37,"choice":0,"rt":1997.4550000042655,"outcome":1,"trial":35,"correct":0,"trial_type":"three-arm-trial","trial_index":45,"time_elapsed":1197117,"internal_node_id":"0.0-41.0-0.0","task_version":"screening-prolific","missing":false,"accuracy":1},{"contexts":["green","blue","red"],"outcomes":[1,0,0],"key":38,"choice":1,"rt":2841.389999957755,"outcome":0,"trial":36,"correct":0,"trial_type":"three-arm-trial","trial_index":46,"time_elapsed":1201163,"internal_node_id":"0.0-42.0-0.0","task_version":"screening-prolific","missing":false,"accuracy":0},{"contexts":["green","blue","red"],"outcomes":[1,0,0],"key":38,"choice":1,"rt":1690.7800000044517,"outcome":0,"trial":37,"correct":0,"trial_type":"three-arm-trial","trial_index":47,"time_elapsed":1204056,"internal_node_id":"0.0-43.0-0.0","task_version":"screening-prolific","missing":false,"accuracy":0},{"contexts":["green","blue","red"],"outcomes":[0,0,0],"key":39,"choice":2,"rt":1932.744999998249,"outcome":0,"trial":38,"correct":0,"trial_type":"three-arm-trial","trial_index":48,"time_elapsed":1207191,"internal_node_id":"0.0-44.0-0.0","task_version":"screening-prolific","missing":false,"accuracy":0},{"contexts":["green","blue","red"],"outcomes":[0,1,0],"key":38,"choice":1,"rt":1769.2650000099093,"outcome":1,"trial":39,"correct":0,"trial_type":"three-arm-trial","trial_index":49,"time_elapsed":1210164,"internal_node_id":"0.0-45.0-0.0","task_version":"screening-prolific","missing":false,"accuracy":0},{"contexts":["green","blue","red"],"outcomes":[1,0,0],"key":39,"choice":2,"rt":2151.9700000062585,"outcome":0,"trial":40,"correct":0,"trial_type":"three-arm-trial","trial_index":50,"time_elapsed":1213519,"internal_node_id":"0.0-46.0-0.0","task_version":"screening-prolific","missing":false,"accuracy":0},{"contexts":["green","blue","red"],"outcomes":[1,1,0],"key":39,"choice":2,"rt":1491.3999999989755,"outcome":0,"trial":41,"correct":0,"trial_type":"three-arm-trial","trial_index":51,"time_elapsed":1216213,"internal_node_id":"0.0-47.0-0.0","task_version":"screening-prolific","missing":false,"accuracy":0},{"contexts":["green","blue","red"],"outcomes":[1,1,0],"key":39,"choice":2,"rt":2181.3250000122935,"outcome":0,"trial":42,"correct":0,"trial_type":"three-arm-trial","trial_index":52,"time_elapsed":1219598,"internal_node_id":"0.0-48.0-0.0","task_version":"screening-prolific","missing":false,"accuracy":0},{"contexts":["green","blue","red"],"outcomes":[1,0,0],"key":38,"choice":1,"rt":1678.6399999982677,"outcome":0,"trial":43,"correct":0,"trial_type":"three-arm-trial","trial_index":53,"time_elapsed":1222479,"internal_node_id":"0.0-49.0-0.0","task_version":"screening-prolific","missing":false,"accuracy":0},{"contexts":["green","blue","red"],"outcomes":[1,0,0],"key":39,"choice":2,"rt":2486.124999995809,"outcome":0,"trial":44,"correct":0,"trial_type":"three-arm-trial","trial_index":54,"time_elapsed":1226167,"internal_node_id":"0.0-50.0-0.0","task_version":"screening-prolific","missing":false,"accuracy":0},{"contexts":["green","blue","red"],"outcomes":[0,0,0],"key":37,"choice":0,"rt":3303.925000014715,"outcome":0,"trial":45,"correct":0,"trial_type":"three-arm-trial","trial_index":55,"time_elapsed":1230674,"internal_node_id":"0.0-51.0-0.0","task_version":"screening-prolific","missing":false,"accuracy":1},{"contexts":["green","blue","red"],"outcomes":[0,0,0],"key":38,"choice":1,"rt":3588.4599999990314,"outcome":0,"trial":46,"correct":2,"trial_type":"three-arm-trial","trial_index":56,"time_elapsed":1235465,"internal_node_id":"0.0-52.0-0.0","task_version":"screening-prolific","missing":false,"accuracy":0},{"contexts":["green","blue","red"],"outcomes":[0,0,1],"key":38,"choice":1,"rt":2964.9699999717996,"outcome":0,"trial":47,"correct":2,"trial_type":"three-arm-trial","trial_index":57,"time_elapsed":1239634,"internal_node_id":"0.0-53.0-0.0","task_version":"screening-prolific","missing":false,"accuracy":0},{"contexts":["green","blue","red"],"outcomes":[0,0,1],"key":38,"choice":1,"rt":2955.3500000038184,"outcome":0,"trial":48,"correct":2,"trial_type":"three-arm-trial","trial_index":58,"time_elapsed":1243792,"internal_node_id":"0.0-54.0-0.0","task_version":"screening-prolific","missing":false,"accuracy":0},{"contexts":["green","blue","red"],"outcomes":[0,0,1],"key":39,"choice":2,"rt":4547.6699999999255,"outcome":1,"trial":49,"correct":2,"trial_type":"three-arm-trial","trial_index":59,"time_elapsed":1249544,"internal_node_id":"0.0-55.0-0.0","task_version":"screening-prolific","missing":false,"accuracy":1},{"contexts":["green","blue","red"],"outcomes":[0,1,1],"key":39,"choice":2,"rt":1995.244999998249,"outcome":1,"trial":50,"correct":2,"trial_type":"three-arm-trial","trial_index":60,"time_elapsed":1252741,"internal_node_id":"0.0-56.0-0.0","task_version":"screening-prolific","missing":false,"accuracy":1},{"contexts":["green","blue","red"],"outcomes":[0,0,1],"key":37,"choice":0,"rt":2288.524999981746,"outcome":0,"trial":51,"correct":2,"trial_type":"three-arm-trial","trial_index":61,"time_elapsed":1256233,"internal_node_id":"0.0-57.0-0.0","task_version":"screening-prolific","missing":false,"accuracy":0},{"contexts":["green","blue","red"],"outcomes":[0,1,1],"key":39,"choice":2,"rt":1383.8099999702536,"outcome":1,"trial":52,"correct":2,"trial_type":"three-arm-trial","trial_index":62,"time_elapsed":1258819,"internal_node_id":"0.0-58.0-0.0","task_version":"screening-prolific","missing":false,"accuracy":1},{"contexts":["green","blue","red"],"outcomes":[0,0,1],"key":39,"choice":2,"rt":2126.1199999717064,"outcome":1,"trial":53,"correct":2,"trial_type":"three-arm-trial","trial_index":63,"time_elapsed":1262149,"internal_node_id":"0.0-59.0-0.0","task_version":"screening-prolific","missing":false,"accuracy":1},{"contexts":["green","blue","red"],"outcomes":[0,1,1],"key":39,"choice":2,"rt":2159.719999996014,"outcome":1,"trial":54,"correct":2,"trial_type":"three-arm-trial","trial_index":64,"time_elapsed":1265511,"internal_node_id":"0.0-60.0-0.0","task_version":"screening-prolific","missing":false,"accuracy":1},{"contexts":["green","blue","red"],"outcomes":[0,0,1],"key":39,"choice":2,"rt":2140.644999977667,"outcome":1,"trial":55,"correct":2,"trial_type":"three-arm-trial","trial_index":65,"time_elapsed":1268855,"internal_node_id":"0.0-61.0-0.0","task_version":"screening-prolific","missing":false,"accuracy":1},{"contexts":["green","blue","red"],"outcomes":[0,0,1],"key":39,"choice":2,"rt":2026.1499999905936,"outcome":1,"trial":56,"correct":2,"trial_type":"three-arm-trial","trial_index":66,"time_elapsed":1272085,"internal_node_id":"0.0-62.0-0.0","task_version":"screening-prolific","missing":false,"accuracy":1},{"contexts":["green","blue","red"],"outcomes":[0,1,0],"key":39,"choice":2,"rt":2282.3150000185706,"outcome":0,"trial":57,"correct":2,"trial_type":"three-arm-trial","trial_index":67,"time_elapsed":1275572,"internal_node_id":"0.0-63.0-0.0","task_version":"screening-prolific","missing":false,"accuracy":1},{"contexts":["green","blue","red"],"outcomes":[0,0,1],"key":37,"choice":0,"rt":1654.4099999591708,"outcome":0,"trial":58,"correct":2,"trial_type":"three-arm-trial","trial_index":68,"time_elapsed":1278428,"internal_node_id":"0.0-64.0-0.0","task_version":"screening-prolific","missing":false,"accuracy":0},{"contexts":["green","blue","red"],"outcomes":[0,0,0],"key":38,"choice":1,"rt":1830.660000036005,"outcome":0,"trial":59,"correct":2,"trial_type":"three-arm-trial","trial_index":69,"time_elapsed":1281463,"internal_node_id":"0.0-65.0-0.0","task_version":"screening-prolific","missing":false,"accuracy":0},{"contexts":["green","blue","red"],"outcomes":[0,0,1],"key":37,"choice":0,"rt":1858.8549999985844,"outcome":0,"trial":60,"correct":2,"trial_type":"three-arm-trial","trial_index":70,"time_elapsed":1284524,"internal_node_id":"0.0-66.0-0.0","task_version":"screening-prolific","missing":false,"accuracy":0},{"contexts":["green","blue","red"],"outcomes":[1,1,0],"key":39,"choice":2,"rt":1482.7299999888055,"outcome":0,"trial":61,"correct":1,"trial_type":"three-arm-trial","trial_index":71,"time_elapsed":1287209,"internal_node_id":"0.0-67.0-0.0","task_version":"screening-prolific","missing":false,"accuracy":0},{"contexts":["green","blue","red"],"outcomes":[0,1,0],"key":39,"choice":2,"rt":1393.274999980349,"outcome":0,"trial":62,"correct":1,"trial_type":"three-arm-trial","trial_index":72,"time_elapsed":1289806,"internal_node_id":"0.0-68.0-0.0","task_version":"screening-prolific","missing":false,"accuracy":0},{"contexts":["green","blue","red"],"outcomes":[0,1,0],"key":38,"choice":1,"rt":1673.899999994319,"outcome":1,"trial":63,"correct":1,"trial_type":"three-arm-trial","trial_index":73,"time_elapsed":1292683,"internal_node_id":"0.0-69.0-0.0","task_version":"screening-prolific","missing":false,"accuracy":1},{"contexts":["green","blue","red"],"outcomes":[0,1,0],"key":38,"choice":1,"rt":1541.1400000448339,"outcome":1,"trial":64,"correct":1,"trial_type":"three-arm-trial","trial_index":74,"time_elapsed":1295427,"internal_node_id":"0.0-70.0-0.0","task_version":"screening-prolific","missing":false,"accuracy":1},{"contexts":["green","blue","red"],"outcomes":[0,1,1],"key":38,"choice":1,"rt":1703.8750000065193,"outcome":1,"trial":65,"correct":1,"trial_type":"three-arm-trial","trial_index":75,"time_elapsed":1298334,"internal_node_id":"0.0-71.0-0.0","task_version":"screening-prolific","missing":false,"accuracy":1},{"contexts":["green","blue","red"],"outcomes":[0,1,0],"key":38,"choice":1,"rt":1453.3899999805726,"outcome":1,"trial":66,"correct":1,"trial_type":"three-arm-trial","trial_index":76,"time_elapsed":1300990,"internal_node_id":"0.0-72.0-0.0","task_version":"screening-prolific","missing":false,"accuracy":1},{"contexts":["green","blue","red"],"outcomes":[1,0,1],"key":38,"choice":1,"rt":1714.4100000150502,"outcome":0,"trial":67,"correct":1,"trial_type":"three-arm-trial","trial_index":77,"time_elapsed":1303907,"internal_node_id":"0.0-73.0-0.0","task_version":"screening-prolific","missing":false,"accuracy":1},{"contexts":["green","blue","red"],"outcomes":[0,1,0],"key":37,"choice":0,"rt":987.34999995213,"outcome":0,"trial":68,"correct":1,"trial_type":"three-arm-trial","trial_index":78,"time_elapsed":1306097,"internal_node_id":"0.0-74.0-0.0","task_version":"screening-prolific","missing":false,"accuracy":0},{"contexts":["green","blue","red"],"outcomes":[0,1,0],"key":37,"choice":0,"rt":902.0950000267476,"outcome":0,"trial":69,"correct":1,"trial_type":"three-arm-trial","trial_index":79,"time_elapsed":1308203,"internal_node_id":"0.0-75.0-0.0","task_version":"screening-prolific","missing":false,"accuracy":0},{"contexts":["green","blue","red"],"outcomes":[0,1,1],"key":39,"choice":2,"rt":869.4949999917299,"outcome":1,"trial":70,"correct":1,"trial_type":"three-arm-trial","trial_index":80,"time_elapsed":1310274,"internal_node_id":"0.0-76.0-0.0","task_version":"screening-prolific","missing":false,"accuracy":0},{"contexts":["green","blue","red"],"outcomes":[0,1,0],"key":39,"choice":2,"rt":709.4149999902584,"outcome":0,"trial":71,"correct":1,"trial_type":"three-arm-trial","trial_index":81,"time_elapsed":1312188,"internal_node_id":"0.0-77.0-0.0","task_version":"screening-prolific","missing":false,"accuracy":0},{"contexts":["green","blue","red"],"outcomes":[0,1,0],"key":37,"choice":0,"rt":821.0050000343472,"outcome":0,"trial":72,"correct":1,"trial_type":"three-arm-trial","trial_index":82,"time_elapsed":1314212,"internal_node_id":"0.0-78.0-0.0","task_version":"screening-prolific","missing":false,"accuracy":0},{"contexts":["green","blue","red"],"outcomes":[1,1,0],"key":38,"choice":1,"rt":711.9350000284612,"outcome":1,"trial":73,"correct":1,"trial_type":"three-arm-trial","trial_index":83,"time_elapsed":1316127,"internal_node_id":"0.0-79.0-0.0","task_version":"screening-prolific","missing":false,"accuracy":1},{"contexts":["green","blue","red"],"outcomes":[0,1,0],"key":38,"choice":1,"rt":804.0949999704026,"outcome":1,"trial":74,"correct":1,"trial_type":"three-arm-trial","trial_index":84,"time_elapsed":1318134,"internal_node_id":"0.0-80.0-0.0","task_version":"screening-prolific","missing":false,"accuracy":1},{"contexts":["green","blue","red"],"outcomes":[0,1,1],"key":39,"choice":2,"rt":674.460000009276,"outcome":1,"trial":75,"correct":1,"trial_type":"three-arm-trial","trial_index":85,"time_elapsed":1320011,"internal_node_id":"0.0-81.0-0.0","task_version":"screening-prolific","missing":false,"accuracy":0},{"contexts":["green","blue","red"],"outcomes":[1,0,1],"key":38,"choice":1,"rt":1462.0149999973364,"outcome":0,"trial":76,"correct":0,"trial_type":"three-arm-trial","trial_index":86,"time_elapsed":1322675,"internal_node_id":"0.0-82.0-0.0","task_version":"screening-prolific","missing":false,"accuracy":0},{"contexts":["green","blue","red"],"outcomes":[1,0,0],"key":39,"choice":2,"rt":793.6299999710172,"outcome":0,"trial":77,"correct":0,"trial_type":"three-arm-trial","trial_index":87,"time_elapsed":1324674,"internal_node_id":"0.0-83.0-0.0","task_version":"screening-prolific","missing":false,"accuracy":0},{"contexts":["green","blue","red"],"outcomes":[1,0,0],"key":39,"choice":2,"rt":1664.1599999857135,"outcome":0,"trial":78,"correct":0,"trial_type":"three-arm-trial","trial_index":88,"time_elapsed":1327541,"internal_node_id":"0.0-84.0-0.0","task_version":"screening-prolific","missing":false,"accuracy":0},{"contexts":["green","blue","red"],"outcomes":[1,0,1],"key":39,"choice":2,"rt":1574.0500000538304,"outcome":1,"trial":79,"correct":0,"trial_type":"three-arm-trial","trial_index":89,"time_elapsed":1330318,"internal_node_id":"0.0-85.0-0.0","task_version":"screening-prolific","missing":false,"accuracy":0},{"contexts":["green","blue","red"],"outcomes":[1,1,0],"key":39,"choice":2,"rt":1113.3000000263564,"outcome":0,"trial":80,"correct":0,"trial_type":"three-arm-trial","trial_index":90,"time_elapsed":1332636,"internal_node_id":"0.0-86.0-0.0","task_version":"screening-prolific","missing":false,"accuracy":0},{"contexts":["green","blue","red"],"outcomes":[1,0,0],"key":38,"choice":1,"rt":382.3600000469014,"outcome":0,"trial":81,"correct":0,"trial_type":"three-arm-trial","trial_index":91,"time_elapsed":1334221,"internal_node_id":"0.0-87.0-0.0","task_version":"screening-prolific","missing":false,"accuracy":0},{"contexts":["green","blue","red"],"outcomes":[1,1,0],"key":37,"choice":0,"rt":1252.0200000144541,"outcome":1,"trial":82,"correct":0,"trial_type":"three-arm-trial","trial_index":92,"time_elapsed":1336676,"internal_node_id":"0.0-88.0-0.0","task_version":"screening-prolific","missing":false,"accuracy":1},{"contexts":["green","blue","red"],"outcomes":[0,1,0],"key":37,"choice":0,"rt":748.3249999932013,"outcome":0,"trial":83,"correct":0,"trial_type":"three-arm-trial","trial_index":93,"time_elapsed":1338628,"internal_node_id":"0.0-89.0-0.0","task_version":"screening-prolific","missing":false,"accuracy":1},{"contexts":["green","blue","red"],"outcomes":[1,1,1],"key":38,"choice":1,"rt":600.5950000253506,"outcome":1,"trial":84,"correct":0,"trial_type":"three-arm-trial","trial_index":94,"time_elapsed":1340431,"internal_node_id":"0.0-90.0-0.0","task_version":"screening-prolific","missing":false,"accuracy":0},{"contexts":["green","blue","red"],"outcomes":[1,0,0],"key":38,"choice":1,"rt":791.800000006333,"outcome":0,"trial":85,"correct":0,"trial_type":"three-arm-trial","trial_index":95,"time_elapsed":1342428,"internal_node_id":"0.0-91.0-0.0","task_version":"screening-prolific","missing":false,"accuracy":0},{"contexts":["green","blue","red"],"outcomes":[1,0,0],"key":39,"choice":2,"rt":2205.2549999789335,"outcome":0,"trial":86,"correct":0,"trial_type":"three-arm-trial","trial_index":96,"time_elapsed":1345836,"internal_node_id":"0.0-92.0-0.0","task_version":"screening-prolific","missing":false,"accuracy":0},{"contexts":["green","blue","red"],"outcomes":[0,0,0],"key":38,"choice":1,"rt":1990.9049999550916,"outcome":0,"trial":87,"correct":0,"trial_type":"three-arm-trial","trial_index":97,"time_elapsed":1349030,"internal_node_id":"0.0-93.0-0.0","task_version":"screening-prolific","missing":false,"accuracy":0},{"contexts":["green","blue","red"],"outcomes":[0,0,1],"key":39,"choice":2,"rt":2298.9599999855272,"outcome":1,"trial":88,"correct":0,"trial_type":"three-arm-trial","trial_index":98,"time_elapsed":1352531,"internal_node_id":"0.0-94.0-0.0","task_version":"screening-prolific","missing":false,"accuracy":0},{"contexts":["green","blue","red"],"outcomes":[1,0,0],"key":39,"choice":2,"rt":1061.5949999773875,"outcome":0,"trial":89,"correct":0,"trial_type":"three-arm-trial","trial_index":99,"time_elapsed":1354795,"internal_node_id":"0.0-95.0-0.0","task_version":"screening-prolific","missing":false,"accuracy":0},{"contexts":["green","blue","red"],"outcomes":[1,0,1],"key":38,"choice":1,"rt":369.04499999945983,"outcome":0,"trial":90,"correct":0,"trial_type":"three-arm-trial","trial_index":100,"time_elapsed":1356367,"internal_node_id":"0.0-96.0-0.0","task_version":"screening-prolific","missing":false,"accuracy":0},{"rt":20137.380000029225,"responses":{"age":"30","gender-categorical":"Male","gender-free-response":"","ethnicity":"Not Hispanic or Latino","race":["White"],"language":"Yes","fluency":"Very well","mturk":"No","mturk-this-study":"No"},"survey":"demographics","trial_type":"survey-demo","trial_index":101,"time_elapsed":1376510,"internal_node_id":"0.0-97.0","task_version":"screening-prolific","interactions":"[{\"event\":\"blur\",\"trial\":3,\"time\":418249},{\"event\":\"focus\",\"trial\":3,\"time\":421869},{\"event\":\"blur\",\"trial\":3,\"time\":422947},{\"event\":\"focus\",\"trial\":3,\"time\":424405},{\"event\":\"blur\",\"trial\":4,\"time\":776140},{\"event\":\"focus\",\"trial\":4,\"time\":778207},{\"event\":\"blur\",\"trial\":4,\"time\":830917},{\"event\":\"focus\",\"trial\":4,\"time\":836123}]"}]