[{"responses":{"Q01":"0","Q02":"0","Q03":"0"},"rt":43454.28999999967,"survey":"pswq","trial_type":"survey-template","trial_index":0,"time_elapsed":43473,"internal_node_id":"0.0-0.0","task_version":"screening-prolific"},{"responses":{"Q03":"1","Q01":"2","Q05":"3","Q13":"3","Q12":"3","Q06":"3","Q08":"2","Q04":"1","Q02":"1","Q07":"3","Q11":"2","Q10":"3","Q09":"3"},"rt":169099.89999999927,"survey":"bisbas","trial_type":"survey-template","trial_index":1,"time_elapsed":212587,"internal_node_id":"0.0-1.0","task_version":"screening-prolific"},{"responses":{"Q01":"2","Q10":"1","Q04":"2","Q05":"1","Q15":"0","Q08":"1","Q06":"1","Q03":"0","Q14":"0","Q11":"0","Q12":"1","Q02":"0","Q09":"0","Q07":"1","Q13":"0"},"rt":248760.33500000084,"survey":"7up7down","trial_type":"survey-template","trial_index":2,"time_elapsed":461361,"internal_node_id":"0.0-2.0","task_version":"screening-prolific"},{"responses":{"Q04":"0","Q03":"0","Q07":"0","Q01":"1","Q02":"0","Q06":"1","Q05":"0","Q08":"0"},"rt":51137.480000001204,"survey":"gad7","trial_type":"survey-template","trial_index":3,"time_elapsed":512506,"internal_node_id":"0.0-3.0","task_version":"screening-prolific"},{"responses":{"Q02":"3","Q14":"2","Q01":"3","Q11":"2","Q09":"3","Q08":"2","Q03":"3","Q06":"1","Q07":"2","Q04":"3","Q10":"3","Q05":"3","Q15":"3","Q12":"2","Q13":"2"},"rt":131552.46000000084,"survey":"shaps","trial_type":"survey-template","trial_index":4,"time_elapsed":644072,"internal_node_id":"0.0-4.0","task_version":"screening-prolific"},{"view_history":"[{\"page_index\":0,\"viewing_time\":15264.09000000055},{\"page_index\":1,\"viewing_time\":20707.589999999967},{\"page_index\":2,\"viewing_time\":14909.359999999637},{\"page_index\":3,\"viewing_time\":10341.065000000526},{\"page_index\":4,\"viewing_time\":22305.43500000029},{\"page_index\":5,\"viewing_time\":5800.8599999992875},{\"page_index\":6,\"viewing_time\":9750.364999999874},{\"page_index\":7,\"viewing_time\":15406.324999999953}]","rt":114485.48500000103,"trial_type":"instructions","trial_index":5,"time_elapsed":758566,"internal_node_id":"0.0-5.0-0.0","task_version":"screening-prolific"},{"responses":["True","True","False","True","True"],"num_errors":1,"rt":61124.26500000036,"trial_type":"three-arm-comprehension","trial_index":6,"time_elapsed":819697,"internal_node_id":"0.0-5.0-1.0","task_version":"screening-prolific"},{"view_history":"[{\"page_index\":0,\"viewing_time\":9708.599999999977},{\"page_index\":1,\"viewing_time\":17315.02000000002},{\"page_index\":2,\"viewing_time\":15063.985000000685},{\"page_index\":3,\"viewing_time\":15158.144999999437},{\"page_index\":4,\"viewing_time\":20277.125000000466},{\"page_index\":5,\"viewing_time\":26279.02499999979},{\"page_index\":6,\"viewing_time\":4152.710000000312},{\"page_index\":7,\"viewing_time\":3177.859999999753}]","rt":111132.995,"trial_type":"instructions","trial_index":7,"time_elapsed":930841,"internal_node_id":"0.0-5.1-0.1","task_version":"screening-prolific"},{"responses":["True","True","False","False","False"],"num_errors":1,"rt":43625.61500000092,"trial_type":"three-arm-comprehension","trial_index":8,"time_elapsed":974471,"internal_node_id":"0.0-5.1-1.1","task_version":"screening-prolific"},{"view_history":"[{\"page_index\":0,\"viewing_time\":2644.5800000000745},{\"page_index\":1,\"viewing_time\":1025.0900000010151},{\"page_index\":2,\"viewing_time\":488.7899999994552},{\"page_index\":3,\"viewing_time\":308.3100000002887},{\"page_index\":4,\"viewing_time\":497.0199999989709},{\"page_index\":5,\"viewing_time\":448.04500000097323},{\"page_index\":6,\"viewing_time\":472.91000000038184},{\"page_index\":7,\"viewing_time\":488.3299999983283}]","rt":6373.410000000149,"trial_type":"instructions","trial_index":9,"time_elapsed":980851,"internal_node_id":"0.0-5.2-0.2","task_version":"screening-prolific"},{"responses":["True","True","False","False","True"],"num_errors":0,"rt":6807.355000000796,"trial_type":"three-arm-comprehension","trial_index":10,"time_elapsed":987665,"internal_node_id":"0.0-5.2-1.2","task_version":"screening-prolific"},{"view_history":"[{\"page_index\":0,\"viewing_time\":6120.150000000722}]","rt":6120.370000000577,"trial_type":"instructions","trial_index":11,"time_elapsed":993796,"internal_node_id":"0.0-6.0","task_version":"screening-prolific"},{"contexts":["blue","red","green"],"outcomes":[1,1,0],"key":38,"choice":1,"rt":1611.1299999993062,"outcome":1,"trial":1,"correct":0,"trial_type":"three-arm-trial","trial_index":12,"time_elapsed":996615,"internal_node_id":"0.0-7.0-0.0","task_version":"screening-prolific","missing":false,"accuracy":0},{"contexts":["blue","red","green"],"outcomes":[1,0,0],"key":37,"choice":0,"rt":1524.6200000001118,"outcome":1,"trial":2,"correct":0,"trial_type":"three-arm-trial","trial_index":13,"time_elapsed":999353,"internal_node_id":"0.0-8.0-0.0","task_version":"screening-prolific","missing":false,"accuracy":1},{"contexts":["blue","red","green"],"outcomes":[0,0,0],"key":39,"choice":2,"rt":1603.6149999999907,"outcome":0,"trial":3,"correct":0,"trial_type":"three-arm-trial","trial_index":14,"time_elapsed":1002170,"internal_node_id":"0.0-9.0-0.0","task_version":"screening-prolific","missing":false,"accuracy":0},{"contexts":["blue","red","green"],"outcomes":[1,0,0],"key":38,"choice":1,"rt":853.5900000006659,"outcome":0,"trial":4,"correct":0,"trial_type":"three-arm-trial","trial_index":15,"time_elapsed":1004232,"internal_node_id":"0.0-10.0-0.0","task_version":"screening-prolific","missing":false,"accuracy":0},{"contexts":["blue","red","green"],"outcomes":[1,0,0],"key":39,"choice":2,"rt":567.4999999991851,"outcome":0,"trial":5,"correct":0,"trial_type":"three-arm-trial","trial_index":16,"time_elapsed":1006006,"internal_node_id":"0.0-11.0-0.0","task_version":"screening-prolific","missing":false,"accuracy":0},{"contexts":["blue","red","green"],"outcomes":[1,1,0],"key":39,"choice":2,"rt":562.9950000002282,"outcome":0,"trial":6,"correct":0,"trial_type":"three-arm-trial","trial_index":17,"time_elapsed":1007778,"internal_node_id":"0.0-12.0-0.0","task_version":"screening-prolific","missing":false,"accuracy":0},{"contexts":["blue","red","green"],"outcomes":[1,1,1],"key":37,"choice":0,"rt":179.7950000000419,"outcome":1,"trial":7,"correct":0,"trial_type":"three-arm-trial","trial_index":18,"time_elapsed":1009165,"internal_node_id":"0.0-13.0-0.0","task_version":"screening-prolific","missing":false,"accuracy":1},{"contexts":["blue","red","green"],"outcomes":[0,0,1],"key":37,"choice":0,"rt":1226.1049999997485,"outcome":0,"trial":8,"correct":0,"trial_type":"three-arm-trial","trial_index":19,"time_elapsed":1011599,"internal_node_id":"0.0-14.0-0.0","task_version":"screening-prolific","missing":false,"accuracy":1},{"contexts":["blue","red","green"],"outcomes":[1,1,0],"key":38,"choice":1,"rt":360.65000000048894,"outcome":1,"trial":9,"correct":0,"trial_type":"three-arm-trial","trial_index":20,"time_elapsed":1013166,"internal_node_id":"0.0-15.0-0.0","task_version":"screening-prolific","missing":false,"accuracy":0},{"contexts":["blue","red","green"],"outcomes":[1,0,0],"key":37,"choice":0,"rt":1122.499999999418,"outcome":1,"trial":10,"correct":0,"trial_type":"three-arm-trial","trial_index":21,"time_elapsed":1015495,"internal_node_id":"0.0-16.0-0.0","task_version":"screening-prolific","missing":false,"accuracy":1},{"contexts":["blue","red","green"],"outcomes":[1,0,0],"key":39,"choice":2,"rt":402.9850000006845,"outcome":0,"trial":11,"correct":0,"trial_type":"three-arm-trial","trial_index":22,"time_elapsed":1017109,"internal_node_id":"0.0-17.0-0.0","task_version":"screening-prolific","missing":false,"accuracy":0},{"contexts":["blue","red","green"],"outcomes":[0,0,1],"key":38,"choice":1,"rt":130.67000000039116,"outcome":0,"trial":12,"correct":0,"trial_type":"three-arm-trial","trial_index":23,"time_elapsed":1018450,"internal_node_id":"0.0-18.0-0.0","task_version":"screening-prolific","missing":false,"accuracy":0},{"contexts":["blue","red","green"],"outcomes":[0,0,0],"key":37,"choice":0,"rt":202.6000000005588,"outcome":0,"trial":13,"correct":0,"trial_type":"three-arm-trial","trial_index":24,"time_elapsed":1019860,"internal_node_id":"0.0-19.0-0.0","task_version":"screening-prolific","missing":false,"accuracy":1},{"contexts":["blue","red","green"],"outcomes":[1,0,0],"key":39,"choice":2,"rt":281.50499999907333,"outcome":0,"trial":14,"correct":0,"trial_type":"three-arm-trial","trial_index":25,"time_elapsed":1021352,"internal_node_id":"0.0-20.0-0.0","task_version":"screening-prolific","missing":false,"accuracy":0},{"contexts":["blue","red","green"],"outcomes":[1,0,1],"key":37,"choice":0,"rt":362.76499999989755,"outcome":1,"trial":15,"correct":0,"trial_type":"three-arm-trial","trial_index":26,"time_elapsed":1022925,"internal_node_id":"0.0-21.0-0.0","task_version":"screening-prolific","missing":false,"accuracy":1},{"contexts":["blue","red","green"],"outcomes":[0,1,0],"key":38,"choice":1,"rt":1514.6800000001676,"outcome":1,"trial":16,"correct":1,"trial_type":"three-arm-trial","trial_index":27,"time_elapsed":1025649,"internal_node_id":"0.0-22.0-0.0","task_version":"screening-prolific","missing":false,"accuracy":1},{"contexts":["blue","red","green"],"outcomes":[0,1,0],"key":39,"choice":2,"rt":1160.5899999995017,"outcome":0,"trial":17,"correct":1,"trial_type":"three-arm-trial","trial_index":28,"time_elapsed":1028017,"internal_node_id":"0.0-23.0-0.0","task_version":"screening-prolific","missing":false,"accuracy":0},{"contexts":["blue","red","green"],"outcomes":[0,1,0],"key":37,"choice":0,"rt":649.4650000004331,"outcome":0,"trial":18,"correct":1,"trial_type":"three-arm-trial","trial_index":29,"time_elapsed":1029876,"internal_node_id":"0.0-24.0-0.0","task_version":"screening-prolific","missing":false,"accuracy":0},{"contexts":["blue","red","green"],"outcomes":[0,1,0],"key":39,"choice":2,"rt":458.3149999998277,"outcome":0,"trial":19,"correct":1,"trial_type":"three-arm-trial","trial_index":30,"time_elapsed":1031545,"internal_node_id":"0.0-25.0-0.0","task_version":"screening-prolific","missing":false,"accuracy":0},{"contexts":["blue","red","green"],"outcomes":[1,1,0],"key":38,"choice":1,"rt":286.75499999918975,"outcome":1,"trial":20,"correct":1,"trial_type":"three-arm-trial","trial_index":31,"time_elapsed":1033044,"internal_node_id":"0.0-26.0-0.0","task_version":"screening-prolific","missing":false,"accuracy":1},{"contexts":["blue","red","green"],"outcomes":[1,1,0],"key":37,"choice":0,"rt":632.884999999078,"outcome":1,"trial":21,"correct":1,"trial_type":"three-arm-trial","trial_index":32,"time_elapsed":1034887,"internal_node_id":"0.0-27.0-0.0","task_version":"screening-prolific","missing":false,"accuracy":0},{"contexts":["blue","red","green"],"outcomes":[1,1,0],"key":39,"choice":2,"rt":1026.3699999995297,"outcome":0,"trial":22,"correct":1,"trial_type":"three-arm-trial","trial_index":33,"time_elapsed":1037120,"internal_node_id":"0.0-28.0-0.0","task_version":"screening-prolific","missing":false,"accuracy":0},{"contexts":["blue","red","green"],"outcomes":[1,1,0],"key":38,"choice":1,"rt":344.9049999999115,"outcome":1,"trial":23,"correct":1,"trial_type":"three-arm-trial","trial_index":34,"time_elapsed":1038676,"internal_node_id":"0.0-29.0-0.0","task_version":"screening-prolific","missing":false,"accuracy":1},{"contexts":["blue","red","green"],"outcomes":[0,0,0],"key":37,"choice":0,"rt":502.51000000024214,"outcome":0,"trial":24,"correct":1,"trial_type":"three-arm-trial","trial_index":35,"time_elapsed":1040387,"internal_node_id":"0.0-30.0-0.0","task_version":"screening-prolific","missing":false,"accuracy":0},{"contexts":["blue","red","green"],"outcomes":[0,1,1],"key":38,"choice":1,"rt":333.63500000094064,"outcome":1,"trial":25,"correct":1,"trial_type":"three-arm-trial","trial_index":36,"time_elapsed":1041930,"internal_node_id":"0.0-31.0-0.0","task_version":"screening-prolific","missing":false,"accuracy":1},{"contexts":["blue","red","green"],"outcomes":[1,1,0],"key":39,"choice":2,"rt":481.8549999999814,"outcome":0,"trial":26,"correct":1,"trial_type":"three-arm-trial","trial_index":37,"time_elapsed":1043622,"internal_node_id":"0.0-32.0-0.0","task_version":"screening-prolific","missing":false,"accuracy":0},{"contexts":["blue","red","green"],"outcomes":[0,1,0],"key":37,"choice":0,"rt":334.1550000004936,"outcome":0,"trial":27,"correct":1,"trial_type":"three-arm-trial","trial_index":38,"time_elapsed":1045164,"internal_node_id":"0.0-33.0-0.0","task_version":"screening-prolific","missing":false,"accuracy":0},{"contexts":["blue","red","green"],"outcomes":[0,0,1],"key":38,"choice":1,"rt":73.77500000072177,"outcome":0,"trial":28,"correct":1,"trial_type":"three-arm-trial","trial_index":39,"time_elapsed":1046447,"internal_node_id":"0.0-34.0-0.0","task_version":"screening-prolific","missing":false,"accuracy":1},{"contexts":["blue","red","green"],"outcomes":[0,1,0],"key":39,"choice":2,"rt":467.49999999871943,"outcome":0,"trial":29,"correct":1,"trial_type":"three-arm-trial","trial_index":40,"time_elapsed":1048124,"internal_node_id":"0.0-35.0-0.0","task_version":"screening-prolific","missing":false,"accuracy":0},{"contexts":["blue","red","green"],"outcomes":[0,1,0],"key":39,"choice":2,"rt":315.4400000004098,"outcome":0,"trial":30,"correct":1,"trial_type":"three-arm-trial","trial_index":41,"time_elapsed":1049648,"internal_node_id":"0.0-36.0-0.0","task_version":"screening-prolific","missing":false,"accuracy":0},{"contexts":["blue","red","green"],"outcomes":[1,0,0],"key":37,"choice":0,"rt":331.4499999997206,"outcome":1,"trial":31,"correct":0,"trial_type":"three-arm-trial","trial_index":42,"time_elapsed":1051189,"internal_node_id":"0.0-37.0-0.0","task_version":"screening-prolific","missing":false,"accuracy":1},{"contexts":["blue","red","green"],"outcomes":[1,1,0],"key":37,"choice":0,"rt":414.59000000031665,"outcome":1,"trial":32,"correct":0,"trial_type":"three-arm-trial","trial_index":43,"time_elapsed":1052814,"internal_node_id":"0.0-38.0-0.0","task_version":"screening-prolific","missing":false,"accuracy":1},{"contexts":["blue","red","green"],"outcomes":[1,0,0],"key":38,"choice":1,"rt":449.91000000108033,"outcome":0,"trial":33,"correct":0,"trial_type":"three-arm-trial","trial_index":44,"time_elapsed":1054473,"internal_node_id":"0.0-39.0-0.0","task_version":"screening-prolific","missing":false,"accuracy":0},{"contexts":["blue","red","green"],"outcomes":[0,1,0],"key":37,"choice":0,"rt":358.9649999993853,"outcome":0,"trial":34,"correct":0,"trial_type":"three-arm-trial","trial_index":45,"time_elapsed":1056038,"internal_node_id":"0.0-40.0-0.0","task_version":"screening-prolific","missing":false,"accuracy":1},{"contexts":["blue","red","green"],"outcomes":[1,0,0],"key":39,"choice":2,"rt":67.16500000050291,"outcome":0,"trial":35,"correct":0,"trial_type":"three-arm-trial","trial_index":46,"time_elapsed":1057314,"internal_node_id":"0.0-41.0-0.0","task_version":"screening-prolific","missing":false,"accuracy":0},{"contexts":["blue","red","green"],"outcomes":[1,0,0],"key":37,"choice":0,"rt":315.42999999877065,"outcome":1,"trial":36,"correct":0,"trial_type":"three-arm-trial","trial_index":47,"time_elapsed":1058837,"internal_node_id":"0.0-42.0-0.0","task_version":"screening-prolific","missing":false,"accuracy":1},{"contexts":["blue","red","green"],"outcomes":[1,0,0],"key":37,"choice":0,"rt":277.64500000025146,"outcome":1,"trial":37,"correct":0,"trial_type":"three-arm-trial","trial_index":48,"time_elapsed":1060322,"internal_node_id":"0.0-43.0-0.0","task_version":"screening-prolific","missing":false,"accuracy":1},{"contexts":["blue","red","green"],"outcomes":[1,1,0],"key":37,"choice":0,"rt":409.5500000002794,"outcome":1,"trial":38,"correct":0,"trial_type":"three-arm-trial","trial_index":49,"time_elapsed":1061939,"internal_node_id":"0.0-44.0-0.0","task_version":"screening-prolific","missing":false,"accuracy":1},{"contexts":["blue","red","green"],"outcomes":[1,1,0],"key":37,"choice":0,"rt":374.48000000044703,"outcome":1,"trial":39,"correct":0,"trial_type":"three-arm-trial","trial_index":50,"time_elapsed":1063523,"internal_node_id":"0.0-45.0-0.0","task_version":"screening-prolific","missing":false,"accuracy":1},{"contexts":["blue","red","green"],"outcomes":[1,0,0],"key":37,"choice":0,"rt":375.7100000004284,"outcome":1,"trial":40,"correct":0,"trial_type":"three-arm-trial","trial_index":51,"time_elapsed":1065106,"internal_node_id":"0.0-46.0-0.0","task_version":"screening-prolific","missing":false,"accuracy":1},{"contexts":["blue","red","green"],"outcomes":[1,0,0],"key":37,"choice":0,"rt":367.73999999975786,"outcome":1,"trial":41,"correct":0,"trial_type":"three-arm-trial","trial_index":52,"time_elapsed":1066683,"internal_node_id":"0.0-47.0-0.0","task_version":"screening-prolific","missing":false,"accuracy":1},{"contexts":["blue","red","green"],"outcomes":[1,1,0],"key":37,"choice":0,"rt":315.329999999376,"outcome":1,"trial":42,"correct":0,"trial_type":"three-arm-trial","trial_index":53,"time_elapsed":1068206,"internal_node_id":"0.0-48.0-0.0","task_version":"screening-prolific","missing":false,"accuracy":1},{"contexts":["blue","red","green"],"outcomes":[1,0,0],"key":37,"choice":0,"rt":295.5249999994412,"outcome":1,"trial":43,"correct":0,"trial_type":"three-arm-trial","trial_index":54,"time_elapsed":1069709,"internal_node_id":"0.0-49.0-0.0","task_version":"screening-prolific","missing":false,"accuracy":1},{"contexts":["blue","red","green"],"outcomes":[1,0,0],"key":37,"choice":0,"rt":158.10500000044703,"outcome":1,"trial":44,"correct":0,"trial_type":"three-arm-trial","trial_index":55,"time_elapsed":1071074,"internal_node_id":"0.0-50.0-0.0","task_version":"screening-prolific","missing":false,"accuracy":1},{"contexts":["blue","red","green"],"outcomes":[1,0,0],"key":37,"choice":0,"rt":25.260000000474975,"outcome":1,"trial":45,"correct":0,"trial_type":"three-arm-trial","trial_index":56,"time_elapsed":1072306,"internal_node_id":"0.0-51.0-0.0","task_version":"screening-prolific","missing":false,"accuracy":1},{"contexts":["blue","red","green"],"outcomes":[0,0,0],"key":37,"choice":0,"rt":37.76999999885447,"outcome":0,"trial":46,"correct":2,"trial_type":"three-arm-trial","trial_index":57,"time_elapsed":1073550,"internal_node_id":"0.0-52.0-0.0","task_version":"screening-prolific","missing":false,"accuracy":0},{"contexts":["blue","red","green"],"outcomes":[1,0,1],"key":38,"choice":1,"rt":287.51000000024214,"outcome":0,"trial":47,"correct":2,"trial_type":"three-arm-trial","trial_index":58,"time_elapsed":1075047,"internal_node_id":"0.0-53.0-0.0","task_version":"screening-prolific","missing":false,"accuracy":0},{"contexts":["blue","red","green"],"outcomes":[1,0,1],"key":39,"choice":2,"rt":438.7550000010524,"outcome":1,"trial":48,"correct":2,"trial_type":"three-arm-trial","trial_index":59,"time_elapsed":1076695,"internal_node_id":"0.0-54.0-0.0","task_version":"screening-prolific","missing":false,"accuracy":1},{"contexts":["blue","red","green"],"outcomes":[1,0,1],"key":39,"choice":2,"rt":292.3400000000838,"outcome":1,"trial":49,"correct":2,"trial_type":"three-arm-trial","trial_index":60,"time_elapsed":1078196,"internal_node_id":"0.0-55.0-0.0","task_version":"screening-prolific","missing":false,"accuracy":1},{"contexts":["blue","red","green"],"outcomes":[0,0,0],"key":39,"choice":2,"rt":270.6999999990221,"outcome":0,"trial":50,"correct":2,"trial_type":"three-arm-trial","trial_index":61,"time_elapsed":1079676,"internal_node_id":"0.0-56.0-0.0","task_version":"screening-prolific","missing":false,"accuracy":1},{"contexts":["blue","red","green"],"outcomes":[0,0,0],"key":38,"choice":1,"rt":499.20000000018626,"outcome":0,"trial":51,"correct":2,"trial_type":"three-arm-trial","trial_index":62,"time_elapsed":1081384,"internal_node_id":"0.0-57.0-0.0","task_version":"screening-prolific","missing":false,"accuracy":0},{"contexts":["blue","red","green"],"outcomes":[0,1,1],"key":37,"choice":0,"rt":85.55499999970198,"outcome":0,"trial":52,"correct":2,"trial_type":"three-arm-trial","trial_index":63,"time_elapsed":1082681,"internal_node_id":"0.0-58.0-0.0","task_version":"screening-prolific","missing":false,"accuracy":0},{"contexts":["blue","red","green"],"outcomes":[0,0,1],"key":39,"choice":2,"rt":436.740000000922,"outcome":1,"trial":53,"correct":2,"trial_type":"three-arm-trial","trial_index":64,"time_elapsed":1084326,"internal_node_id":"0.0-59.0-0.0","task_version":"screening-prolific","missing":false,"accuracy":1},{"contexts":["blue","red","green"],"outcomes":[0,1,1],"key":39,"choice":2,"rt":232.71999999997206,"outcome":1,"trial":54,"correct":2,"trial_type":"three-arm-trial","trial_index":65,"time_elapsed":1085767,"internal_node_id":"0.0-60.0-0.0","task_version":"screening-prolific","missing":false,"accuracy":1},{"contexts":["blue","red","green"],"outcomes":[0,0,0],"key":39,"choice":2,"rt":315.5850000004284,"outcome":0,"trial":55,"correct":2,"trial_type":"three-arm-trial","trial_index":66,"time_elapsed":1087291,"internal_node_id":"0.0-61.0-0.0","task_version":"screening-prolific","missing":false,"accuracy":1},{"contexts":["blue","red","green"],"outcomes":[0,0,1],"key":37,"choice":0,"rt":378.7799999990966,"outcome":0,"trial":56,"correct":2,"trial_type":"three-arm-trial","trial_index":67,"time_elapsed":1088876,"internal_node_id":"0.0-62.0-0.0","task_version":"screening-prolific","missing":false,"accuracy":0},{"contexts":["blue","red","green"],"outcomes":[0,0,1],"key":39,"choice":2,"rt":166.34999999962747,"outcome":1,"trial":57,"correct":2,"trial_type":"three-arm-trial","trial_index":68,"time_elapsed":1090252,"internal_node_id":"0.0-63.0-0.0","task_version":"screening-prolific","missing":false,"accuracy":1},{"contexts":["blue","red","green"],"outcomes":[0,0,1],"key":39,"choice":2,"rt":83.13499999884516,"outcome":1,"trial":58,"correct":2,"trial_type":"three-arm-trial","trial_index":69,"time_elapsed":1091545,"internal_node_id":"0.0-64.0-0.0","task_version":"screening-prolific","missing":false,"accuracy":1},{"contexts":["blue","red","green"],"outcomes":[0,0,1],"key":39,"choice":2,"rt":42.799999999348074,"outcome":1,"trial":59,"correct":2,"trial_type":"three-arm-trial","trial_index":70,"time_elapsed":1092799,"internal_node_id":"0.0-65.0-0.0","task_version":"screening-prolific","missing":false,"accuracy":1},{"contexts":["blue","red","green"],"outcomes":[0,0,0],"key":39,"choice":2,"rt":351.8100000000559,"outcome":0,"trial":60,"correct":2,"trial_type":"three-arm-trial","trial_index":71,"time_elapsed":1094360,"internal_node_id":"0.0-66.0-0.0","task_version":"screening-prolific","missing":false,"accuracy":1},{"contexts":["blue","red","green"],"outcomes":[0,0,0],"key":39,"choice":2,"rt":184.1549999988638,"outcome":0,"trial":61,"correct":1,"trial_type":"three-arm-trial","trial_index":72,"time_elapsed":1095752,"internal_node_id":"0.0-67.0-0.0","task_version":"screening-prolific","missing":false,"accuracy":0},{"contexts":["blue","red","green"],"outcomes":[0,0,0],"key":38,"choice":1,"rt":511.28000000072643,"outcome":0,"trial":62,"correct":1,"trial_type":"three-arm-trial","trial_index":73,"time_elapsed":1097470,"internal_node_id":"0.0-68.0-0.0","task_version":"screening-prolific","missing":false,"accuracy":1},{"contexts":["blue","red","green"],"outcomes":[0,0,1],"key":39,"choice":2,"rt":67.15500000072643,"outcome":1,"trial":63,"correct":1,"trial_type":"three-arm-trial","trial_index":74,"time_elapsed":1098746,"internal_node_id":"0.0-69.0-0.0","task_version":"screening-prolific","missing":false,"accuracy":0},{"contexts":["blue","red","green"],"outcomes":[0,1,0],"key":39,"choice":2,"rt":10.130000000586733,"outcome":0,"trial":64,"correct":1,"trial_type":"three-arm-trial","trial_index":75,"time_elapsed":1099966,"internal_node_id":"0.0-70.0-0.0","task_version":"screening-prolific","missing":false,"accuracy":0},{"contexts":["blue","red","green"],"outcomes":[0,1,0],"key":37,"choice":0,"rt":399.40000000037253,"outcome":0,"trial":65,"correct":1,"trial_type":"three-arm-trial","trial_index":76,"time_elapsed":1101576,"internal_node_id":"0.0-71.0-0.0","task_version":"screening-prolific","missing":false,"accuracy":0},{"contexts":["blue","red","green"],"outcomes":[0,1,0],"key":39,"choice":2,"rt":347.26499999850057,"outcome":0,"trial":66,"correct":1,"trial_type":"three-arm-trial","trial_index":77,"time_elapsed":1103130,"internal_node_id":"0.0-72.0-0.0","task_version":"screening-prolific","missing":false,"accuracy":0},{"contexts":["blue","red","green"],"outcomes":[0,0,0],"key":38,"choice":1,"rt":150.714999999851,"outcome":0,"trial":67,"correct":1,"trial_type":"three-arm-trial","trial_index":78,"time_elapsed":1104489,"internal_node_id":"0.0-73.0-0.0","task_version":"screening-prolific","missing":false,"accuracy":1},{"contexts":["blue","red","green"],"outcomes":[0,1,0],"key":39,"choice":2,"rt":240.56500000017695,"outcome":0,"trial":68,"correct":1,"trial_type":"three-arm-trial","trial_index":79,"time_elapsed":1105938,"internal_node_id":"0.0-74.0-0.0","task_version":"screening-prolific","missing":false,"accuracy":0},{"contexts":["blue","red","green"],"outcomes":[0,1,0],"key":37,"choice":0,"rt":50.39500000025146,"outcome":0,"trial":69,"correct":1,"trial_type":"three-arm-trial","trial_index":80,"time_elapsed":1107197,"internal_node_id":"0.0-75.0-0.0","task_version":"screening-prolific","missing":false,"accuracy":0},{"contexts":["blue","red","green"],"outcomes":[0,1,0],"key":38,"choice":1,"rt":172.6450000004843,"outcome":1,"trial":70,"correct":1,"trial_type":"three-arm-trial","trial_index":81,"time_elapsed":1108576,"internal_node_id":"0.0-76.0-0.0","task_version":"screening-prolific","missing":false,"accuracy":1},{"contexts":["blue","red","green"],"outcomes":[1,0,0],"key":38,"choice":1,"rt":212.7050000000745,"outcome":0,"trial":71,"correct":1,"trial_type":"three-arm-trial","trial_index":82,"time_elapsed":1109997,"internal_node_id":"0.0-77.0-0.0","task_version":"screening-prolific","missing":false,"accuracy":1},{"contexts":["blue","red","green"],"outcomes":[0,1,0],"key":39,"choice":2,"rt":475.5900000000838,"outcome":0,"trial":72,"correct":1,"trial_type":"three-arm-trial","trial_index":83,"time_elapsed":1111678,"internal_node_id":"0.0-78.0-0.0","task_version":"screening-prolific","missing":false,"accuracy":0},{"contexts":["blue","red","green"],"outcomes":[0,1,0],"key":37,"choice":0,"rt":154.49999999883585,"outcome":0,"trial":73,"correct":1,"trial_type":"three-arm-trial","trial_index":84,"time_elapsed":1113038,"internal_node_id":"0.0-79.0-0.0","task_version":"screening-prolific","missing":false,"accuracy":0},{"contexts":["blue","red","green"],"outcomes":[0,1,0],"key":38,"choice":1,"rt":112.28499999921769,"outcome":1,"trial":74,"correct":1,"trial_type":"three-arm-trial","trial_index":85,"time_elapsed":1114359,"internal_node_id":"0.0-80.0-0.0","task_version":"screening-prolific","missing":false,"accuracy":1},{"contexts":["blue","red","green"],"outcomes":[0,1,0],"key":38,"choice":1,"rt":39.08000000054017,"outcome":1,"trial":75,"correct":1,"trial_type":"three-arm-trial","trial_index":86,"time_elapsed":1115604,"internal_node_id":"0.0-81.0-0.0","task_version":"screening-prolific","missing":false,"accuracy":1},{"contexts":["blue","red","green"],"outcomes":[1,0,1],"key":38,"choice":1,"rt":268.62499999883585,"outcome":0,"trial":76,"correct":2,"trial_type":"three-arm-trial","trial_index":87,"time_elapsed":1117082,"internal_node_id":"0.0-82.0-0.0","task_version":"screening-prolific","missing":false,"accuracy":0},{"contexts":["blue","red","green"],"outcomes":[0,0,1],"key":39,"choice":2,"rt":187.92000000039116,"outcome":1,"trial":77,"correct":2,"trial_type":"three-arm-trial","trial_index":88,"time_elapsed":1118477,"internal_node_id":"0.0-83.0-0.0","task_version":"screening-prolific","missing":false,"accuracy":1},{"contexts":["blue","red","green"],"outcomes":[0,1,1],"key":39,"choice":2,"rt":78.83500000019558,"outcome":1,"trial":78,"correct":2,"trial_type":"three-arm-trial","trial_index":89,"time_elapsed":1119764,"internal_node_id":"0.0-84.0-0.0","task_version":"screening-prolific","missing":false,"accuracy":1},{"contexts":["blue","red","green"],"outcomes":[0,0,1],"key":39,"choice":2,"rt":247.4700000002049,"outcome":1,"trial":79,"correct":2,"trial_type":"three-arm-trial","trial_index":90,"time_elapsed":1121220,"internal_node_id":"0.0-85.0-0.0","task_version":"screening-prolific","missing":false,"accuracy":1},{"contexts":["blue","red","green"],"outcomes":[0,0,1],"key":39,"choice":2,"rt":267.8599999998696,"outcome":1,"trial":80,"correct":2,"trial_type":"three-arm-trial","trial_index":91,"time_elapsed":1122696,"internal_node_id":"0.0-86.0-0.0","task_version":"screening-prolific","missing":false,"accuracy":1},{"contexts":["blue","red","green"],"outcomes":[1,0,1],"key":39,"choice":2,"rt":308.8449999995064,"outcome":1,"trial":81,"correct":2,"trial_type":"three-arm-trial","trial_index":92,"time_elapsed":1124212,"internal_node_id":"0.0-87.0-0.0","task_version":"screening-prolific","missing":false,"accuracy":1},{"contexts":["blue","red","green"],"outcomes":[0,1,1],"key":39,"choice":2,"rt":292.41999999969266,"outcome":1,"trial":82,"correct":2,"trial_type":"three-arm-trial","trial_index":93,"time_elapsed":1125712,"internal_node_id":"0.0-88.0-0.0","task_version":"screening-prolific","missing":false,"accuracy":1},{"contexts":["blue","red","green"],"outcomes":[0,0,1],"key":39,"choice":2,"rt":278.135000000475,"outcome":1,"trial":83,"correct":2,"trial_type":"three-arm-trial","trial_index":94,"time_elapsed":1127196,"internal_node_id":"0.0-89.0-0.0","task_version":"screening-prolific","missing":false,"accuracy":1},{"contexts":["blue","red","green"],"outcomes":[0,0,1],"key":39,"choice":2,"rt":296.96499999961816,"outcome":1,"trial":84,"correct":2,"trial_type":"three-arm-trial","trial_index":95,"time_elapsed":1128702,"internal_node_id":"0.0-90.0-0.0","task_version":"screening-prolific","missing":false,"accuracy":1},{"contexts":["blue","red","green"],"outcomes":[0,0,0],"key":39,"choice":2,"rt":335.080000000773,"outcome":0,"trial":85,"correct":2,"trial_type":"three-arm-trial","trial_index":96,"time_elapsed":1130246,"internal_node_id":"0.0-91.0-0.0","task_version":"screening-prolific","missing":false,"accuracy":1},{"contexts":["blue","red","green"],"outcomes":[0,0,1],"key":38,"choice":1,"rt":300.08999999891967,"outcome":0,"trial":86,"correct":2,"trial_type":"three-arm-trial","trial_index":97,"time_elapsed":1131751,"internal_node_id":"0.0-92.0-0.0","task_version":"screening-prolific","missing":false,"accuracy":0},{"contexts":["blue","red","green"],"outcomes":[0,0,1],"key":37,"choice":0,"rt":137.55999999912456,"outcome":0,"trial":87,"correct":2,"trial_type":"three-arm-trial","trial_index":98,"time_elapsed":1133098,"internal_node_id":"0.0-93.0-0.0","task_version":"screening-prolific","missing":false,"accuracy":0},{"contexts":["blue","red","green"],"outcomes":[1,0,1],"key":39,"choice":2,"rt":69.04500000015832,"outcome":1,"trial":88,"correct":2,"trial_type":"three-arm-trial","trial_index":99,"time_elapsed":1134373,"internal_node_id":"0.0-94.0-0.0","task_version":"screening-prolific","missing":false,"accuracy":1},{"contexts":["blue","red","green"],"outcomes":[0,1,1],"key":39,"choice":2,"rt":200.76499999966472,"outcome":1,"trial":89,"correct":2,"trial_type":"three-arm-trial","trial_index":100,"time_elapsed":1135783,"internal_node_id":"0.0-95.0-0.0","task_version":"screening-prolific","missing":false,"accuracy":1},{"contexts":["blue","red","green"],"outcomes":[0,0,1],"key":39,"choice":2,"rt":98.80999999959022,"outcome":1,"trial":90,"correct":2,"trial_type":"three-arm-trial","trial_index":101,"time_elapsed":1137090,"internal_node_id":"0.0-96.0-0.0","task_version":"screening-prolific","missing":false,"accuracy":1},{"rt":39363.45500000077,"responses":{"age":"27","gender-categorical":"Male","gender-free-response":"","ethnicity":"Hispanic or Latino","race":["Rather not say"],"language":"No","fluency":"Well","mturk":"No","mturk-this-study":"No"},"survey":"demographics","trial_type":"survey-demo","trial_index":102,"time_elapsed":1176467,"internal_node_id":"0.0-97.0","task_version":"screening-prolific","interactions":"[{\"event\":\"blur\",\"trial\":0,\"time\":19802},{\"event\":\"focus\",\"trial\":0,\"time\":28627},{\"event\":\"blur\",\"trial\":1,\"time\":106973},{\"event\":\"focus\",\"trial\":1,\"time\":114308},{\"event\":\"blur\",\"trial\":1,\"time\":126959},{\"event\":\"focus\",\"trial\":1,\"time\":134358},{\"event\":\"blur\",\"trial\":1,\"time\":165184},{\"event\":\"focus\",\"trial\":1,\"time\":169503},{\"event\":\"blur\",\"trial\":2,\"time\":236943},{\"event\":\"focus\",\"trial\":2,\"time\":256516},{\"event\":\"blur\",\"trial\":2,\"time\":264130},{\"event\":\"focus\",\"trial\":2,\"time\":269409},{\"event\":\"blur\",\"trial\":2,\"time\":283006},{\"event\":\"focus\",\"trial\":2,\"time\":290773},{\"event\":\"blur\",\"trial\":2,\"time\":299685},{\"event\":\"focus\",\"trial\":2,\"time\":308763},{\"event\":\"blur\",\"trial\":2,\"time\":360927},{\"event\":\"focus\",\"trial\":2,\"time\":370760},{\"event\":\"blur\",\"trial\":4,\"time\":535832},{\"event\":\"focus\",\"trial\":4,\"time\":543691},{\"event\":\"blur\",\"trial\":6,\"time\":811356},{\"event\":\"focus\",\"trial\":6,\"time\":816969},{\"event\":\"blur\",\"trial\":8,\"time\":946663},{\"event\":\"focus\",\"trial\":8,\"time\":951253}]"}]