[{"responses":{"Q02":"4","Q03":"3","Q01":"3"},"rt":15033.850000007078,"survey":"pswq","trial_type":"survey-template","trial_index":0,"time_elapsed":15058,"internal_node_id":"0.0-0.0","task_version":"screening-prolific"},{"responses":{"Q03":"2","Q07":"3","Q09":"1","Q08":"3","Q06":"3","Q05":"3","Q12":"1","Q01":"3","Q02":"3","Q11":"2","Q04":"3","Q13":"3","Q10":"1"},"rt":71160.45000008307,"survey":"bisbas","trial_type":"survey-template","trial_index":1,"time_elapsed":86231,"internal_node_id":"0.0-1.0","task_version":"screening-prolific"},{"responses":{"Q15":"3","Q11":"2","Q14":"3","Q07":"3","Q13":"2","Q01":"2","Q12":"3","Q05":"3","Q06":"3","Q02":"3","Q08":"2","Q10":"3","Q03":"3","Q04":"3","Q09":"3"},"rt":64875.785000040196,"survey":"shaps","trial_type":"survey-template","trial_index":2,"time_elapsed":151119,"internal_node_id":"0.0-2.0","task_version":"screening-prolific"},{"responses":{"Q03":"2","Q08":"0","Q07":"1","Q02":"2","Q01":"2","Q06":"0","Q05":"2","Q04":"3"},"rt":36999.65000001248,"survey":"gad7","trial_type":"survey-template","trial_index":3,"time_elapsed":188128,"internal_node_id":"0.0-3.0","task_version":"screening-prolific"},{"responses":{"Q07":"0","Q11":"0","Q02":"1","Q01":"0","Q12":"1","Q04":"3","Q03":"1","Q08":"0","Q14":"2","Q09":"0","Q05":"2","Q13":"3","Q15":"0","Q06":"2","Q10":"2"},"rt":154093.76999991946,"survey":"7up7down","trial_type":"survey-template","trial_index":4,"time_elapsed":342235,"internal_node_id":"0.0-4.0","task_version":"screening-prolific"},{"view_history":"[{\"page_index\":0,\"viewing_time\":8540.694999974221},{\"page_index\":1,\"viewing_time\":18363.520000013523},{\"page_index\":2,\"viewing_time\":8758.419999969192},{\"page_index\":3,\"viewing_time\":6922.460000030696},{\"page_index\":4,\"viewing_time\":7400.2699999837205},{\"page_index\":5,\"viewing_time\":5253.510000067763},{\"page_index\":6,\"viewing_time\":4989.004999981262},{\"page_index\":7,\"viewing_time\":8477.444999967702}]","rt":68707.0750000421,"trial_type":"instructions","trial_index":5,"time_elapsed":410946,"internal_node_id":"0.0-5.0-0.0","task_version":"screening-prolific"},{"responses":["True","True","False","False","True"],"num_errors":0,"rt":27122.315000044182,"trial_type":"three-arm-comprehension","trial_index":6,"time_elapsed":438146,"internal_node_id":"0.0-5.0-1.0","task_version":"screening-prolific"},{"view_history":"[{\"page_index\":0,\"viewing_time\":8385.049999924377}]","rt":8385.604999959469,"trial_type":"instructions","trial_index":7,"time_elapsed":446544,"internal_node_id":"0.0-6.0","task_version":"screening-prolific"},{"contexts":["red","green","blue"],"outcomes":[1,0,0],"key":null,"rt":null,"trial":1,"correct":0,"trial_type":"three-arm-trial","trial_index":8,"time_elapsed":461555,"internal_node_id":"0.0-7.0-0.0","task_version":"screening-prolific","missing":true},{"contexts":["red","green","blue"],"outcomes":[1,0,0],"key":37,"choice":0,"rt":1437.4550000065938,"outcome":1,"trial":1,"correct":0,"trial_type":"three-arm-trial","trial_index":9,"time_elapsed":464199,"internal_node_id":"0.0-7.1-0.1","task_version":"screening-prolific","missing":false,"accuracy":1},{"contexts":["red","green","blue"],"outcomes":[1,0,0],"key":39,"choice":2,"rt":17.475000000558794,"outcome":0,"trial":2,"correct":0,"trial_type":"three-arm-trial","trial_index":10,"time_elapsed":465423,"internal_node_id":"0.0-8.0-0.0","task_version":"screening-prolific","missing":false,"accuracy":0},{"contexts":["red","green","blue"],"outcomes":[1,1,0],"key":37,"choice":0,"rt":628.2650000648573,"outcome":1,"trial":3,"correct":0,"trial_type":"three-arm-trial","trial_index":11,"time_elapsed":467258,"internal_node_id":"0.0-9.0-0.0","task_version":"screening-prolific","missing":false,"accuracy":1},{"contexts":["red","green","blue"],"outcomes":[0,0,0],"key":37,"choice":0,"rt":1487.1199999470264,"outcome":0,"trial":4,"correct":0,"trial_type":"three-arm-trial","trial_index":12,"time_elapsed":469951,"internal_node_id":"0.0-10.0-0.0","task_version":"screening-prolific","missing":false,"accuracy":1},{"contexts":["red","green","blue"],"outcomes":[0,0,0],"key":39,"choice":2,"rt":1883.7049999274313,"outcome":0,"trial":5,"correct":0,"trial_type":"three-arm-trial","trial_index":13,"time_elapsed":473041,"internal_node_id":"0.0-11.0-0.0","task_version":"screening-prolific","missing":false,"accuracy":0},{"contexts":["red","green","blue"],"outcomes":[1,0,0],"key":38,"choice":1,"rt":1656.554999994114,"outcome":0,"trial":6,"correct":0,"trial_type":"three-arm-trial","trial_index":14,"time_elapsed":475902,"internal_node_id":"0.0-12.0-0.0","task_version":"screening-prolific","missing":false,"accuracy":0},{"contexts":["red","green","blue"],"outcomes":[1,1,0],"key":37,"choice":0,"rt":711.1300000688061,"outcome":1,"trial":7,"correct":0,"trial_type":"three-arm-trial","trial_index":15,"time_elapsed":477819,"internal_node_id":"0.0-13.0-0.0","task_version":"screening-prolific","missing":false,"accuracy":1},{"contexts":["red","green","blue"],"outcomes":[1,0,0],"key":37,"choice":0,"rt":874.8950000153854,"outcome":1,"trial":8,"correct":0,"trial_type":"three-arm-trial","trial_index":16,"time_elapsed":479900,"internal_node_id":"0.0-14.0-0.0","task_version":"screening-prolific","missing":false,"accuracy":1},{"contexts":["red","green","blue"],"outcomes":[0,0,0],"key":37,"choice":0,"rt":358.5650000022724,"outcome":0,"trial":9,"correct":0,"trial_type":"three-arm-trial","trial_index":17,"time_elapsed":481464,"internal_node_id":"0.0-15.0-0.0","task_version":"screening-prolific","missing":false,"accuracy":1},{"contexts":["red","green","blue"],"outcomes":[1,0,1],"key":39,"choice":2,"rt":331.2349999323487,"outcome":1,"trial":10,"correct":0,"trial_type":"three-arm-trial","trial_index":18,"time_elapsed":483000,"internal_node_id":"0.0-16.0-0.0","task_version":"screening-prolific","missing":false,"accuracy":0},{"contexts":["red","green","blue"],"outcomes":[1,0,0],"key":39,"choice":2,"rt":324.239999987185,"outcome":0,"trial":11,"correct":0,"trial_type":"three-arm-trial","trial_index":19,"time_elapsed":484531,"internal_node_id":"0.0-17.0-0.0","task_version":"screening-prolific","missing":false,"accuracy":0},{"contexts":["red","green","blue"],"outcomes":[0,0,1],"key":37,"choice":0,"rt":402.66000002156943,"outcome":0,"trial":12,"correct":0,"trial_type":"three-arm-trial","trial_index":20,"time_elapsed":486141,"internal_node_id":"0.0-18.0-0.0","task_version":"screening-prolific","missing":false,"accuracy":1},{"contexts":["red","green","blue"],"outcomes":[1,1,0],"key":37,"choice":0,"rt":547.5950000109151,"outcome":1,"trial":13,"correct":0,"trial_type":"three-arm-trial","trial_index":21,"time_elapsed":487894,"internal_node_id":"0.0-19.0-0.0","task_version":"screening-prolific","missing":false,"accuracy":1},{"contexts":["red","green","blue"],"outcomes":[1,1,0],"key":37,"choice":0,"rt":328.82499997504056,"outcome":1,"trial":14,"correct":0,"trial_type":"three-arm-trial","trial_index":22,"time_elapsed":489429,"internal_node_id":"0.0-20.0-0.0","task_version":"screening-prolific","missing":false,"accuracy":1},{"contexts":["red","green","blue"],"outcomes":[1,0,0],"key":37,"choice":0,"rt":348.98000000976026,"outcome":1,"trial":15,"correct":0,"trial_type":"three-arm-trial","trial_index":23,"time_elapsed":490983,"internal_node_id":"0.0-21.0-0.0","task_version":"screening-prolific","missing":false,"accuracy":1},{"contexts":["red","green","blue"],"outcomes":[0,0,1],"key":37,"choice":0,"rt":329.4150000438094,"outcome":0,"trial":16,"correct":2,"trial_type":"three-arm-trial","trial_index":24,"time_elapsed":492519,"internal_node_id":"0.0-22.0-0.0","task_version":"screening-prolific","missing":false,"accuracy":0},{"contexts":["red","green","blue"],"outcomes":[1,0,1],"key":38,"choice":1,"rt":669.3799999775365,"outcome":0,"trial":17,"correct":2,"trial_type":"three-arm-trial","trial_index":25,"time_elapsed":494394,"internal_node_id":"0.0-23.0-0.0","task_version":"screening-prolific","missing":false,"accuracy":0},{"contexts":["red","green","blue"],"outcomes":[0,1,1],"key":38,"choice":1,"rt":647.679999936372,"outcome":1,"trial":18,"correct":2,"trial_type":"three-arm-trial","trial_index":26,"time_elapsed":496248,"internal_node_id":"0.0-24.0-0.0","task_version":"screening-prolific","missing":false,"accuracy":0},{"contexts":["red","green","blue"],"outcomes":[0,0,1],"key":38,"choice":1,"rt":324.1249999264255,"outcome":0,"trial":19,"correct":2,"trial_type":"three-arm-trial","trial_index":27,"time_elapsed":497777,"internal_node_id":"0.0-25.0-0.0","task_version":"screening-prolific","missing":false,"accuracy":0},{"contexts":["red","green","blue"],"outcomes":[0,0,1],"key":38,"choice":1,"rt":326.16000005509704,"outcome":0,"trial":20,"correct":2,"trial_type":"three-arm-trial","trial_index":28,"time_elapsed":499309,"internal_node_id":"0.0-26.0-0.0","task_version":"screening-prolific","missing":false,"accuracy":0},{"contexts":["red","green","blue"],"outcomes":[1,0,1],"key":38,"choice":1,"rt":370.54999999236315,"outcome":0,"trial":21,"correct":2,"trial_type":"three-arm-trial","trial_index":29,"time_elapsed":500886,"internal_node_id":"0.0-27.0-0.0","task_version":"screening-prolific","missing":false,"accuracy":0},{"contexts":["red","green","blue"],"outcomes":[0,0,1],"key":39,"choice":2,"rt":283.5699999704957,"outcome":1,"trial":22,"correct":2,"trial_type":"three-arm-trial","trial_index":30,"time_elapsed":502377,"internal_node_id":"0.0-28.0-0.0","task_version":"screening-prolific","missing":false,"accuracy":1},{"contexts":["red","green","blue"],"outcomes":[1,1,1],"key":39,"choice":2,"rt":335.3249999927357,"outcome":1,"trial":23,"correct":2,"trial_type":"three-arm-trial","trial_index":31,"time_elapsed":503918,"internal_node_id":"0.0-29.0-0.0","task_version":"screening-prolific","missing":false,"accuracy":1},{"contexts":["red","green","blue"],"outcomes":[0,0,1],"key":39,"choice":2,"rt":335.1750000147149,"outcome":1,"trial":24,"correct":2,"trial_type":"three-arm-trial","trial_index":32,"time_elapsed":505457,"internal_node_id":"0.0-30.0-0.0","task_version":"screening-prolific","missing":false,"accuracy":1},{"contexts":["red","green","blue"],"outcomes":[0,1,1],"key":39,"choice":2,"rt":330.17000008840114,"outcome":1,"trial":25,"correct":2,"trial_type":"three-arm-trial","trial_index":33,"time_elapsed":506993,"internal_node_id":"0.0-31.0-0.0","task_version":"screening-prolific","missing":false,"accuracy":1},{"contexts":["red","green","blue"],"outcomes":[0,0,1],"key":39,"choice":2,"rt":326.3249999145046,"outcome":1,"trial":26,"correct":2,"trial_type":"three-arm-trial","trial_index":34,"time_elapsed":508526,"internal_node_id":"0.0-32.0-0.0","task_version":"screening-prolific","missing":false,"accuracy":1},{"contexts":["red","green","blue"],"outcomes":[0,0,1],"key":39,"choice":2,"rt":382.60000001173466,"outcome":1,"trial":27,"correct":2,"trial_type":"three-arm-trial","trial_index":35,"time_elapsed":510115,"internal_node_id":"0.0-33.0-0.0","task_version":"screening-prolific","missing":false,"accuracy":1},{"contexts":["red","green","blue"],"outcomes":[1,0,1],"key":39,"choice":2,"rt":316.5000000735745,"outcome":1,"trial":28,"correct":2,"trial_type":"three-arm-trial","trial_index":36,"time_elapsed":511641,"internal_node_id":"0.0-34.0-0.0","task_version":"screening-prolific","missing":false,"accuracy":1},{"contexts":["red","green","blue"],"outcomes":[0,0,0],"key":39,"choice":2,"rt":364.2149999504909,"outcome":0,"trial":29,"correct":2,"trial_type":"three-arm-trial","trial_index":37,"time_elapsed":513210,"internal_node_id":"0.0-35.0-0.0","task_version":"screening-prolific","missing":false,"accuracy":1},{"contexts":["red","green","blue"],"outcomes":[0,1,1],"key":39,"choice":2,"rt":336.46000002045184,"outcome":1,"trial":30,"correct":2,"trial_type":"three-arm-trial","trial_index":38,"time_elapsed":514753,"internal_node_id":"0.0-36.0-0.0","task_version":"screening-prolific","missing":false,"accuracy":1},{"contexts":["red","green","blue"],"outcomes":[1,0,0],"key":39,"choice":2,"rt":331.00999996531755,"outcome":0,"trial":31,"correct":0,"trial_type":"three-arm-trial","trial_index":39,"time_elapsed":516290,"internal_node_id":"0.0-37.0-0.0","task_version":"screening-prolific","missing":false,"accuracy":0},{"contexts":["red","green","blue"],"outcomes":[1,0,0],"key":39,"choice":2,"rt":335.71500005200505,"outcome":0,"trial":32,"correct":0,"trial_type":"three-arm-trial","trial_index":40,"time_elapsed":517832,"internal_node_id":"0.0-38.0-0.0","task_version":"screening-prolific","missing":false,"accuracy":0},{"contexts":["red","green","blue"],"outcomes":[1,1,0],"key":39,"choice":2,"rt":317.8349999943748,"outcome":0,"trial":33,"correct":0,"trial_type":"three-arm-trial","trial_index":41,"time_elapsed":519356,"internal_node_id":"0.0-39.0-0.0","task_version":"screening-prolific","missing":false,"accuracy":0},{"contexts":["red","green","blue"],"outcomes":[1,0,0],"key":39,"choice":2,"rt":348.81999995559454,"outcome":0,"trial":34,"correct":0,"trial_type":"three-arm-trial","trial_index":42,"time_elapsed":520911,"internal_node_id":"0.0-40.0-0.0","task_version":"screening-prolific","missing":false,"accuracy":0},{"contexts":["red","green","blue"],"outcomes":[1,1,0],"key":37,"choice":0,"rt":318.790000048466,"outcome":1,"trial":35,"correct":0,"trial_type":"three-arm-trial","trial_index":43,"time_elapsed":522436,"internal_node_id":"0.0-41.0-0.0","task_version":"screening-prolific","missing":false,"accuracy":1},{"contexts":["red","green","blue"],"outcomes":[1,0,0],"key":37,"choice":0,"rt":290.04500003065914,"outcome":1,"trial":36,"correct":0,"trial_type":"three-arm-trial","trial_index":44,"time_elapsed":523932,"internal_node_id":"0.0-42.0-0.0","task_version":"screening-prolific","missing":false,"accuracy":1},{"contexts":["red","green","blue"],"outcomes":[0,0,0],"key":37,"choice":0,"rt":302.36499989405274,"outcome":0,"trial":37,"correct":0,"trial_type":"three-arm-trial","trial_index":45,"time_elapsed":525442,"internal_node_id":"0.0-43.0-0.0","task_version":"screening-prolific","missing":false,"accuracy":1},{"contexts":["red","green","blue"],"outcomes":[1,0,0],"key":37,"choice":0,"rt":289.92999996989965,"outcome":1,"trial":38,"correct":0,"trial_type":"three-arm-trial","trial_index":46,"time_elapsed":526938,"internal_node_id":"0.0-44.0-0.0","task_version":"screening-prolific","missing":false,"accuracy":1},{"contexts":["red","green","blue"],"outcomes":[0,0,1],"key":37,"choice":0,"rt":261.655000038445,"outcome":0,"trial":39,"correct":0,"trial_type":"three-arm-trial","trial_index":47,"time_elapsed":528406,"internal_node_id":"0.0-45.0-0.0","task_version":"screening-prolific","missing":false,"accuracy":1},{"contexts":["red","green","blue"],"outcomes":[1,0,0],"key":37,"choice":0,"rt":273.2199999736622,"outcome":1,"trial":40,"correct":0,"trial_type":"three-arm-trial","trial_index":48,"time_elapsed":529885,"internal_node_id":"0.0-46.0-0.0","task_version":"screening-prolific","missing":false,"accuracy":1},{"contexts":["red","green","blue"],"outcomes":[1,0,0],"key":37,"choice":0,"rt":278.93500006757677,"outcome":1,"trial":41,"correct":0,"trial_type":"three-arm-trial","trial_index":49,"time_elapsed":531369,"internal_node_id":"0.0-47.0-0.0","task_version":"screening-prolific","missing":false,"accuracy":1},{"contexts":["red","green","blue"],"outcomes":[1,0,0],"key":37,"choice":0,"rt":308.94499993883073,"outcome":1,"trial":42,"correct":0,"trial_type":"three-arm-trial","trial_index":50,"time_elapsed":532884,"internal_node_id":"0.0-48.0-0.0","task_version":"screening-prolific","missing":false,"accuracy":1},{"contexts":["red","green","blue"],"outcomes":[1,0,0],"key":37,"choice":0,"rt":272.08499994594604,"outcome":1,"trial":43,"correct":0,"trial_type":"three-arm-trial","trial_index":51,"time_elapsed":534361,"internal_node_id":"0.0-49.0-0.0","task_version":"screening-prolific","missing":false,"accuracy":1},{"contexts":["red","green","blue"],"outcomes":[1,0,0],"key":37,"choice":0,"rt":306.6650000400841,"outcome":1,"trial":44,"correct":0,"trial_type":"three-arm-trial","trial_index":52,"time_elapsed":535873,"internal_node_id":"0.0-50.0-0.0","task_version":"screening-prolific","missing":false,"accuracy":1},{"contexts":["red","green","blue"],"outcomes":[1,0,1],"key":37,"choice":0,"rt":303.99500008206815,"outcome":1,"trial":45,"correct":0,"trial_type":"three-arm-trial","trial_index":53,"time_elapsed":537382,"internal_node_id":"0.0-51.0-0.0","task_version":"screening-prolific","missing":false,"accuracy":1},{"contexts":["red","green","blue"],"outcomes":[1,0,1],"key":37,"choice":0,"rt":310.9750000294298,"outcome":1,"trial":46,"correct":2,"trial_type":"three-arm-trial","trial_index":54,"time_elapsed":538898,"internal_node_id":"0.0-52.0-0.0","task_version":"screening-prolific","missing":false,"accuracy":0},{"contexts":["red","green","blue"],"outcomes":[0,0,0],"key":37,"choice":0,"rt":385.9850000590086,"outcome":0,"trial":47,"correct":2,"trial_type":"three-arm-trial","trial_index":55,"time_elapsed":540490,"internal_node_id":"0.0-53.0-0.0","task_version":"screening-prolific","missing":false,"accuracy":0},{"contexts":["red","green","blue"],"outcomes":[0,1,1],"key":37,"choice":0,"rt":253.969999961555,"outcome":0,"trial":48,"correct":2,"trial_type":"three-arm-trial","trial_index":56,"time_elapsed":541949,"internal_node_id":"0.0-54.0-0.0","task_version":"screening-prolific","missing":false,"accuracy":0},{"contexts":["red","green","blue"],"outcomes":[0,0,1],"key":37,"choice":0,"rt":327.66999991144985,"outcome":0,"trial":49,"correct":2,"trial_type":"three-arm-trial","trial_index":57,"time_elapsed":543481,"internal_node_id":"0.0-55.0-0.0","task_version":"screening-prolific","missing":false,"accuracy":0},{"contexts":["red","green","blue"],"outcomes":[1,0,1],"key":39,"choice":2,"rt":328.0550000490621,"outcome":1,"trial":50,"correct":2,"trial_type":"three-arm-trial","trial_index":58,"time_elapsed":545015,"internal_node_id":"0.0-56.0-0.0","task_version":"screening-prolific","missing":false,"accuracy":1},{"contexts":["red","green","blue"],"outcomes":[0,0,0],"key":39,"choice":2,"rt":272.66999997664243,"outcome":0,"trial":51,"correct":2,"trial_type":"three-arm-trial","trial_index":59,"time_elapsed":546493,"internal_node_id":"0.0-57.0-0.0","task_version":"screening-prolific","missing":false,"accuracy":1},{"contexts":["red","green","blue"],"outcomes":[0,0,1],"key":39,"choice":2,"rt":298.7000000430271,"outcome":1,"trial":52,"correct":2,"trial_type":"three-arm-trial","trial_index":60,"time_elapsed":547996,"internal_node_id":"0.0-58.0-0.0","task_version":"screening-prolific","missing":false,"accuracy":1},{"contexts":["red","green","blue"],"outcomes":[0,0,1],"key":39,"choice":2,"rt":253.73999995645136,"outcome":1,"trial":53,"correct":2,"trial_type":"three-arm-trial","trial_index":61,"time_elapsed":549456,"internal_node_id":"0.0-59.0-0.0","task_version":"screening-prolific","missing":false,"accuracy":1},{"contexts":["red","green","blue"],"outcomes":[1,0,1],"key":39,"choice":2,"rt":291.3599999155849,"outcome":1,"trial":54,"correct":2,"trial_type":"three-arm-trial","trial_index":62,"time_elapsed":550952,"internal_node_id":"0.0-60.0-0.0","task_version":"screening-prolific","missing":false,"accuracy":1},{"contexts":["red","green","blue"],"outcomes":[1,0,1],"key":39,"choice":2,"rt":250.4699999699369,"outcome":1,"trial":55,"correct":2,"trial_type":"three-arm-trial","trial_index":63,"time_elapsed":552409,"internal_node_id":"0.0-61.0-0.0","task_version":"screening-prolific","missing":false,"accuracy":1},{"contexts":["red","green","blue"],"outcomes":[1,0,1],"key":39,"choice":2,"rt":184.1349999886006,"outcome":1,"trial":56,"correct":2,"trial_type":"three-arm-trial","trial_index":64,"time_elapsed":553799,"internal_node_id":"0.0-62.0-0.0","task_version":"screening-prolific","missing":false,"accuracy":1},{"contexts":["red","green","blue"],"outcomes":[0,0,1],"key":39,"choice":2,"rt":161.85499995481223,"outcome":1,"trial":57,"correct":2,"trial_type":"three-arm-trial","trial_index":65,"time_elapsed":555166,"internal_node_id":"0.0-63.0-0.0","task_version":"screening-prolific","missing":false,"accuracy":1},{"contexts":["red","green","blue"],"outcomes":[1,0,0],"key":39,"choice":2,"rt":227.52000007312745,"outcome":0,"trial":58,"correct":2,"trial_type":"three-arm-trial","trial_index":66,"time_elapsed":556599,"internal_node_id":"0.0-64.0-0.0","task_version":"screening-prolific","missing":false,"accuracy":1},{"contexts":["red","green","blue"],"outcomes":[1,0,1],"key":39,"choice":2,"rt":261.7999999783933,"outcome":1,"trial":59,"correct":2,"trial_type":"three-arm-trial","trial_index":67,"time_elapsed":558067,"internal_node_id":"0.0-65.0-0.0","task_version":"screening-prolific","missing":false,"accuracy":1},{"contexts":["red","green","blue"],"outcomes":[1,0,1],"key":39,"choice":2,"rt":273.28000008128583,"outcome":1,"trial":60,"correct":2,"trial_type":"three-arm-trial","trial_index":68,"time_elapsed":559545,"internal_node_id":"0.0-66.0-0.0","task_version":"screening-prolific","missing":false,"accuracy":1},{"contexts":["red","green","blue"],"outcomes":[1,0,1],"key":39,"choice":2,"rt":153.06499996222556,"outcome":1,"trial":61,"correct":0,"trial_type":"three-arm-trial","trial_index":69,"time_elapsed":560904,"internal_node_id":"0.0-67.0-0.0","task_version":"screening-prolific","missing":false,"accuracy":0},{"contexts":["red","green","blue"],"outcomes":[1,0,0],"key":39,"choice":2,"rt":281.2400000402704,"outcome":0,"trial":62,"correct":0,"trial_type":"three-arm-trial","trial_index":70,"time_elapsed":562392,"internal_node_id":"0.0-68.0-0.0","task_version":"screening-prolific","missing":false,"accuracy":0},{"contexts":["red","green","blue"],"outcomes":[1,0,0],"key":39,"choice":2,"rt":148.13499990850687,"outcome":0,"trial":63,"correct":0,"trial_type":"three-arm-trial","trial_index":71,"time_elapsed":563745,"internal_node_id":"0.0-69.0-0.0","task_version":"screening-prolific","missing":false,"accuracy":0},{"contexts":["red","green","blue"],"outcomes":[1,1,0],"key":39,"choice":2,"rt":285.135000012815,"outcome":0,"trial":64,"correct":0,"trial_type":"three-arm-trial","trial_index":72,"time_elapsed":565236,"internal_node_id":"0.0-70.0-0.0","task_version":"screening-prolific","missing":false,"accuracy":0},{"contexts":["red","green","blue"],"outcomes":[0,0,0],"key":37,"choice":0,"rt":472.04500006046146,"outcome":0,"trial":65,"correct":0,"trial_type":"three-arm-trial","trial_index":73,"time_elapsed":566913,"internal_node_id":"0.0-71.0-0.0","task_version":"screening-prolific","missing":false,"accuracy":1},{"contexts":["red","green","blue"],"outcomes":[1,0,0],"key":37,"choice":0,"rt":307.1550000458956,"outcome":1,"trial":66,"correct":0,"trial_type":"three-arm-trial","trial_index":74,"time_elapsed":568426,"internal_node_id":"0.0-72.0-0.0","task_version":"screening-prolific","missing":false,"accuracy":1},{"contexts":["red","green","blue"],"outcomes":[1,0,1],"key":37,"choice":0,"rt":304.2849999619648,"outcome":1,"trial":67,"correct":0,"trial_type":"three-arm-trial","trial_index":75,"time_elapsed":569936,"internal_node_id":"0.0-73.0-0.0","task_version":"screening-prolific","missing":false,"accuracy":1},{"contexts":["red","green","blue"],"outcomes":[1,0,0],"key":37,"choice":0,"rt":309.08000003546476,"outcome":1,"trial":68,"correct":0,"trial_type":"three-arm-trial","trial_index":76,"time_elapsed":571451,"internal_node_id":"0.0-74.0-0.0","task_version":"screening-prolific","missing":false,"accuracy":1},{"contexts":["red","green","blue"],"outcomes":[0,0,1],"key":37,"choice":0,"rt":127.66500003635883,"outcome":0,"trial":69,"correct":0,"trial_type":"three-arm-trial","trial_index":77,"time_elapsed":572785,"internal_node_id":"0.0-75.0-0.0","task_version":"screening-prolific","missing":false,"accuracy":1},{"contexts":["red","green","blue"],"outcomes":[0,1,0],"key":37,"choice":0,"rt":231.00499995052814,"outcome":0,"trial":70,"correct":0,"trial_type":"three-arm-trial","trial_index":78,"time_elapsed":574221,"internal_node_id":"0.0-76.0-0.0","task_version":"screening-prolific","missing":false,"accuracy":1},{"contexts":["red","green","blue"],"outcomes":[1,0,0],"key":37,"choice":0,"rt":253.7849999498576,"outcome":1,"trial":71,"correct":0,"trial_type":"three-arm-trial","trial_index":79,"time_elapsed":575680,"internal_node_id":"0.0-77.0-0.0","task_version":"screening-prolific","missing":false,"accuracy":1},{"contexts":["red","green","blue"],"outcomes":[1,1,0],"key":37,"choice":0,"rt":235.8749998966232,"outcome":1,"trial":72,"correct":0,"trial_type":"three-arm-trial","trial_index":80,"time_elapsed":577125,"internal_node_id":"0.0-78.0-0.0","task_version":"screening-prolific","missing":false,"accuracy":1},{"contexts":["red","green","blue"],"outcomes":[1,0,0],"key":37,"choice":0,"rt":309.5700000412762,"outcome":1,"trial":73,"correct":0,"trial_type":"three-arm-trial","trial_index":81,"time_elapsed":578640,"internal_node_id":"0.0-79.0-0.0","task_version":"screening-prolific","missing":false,"accuracy":1},{"contexts":["red","green","blue"],"outcomes":[0,0,0],"key":37,"choice":0,"rt":323.9949999842793,"outcome":0,"trial":74,"correct":0,"trial_type":"three-arm-trial","trial_index":82,"time_elapsed":580170,"internal_node_id":"0.0-80.0-0.0","task_version":"screening-prolific","missing":false,"accuracy":1},{"contexts":["red","green","blue"],"outcomes":[1,0,1],"key":37,"choice":0,"rt":270.0700000859797,"outcome":1,"trial":75,"correct":0,"trial_type":"three-arm-trial","trial_index":83,"time_elapsed":581645,"internal_node_id":"0.0-81.0-0.0","task_version":"screening-prolific","missing":false,"accuracy":1},{"contexts":["red","green","blue"],"outcomes":[1,0,0],"key":37,"choice":0,"rt":197.62500002980232,"outcome":1,"trial":76,"correct":2,"trial_type":"three-arm-trial","trial_index":84,"time_elapsed":583048,"internal_node_id":"0.0-82.0-0.0","task_version":"screening-prolific","missing":false,"accuracy":0},{"contexts":["red","green","blue"],"outcomes":[0,0,1],"key":37,"choice":0,"rt":213.5250000283122,"outcome":0,"trial":77,"correct":2,"trial_type":"three-arm-trial","trial_index":85,"time_elapsed":584468,"internal_node_id":"0.0-83.0-0.0","task_version":"screening-prolific","missing":false,"accuracy":0},{"contexts":["red","green","blue"],"outcomes":[1,0,1],"key":37,"choice":0,"rt":255.29499992262572,"outcome":1,"trial":78,"correct":2,"trial_type":"three-arm-trial","trial_index":86,"time_elapsed":585929,"internal_node_id":"0.0-84.0-0.0","task_version":"screening-prolific","missing":false,"accuracy":0},{"contexts":["red","green","blue"],"outcomes":[0,0,1],"key":37,"choice":0,"rt":283.919999958016,"outcome":0,"trial":79,"correct":2,"trial_type":"three-arm-trial","trial_index":87,"time_elapsed":587421,"internal_node_id":"0.0-85.0-0.0","task_version":"screening-prolific","missing":false,"accuracy":0},{"contexts":["red","green","blue"],"outcomes":[0,0,1],"key":37,"choice":0,"rt":207.22500002011657,"outcome":0,"trial":80,"correct":2,"trial_type":"three-arm-trial","trial_index":88,"time_elapsed":588834,"internal_node_id":"0.0-86.0-0.0","task_version":"screening-prolific","missing":false,"accuracy":0},{"contexts":["red","green","blue"],"outcomes":[0,0,1],"key":37,"choice":0,"rt":545.3199999174103,"outcome":0,"trial":81,"correct":2,"trial_type":"three-arm-trial","trial_index":89,"time_elapsed":590585,"internal_node_id":"0.0-87.0-0.0","task_version":"screening-prolific","missing":false,"accuracy":0},{"contexts":["red","green","blue"],"outcomes":[0,0,1],"key":39,"choice":2,"rt":304.46500005200505,"outcome":1,"trial":82,"correct":2,"trial_type":"three-arm-trial","trial_index":90,"time_elapsed":592096,"internal_node_id":"0.0-88.0-0.0","task_version":"screening-prolific","missing":false,"accuracy":1},{"contexts":["red","green","blue"],"outcomes":[0,0,1],"key":39,"choice":2,"rt":333.710000035353,"outcome":1,"trial":83,"correct":2,"trial_type":"three-arm-trial","trial_index":91,"time_elapsed":593634,"internal_node_id":"0.0-89.0-0.0","task_version":"screening-prolific","missing":false,"accuracy":1},{"contexts":["red","green","blue"],"outcomes":[0,0,1],"key":39,"choice":2,"rt":277.02499995939434,"outcome":1,"trial":84,"correct":2,"trial_type":"three-arm-trial","trial_index":92,"time_elapsed":595116,"internal_node_id":"0.0-90.0-0.0","task_version":"screening-prolific","missing":false,"accuracy":1},{"contexts":["red","green","blue"],"outcomes":[0,0,1],"key":39,"choice":2,"rt":297.5049999076873,"outcome":1,"trial":85,"correct":2,"trial_type":"three-arm-trial","trial_index":93,"time_elapsed":596619,"internal_node_id":"0.0-91.0-0.0","task_version":"screening-prolific","missing":false,"accuracy":1},{"contexts":["red","green","blue"],"outcomes":[0,0,0],"key":39,"choice":2,"rt":325.93499997165054,"outcome":0,"trial":86,"correct":2,"trial_type":"three-arm-trial","trial_index":94,"time_elapsed":598151,"internal_node_id":"0.0-92.0-0.0","task_version":"screening-prolific","missing":false,"accuracy":1},{"contexts":["red","green","blue"],"outcomes":[1,0,1],"key":39,"choice":2,"rt":224.01000000536442,"outcome":1,"trial":87,"correct":2,"trial_type":"three-arm-trial","trial_index":95,"time_elapsed":599580,"internal_node_id":"0.0-93.0-0.0","task_version":"screening-prolific","missing":false,"accuracy":1},{"contexts":["red","green","blue"],"outcomes":[0,0,0],"key":39,"choice":2,"rt":298.6149999778718,"outcome":0,"trial":88,"correct":2,"trial_type":"three-arm-trial","trial_index":96,"time_elapsed":601086,"internal_node_id":"0.0-94.0-0.0","task_version":"screening-prolific","missing":false,"accuracy":1},{"contexts":["red","green","blue"],"outcomes":[0,0,1],"key":39,"choice":2,"rt":248.6600000411272,"outcome":1,"trial":89,"correct":2,"trial_type":"three-arm-trial","trial_index":97,"time_elapsed":602541,"internal_node_id":"0.0-95.0-0.0","task_version":"screening-prolific","missing":false,"accuracy":1},{"contexts":["red","green","blue"],"outcomes":[0,0,1],"key":39,"choice":2,"rt":298.32000005990267,"outcome":1,"trial":90,"correct":2,"trial_type":"three-arm-trial","trial_index":98,"time_elapsed":604045,"internal_node_id":"0.0-96.0-0.0","task_version":"screening-prolific","missing":false,"accuracy":1},{"rt":31443.179999943823,"responses":{"age":"21","gender-categorical":"Female","gender-free-response":"","ethnicity":"Not Hispanic or Latino","race":["Asian"],"language":"Yes","fluency":"Very well","mturk":"No","mturk-this-study":"No"},"survey":"demographics","trial_type":"survey-demo","trial_index":99,"time_elapsed":635538,"internal_node_id":"0.0-97.0","task_version":"screening-prolific","interactions":"[]"}]