platform,subject,trial,correct,choice,key,rt,accuracy,outcome
prolific,02hfkd0x4jtnoiwsds69adoq,1,0,0.0,37.0,4.966,1.0,1.0
prolific,02hfkd0x4jtnoiwsds69adoq,2,0,0.0,37.0,3.405,1.0,1.0
prolific,02hfkd0x4jtnoiwsds69adoq,3,0,2.0,39.0,6.508,0.0,0.0
prolific,02hfkd0x4jtnoiwsds69adoq,4,0,0.0,37.0,0.459,1.0,1.0
prolific,02hfkd0x4jtnoiwsds69adoq,5,0,0.0,37.0,0.99,1.0,1.0
prolific,02hfkd0x4jtnoiwsds69adoq,6,0,0.0,37.0,0.477,1.0,1.0
prolific,02hfkd0x4jtnoiwsds69adoq,7,0,0.0,37.0,0.461,1.0,1.0
prolific,02hfkd0x4jtnoiwsds69adoq,8,0,0.0,37.0,0.365,1.0,1.0
prolific,02hfkd0x4jtnoiwsds69adoq,9,0,0.0,37.0,0.346,1.0,1.0
prolific,02hfkd0x4jtnoiwsds69adoq,10,0,0.0,37.0,0.366,1.0,1.0
prolific,02hfkd0x4jtnoiwsds69adoq,11,0,0.0,37.0,0.317,1.0,1.0
prolific,02hfkd0x4jtnoiwsds69adoq,12,0,2.0,39.0,0.46,0.0,1.0
prolific,02hfkd0x4jtnoiwsds69adoq,13,0,0.0,37.0,0.427,1.0,1.0
prolific,02hfkd0x4jtnoiwsds69adoq,14,0,0.0,37.0,0.572,1.0,1.0
prolific,02hfkd0x4jtnoiwsds69adoq,15,0,0.0,37.0,0.27,1.0,1.0
prolific,02hfkd0x4jtnoiwsds69adoq,16,2,2.0,39.0,0.716,1.0,1.0
prolific,02hfkd0x4jtnoiwsds69adoq,17,2,2.0,39.0,0.724,1.0,1.0
prolific,02hfkd0x4jtnoiwsds69adoq,18,2,1.0,38.0,0.742,0.0,1.0
prolific,02hfkd0x4jtnoiwsds69adoq,19,2,2.0,39.0,0.573,1.0,1.0
prolific,02hfkd0x4jtnoiwsds69adoq,20,2,0.0,37.0,0.796,0.0,1.0
prolific,02hfkd0x4jtnoiwsds69adoq,21,2,0.0,37.0,0.797,0.0,1.0
prolific,02hfkd0x4jtnoiwsds69adoq,22,2,2.0,39.0,0.592,1.0,1.0
prolific,02hfkd0x4jtnoiwsds69adoq,23,2,1.0,38.0,1.051,0.0,1.0
prolific,02hfkd0x4jtnoiwsds69adoq,24,2,0.0,37.0,0.591,0.0,1.0
prolific,02hfkd0x4jtnoiwsds69adoq,25,2,1.0,38.0,0.636,0.0,1.0
prolific,02hfkd0x4jtnoiwsds69adoq,26,2,2.0,39.0,0.477,1.0,1.0
prolific,02hfkd0x4jtnoiwsds69adoq,27,2,0.0,37.0,0.462,0.0,1.0
prolific,02hfkd0x4jtnoiwsds69adoq,28,2,2.0,39.0,0.462,1.0,1.0
prolific,02hfkd0x4jtnoiwsds69adoq,29,2,0.0,37.0,1.054,0.0,0.0
prolific,02hfkd0x4jtnoiwsds69adoq,30,2,0.0,37.0,0.542,0.0,1.0
prolific,02hfkd0x4jtnoiwsds69adoq,31,1,1.0,38.0,0.509,1.0,1.0
prolific,02hfkd0x4jtnoiwsds69adoq,32,1,2.0,39.0,0.653,0.0,1.0
prolific,02hfkd0x4jtnoiwsds69adoq,33,1,1.0,38.0,0.576,1.0,1.0
prolific,02hfkd0x4jtnoiwsds69adoq,34,1,1.0,38.0,0.414,1.0,1.0
prolific,02hfkd0x4jtnoiwsds69adoq,35,1,0.0,37.0,0.491,0.0,1.0
prolific,02hfkd0x4jtnoiwsds69adoq,36,1,1.0,38.0,0.494,1.0,1.0
prolific,02hfkd0x4jtnoiwsds69adoq,37,1,0.0,37.0,0.526,0.0,1.0
prolific,02hfkd0x4jtnoiwsds69adoq,38,1,1.0,38.0,0.476,1.0,1.0
prolific,02hfkd0x4jtnoiwsds69adoq,39,1,0.0,37.0,0.909,0.0,0.0
prolific,02hfkd0x4jtnoiwsds69adoq,40,1,0.0,37.0,0.411,0.0,1.0
prolific,02hfkd0x4jtnoiwsds69adoq,41,1,0.0,37.0,0.893,0.0,0.0
prolific,02hfkd0x4jtnoiwsds69adoq,42,1,1.0,38.0,0.54,1.0,1.0
prolific,02hfkd0x4jtnoiwsds69adoq,43,1,1.0,38.0,0.827,1.0,1.0
prolific,02hfkd0x4jtnoiwsds69adoq,44,1,1.0,38.0,0.397,1.0,1.0
prolific,02hfkd0x4jtnoiwsds69adoq,45,1,0.0,37.0,0.67,0.0,0.0
prolific,02hfkd0x4jtnoiwsds69adoq,46,0,0.0,37.0,0.35,1.0,1.0
prolific,02hfkd0x4jtnoiwsds69adoq,47,0,0.0,37.0,0.511,1.0,1.0
prolific,02hfkd0x4jtnoiwsds69adoq,48,0,0.0,37.0,0.384,1.0,1.0
prolific,02hfkd0x4jtnoiwsds69adoq,49,0,0.0,37.0,0.52,1.0,1.0
prolific,02hfkd0x4jtnoiwsds69adoq,50,0,0.0,37.0,0.364,1.0,1.0
prolific,02hfkd0x4jtnoiwsds69adoq,51,0,0.0,37.0,0.351,1.0,0.0
prolific,02hfkd0x4jtnoiwsds69adoq,52,0,1.0,38.0,0.168,0.0,0.0
prolific,02hfkd0x4jtnoiwsds69adoq,53,0,0.0,37.0,0.46,1.0,1.0
prolific,02hfkd0x4jtnoiwsds69adoq,54,0,0.0,37.0,0.43,1.0,1.0
prolific,02hfkd0x4jtnoiwsds69adoq,55,0,0.0,37.0,0.413,1.0,1.0
prolific,02hfkd0x4jtnoiwsds69adoq,56,0,0.0,37.0,0.348,1.0,1.0
prolific,02hfkd0x4jtnoiwsds69adoq,57,0,0.0,37.0,0.427,1.0,1.0
prolific,02hfkd0x4jtnoiwsds69adoq,58,0,0.0,37.0,0.397,1.0,1.0
prolific,02hfkd0x4jtnoiwsds69adoq,59,0,0.0,37.0,0.382,1.0,1.0
prolific,02hfkd0x4jtnoiwsds69adoq,60,0,2.0,39.0,0.605,0.0,1.0
prolific,02hfkd0x4jtnoiwsds69adoq,61,2,2.0,39.0,0.59,1.0,1.0
prolific,02hfkd0x4jtnoiwsds69adoq,62,2,0.0,37.0,0.479,0.0,1.0
prolific,02hfkd0x4jtnoiwsds69adoq,63,2,1.0,38.0,0.463,0.0,1.0
prolific,02hfkd0x4jtnoiwsds69adoq,64,2,2.0,39.0,0.461,1.0,1.0
prolific,02hfkd0x4jtnoiwsds69adoq,65,2,0.0,37.0,0.428,0.0,1.0
prolific,02hfkd0x4jtnoiwsds69adoq,66,2,2.0,39.0,0.445,1.0,1.0
prolific,02hfkd0x4jtnoiwsds69adoq,67,2,2.0,39.0,0.506,1.0,1.0
prolific,02hfkd0x4jtnoiwsds69adoq,68,2,1.0,38.0,0.541,0.0,1.0
prolific,02hfkd0x4jtnoiwsds69adoq,69,2,2.0,39.0,0.512,1.0,1.0
prolific,02hfkd0x4jtnoiwsds69adoq,70,2,2.0,39.0,0.62,1.0,1.0
prolific,02hfkd0x4jtnoiwsds69adoq,71,2,1.0,38.0,0.551,0.0,1.0
prolific,02hfkd0x4jtnoiwsds69adoq,72,2,2.0,39.0,0.412,1.0,1.0
prolific,02hfkd0x4jtnoiwsds69adoq,73,2,0.0,37.0,0.845,0.0,0.0
prolific,02hfkd0x4jtnoiwsds69adoq,74,2,2.0,39.0,0.591,1.0,1.0
prolific,02hfkd0x4jtnoiwsds69adoq,75,2,2.0,39.0,0.588,1.0,1.0
prolific,02hfkd0x4jtnoiwsds69adoq,76,0,0.0,37.0,0.366,1.0,1.0
prolific,02hfkd0x4jtnoiwsds69adoq,77,0,0.0,37.0,0.459,1.0,1.0
prolific,02hfkd0x4jtnoiwsds69adoq,78,0,2.0,39.0,0.606,0.0,1.0
prolific,02hfkd0x4jtnoiwsds69adoq,79,0,0.0,37.0,0.35,1.0,0.0
prolific,02hfkd0x4jtnoiwsds69adoq,80,0,0.0,37.0,0.427,1.0,1.0
prolific,02hfkd0x4jtnoiwsds69adoq,81,0,2.0,39.0,0.464,0.0,1.0
prolific,02hfkd0x4jtnoiwsds69adoq,82,0,0.0,37.0,0.394,1.0,1.0
prolific,02hfkd0x4jtnoiwsds69adoq,83,0,0.0,37.0,0.555,1.0,1.0
prolific,02hfkd0x4jtnoiwsds69adoq,84,0,0.0,37.0,0.349,1.0,1.0
prolific,02hfkd0x4jtnoiwsds69adoq,85,0,0.0,37.0,0.414,1.0,1.0
prolific,02hfkd0x4jtnoiwsds69adoq,86,0,0.0,37.0,0.508,1.0,1.0
prolific,02hfkd0x4jtnoiwsds69adoq,87,0,0.0,37.0,1.246,1.0,1.0
prolific,02hfkd0x4jtnoiwsds69adoq,88,0,0.0,37.0,0.522,1.0,1.0
prolific,02hfkd0x4jtnoiwsds69adoq,89,0,1.0,38.0,0.492,0.0,1.0
prolific,02hfkd0x4jtnoiwsds69adoq,90,0,0.0,37.0,0.894,1.0,0.0
prolific,0do1x8qmwi6ok206agh1xqwb,1,1,2.0,39.0,1.779,0.0,0.0
prolific,0do1x8qmwi6ok206agh1xqwb,2,1,0.0,37.0,0.459,0.0,0.0
prolific,0do1x8qmwi6ok206agh1xqwb,3,1,1.0,38.0,0.304,1.0,1.0
prolific,0do1x8qmwi6ok206agh1xqwb,4,1,1.0,38.0,0.256,1.0,1.0
prolific,0do1x8qmwi6ok206agh1xqwb,5,1,1.0,38.0,0.262,1.0,1.0
prolific,0do1x8qmwi6ok206agh1xqwb,6,1,1.0,38.0,0.179,1.0,1.0
prolific,0do1x8qmwi6ok206agh1xqwb,7,1,1.0,38.0,0.285,1.0,1.0
prolific,0do1x8qmwi6ok206agh1xqwb,8,1,1.0,38.0,0.32,1.0,1.0
prolific,0do1x8qmwi6ok206agh1xqwb,9,1,1.0,38.0,0.466,1.0,1.0
prolific,0do1x8qmwi6ok206agh1xqwb,10,1,1.0,38.0,0.303,1.0,1.0
prolific,0do1x8qmwi6ok206agh1xqwb,11,1,1.0,38.0,0.199,1.0,1.0
prolific,0do1x8qmwi6ok206agh1xqwb,12,1,1.0,38.0,0.23,1.0,1.0
prolific,0do1x8qmwi6ok206agh1xqwb,13,1,1.0,38.0,0.242,1.0,1.0
prolific,0do1x8qmwi6ok206agh1xqwb,14,1,1.0,38.0,0.238,1.0,1.0
prolific,0do1x8qmwi6ok206agh1xqwb,15,1,1.0,38.0,0.118,1.0,1.0
prolific,0do1x8qmwi6ok206agh1xqwb,16,2,1.0,38.0,0.28,0.0,0.0
prolific,0do1x8qmwi6ok206agh1xqwb,17,2,2.0,39.0,0.125,1.0,1.0
prolific,0do1x8qmwi6ok206agh1xqwb,18,2,2.0,39.0,0.153,1.0,1.0
prolific,0do1x8qmwi6ok206agh1xqwb,19,2,2.0,39.0,0.208,1.0,1.0
prolific,0do1x8qmwi6ok206agh1xqwb,20,2,2.0,39.0,0.115,1.0,1.0
prolific,0do1x8qmwi6ok206agh1xqwb,21,2,2.0,39.0,0.235,1.0,1.0
prolific,0do1x8qmwi6ok206agh1xqwb,22,2,2.0,39.0,0.142,1.0,1.0
prolific,0do1x8qmwi6ok206agh1xqwb,23,2,2.0,39.0,0.228,1.0,1.0
prolific,0do1x8qmwi6ok206agh1xqwb,24,2,2.0,39.0,0.124,1.0,1.0
prolific,0do1x8qmwi6ok206agh1xqwb,25,2,2.0,39.0,0.176,1.0,1.0
prolific,0do1x8qmwi6ok206agh1xqwb,26,2,2.0,39.0,0.184,1.0,1.0
prolific,0do1x8qmwi6ok206agh1xqwb,27,2,2.0,39.0,0.288,1.0,1.0
prolific,0do1x8qmwi6ok206agh1xqwb,28,2,2.0,39.0,0.273,1.0,1.0
prolific,0do1x8qmwi6ok206agh1xqwb,29,2,2.0,39.0,0.135,1.0,1.0
prolific,0do1x8qmwi6ok206agh1xqwb,30,2,2.0,39.0,0.201,1.0,1.0
prolific,0do1x8qmwi6ok206agh1xqwb,31,0,2.0,39.0,0.119,0.0,0.0
prolific,0do1x8qmwi6ok206agh1xqwb,32,0,0.0,37.0,0.152,1.0,1.0
prolific,0do1x8qmwi6ok206agh1xqwb,33,0,0.0,37.0,0.267,1.0,0.0
prolific,0do1x8qmwi6ok206agh1xqwb,34,0,2.0,39.0,0.14,0.0,0.0
prolific,0do1x8qmwi6ok206agh1xqwb,35,0,1.0,38.0,0.061,0.0,0.0
prolific,0do1x8qmwi6ok206agh1xqwb,36,0,0.0,37.0,0.13,1.0,1.0
prolific,0do1x8qmwi6ok206agh1xqwb,37,0,0.0,37.0,0.179,1.0,1.0
prolific,0do1x8qmwi6ok206agh1xqwb,38,0,0.0,37.0,0.303,1.0,1.0
prolific,0do1x8qmwi6ok206agh1xqwb,39,0,0.0,37.0,0.014,1.0,0.0
prolific,0do1x8qmwi6ok206agh1xqwb,40,0,0.0,37.0,0.23,1.0,1.0
prolific,0do1x8qmwi6ok206agh1xqwb,41,0,0.0,37.0,0.077,1.0,0.0
prolific,0do1x8qmwi6ok206agh1xqwb,42,0,1.0,38.0,0.01,0.0,0.0
prolific,0do1x8qmwi6ok206agh1xqwb,43,0,1.0,38.0,0.219,0.0,0.0
prolific,0do1x8qmwi6ok206agh1xqwb,44,0,2.0,39.0,0.39,0.0,0.0
prolific,0do1x8qmwi6ok206agh1xqwb,45,0,1.0,38.0,0.155,0.0,0.0
prolific,0do1x8qmwi6ok206agh1xqwb,46,1,2.0,39.0,0.131,0.0,0.0
prolific,0do1x8qmwi6ok206agh1xqwb,47,1,2.0,39.0,0.201,0.0,1.0
prolific,0do1x8qmwi6ok206agh1xqwb,48,1,2.0,39.0,0.215,0.0,1.0
prolific,0do1x8qmwi6ok206agh1xqwb,49,1,2.0,39.0,0.267,0.0,0.0
prolific,0do1x8qmwi6ok206agh1xqwb,50,1,1.0,38.0,0.488,1.0,1.0
prolific,0do1x8qmwi6ok206agh1xqwb,51,1,1.0,38.0,0.021,1.0,1.0
prolific,0do1x8qmwi6ok206agh1xqwb,52,1,1.0,38.0,0.377,1.0,1.0
prolific,0do1x8qmwi6ok206agh1xqwb,53,1,1.0,38.0,0.152,1.0,1.0
prolific,0do1x8qmwi6ok206agh1xqwb,54,1,1.0,38.0,0.309,1.0,1.0
prolific,0do1x8qmwi6ok206agh1xqwb,55,1,1.0,38.0,0.302,1.0,1.0
prolific,0do1x8qmwi6ok206agh1xqwb,56,1,1.0,38.0,0.119,1.0,1.0
prolific,0do1x8qmwi6ok206agh1xqwb,57,1,1.0,38.0,0.118,1.0,1.0
prolific,0do1x8qmwi6ok206agh1xqwb,58,1,1.0,38.0,0.08,1.0,1.0
prolific,0do1x8qmwi6ok206agh1xqwb,59,1,1.0,38.0,0.076,1.0,0.0
prolific,0do1x8qmwi6ok206agh1xqwb,60,1,1.0,38.0,0.16,1.0,0.0
prolific,0do1x8qmwi6ok206agh1xqwb,61,0,1.0,38.0,0.178,0.0,0.0
prolific,0do1x8qmwi6ok206agh1xqwb,62,0,1.0,38.0,0.01,0.0,0.0
prolific,0do1x8qmwi6ok206agh1xqwb,63,0,1.0,38.0,0.079,0.0,0.0
prolific,0do1x8qmwi6ok206agh1xqwb,64,0,2.0,39.0,0.085,0.0,0.0
prolific,0do1x8qmwi6ok206agh1xqwb,65,0,0.0,37.0,0.338,1.0,1.0
prolific,0do1x8qmwi6ok206agh1xqwb,66,0,0.0,37.0,0.071,1.0,0.0
prolific,0do1x8qmwi6ok206agh1xqwb,67,0,0.0,37.0,0.374,1.0,1.0
prolific,0do1x8qmwi6ok206agh1xqwb,68,0,0.0,37.0,0.273,1.0,1.0
prolific,0do1x8qmwi6ok206agh1xqwb,69,0,0.0,37.0,0.289,1.0,1.0
prolific,0do1x8qmwi6ok206agh1xqwb,70,0,0.0,37.0,0.353,1.0,1.0
prolific,0do1x8qmwi6ok206agh1xqwb,71,0,0.0,37.0,0.39,1.0,1.0
prolific,0do1x8qmwi6ok206agh1xqwb,72,0,0.0,37.0,0.3,1.0,1.0
prolific,0do1x8qmwi6ok206agh1xqwb,73,0,0.0,37.0,0.26,1.0,0.0
prolific,0do1x8qmwi6ok206agh1xqwb,74,0,2.0,39.0,0.2,0.0,0.0
prolific,0do1x8qmwi6ok206agh1xqwb,75,0,0.0,37.0,0.277,1.0,1.0
prolific,0do1x8qmwi6ok206agh1xqwb,76,1,0.0,37.0,0.207,0.0,1.0
prolific,0do1x8qmwi6ok206agh1xqwb,77,1,0.0,37.0,0.284,0.0,1.0
prolific,0do1x8qmwi6ok206agh1xqwb,78,1,0.0,37.0,0.3,0.0,0.0
prolific,0do1x8qmwi6ok206agh1xqwb,79,1,0.0,37.0,0.261,0.0,0.0
prolific,0do1x8qmwi6ok206agh1xqwb,80,1,0.0,37.0,0.14,0.0,1.0
prolific,0do1x8qmwi6ok206agh1xqwb,81,1,0.0,37.0,0.293,0.0,0.0
prolific,0do1x8qmwi6ok206agh1xqwb,82,1,2.0,39.0,0.14,0.0,0.0
prolific,0do1x8qmwi6ok206agh1xqwb,83,1,0.0,37.0,0.122,0.0,1.0
prolific,0do1x8qmwi6ok206agh1xqwb,84,1,0.0,37.0,0.33,0.0,0.0
prolific,0do1x8qmwi6ok206agh1xqwb,85,1,0.0,37.0,0.182,0.0,0.0
prolific,0do1x8qmwi6ok206agh1xqwb,86,1,0.0,37.0,0.077,0.0,0.0
prolific,0do1x8qmwi6ok206agh1xqwb,87,1,0.0,37.0,0.139,0.0,0.0
prolific,0do1x8qmwi6ok206agh1xqwb,88,1,2.0,39.0,0.325,0.0,0.0
prolific,0do1x8qmwi6ok206agh1xqwb,89,1,1.0,38.0,0.355,1.0,1.0
prolific,0do1x8qmwi6ok206agh1xqwb,90,1,1.0,38.0,0.164,1.0,1.0
prolific,0imgqq6qokryvins8vmkeh7v,1,1,2.0,39.0,5.677,0.0,0.0
prolific,0imgqq6qokryvins8vmkeh7v,2,1,1.0,38.0,4.726,1.0,1.0
prolific,0imgqq6qokryvins8vmkeh7v,3,1,1.0,38.0,2.777,1.0,0.0
prolific,0imgqq6qokryvins8vmkeh7v,4,1,2.0,39.0,2.003,0.0,0.0
prolific,0imgqq6qokryvins8vmkeh7v,5,1,0.0,37.0,1.431,0.0,0.0
prolific,0imgqq6qokryvins8vmkeh7v,6,1,0.0,37.0,1.078,0.0,0.0
prolific,0imgqq6qokryvins8vmkeh7v,7,1,1.0,38.0,7.133,1.0,0.0
prolific,0imgqq6qokryvins8vmkeh7v,8,1,2.0,39.0,1.798,0.0,0.0
prolific,0imgqq6qokryvins8vmkeh7v,9,1,1.0,38.0,2.833,1.0,0.0
prolific,0imgqq6qokryvins8vmkeh7v,10,1,0.0,37.0,4.574,0.0,0.0
prolific,0imgqq6qokryvins8vmkeh7v,11,1,1.0,38.0,1.829,1.0,1.0
prolific,0imgqq6qokryvins8vmkeh7v,12,1,2.0,39.0,2.94,0.0,0.0
prolific,0imgqq6qokryvins8vmkeh7v,13,1,1.0,38.0,0.879,1.0,0.0
prolific,0imgqq6qokryvins8vmkeh7v,14,1,0.0,37.0,1.192,0.0,1.0
prolific,0imgqq6qokryvins8vmkeh7v,15,1,2.0,39.0,1.215,0.0,0.0
prolific,0imgqq6qokryvins8vmkeh7v,16,0,1.0,38.0,0.384,0.0,0.0
prolific,0imgqq6qokryvins8vmkeh7v,17,0,0.0,37.0,0.563,1.0,1.0
prolific,0imgqq6qokryvins8vmkeh7v,18,0,2.0,39.0,2.386,0.0,0.0
prolific,0imgqq6qokryvins8vmkeh7v,19,0,0.0,37.0,0.412,1.0,1.0
prolific,0imgqq6qokryvins8vmkeh7v,20,0,0.0,37.0,1.277,1.0,1.0
prolific,0imgqq6qokryvins8vmkeh7v,21,0,0.0,37.0,0.874,1.0,1.0
prolific,0imgqq6qokryvins8vmkeh7v,22,0,0.0,37.0,0.845,1.0,1.0
prolific,0imgqq6qokryvins8vmkeh7v,23,0,0.0,37.0,0.794,1.0,1.0
prolific,0imgqq6qokryvins8vmkeh7v,24,0,1.0,38.0,0.662,0.0,0.0
prolific,0imgqq6qokryvins8vmkeh7v,25,0,0.0,37.0,0.417,1.0,0.0
prolific,0imgqq6qokryvins8vmkeh7v,26,0,2.0,39.0,0.356,0.0,1.0
prolific,0imgqq6qokryvins8vmkeh7v,27,0,2.0,39.0,0.631,0.0,0.0
prolific,0imgqq6qokryvins8vmkeh7v,28,0,1.0,38.0,1.587,0.0,0.0
prolific,0imgqq6qokryvins8vmkeh7v,29,0,2.0,39.0,1.004,0.0,0.0
prolific,0imgqq6qokryvins8vmkeh7v,30,0,0.0,37.0,0.344,1.0,1.0
prolific,0imgqq6qokryvins8vmkeh7v,31,1,0.0,37.0,0.455,0.0,1.0
prolific,0imgqq6qokryvins8vmkeh7v,32,1,0.0,37.0,0.39,0.0,1.0
prolific,0imgqq6qokryvins8vmkeh7v,33,1,0.0,37.0,0.379,0.0,0.0
prolific,0imgqq6qokryvins8vmkeh7v,34,1,1.0,38.0,0.194,1.0,0.0
prolific,0imgqq6qokryvins8vmkeh7v,35,1,2.0,39.0,0.462,0.0,1.0
prolific,0imgqq6qokryvins8vmkeh7v,36,1,2.0,39.0,0.35,0.0,1.0
prolific,0imgqq6qokryvins8vmkeh7v,37,1,2.0,39.0,0.363,0.0,1.0
prolific,0imgqq6qokryvins8vmkeh7v,38,1,2.0,39.0,0.601,0.0,0.0
prolific,0imgqq6qokryvins8vmkeh7v,39,1,1.0,38.0,0.173,1.0,1.0
prolific,0imgqq6qokryvins8vmkeh7v,40,1,1.0,38.0,0.616,1.0,1.0
prolific,0imgqq6qokryvins8vmkeh7v,41,1,1.0,38.0,0.964,1.0,1.0
prolific,0imgqq6qokryvins8vmkeh7v,42,1,1.0,38.0,0.331,1.0,0.0
prolific,0imgqq6qokryvins8vmkeh7v,43,1,0.0,37.0,0.516,0.0,1.0
prolific,0imgqq6qokryvins8vmkeh7v,44,1,0.0,37.0,0.412,0.0,0.0
prolific,0imgqq6qokryvins8vmkeh7v,45,1,2.0,39.0,0.548,0.0,0.0
prolific,0imgqq6qokryvins8vmkeh7v,46,0,1.0,38.0,0.568,0.0,0.0
prolific,0imgqq6qokryvins8vmkeh7v,47,0,0.0,37.0,0.029,1.0,1.0
prolific,0imgqq6qokryvins8vmkeh7v,48,0,0.0,37.0,0.36,1.0,1.0
prolific,0imgqq6qokryvins8vmkeh7v,49,0,0.0,37.0,0.282,1.0,1.0
prolific,0imgqq6qokryvins8vmkeh7v,50,0,1.0,38.0,0.748,0.0,0.0
prolific,0imgqq6qokryvins8vmkeh7v,51,0,2.0,39.0,0.356,0.0,0.0
prolific,0imgqq6qokryvins8vmkeh7v,52,0,0.0,37.0,0.073,1.0,1.0
prolific,0imgqq6qokryvins8vmkeh7v,53,0,0.0,37.0,0.616,1.0,1.0
prolific,0imgqq6qokryvins8vmkeh7v,54,0,0.0,37.0,0.327,1.0,1.0
prolific,0imgqq6qokryvins8vmkeh7v,55,0,0.0,37.0,0.296,1.0,1.0
prolific,0imgqq6qokryvins8vmkeh7v,56,0,0.0,37.0,0.231,1.0,1.0
prolific,0imgqq6qokryvins8vmkeh7v,57,0,1.0,38.0,1.407,0.0,0.0
prolific,0imgqq6qokryvins8vmkeh7v,58,0,0.0,37.0,0.303,1.0,0.0
prolific,0imgqq6qokryvins8vmkeh7v,59,0,2.0,39.0,0.06,0.0,1.0
prolific,0imgqq6qokryvins8vmkeh7v,60,0,2.0,39.0,0.24,0.0,0.0
prolific,0imgqq6qokryvins8vmkeh7v,61,2,0.0,37.0,0.294,0.0,0.0
prolific,0imgqq6qokryvins8vmkeh7v,62,2,1.0,38.0,0.064,0.0,0.0
prolific,0imgqq6qokryvins8vmkeh7v,63,2,0.0,37.0,0.904,0.0,0.0
prolific,0imgqq6qokryvins8vmkeh7v,64,2,2.0,39.0,0.245,1.0,1.0
prolific,0imgqq6qokryvins8vmkeh7v,65,2,2.0,39.0,0.266,1.0,1.0
prolific,0imgqq6qokryvins8vmkeh7v,66,2,2.0,39.0,0.406,1.0,1.0
prolific,0imgqq6qokryvins8vmkeh7v,67,2,2.0,39.0,0.345,1.0,1.0
prolific,0imgqq6qokryvins8vmkeh7v,68,2,2.0,39.0,0.305,1.0,1.0
prolific,0imgqq6qokryvins8vmkeh7v,69,2,2.0,39.0,0.319,1.0,1.0
prolific,0imgqq6qokryvins8vmkeh7v,70,2,2.0,39.0,0.181,1.0,1.0
prolific,0imgqq6qokryvins8vmkeh7v,71,2,2.0,39.0,0.352,1.0,1.0
prolific,0imgqq6qokryvins8vmkeh7v,72,2,2.0,39.0,0.319,1.0,1.0
prolific,0imgqq6qokryvins8vmkeh7v,73,2,2.0,39.0,0.312,1.0,1.0
prolific,0imgqq6qokryvins8vmkeh7v,74,2,2.0,39.0,0.325,1.0,1.0
prolific,0imgqq6qokryvins8vmkeh7v,75,2,2.0,39.0,0.268,1.0,1.0
prolific,0imgqq6qokryvins8vmkeh7v,76,0,2.0,39.0,0.358,0.0,0.0
prolific,0imgqq6qokryvins8vmkeh7v,77,0,0.0,37.0,0.328,1.0,1.0
prolific,0imgqq6qokryvins8vmkeh7v,78,0,0.0,37.0,0.107,1.0,1.0
prolific,0imgqq6qokryvins8vmkeh7v,79,0,0.0,37.0,0.1,1.0,0.0
prolific,0imgqq6qokryvins8vmkeh7v,80,0,1.0,38.0,0.036,0.0,0.0
prolific,0imgqq6qokryvins8vmkeh7v,81,0,2.0,39.0,0.127,0.0,0.0
prolific,0imgqq6qokryvins8vmkeh7v,82,0,0.0,37.0,0.402,1.0,1.0
prolific,0imgqq6qokryvins8vmkeh7v,83,0,0.0,37.0,0.171,1.0,1.0
prolific,0imgqq6qokryvins8vmkeh7v,84,0,0.0,37.0,0.191,1.0,1.0
prolific,0imgqq6qokryvins8vmkeh7v,85,0,0.0,37.0,0.354,1.0,1.0
prolific,0imgqq6qokryvins8vmkeh7v,86,0,0.0,37.0,0.166,1.0,1.0
prolific,0imgqq6qokryvins8vmkeh7v,87,0,0.0,37.0,0.215,1.0,1.0
prolific,0imgqq6qokryvins8vmkeh7v,88,0,0.0,37.0,0.217,1.0,1.0
prolific,0imgqq6qokryvins8vmkeh7v,89,0,0.0,37.0,0.11,1.0,0.0
prolific,0imgqq6qokryvins8vmkeh7v,90,0,2.0,39.0,1.087,0.0,0.0
prolific,0kw0yjeyfmbqohivbcjol0y4,1,2,1.0,38.0,5.115,0.0,0.0
prolific,0kw0yjeyfmbqohivbcjol0y4,2,2,0.0,37.0,2.49,0.0,0.0
prolific,0kw0yjeyfmbqohivbcjol0y4,3,2,2.0,39.0,0.571,1.0,1.0
prolific,0kw0yjeyfmbqohivbcjol0y4,4,2,2.0,39.0,0.717,1.0,1.0
prolific,0kw0yjeyfmbqohivbcjol0y4,5,2,1.0,38.0,0.915,0.0,0.0
prolific,0kw0yjeyfmbqohivbcjol0y4,6,2,0.0,37.0,1.412,0.0,0.0
prolific,0kw0yjeyfmbqohivbcjol0y4,7,2,2.0,39.0,0.89,1.0,1.0
prolific,0kw0yjeyfmbqohivbcjol0y4,8,2,2.0,39.0,0.554,1.0,1.0
prolific,0kw0yjeyfmbqohivbcjol0y4,9,2,2.0,39.0,0.403,1.0,1.0
prolific,0kw0yjeyfmbqohivbcjol0y4,10,2,2.0,39.0,0.421,1.0,0.0
prolific,0kw0yjeyfmbqohivbcjol0y4,11,2,1.0,38.0,0.472,0.0,0.0
prolific,0kw0yjeyfmbqohivbcjol0y4,12,2,0.0,37.0,0.343,0.0,0.0
prolific,0kw0yjeyfmbqohivbcjol0y4,13,2,2.0,39.0,0.488,1.0,0.0
prolific,0kw0yjeyfmbqohivbcjol0y4,14,2,2.0,39.0,0.417,1.0,1.0
prolific,0kw0yjeyfmbqohivbcjol0y4,15,2,2.0,39.0,1.14,1.0,1.0
prolific,0kw0yjeyfmbqohivbcjol0y4,16,0,2.0,39.0,0.489,0.0,0.0
prolific,0kw0yjeyfmbqohivbcjol0y4,17,0,1.0,38.0,0.452,0.0,0.0
prolific,0kw0yjeyfmbqohivbcjol0y4,18,0,1.0,38.0,0.33,0.0,1.0
prolific,0kw0yjeyfmbqohivbcjol0y4,19,0,1.0,38.0,0.443,0.0,0.0
prolific,0kw0yjeyfmbqohivbcjol0y4,20,0,0.0,37.0,0.381,1.0,1.0
prolific,0kw0yjeyfmbqohivbcjol0y4,21,0,2.0,39.0,0.496,0.0,0.0
prolific,0kw0yjeyfmbqohivbcjol0y4,22,0,2.0,39.0,0.524,0.0,0.0
prolific,0kw0yjeyfmbqohivbcjol0y4,23,0,1.0,38.0,0.372,0.0,0.0
prolific,0kw0yjeyfmbqohivbcjol0y4,24,0,1.0,38.0,0.268,0.0,1.0
prolific,0kw0yjeyfmbqohivbcjol0y4,25,0,0.0,37.0,0.37,1.0,1.0
prolific,0kw0yjeyfmbqohivbcjol0y4,26,0,2.0,39.0,1.195,0.0,0.0
prolific,0kw0yjeyfmbqohivbcjol0y4,27,0,2.0,39.0,0.411,0.0,0.0
prolific,0kw0yjeyfmbqohivbcjol0y4,28,0,1.0,38.0,0.707,0.0,1.0
prolific,0kw0yjeyfmbqohivbcjol0y4,29,0,0.0,37.0,0.542,1.0,1.0
prolific,0kw0yjeyfmbqohivbcjol0y4,30,0,1.0,38.0,1.162,0.0,0.0
prolific,0kw0yjeyfmbqohivbcjol0y4,31,1,0.0,37.0,0.227,0.0,0.0
prolific,0kw0yjeyfmbqohivbcjol0y4,32,1,2.0,39.0,0.317,0.0,0.0
prolific,0kw0yjeyfmbqohivbcjol0y4,33,1,2.0,39.0,0.307,0.0,0.0
prolific,0kw0yjeyfmbqohivbcjol0y4,34,1,2.0,39.0,0.269,0.0,0.0
prolific,0kw0yjeyfmbqohivbcjol0y4,35,1,1.0,38.0,0.139,1.0,1.0
prolific,0kw0yjeyfmbqohivbcjol0y4,36,1,0.0,37.0,1.467,0.0,0.0
prolific,0kw0yjeyfmbqohivbcjol0y4,37,1,1.0,38.0,0.573,1.0,1.0
prolific,0kw0yjeyfmbqohivbcjol0y4,38,1,1.0,38.0,0.411,1.0,1.0
prolific,0kw0yjeyfmbqohivbcjol0y4,39,1,1.0,38.0,0.482,1.0,1.0
prolific,0kw0yjeyfmbqohivbcjol0y4,40,1,1.0,38.0,0.382,1.0,1.0
prolific,0kw0yjeyfmbqohivbcjol0y4,41,1,1.0,38.0,0.507,1.0,1.0
prolific,0kw0yjeyfmbqohivbcjol0y4,42,1,1.0,38.0,0.34,1.0,1.0
prolific,0kw0yjeyfmbqohivbcjol0y4,43,1,1.0,38.0,0.347,1.0,1.0
prolific,0kw0yjeyfmbqohivbcjol0y4,44,1,1.0,38.0,0.389,1.0,1.0
prolific,0kw0yjeyfmbqohivbcjol0y4,45,1,1.0,38.0,0.444,1.0,1.0
prolific,0kw0yjeyfmbqohivbcjol0y4,46,2,1.0,38.0,0.388,0.0,1.0
prolific,0kw0yjeyfmbqohivbcjol0y4,47,2,1.0,38.0,0.421,0.0,0.0
prolific,0kw0yjeyfmbqohivbcjol0y4,48,2,2.0,39.0,0.389,1.0,1.0
prolific,0kw0yjeyfmbqohivbcjol0y4,49,2,2.0,39.0,0.572,1.0,1.0
prolific,0kw0yjeyfmbqohivbcjol0y4,50,2,2.0,39.0,0.349,1.0,1.0
prolific,0kw0yjeyfmbqohivbcjol0y4,51,2,2.0,39.0,0.386,1.0,1.0
prolific,0kw0yjeyfmbqohivbcjol0y4,52,2,2.0,39.0,0.355,1.0,1.0
prolific,0kw0yjeyfmbqohivbcjol0y4,53,2,2.0,39.0,0.425,1.0,0.0
prolific,0kw0yjeyfmbqohivbcjol0y4,54,2,0.0,37.0,0.684,0.0,0.0
prolific,0kw0yjeyfmbqohivbcjol0y4,55,2,1.0,38.0,0.324,0.0,0.0
prolific,0kw0yjeyfmbqohivbcjol0y4,56,2,0.0,37.0,0.625,0.0,0.0
prolific,0kw0yjeyfmbqohivbcjol0y4,57,2,2.0,39.0,0.394,1.0,1.0
prolific,0kw0yjeyfmbqohivbcjol0y4,58,2,2.0,39.0,0.515,1.0,1.0
prolific,0kw0yjeyfmbqohivbcjol0y4,59,2,2.0,39.0,3.737,1.0,1.0
prolific,0kw0yjeyfmbqohivbcjol0y4,60,2,2.0,39.0,0.371,1.0,1.0
prolific,0kw0yjeyfmbqohivbcjol0y4,61,1,2.0,39.0,0.308,0.0,0.0
prolific,0kw0yjeyfmbqohivbcjol0y4,62,1,1.0,38.0,0.324,1.0,1.0
prolific,0kw0yjeyfmbqohivbcjol0y4,63,1,1.0,38.0,0.332,1.0,1.0
prolific,0kw0yjeyfmbqohivbcjol0y4,64,1,1.0,38.0,0.372,1.0,1.0
prolific,0kw0yjeyfmbqohivbcjol0y4,65,1,1.0,38.0,0.381,1.0,1.0
prolific,0kw0yjeyfmbqohivbcjol0y4,66,1,1.0,38.0,0.404,1.0,1.0
prolific,0kw0yjeyfmbqohivbcjol0y4,67,1,1.0,38.0,0.428,1.0,0.0
prolific,0kw0yjeyfmbqohivbcjol0y4,68,1,0.0,37.0,0.355,0.0,0.0
prolific,0kw0yjeyfmbqohivbcjol0y4,69,1,2.0,39.0,0.466,0.0,0.0
prolific,0kw0yjeyfmbqohivbcjol0y4,70,1,0.0,37.0,0.348,0.0,0.0
prolific,0kw0yjeyfmbqohivbcjol0y4,71,1,1.0,38.0,0.314,1.0,1.0
prolific,0kw0yjeyfmbqohivbcjol0y4,72,1,1.0,38.0,0.302,1.0,1.0
prolific,0kw0yjeyfmbqohivbcjol0y4,73,1,1.0,38.0,0.483,1.0,1.0
prolific,0kw0yjeyfmbqohivbcjol0y4,74,1,1.0,38.0,0.739,1.0,1.0
prolific,0kw0yjeyfmbqohivbcjol0y4,75,1,1.0,38.0,2.492,1.0,0.0
prolific,0kw0yjeyfmbqohivbcjol0y4,76,2,1.0,38.0,1.744,0.0,0.0
prolific,0kw0yjeyfmbqohivbcjol0y4,77,2,0.0,37.0,0.309,0.0,0.0
prolific,0kw0yjeyfmbqohivbcjol0y4,78,2,2.0,39.0,0.38,1.0,0.0
prolific,0kw0yjeyfmbqohivbcjol0y4,79,2,1.0,38.0,0.924,0.0,0.0
prolific,0kw0yjeyfmbqohivbcjol0y4,80,2,0.0,37.0,0.593,0.0,1.0
prolific,0kw0yjeyfmbqohivbcjol0y4,81,2,0.0,37.0,0.38,0.0,0.0
prolific,0kw0yjeyfmbqohivbcjol0y4,82,2,2.0,39.0,0.363,1.0,1.0
prolific,0kw0yjeyfmbqohivbcjol0y4,83,2,2.0,39.0,0.346,1.0,1.0
prolific,0kw0yjeyfmbqohivbcjol0y4,84,2,2.0,39.0,0.307,1.0,1.0
prolific,0kw0yjeyfmbqohivbcjol0y4,85,2,2.0,39.0,0.98,1.0,1.0
prolific,0kw0yjeyfmbqohivbcjol0y4,86,2,2.0,39.0,0.29,1.0,1.0
prolific,0kw0yjeyfmbqohivbcjol0y4,87,2,2.0,39.0,0.842,1.0,1.0
prolific,0kw0yjeyfmbqohivbcjol0y4,88,2,2.0,39.0,0.399,1.0,1.0
prolific,0kw0yjeyfmbqohivbcjol0y4,89,2,2.0,39.0,0.533,1.0,0.0
prolific,0kw0yjeyfmbqohivbcjol0y4,90,2,1.0,38.0,0.378,0.0,0.0
prolific,0tztck6s2pmdsciuznilgj90,1,1,0.0,37.0,4.395,0.0,0.0
prolific,0tztck6s2pmdsciuznilgj90,2,1,1.0,38.0,1.746,1.0,1.0
prolific,0tztck6s2pmdsciuznilgj90,3,1,1.0,38.0,0.391,1.0,1.0
prolific,0tztck6s2pmdsciuznilgj90,4,1,2.0,39.0,0.328,0.0,0.0
prolific,0tztck6s2pmdsciuznilgj90,5,1,2.0,39.0,0.307,0.0,0.0
prolific,0tztck6s2pmdsciuznilgj90,6,1,1.0,38.0,0.051,1.0,1.0
prolific,0tztck6s2pmdsciuznilgj90,7,1,1.0,38.0,0.04,1.0,1.0
prolific,0tztck6s2pmdsciuznilgj90,8,1,1.0,38.0,0.398,1.0,1.0
prolific,0tztck6s2pmdsciuznilgj90,9,1,1.0,38.0,0.377,1.0,1.0
prolific,0tztck6s2pmdsciuznilgj90,10,1,1.0,38.0,0.418,1.0,1.0
prolific,0tztck6s2pmdsciuznilgj90,11,1,1.0,38.0,0.254,1.0,1.0
prolific,0tztck6s2pmdsciuznilgj90,12,1,1.0,38.0,0.356,1.0,1.0
prolific,0tztck6s2pmdsciuznilgj90,13,1,1.0,38.0,0.274,1.0,1.0
prolific,0tztck6s2pmdsciuznilgj90,14,1,1.0,38.0,0.04,1.0,1.0
prolific,0tztck6s2pmdsciuznilgj90,15,1,1.0,38.0,0.04,1.0,1.0
prolific,0tztck6s2pmdsciuznilgj90,16,0,1.0,38.0,0.01,0.0,0.0
prolific,0tztck6s2pmdsciuznilgj90,17,0,0.0,37.0,0.039,1.0,0.0
prolific,0tztck6s2pmdsciuznilgj90,18,0,0.0,37.0,0.061,1.0,0.0
prolific,0tztck6s2pmdsciuznilgj90,19,0,1.0,38.0,0.429,0.0,0.0
prolific,0tztck6s2pmdsciuznilgj90,20,0,1.0,38.0,0.168,0.0,0.0
prolific,0tztck6s2pmdsciuznilgj90,21,0,2.0,39.0,0.105,0.0,1.0
prolific,0tztck6s2pmdsciuznilgj90,22,0,2.0,39.0,0.146,0.0,1.0
prolific,0tztck6s2pmdsciuznilgj90,23,0,2.0,39.0,0.271,0.0,0.0
prolific,0tztck6s2pmdsciuznilgj90,24,0,2.0,39.0,0.306,0.0,0.0
prolific,0tztck6s2pmdsciuznilgj90,25,0,2.0,39.0,0.228,0.0,0.0
prolific,0tztck6s2pmdsciuznilgj90,26,0,2.0,39.0,0.204,0.0,0.0
prolific,0tztck6s2pmdsciuznilgj90,27,0,0.0,37.0,0.088,1.0,1.0
prolific,0tztck6s2pmdsciuznilgj90,28,0,0.0,37.0,0.035,1.0,0.0
prolific,0tztck6s2pmdsciuznilgj90,29,0,0.0,37.0,0.057,1.0,1.0
prolific,0tztck6s2pmdsciuznilgj90,30,0,0.0,37.0,0.072,1.0,1.0
prolific,0tztck6s2pmdsciuznilgj90,31,1,0.0,37.0,0.072,0.0,0.0
prolific,0tztck6s2pmdsciuznilgj90,32,1,0.0,37.0,0.089,0.0,0.0
prolific,0tztck6s2pmdsciuznilgj90,33,1,0.0,37.0,0.114,0.0,1.0
prolific,0tztck6s2pmdsciuznilgj90,34,1,1.0,38.0,0.009,1.0,0.0
prolific,0tztck6s2pmdsciuznilgj90,35,1,0.0,37.0,0.003,0.0,0.0
prolific,0tztck6s2pmdsciuznilgj90,36,1,0.0,37.0,0.051,0.0,0.0
prolific,0tztck6s2pmdsciuznilgj90,37,1,0.0,37.0,0.126,0.0,0.0
prolific,0tztck6s2pmdsciuznilgj90,38,1,0.0,37.0,0.018,0.0,0.0
prolific,0tztck6s2pmdsciuznilgj90,39,1,0.0,37.0,0.067,0.0,0.0
prolific,0tztck6s2pmdsciuznilgj90,40,1,2.0,39.0,0.009,0.0,1.0
prolific,0tztck6s2pmdsciuznilgj90,41,1,2.0,39.0,0.025,0.0,0.0
prolific,0tztck6s2pmdsciuznilgj90,42,1,2.0,39.0,0.076,0.0,0.0
prolific,0tztck6s2pmdsciuznilgj90,43,1,2.0,39.0,0.05,0.0,0.0
prolific,0tztck6s2pmdsciuznilgj90,44,1,1.0,38.0,0.077,1.0,1.0
prolific,0tztck6s2pmdsciuznilgj90,45,1,1.0,38.0,0.077,1.0,1.0
prolific,0tztck6s2pmdsciuznilgj90,46,0,1.0,38.0,0.163,0.0,0.0
prolific,0tztck6s2pmdsciuznilgj90,47,0,2.0,39.0,0.248,0.0,0.0
prolific,0tztck6s2pmdsciuznilgj90,48,0,0.0,37.0,0.333,1.0,0.0
prolific,0tztck6s2pmdsciuznilgj90,49,0,1.0,38.0,0.02,0.0,0.0
prolific,0tztck6s2pmdsciuznilgj90,50,0,2.0,39.0,0.093,0.0,1.0
prolific,0tztck6s2pmdsciuznilgj90,51,0,2.0,39.0,0.146,0.0,0.0
prolific,0tztck6s2pmdsciuznilgj90,52,0,0.0,37.0,0.03,1.0,1.0
prolific,0tztck6s2pmdsciuznilgj90,53,0,0.0,37.0,0.039,1.0,1.0
prolific,0tztck6s2pmdsciuznilgj90,54,0,0.0,37.0,0.019,1.0,1.0
prolific,0tztck6s2pmdsciuznilgj90,55,0,0.0,37.0,0.083,1.0,1.0
prolific,0tztck6s2pmdsciuznilgj90,56,0,0.0,37.0,0.114,1.0,1.0
prolific,0tztck6s2pmdsciuznilgj90,57,0,0.0,37.0,0.009,1.0,0.0
prolific,0tztck6s2pmdsciuznilgj90,58,0,1.0,38.0,0.01,0.0,0.0
prolific,0tztck6s2pmdsciuznilgj90,59,0,2.0,39.0,0.386,0.0,1.0
prolific,0tztck6s2pmdsciuznilgj90,60,0,2.0,39.0,0.018,0.0,0.0
prolific,0tztck6s2pmdsciuznilgj90,61,1,0.0,37.0,0.074,0.0,0.0
prolific,0tztck6s2pmdsciuznilgj90,62,1,1.0,38.0,0.199,1.0,1.0
prolific,0tztck6s2pmdsciuznilgj90,63,1,1.0,38.0,0.019,1.0,1.0
prolific,0tztck6s2pmdsciuznilgj90,64,1,1.0,38.0,0.008,1.0,1.0
prolific,0tztck6s2pmdsciuznilgj90,65,1,1.0,38.0,0.136,1.0,1.0
prolific,0tztck6s2pmdsciuznilgj90,66,1,1.0,38.0,0.157,1.0,1.0
prolific,0tztck6s2pmdsciuznilgj90,67,1,1.0,38.0,0.04,1.0,0.0
prolific,0tztck6s2pmdsciuznilgj90,68,1,2.0,39.0,0.408,0.0,0.0
prolific,0tztck6s2pmdsciuznilgj90,69,1,0.0,37.0,0.04,0.0,0.0
prolific,0tztck6s2pmdsciuznilgj90,70,1,1.0,38.0,0.104,1.0,1.0
prolific,0tztck6s2pmdsciuznilgj90,71,1,1.0,38.0,0.062,1.0,1.0
prolific,0tztck6s2pmdsciuznilgj90,72,1,1.0,38.0,0.05,1.0,1.0
prolific,0tztck6s2pmdsciuznilgj90,73,1,1.0,38.0,0.051,1.0,1.0
prolific,0tztck6s2pmdsciuznilgj90,74,1,1.0,38.0,0.103,1.0,1.0
prolific,0tztck6s2pmdsciuznilgj90,75,1,1.0,38.0,0.041,1.0,1.0
prolific,0tztck6s2pmdsciuznilgj90,76,2,1.0,38.0,0.103,0.0,1.0
prolific,0tztck6s2pmdsciuznilgj90,77,2,1.0,38.0,0.062,0.0,0.0
prolific,0tztck6s2pmdsciuznilgj90,78,2,2.0,39.0,0.05,1.0,0.0
prolific,0tztck6s2pmdsciuznilgj90,79,2,0.0,37.0,0.083,0.0,0.0
prolific,0tztck6s2pmdsciuznilgj90,80,2,1.0,38.0,0.418,0.0,0.0
prolific,0tztck6s2pmdsciuznilgj90,81,2,2.0,39.0,0.03,1.0,1.0
prolific,0tztck6s2pmdsciuznilgj90,82,2,2.0,39.0,0.084,1.0,1.0
prolific,0tztck6s2pmdsciuznilgj90,83,2,2.0,39.0,0.105,1.0,1.0
prolific,0tztck6s2pmdsciuznilgj90,84,2,2.0,39.0,0.071,1.0,1.0
prolific,0tztck6s2pmdsciuznilgj90,85,2,2.0,39.0,0.147,1.0,1.0
prolific,0tztck6s2pmdsciuznilgj90,86,2,2.0,39.0,0.105,1.0,0.0
prolific,0tztck6s2pmdsciuznilgj90,87,2,0.0,37.0,0.43,0.0,0.0
prolific,0tztck6s2pmdsciuznilgj90,88,2,1.0,38.0,0.386,0.0,1.0
prolific,0tztck6s2pmdsciuznilgj90,89,2,1.0,38.0,0.008,0.0,0.0
prolific,0tztck6s2pmdsciuznilgj90,90,2,2.0,39.0,0.083,1.0,1.0
prolific,0vl2swi8jsl18qhae18l9lfn,1,1,0.0,37.0,3.759,0.0,0.0
prolific,0vl2swi8jsl18qhae18l9lfn,2,1,1.0,38.0,1.383,1.0,1.0
prolific,0vl2swi8jsl18qhae18l9lfn,3,1,1.0,38.0,1.809,1.0,1.0
prolific,0vl2swi8jsl18qhae18l9lfn,4,1,1.0,38.0,0.976,1.0,1.0
prolific,0vl2swi8jsl18qhae18l9lfn,5,1,1.0,38.0,0.721,1.0,0.0
prolific,0vl2swi8jsl18qhae18l9lfn,6,1,2.0,39.0,0.746,0.0,0.0
prolific,0vl2swi8jsl18qhae18l9lfn,7,1,1.0,38.0,1.959,1.0,1.0
prolific,0vl2swi8jsl18qhae18l9lfn,8,1,1.0,38.0,0.512,1.0,1.0
prolific,0vl2swi8jsl18qhae18l9lfn,9,1,1.0,38.0,0.516,1.0,1.0
prolific,0vl2swi8jsl18qhae18l9lfn,10,1,1.0,38.0,0.336,1.0,1.0
prolific,0vl2swi8jsl18qhae18l9lfn,11,1,1.0,38.0,0.392,1.0,1.0
prolific,0vl2swi8jsl18qhae18l9lfn,12,1,1.0,38.0,0.6,1.0,1.0
prolific,0vl2swi8jsl18qhae18l9lfn,13,1,1.0,38.0,0.375,1.0,1.0
prolific,0vl2swi8jsl18qhae18l9lfn,14,1,1.0,38.0,0.381,1.0,0.0
prolific,0vl2swi8jsl18qhae18l9lfn,15,1,0.0,37.0,1.025,0.0,0.0
prolific,0vl2swi8jsl18qhae18l9lfn,16,2,1.0,38.0,1.312,0.0,0.0
prolific,0vl2swi8jsl18qhae18l9lfn,17,2,2.0,39.0,0.346,1.0,1.0
prolific,0vl2swi8jsl18qhae18l9lfn,18,2,2.0,39.0,0.31,1.0,0.0
prolific,0vl2swi8jsl18qhae18l9lfn,19,2,1.0,38.0,0.889,0.0,1.0
prolific,0vl2swi8jsl18qhae18l9lfn,20,2,1.0,38.0,0.363,0.0,0.0
prolific,0vl2swi8jsl18qhae18l9lfn,21,2,1.0,38.0,0.492,0.0,0.0
prolific,0vl2swi8jsl18qhae18l9lfn,22,2,2.0,39.0,1.091,1.0,1.0
prolific,0vl2swi8jsl18qhae18l9lfn,23,2,2.0,39.0,0.359,1.0,1.0
prolific,0vl2swi8jsl18qhae18l9lfn,24,2,2.0,39.0,0.444,1.0,1.0
prolific,0vl2swi8jsl18qhae18l9lfn,25,2,2.0,39.0,0.494,1.0,0.0
prolific,0vl2swi8jsl18qhae18l9lfn,26,2,0.0,37.0,0.75,0.0,0.0
prolific,0vl2swi8jsl18qhae18l9lfn,27,2,1.0,38.0,0.477,0.0,1.0
prolific,0vl2swi8jsl18qhae18l9lfn,28,2,1.0,38.0,0.396,0.0,1.0
prolific,0vl2swi8jsl18qhae18l9lfn,29,2,1.0,38.0,0.388,0.0,0.0
prolific,0vl2swi8jsl18qhae18l9lfn,30,2,2.0,39.0,0.373,1.0,0.0
prolific,0vl2swi8jsl18qhae18l9lfn,31,1,0.0,37.0,0.688,0.0,0.0
prolific,0vl2swi8jsl18qhae18l9lfn,32,1,1.0,38.0,0.379,1.0,1.0
prolific,0vl2swi8jsl18qhae18l9lfn,33,1,1.0,38.0,0.428,1.0,1.0
prolific,0vl2swi8jsl18qhae18l9lfn,34,1,1.0,38.0,0.358,1.0,0.0
prolific,0vl2swi8jsl18qhae18l9lfn,35,1,1.0,38.0,0.403,1.0,1.0
prolific,0vl2swi8jsl18qhae18l9lfn,36,1,1.0,38.0,0.36,1.0,1.0
prolific,0vl2swi8jsl18qhae18l9lfn,37,1,1.0,38.0,0.366,1.0,1.0
prolific,0vl2swi8jsl18qhae18l9lfn,38,1,1.0,38.0,0.481,1.0,1.0
prolific,0vl2swi8jsl18qhae18l9lfn,39,1,1.0,38.0,0.457,1.0,1.0
prolific,0vl2swi8jsl18qhae18l9lfn,40,1,1.0,38.0,0.345,1.0,1.0
prolific,0vl2swi8jsl18qhae18l9lfn,41,1,1.0,38.0,0.366,1.0,1.0
prolific,0vl2swi8jsl18qhae18l9lfn,42,1,1.0,38.0,0.506,1.0,0.0
prolific,0vl2swi8jsl18qhae18l9lfn,43,1,1.0,38.0,0.73,1.0,0.0
prolific,0vl2swi8jsl18qhae18l9lfn,44,1,2.0,39.0,0.333,0.0,0.0
prolific,0vl2swi8jsl18qhae18l9lfn,45,1,0.0,37.0,0.489,0.0,0.0
prolific,0vl2swi8jsl18qhae18l9lfn,46,0,1.0,38.0,0.464,0.0,0.0
prolific,0vl2swi8jsl18qhae18l9lfn,47,0,1.0,38.0,0.333,0.0,0.0
prolific,0vl2swi8jsl18qhae18l9lfn,48,0,1.0,38.0,0.782,0.0,0.0
prolific,0vl2swi8jsl18qhae18l9lfn,49,0,2.0,39.0,0.382,0.0,0.0
prolific,0vl2swi8jsl18qhae18l9lfn,50,0,2.0,39.0,0.297,0.0,0.0
prolific,0vl2swi8jsl18qhae18l9lfn,51,0,0.0,37.0,0.293,1.0,1.0
prolific,0vl2swi8jsl18qhae18l9lfn,52,0,0.0,37.0,0.345,1.0,0.0
prolific,0vl2swi8jsl18qhae18l9lfn,53,0,0.0,37.0,0.307,1.0,1.0
prolific,0vl2swi8jsl18qhae18l9lfn,54,0,0.0,37.0,0.347,1.0,1.0
prolific,0vl2swi8jsl18qhae18l9lfn,55,0,0.0,37.0,0.406,1.0,0.0
prolific,0vl2swi8jsl18qhae18l9lfn,56,0,0.0,37.0,0.27,1.0,0.0
prolific,0vl2swi8jsl18qhae18l9lfn,57,0,1.0,38.0,0.108,0.0,0.0
prolific,0vl2swi8jsl18qhae18l9lfn,58,0,2.0,39.0,0.524,0.0,0.0
prolific,0vl2swi8jsl18qhae18l9lfn,59,0,0.0,37.0,0.073,1.0,1.0
prolific,0vl2swi8jsl18qhae18l9lfn,60,0,0.0,37.0,0.335,1.0,1.0
prolific,0vl2swi8jsl18qhae18l9lfn,61,1,0.0,37.0,0.284,0.0,0.0
prolific,0vl2swi8jsl18qhae18l9lfn,62,1,0.0,37.0,0.344,0.0,0.0
prolific,0vl2swi8jsl18qhae18l9lfn,63,1,1.0,38.0,0.113,1.0,0.0
prolific,0vl2swi8jsl18qhae18l9lfn,64,1,1.0,38.0,0.262,1.0,1.0
prolific,0vl2swi8jsl18qhae18l9lfn,65,1,1.0,38.0,0.375,1.0,1.0
prolific,0vl2swi8jsl18qhae18l9lfn,66,1,1.0,38.0,0.521,1.0,1.0
prolific,0vl2swi8jsl18qhae18l9lfn,67,1,1.0,38.0,0.38,1.0,1.0
prolific,0vl2swi8jsl18qhae18l9lfn,68,1,1.0,38.0,0.412,1.0,1.0
prolific,0vl2swi8jsl18qhae18l9lfn,69,1,1.0,38.0,0.392,1.0,1.0
prolific,0vl2swi8jsl18qhae18l9lfn,70,1,1.0,38.0,0.365,1.0,1.0
prolific,0vl2swi8jsl18qhae18l9lfn,71,1,1.0,38.0,0.411,1.0,1.0
prolific,0vl2swi8jsl18qhae18l9lfn,72,1,1.0,38.0,0.291,1.0,1.0
prolific,0vl2swi8jsl18qhae18l9lfn,73,1,1.0,38.0,0.41,1.0,1.0
prolific,0vl2swi8jsl18qhae18l9lfn,74,1,1.0,38.0,0.397,1.0,1.0
prolific,0vl2swi8jsl18qhae18l9lfn,75,1,1.0,38.0,0.571,1.0,0.0
prolific,0vl2swi8jsl18qhae18l9lfn,76,0,1.0,38.0,0.321,0.0,0.0
prolific,0vl2swi8jsl18qhae18l9lfn,77,0,0.0,37.0,0.636,1.0,1.0
prolific,0vl2swi8jsl18qhae18l9lfn,78,0,0.0,37.0,0.38,1.0,1.0
prolific,0vl2swi8jsl18qhae18l9lfn,79,0,0.0,37.0,0.405,1.0,1.0
prolific,0vl2swi8jsl18qhae18l9lfn,80,0,0.0,37.0,0.376,1.0,0.0
prolific,0vl2swi8jsl18qhae18l9lfn,81,0,0.0,37.0,0.341,1.0,1.0
prolific,0vl2swi8jsl18qhae18l9lfn,82,0,0.0,37.0,0.357,1.0,0.0
prolific,0vl2swi8jsl18qhae18l9lfn,83,0,0.0,37.0,0.374,1.0,1.0
prolific,0vl2swi8jsl18qhae18l9lfn,84,0,0.0,37.0,0.334,1.0,1.0
prolific,0vl2swi8jsl18qhae18l9lfn,85,0,0.0,37.0,0.333,1.0,1.0
prolific,0vl2swi8jsl18qhae18l9lfn,86,0,0.0,37.0,0.391,1.0,1.0
prolific,0vl2swi8jsl18qhae18l9lfn,87,0,0.0,37.0,0.385,1.0,1.0
prolific,0vl2swi8jsl18qhae18l9lfn,88,0,0.0,37.0,0.318,1.0,1.0
prolific,0vl2swi8jsl18qhae18l9lfn,89,0,0.0,37.0,0.253,1.0,0.0
prolific,0vl2swi8jsl18qhae18l9lfn,90,0,0.0,37.0,0.35,1.0,1.0
prolific,12c8bstpywx1b84b0gh2tof4,1,1,1.0,38.0,1.599,1.0,1.0
prolific,12c8bstpywx1b84b0gh2tof4,2,1,1.0,38.0,0.644,1.0,1.0
prolific,12c8bstpywx1b84b0gh2tof4,3,1,1.0,38.0,1.285,1.0,0.0
prolific,12c8bstpywx1b84b0gh2tof4,4,1,0.0,37.0,0.526,0.0,1.0
prolific,12c8bstpywx1b84b0gh2tof4,5,1,0.0,37.0,0.533,0.0,1.0
prolific,12c8bstpywx1b84b0gh2tof4,6,1,0.0,37.0,0.743,0.0,0.0
prolific,12c8bstpywx1b84b0gh2tof4,7,1,2.0,39.0,0.597,0.0,0.0
prolific,12c8bstpywx1b84b0gh2tof4,8,1,1.0,38.0,1.125,1.0,1.0
prolific,12c8bstpywx1b84b0gh2tof4,9,1,1.0,38.0,0.557,1.0,1.0
prolific,12c8bstpywx1b84b0gh2tof4,10,1,1.0,38.0,0.31,1.0,0.0
prolific,12c8bstpywx1b84b0gh2tof4,11,1,1.0,38.0,0.134,1.0,1.0
prolific,12c8bstpywx1b84b0gh2tof4,12,1,1.0,38.0,0.247,1.0,1.0
prolific,12c8bstpywx1b84b0gh2tof4,13,1,1.0,38.0,0.269,1.0,1.0
prolific,12c8bstpywx1b84b0gh2tof4,14,1,1.0,38.0,0.23,1.0,1.0
prolific,12c8bstpywx1b84b0gh2tof4,15,1,1.0,38.0,0.302,1.0,0.0
prolific,12c8bstpywx1b84b0gh2tof4,16,0,2.0,39.0,0.245,0.0,0.0
prolific,12c8bstpywx1b84b0gh2tof4,17,0,0.0,37.0,0.302,1.0,0.0
prolific,12c8bstpywx1b84b0gh2tof4,18,0,1.0,38.0,0.206,0.0,0.0
prolific,12c8bstpywx1b84b0gh2tof4,19,0,1.0,38.0,0.245,0.0,0.0
prolific,12c8bstpywx1b84b0gh2tof4,20,0,2.0,39.0,0.124,0.0,0.0
prolific,12c8bstpywx1b84b0gh2tof4,21,0,0.0,37.0,0.286,1.0,0.0
prolific,12c8bstpywx1b84b0gh2tof4,22,0,0.0,37.0,0.228,1.0,1.0
prolific,12c8bstpywx1b84b0gh2tof4,23,0,0.0,37.0,0.221,1.0,0.0
prolific,12c8bstpywx1b84b0gh2tof4,24,0,2.0,39.0,0.182,0.0,0.0
prolific,12c8bstpywx1b84b0gh2tof4,25,0,1.0,38.0,0.126,0.0,0.0
prolific,12c8bstpywx1b84b0gh2tof4,26,0,1.0,38.0,0.172,0.0,0.0
prolific,12c8bstpywx1b84b0gh2tof4,27,0,2.0,39.0,0.238,0.0,0.0
prolific,12c8bstpywx1b84b0gh2tof4,28,0,0.0,37.0,0.148,1.0,1.0
prolific,12c8bstpywx1b84b0gh2tof4,29,0,0.0,37.0,0.062,1.0,0.0
prolific,12c8bstpywx1b84b0gh2tof4,30,0,0.0,37.0,0.165,1.0,1.0
prolific,12c8bstpywx1b84b0gh2tof4,31,1,0.0,37.0,0.222,0.0,1.0
prolific,12c8bstpywx1b84b0gh2tof4,32,1,0.0,37.0,0.246,0.0,0.0
prolific,12c8bstpywx1b84b0gh2tof4,33,1,0.0,37.0,0.182,0.0,0.0
prolific,12c8bstpywx1b84b0gh2tof4,34,1,2.0,39.0,0.214,0.0,0.0
prolific,12c8bstpywx1b84b0gh2tof4,35,1,1.0,38.0,0.045,1.0,1.0
prolific,12c8bstpywx1b84b0gh2tof4,36,1,1.0,38.0,0.245,1.0,1.0
prolific,12c8bstpywx1b84b0gh2tof4,37,1,1.0,38.0,0.269,1.0,1.0
prolific,12c8bstpywx1b84b0gh2tof4,38,1,1.0,38.0,0.253,1.0,1.0
prolific,12c8bstpywx1b84b0gh2tof4,39,1,1.0,38.0,0.269,1.0,1.0
prolific,12c8bstpywx1b84b0gh2tof4,40,1,1.0,38.0,0.59,1.0,1.0
prolific,12c8bstpywx1b84b0gh2tof4,41,1,1.0,38.0,0.213,1.0,1.0
prolific,12c8bstpywx1b84b0gh2tof4,42,1,1.0,38.0,0.303,1.0,1.0
prolific,12c8bstpywx1b84b0gh2tof4,43,1,1.0,38.0,0.604,1.0,1.0
prolific,12c8bstpywx1b84b0gh2tof4,44,1,1.0,38.0,0.471,1.0,1.0
prolific,12c8bstpywx1b84b0gh2tof4,45,1,1.0,38.0,0.365,1.0,1.0
prolific,12c8bstpywx1b84b0gh2tof4,46,0,1.0,38.0,0.286,0.0,0.0
prolific,12c8bstpywx1b84b0gh2tof4,47,0,1.0,38.0,0.141,0.0,1.0
prolific,12c8bstpywx1b84b0gh2tof4,48,0,1.0,38.0,0.106,0.0,0.0
prolific,12c8bstpywx1b84b0gh2tof4,49,0,1.0,38.0,0.519,0.0,0.0
prolific,12c8bstpywx1b84b0gh2tof4,50,0,2.0,39.0,0.045,0.0,0.0
prolific,12c8bstpywx1b84b0gh2tof4,51,0,2.0,39.0,0.262,0.0,0.0
prolific,12c8bstpywx1b84b0gh2tof4,52,0,0.0,37.0,0.237,1.0,1.0
prolific,12c8bstpywx1b84b0gh2tof4,53,0,0.0,37.0,0.22,1.0,1.0
prolific,12c8bstpywx1b84b0gh2tof4,54,0,0.0,37.0,0.206,1.0,0.0
prolific,12c8bstpywx1b84b0gh2tof4,55,0,0.0,37.0,0.199,1.0,0.0
prolific,12c8bstpywx1b84b0gh2tof4,56,0,0.0,37.0,0.174,1.0,0.0
prolific,12c8bstpywx1b84b0gh2tof4,57,0,1.0,38.0,0.159,0.0,0.0
prolific,12c8bstpywx1b84b0gh2tof4,58,0,2.0,39.0,0.085,0.0,0.0
prolific,12c8bstpywx1b84b0gh2tof4,59,0,2.0,39.0,0.221,0.0,1.0
prolific,12c8bstpywx1b84b0gh2tof4,60,0,2.0,39.0,0.213,0.0,0.0
prolific,12c8bstpywx1b84b0gh2tof4,61,1,2.0,39.0,0.261,0.0,0.0
prolific,12c8bstpywx1b84b0gh2tof4,62,1,1.0,38.0,0.262,1.0,0.0
prolific,12c8bstpywx1b84b0gh2tof4,63,1,1.0,38.0,0.262,1.0,1.0
prolific,12c8bstpywx1b84b0gh2tof4,64,1,1.0,38.0,0.165,1.0,1.0
prolific,12c8bstpywx1b84b0gh2tof4,65,1,1.0,38.0,0.343,1.0,1.0
prolific,12c8bstpywx1b84b0gh2tof4,66,1,1.0,38.0,0.509,1.0,1.0
prolific,12c8bstpywx1b84b0gh2tof4,67,1,1.0,38.0,0.301,1.0,0.0
prolific,12c8bstpywx1b84b0gh2tof4,68,1,1.0,38.0,0.863,1.0,1.0
prolific,12c8bstpywx1b84b0gh2tof4,69,1,1.0,38.0,0.708,1.0,1.0
prolific,12c8bstpywx1b84b0gh2tof4,70,1,1.0,38.0,0.334,1.0,1.0
prolific,12c8bstpywx1b84b0gh2tof4,71,1,1.0,38.0,0.43,1.0,0.0
prolific,12c8bstpywx1b84b0gh2tof4,72,1,0.0,37.0,0.652,0.0,1.0
prolific,12c8bstpywx1b84b0gh2tof4,73,1,0.0,37.0,0.246,0.0,0.0
prolific,12c8bstpywx1b84b0gh2tof4,74,1,0.0,37.0,0.214,0.0,1.0
prolific,12c8bstpywx1b84b0gh2tof4,75,1,0.0,37.0,0.269,0.0,0.0
prolific,12c8bstpywx1b84b0gh2tof4,76,2,0.0,37.0,0.836,0.0,1.0
prolific,12c8bstpywx1b84b0gh2tof4,77,2,2.0,39.0,0.928,1.0,1.0
prolific,12c8bstpywx1b84b0gh2tof4,78,2,2.0,39.0,0.651,1.0,1.0
prolific,12c8bstpywx1b84b0gh2tof4,79,2,2.0,39.0,0.205,1.0,1.0
prolific,12c8bstpywx1b84b0gh2tof4,80,2,2.0,39.0,0.293,1.0,0.0
prolific,12c8bstpywx1b84b0gh2tof4,81,2,0.0,37.0,0.741,0.0,0.0
prolific,12c8bstpywx1b84b0gh2tof4,82,2,1.0,38.0,0.318,0.0,0.0
prolific,12c8bstpywx1b84b0gh2tof4,83,2,2.0,39.0,0.262,1.0,1.0
prolific,12c8bstpywx1b84b0gh2tof4,84,2,2.0,39.0,0.2,1.0,1.0
prolific,12c8bstpywx1b84b0gh2tof4,85,2,2.0,39.0,0.355,1.0,1.0
prolific,12c8bstpywx1b84b0gh2tof4,86,2,2.0,39.0,0.335,1.0,1.0
prolific,12c8bstpywx1b84b0gh2tof4,87,2,2.0,39.0,0.287,1.0,0.0
prolific,12c8bstpywx1b84b0gh2tof4,88,2,0.0,37.0,1.365,0.0,0.0
prolific,12c8bstpywx1b84b0gh2tof4,89,2,2.0,39.0,0.606,1.0,0.0
prolific,12c8bstpywx1b84b0gh2tof4,90,2,1.0,38.0,0.319,0.0,0.0
prolific,1i545xikf02ck7ekr6psckaq,1,1,0.0,37.0,2.461,0.0,0.0
prolific,1i545xikf02ck7ekr6psckaq,2,1,2.0,39.0,0.234,0.0,0.0
prolific,1i545xikf02ck7ekr6psckaq,3,1,1.0,38.0,0.969,1.0,1.0
prolific,1i545xikf02ck7ekr6psckaq,4,1,1.0,38.0,0.298,1.0,1.0
prolific,1i545xikf02ck7ekr6psckaq,5,1,0.0,37.0,0.475,0.0,1.0
prolific,1i545xikf02ck7ekr6psckaq,6,1,2.0,39.0,0.388,0.0,0.0
prolific,1i545xikf02ck7ekr6psckaq,7,1,0.0,37.0,0.284,0.0,0.0
prolific,1i545xikf02ck7ekr6psckaq,8,1,1.0,38.0,0.105,1.0,1.0
prolific,1i545xikf02ck7ekr6psckaq,9,1,1.0,38.0,0.094,1.0,1.0
prolific,1i545xikf02ck7ekr6psckaq,10,1,1.0,38.0,0.195,1.0,0.0
prolific,1i545xikf02ck7ekr6psckaq,11,1,0.0,37.0,0.322,0.0,0.0
prolific,1i545xikf02ck7ekr6psckaq,12,1,0.0,37.0,0.211,0.0,0.0
prolific,1i545xikf02ck7ekr6psckaq,13,1,1.0,38.0,0.179,1.0,1.0
prolific,1i545xikf02ck7ekr6psckaq,14,1,1.0,38.0,0.186,1.0,0.0
prolific,1i545xikf02ck7ekr6psckaq,15,1,1.0,38.0,0.203,1.0,0.0
prolific,1i545xikf02ck7ekr6psckaq,16,2,2.0,39.0,0.078,1.0,1.0
prolific,1i545xikf02ck7ekr6psckaq,17,2,2.0,39.0,0.29,1.0,1.0
prolific,1i545xikf02ck7ekr6psckaq,18,2,0.0,37.0,0.182,0.0,0.0
prolific,1i545xikf02ck7ekr6psckaq,19,2,2.0,39.0,0.147,1.0,1.0
prolific,1i545xikf02ck7ekr6psckaq,20,2,2.0,39.0,0.271,1.0,0.0
prolific,1i545xikf02ck7ekr6psckaq,21,2,1.0,38.0,0.022,0.0,1.0
prolific,1i545xikf02ck7ekr6psckaq,22,2,1.0,38.0,0.348,0.0,1.0
prolific,1i545xikf02ck7ekr6psckaq,23,2,0.0,37.0,0.031,0.0,0.0
prolific,1i545xikf02ck7ekr6psckaq,24,2,1.0,38.0,0.04,0.0,0.0
prolific,1i545xikf02ck7ekr6psckaq,25,2,2.0,39.0,0.068,1.0,1.0
prolific,1i545xikf02ck7ekr6psckaq,26,2,1.0,38.0,0.045,0.0,0.0
prolific,1i545xikf02ck7ekr6psckaq,27,2,2.0,39.0,0.001,1.0,0.0
prolific,1i545xikf02ck7ekr6psckaq,28,2,2.0,39.0,0.001,1.0,1.0
prolific,1i545xikf02ck7ekr6psckaq,29,2,1.0,38.0,0.015,0.0,0.0
prolific,1i545xikf02ck7ekr6psckaq,30,2,0.0,37.0,0.021,0.0,0.0
prolific,1i545xikf02ck7ekr6psckaq,31,1,2.0,39.0,0.253,0.0,0.0
prolific,1i545xikf02ck7ekr6psckaq,32,1,1.0,38.0,0.0,1.0,1.0
prolific,1i545xikf02ck7ekr6psckaq,33,1,1.0,38.0,0.001,1.0,1.0
prolific,1i545xikf02ck7ekr6psckaq,34,1,1.0,38.0,0.006,1.0,1.0
prolific,1i545xikf02ck7ekr6psckaq,35,1,1.0,38.0,0.457,1.0,0.0
prolific,1i545xikf02ck7ekr6psckaq,36,1,2.0,39.0,0.635,0.0,0.0
prolific,1i545xikf02ck7ekr6psckaq,37,1,1.0,38.0,0.351,1.0,1.0
prolific,1i545xikf02ck7ekr6psckaq,38,1,0.0,37.0,0.001,0.0,0.0
prolific,1i545xikf02ck7ekr6psckaq,39,1,1.0,38.0,0.001,1.0,1.0
prolific,1i545xikf02ck7ekr6psckaq,40,1,1.0,38.0,0.113,1.0,0.0
prolific,1i545xikf02ck7ekr6psckaq,41,1,2.0,39.0,0.051,0.0,0.0
prolific,1i545xikf02ck7ekr6psckaq,42,1,1.0,38.0,0.337,1.0,1.0
prolific,1i545xikf02ck7ekr6psckaq,43,1,1.0,38.0,0.001,1.0,0.0
prolific,1i545xikf02ck7ekr6psckaq,44,1,2.0,39.0,0.001,0.0,0.0
prolific,1i545xikf02ck7ekr6psckaq,45,1,2.0,39.0,0.412,0.0,1.0
prolific,1i545xikf02ck7ekr6psckaq,46,2,2.0,39.0,0.001,1.0,0.0
prolific,1i545xikf02ck7ekr6psckaq,47,2,1.0,38.0,0.158,0.0,0.0
prolific,1i545xikf02ck7ekr6psckaq,48,2,0.0,37.0,0.008,0.0,0.0
prolific,1i545xikf02ck7ekr6psckaq,49,2,0.0,37.0,0.005,0.0,0.0
prolific,1i545xikf02ck7ekr6psckaq,50,2,2.0,39.0,0.002,1.0,0.0
prolific,1i545xikf02ck7ekr6psckaq,51,2,2.0,39.0,0.54,1.0,0.0
prolific,1i545xikf02ck7ekr6psckaq,52,2,1.0,38.0,0.023,0.0,0.0
prolific,1i545xikf02ck7ekr6psckaq,53,2,2.0,39.0,0.0,1.0,1.0
prolific,1i545xikf02ck7ekr6psckaq,54,2,2.0,39.0,0.0,1.0,1.0
prolific,1i545xikf02ck7ekr6psckaq,55,2,2.0,39.0,0.528,1.0,1.0
prolific,1i545xikf02ck7ekr6psckaq,56,2,2.0,39.0,0.161,1.0,1.0
prolific,1i545xikf02ck7ekr6psckaq,57,2,2.0,39.0,0.0,1.0,1.0
prolific,1i545xikf02ck7ekr6psckaq,58,2,2.0,39.0,0.425,1.0,1.0
prolific,1i545xikf02ck7ekr6psckaq,59,2,2.0,39.0,0.01,1.0,1.0
prolific,1i545xikf02ck7ekr6psckaq,60,2,2.0,39.0,0.082,1.0,0.0
prolific,1i545xikf02ck7ekr6psckaq,61,0,1.0,38.0,0.354,0.0,0.0
prolific,1i545xikf02ck7ekr6psckaq,62,0,1.0,38.0,0.363,0.0,0.0
prolific,1i545xikf02ck7ekr6psckaq,63,0,2.0,39.0,0.055,0.0,0.0
prolific,1i545xikf02ck7ekr6psckaq,64,0,0.0,37.0,0.144,1.0,0.0
prolific,1i545xikf02ck7ekr6psckaq,65,0,2.0,39.0,0.001,0.0,0.0
prolific,1i545xikf02ck7ekr6psckaq,66,0,1.0,38.0,0.044,0.0,0.0
prolific,1i545xikf02ck7ekr6psckaq,67,0,2.0,39.0,0.014,0.0,0.0
prolific,1i545xikf02ck7ekr6psckaq,68,0,2.0,39.0,0.346,0.0,1.0
prolific,1i545xikf02ck7ekr6psckaq,69,0,2.0,39.0,0.001,0.0,0.0
prolific,1i545xikf02ck7ekr6psckaq,70,0,1.0,38.0,0.001,0.0,0.0
prolific,1i545xikf02ck7ekr6psckaq,71,0,1.0,38.0,0.001,0.0,0.0
prolific,1i545xikf02ck7ekr6psckaq,72,0,1.0,38.0,0.403,0.0,1.0
prolific,1i545xikf02ck7ekr6psckaq,73,0,1.0,38.0,0.082,0.0,0.0
prolific,1i545xikf02ck7ekr6psckaq,74,0,1.0,38.0,0.343,0.0,0.0
prolific,1i545xikf02ck7ekr6psckaq,75,0,2.0,39.0,0.188,0.0,0.0
prolific,1i545xikf02ck7ekr6psckaq,76,1,0.0,37.0,0.202,0.0,0.0
prolific,1i545xikf02ck7ekr6psckaq,77,1,2.0,39.0,0.167,0.0,0.0
prolific,1i545xikf02ck7ekr6psckaq,78,1,1.0,38.0,0.116,1.0,1.0
prolific,1i545xikf02ck7ekr6psckaq,79,1,1.0,38.0,0.196,1.0,0.0
prolific,1i545xikf02ck7ekr6psckaq,80,1,2.0,39.0,0.174,0.0,0.0
prolific,1i545xikf02ck7ekr6psckaq,81,1,1.0,38.0,1.211,1.0,1.0
prolific,1i545xikf02ck7ekr6psckaq,82,1,1.0,38.0,0.016,1.0,1.0
prolific,1i545xikf02ck7ekr6psckaq,83,1,1.0,38.0,0.096,1.0,1.0
prolific,1i545xikf02ck7ekr6psckaq,84,1,1.0,38.0,0.025,1.0,1.0
prolific,1i545xikf02ck7ekr6psckaq,85,1,1.0,38.0,0.621,1.0,1.0
prolific,1i545xikf02ck7ekr6psckaq,86,1,1.0,38.0,0.032,1.0,0.0
prolific,1i545xikf02ck7ekr6psckaq,87,1,2.0,39.0,3.19,0.0,0.0
prolific,1i545xikf02ck7ekr6psckaq,88,1,1.0,38.0,0.261,1.0,0.0
prolific,1i545xikf02ck7ekr6psckaq,89,1,1.0,38.0,1.785,1.0,1.0
prolific,1i545xikf02ck7ekr6psckaq,90,1,1.0,38.0,1.825,1.0,1.0
prolific,1id28gbzeshkr8a3rjqtu7gm,1,2,1.0,38.0,3.027,0.0,0.0
prolific,1id28gbzeshkr8a3rjqtu7gm,2,2,2.0,39.0,0.007,1.0,1.0
prolific,1id28gbzeshkr8a3rjqtu7gm,3,2,2.0,39.0,0.419,1.0,1.0
prolific,1id28gbzeshkr8a3rjqtu7gm,4,2,2.0,39.0,0.275,1.0,0.0
prolific,1id28gbzeshkr8a3rjqtu7gm,5,2,0.0,37.0,0.352,0.0,0.0
prolific,1id28gbzeshkr8a3rjqtu7gm,6,2,1.0,38.0,0.046,0.0,1.0
prolific,1id28gbzeshkr8a3rjqtu7gm,7,2,2.0,39.0,0.232,1.0,0.0
prolific,1id28gbzeshkr8a3rjqtu7gm,8,2,1.0,38.0,0.337,0.0,1.0
prolific,1id28gbzeshkr8a3rjqtu7gm,9,2,0.0,37.0,0.253,0.0,0.0
prolific,1id28gbzeshkr8a3rjqtu7gm,10,2,1.0,38.0,0.152,0.0,1.0
prolific,1id28gbzeshkr8a3rjqtu7gm,11,2,0.0,37.0,0.499,0.0,0.0
prolific,1id28gbzeshkr8a3rjqtu7gm,12,2,1.0,38.0,0.128,0.0,0.0
prolific,1id28gbzeshkr8a3rjqtu7gm,13,2,2.0,39.0,0.129,1.0,0.0
prolific,1id28gbzeshkr8a3rjqtu7gm,14,2,0.0,37.0,0.364,0.0,0.0
prolific,1id28gbzeshkr8a3rjqtu7gm,15,2,1.0,38.0,0.078,0.0,0.0
prolific,1id28gbzeshkr8a3rjqtu7gm,16,0,2.0,39.0,0.343,0.0,0.0
prolific,1id28gbzeshkr8a3rjqtu7gm,17,0,0.0,37.0,0.113,1.0,0.0
prolific,1id28gbzeshkr8a3rjqtu7gm,18,0,1.0,38.0,0.367,0.0,0.0
prolific,1id28gbzeshkr8a3rjqtu7gm,19,0,1.0,38.0,0.016,0.0,1.0
prolific,1id28gbzeshkr8a3rjqtu7gm,20,0,2.0,39.0,0.188,0.0,0.0
prolific,1id28gbzeshkr8a3rjqtu7gm,21,0,0.0,37.0,0.331,1.0,1.0
prolific,1id28gbzeshkr8a3rjqtu7gm,22,0,1.0,38.0,0.199,0.0,0.0
prolific,1id28gbzeshkr8a3rjqtu7gm,23,0,0.0,37.0,0.11,1.0,1.0
prolific,1id28gbzeshkr8a3rjqtu7gm,24,0,2.0,39.0,0.098,0.0,0.0
prolific,1id28gbzeshkr8a3rjqtu7gm,25,0,0.0,37.0,0.121,1.0,1.0
prolific,1id28gbzeshkr8a3rjqtu7gm,26,0,1.0,38.0,0.32,0.0,0.0
prolific,1id28gbzeshkr8a3rjqtu7gm,27,0,0.0,37.0,0.041,1.0,1.0
prolific,1id28gbzeshkr8a3rjqtu7gm,28,0,0.0,37.0,0.373,1.0,0.0
prolific,1id28gbzeshkr8a3rjqtu7gm,29,0,2.0,39.0,0.13,0.0,0.0
prolific,1id28gbzeshkr8a3rjqtu7gm,30,0,1.0,38.0,0.096,0.0,1.0
prolific,1id28gbzeshkr8a3rjqtu7gm,31,1,0.0,37.0,0.044,0.0,0.0
prolific,1id28gbzeshkr8a3rjqtu7gm,32,1,0.0,37.0,0.1,0.0,0.0
prolific,1id28gbzeshkr8a3rjqtu7gm,33,1,1.0,38.0,0.145,1.0,1.0
prolific,1id28gbzeshkr8a3rjqtu7gm,34,1,1.0,38.0,0.108,1.0,1.0
prolific,1id28gbzeshkr8a3rjqtu7gm,35,1,1.0,38.0,0.156,1.0,1.0
prolific,1id28gbzeshkr8a3rjqtu7gm,36,1,1.0,38.0,0.165,1.0,1.0
prolific,1id28gbzeshkr8a3rjqtu7gm,37,1,1.0,38.0,0.14,1.0,1.0
prolific,1id28gbzeshkr8a3rjqtu7gm,38,1,1.0,38.0,0.083,1.0,1.0
prolific,1id28gbzeshkr8a3rjqtu7gm,39,1,1.0,38.0,0.033,1.0,1.0
prolific,1id28gbzeshkr8a3rjqtu7gm,40,1,1.0,38.0,0.027,1.0,0.0
prolific,1id28gbzeshkr8a3rjqtu7gm,41,1,0.0,37.0,0.066,0.0,0.0
prolific,1id28gbzeshkr8a3rjqtu7gm,42,1,1.0,38.0,0.145,1.0,1.0
prolific,1id28gbzeshkr8a3rjqtu7gm,43,1,1.0,38.0,0.063,1.0,1.0
prolific,1id28gbzeshkr8a3rjqtu7gm,44,1,1.0,38.0,0.238,1.0,1.0
prolific,1id28gbzeshkr8a3rjqtu7gm,45,1,1.0,38.0,0.01,1.0,1.0
prolific,1id28gbzeshkr8a3rjqtu7gm,46,0,1.0,38.0,0.024,0.0,0.0
prolific,1id28gbzeshkr8a3rjqtu7gm,47,0,0.0,37.0,0.113,1.0,1.0
prolific,1id28gbzeshkr8a3rjqtu7gm,48,0,0.0,37.0,0.033,1.0,1.0
prolific,1id28gbzeshkr8a3rjqtu7gm,49,0,0.0,37.0,0.193,1.0,1.0
prolific,1id28gbzeshkr8a3rjqtu7gm,50,0,0.0,37.0,0.341,1.0,1.0
prolific,1id28gbzeshkr8a3rjqtu7gm,51,0,0.0,37.0,0.109,1.0,0.0
prolific,1id28gbzeshkr8a3rjqtu7gm,52,0,1.0,38.0,0.113,0.0,0.0
prolific,1id28gbzeshkr8a3rjqtu7gm,53,0,2.0,39.0,0.037,0.0,0.0
prolific,1id28gbzeshkr8a3rjqtu7gm,54,0,1.0,38.0,0.109,0.0,1.0
prolific,1id28gbzeshkr8a3rjqtu7gm,55,0,1.0,38.0,0.11,0.0,0.0
prolific,1id28gbzeshkr8a3rjqtu7gm,56,0,0.0,37.0,0.101,1.0,1.0
prolific,1id28gbzeshkr8a3rjqtu7gm,57,0,0.0,37.0,0.059,1.0,1.0
prolific,1id28gbzeshkr8a3rjqtu7gm,58,0,0.0,37.0,0.072,1.0,1.0
prolific,1id28gbzeshkr8a3rjqtu7gm,59,0,0.0,37.0,0.017,1.0,1.0
prolific,1id28gbzeshkr8a3rjqtu7gm,60,0,0.0,37.0,0.018,1.0,1.0
prolific,1id28gbzeshkr8a3rjqtu7gm,61,2,0.0,37.0,0.0,0.0,0.0
prolific,1id28gbzeshkr8a3rjqtu7gm,62,2,1.0,38.0,0.11,0.0,1.0
prolific,1id28gbzeshkr8a3rjqtu7gm,63,2,1.0,38.0,0.06,0.0,0.0
prolific,1id28gbzeshkr8a3rjqtu7gm,64,2,0.0,37.0,0.11,0.0,1.0
prolific,1id28gbzeshkr8a3rjqtu7gm,65,2,0.0,37.0,0.194,0.0,0.0
prolific,1id28gbzeshkr8a3rjqtu7gm,66,2,1.0,38.0,0.155,0.0,1.0
prolific,1id28gbzeshkr8a3rjqtu7gm,67,2,1.0,38.0,0.092,0.0,0.0
prolific,1id28gbzeshkr8a3rjqtu7gm,68,2,0.0,37.0,0.095,0.0,0.0
prolific,1id28gbzeshkr8a3rjqtu7gm,69,2,2.0,39.0,0.083,1.0,1.0
prolific,1id28gbzeshkr8a3rjqtu7gm,70,2,2.0,39.0,0.012,1.0,1.0
prolific,1id28gbzeshkr8a3rjqtu7gm,71,2,2.0,39.0,0.219,1.0,1.0
prolific,1id28gbzeshkr8a3rjqtu7gm,72,2,2.0,39.0,0.048,1.0,1.0
prolific,1id28gbzeshkr8a3rjqtu7gm,73,2,2.0,39.0,0.177,1.0,1.0
prolific,1id28gbzeshkr8a3rjqtu7gm,74,2,2.0,39.0,0.18,1.0,0.0
prolific,1id28gbzeshkr8a3rjqtu7gm,75,2,1.0,38.0,0.113,0.0,0.0
prolific,1id28gbzeshkr8a3rjqtu7gm,76,0,0.0,37.0,0.013,1.0,1.0
prolific,1id28gbzeshkr8a3rjqtu7gm,77,0,0.0,37.0,0.171,1.0,1.0
prolific,1id28gbzeshkr8a3rjqtu7gm,78,0,0.0,37.0,0.124,1.0,1.0
prolific,1id28gbzeshkr8a3rjqtu7gm,79,0,0.0,37.0,0.09,1.0,1.0
prolific,1id28gbzeshkr8a3rjqtu7gm,80,0,1.0,38.0,0.035,0.0,0.0
prolific,1id28gbzeshkr8a3rjqtu7gm,81,0,0.0,37.0,0.003,1.0,1.0
prolific,1id28gbzeshkr8a3rjqtu7gm,82,0,0.0,37.0,0.029,1.0,1.0
prolific,1id28gbzeshkr8a3rjqtu7gm,83,0,1.0,38.0,0.116,0.0,0.0
prolific,1id28gbzeshkr8a3rjqtu7gm,84,0,0.0,37.0,0.209,1.0,1.0
prolific,1id28gbzeshkr8a3rjqtu7gm,85,0,0.0,37.0,0.201,1.0,1.0
prolific,1id28gbzeshkr8a3rjqtu7gm,86,0,0.0,37.0,0.015,1.0,1.0
prolific,1id28gbzeshkr8a3rjqtu7gm,87,0,0.0,37.0,0.008,1.0,1.0
prolific,1id28gbzeshkr8a3rjqtu7gm,88,0,0.0,37.0,0.002,1.0,1.0
prolific,1id28gbzeshkr8a3rjqtu7gm,89,0,0.0,37.0,0.047,1.0,1.0
prolific,1id28gbzeshkr8a3rjqtu7gm,90,0,0.0,37.0,0.005,1.0,1.0
prolific,1sxr2nbpa4aj8f9ggyd14vjn,1,1,0.0,37.0,6.851,0.0,0.0
prolific,1sxr2nbpa4aj8f9ggyd14vjn,2,1,2.0,39.0,1.601,0.0,1.0
prolific,1sxr2nbpa4aj8f9ggyd14vjn,3,1,1.0,38.0,0.734,1.0,1.0
prolific,1sxr2nbpa4aj8f9ggyd14vjn,4,1,2.0,39.0,0.59,0.0,0.0
prolific,1sxr2nbpa4aj8f9ggyd14vjn,5,1,0.0,37.0,0.15,0.0,0.0
prolific,1sxr2nbpa4aj8f9ggyd14vjn,6,1,1.0,38.0,0.389,1.0,1.0
prolific,1sxr2nbpa4aj8f9ggyd14vjn,7,1,0.0,37.0,0.502,0.0,0.0
prolific,1sxr2nbpa4aj8f9ggyd14vjn,8,1,2.0,39.0,0.39,0.0,0.0
prolific,1sxr2nbpa4aj8f9ggyd14vjn,9,1,0.0,37.0,1.445,0.0,0.0
prolific,1sxr2nbpa4aj8f9ggyd14vjn,10,1,1.0,38.0,0.439,1.0,0.0
prolific,1sxr2nbpa4aj8f9ggyd14vjn,11,1,2.0,39.0,0.445,0.0,1.0
prolific,1sxr2nbpa4aj8f9ggyd14vjn,12,1,0.0,37.0,0.414,0.0,1.0
prolific,1sxr2nbpa4aj8f9ggyd14vjn,13,1,2.0,39.0,0.662,0.0,0.0
prolific,1sxr2nbpa4aj8f9ggyd14vjn,14,1,1.0,38.0,0.487,1.0,1.0
prolific,1sxr2nbpa4aj8f9ggyd14vjn,15,1,0.0,37.0,0.39,0.0,0.0
prolific,1sxr2nbpa4aj8f9ggyd14vjn,16,0,2.0,39.0,0.084,0.0,1.0
prolific,1sxr2nbpa4aj8f9ggyd14vjn,17,0,0.0,37.0,0.774,1.0,1.0
prolific,1sxr2nbpa4aj8f9ggyd14vjn,18,0,1.0,38.0,0.581,0.0,1.0
prolific,1sxr2nbpa4aj8f9ggyd14vjn,19,0,2.0,39.0,0.574,0.0,0.0
prolific,1sxr2nbpa4aj8f9ggyd14vjn,20,0,0.0,37.0,0.389,1.0,1.0
prolific,1sxr2nbpa4aj8f9ggyd14vjn,21,0,1.0,38.0,0.407,0.0,1.0
prolific,1sxr2nbpa4aj8f9ggyd14vjn,22,0,2.0,39.0,0.477,0.0,0.0
prolific,1sxr2nbpa4aj8f9ggyd14vjn,23,0,2.0,39.0,0.175,0.0,0.0
prolific,1sxr2nbpa4aj8f9ggyd14vjn,24,0,0.0,37.0,0.413,1.0,1.0
prolific,1sxr2nbpa4aj8f9ggyd14vjn,25,0,1.0,38.0,0.269,0.0,1.0
prolific,1sxr2nbpa4aj8f9ggyd14vjn,26,0,0.0,37.0,0.383,1.0,1.0
prolific,1sxr2nbpa4aj8f9ggyd14vjn,27,0,1.0,38.0,0.174,0.0,1.0
prolific,1sxr2nbpa4aj8f9ggyd14vjn,28,0,0.0,37.0,0.342,1.0,1.0
prolific,1sxr2nbpa4aj8f9ggyd14vjn,29,0,1.0,38.0,0.22,0.0,1.0
prolific,1sxr2nbpa4aj8f9ggyd14vjn,30,0,0.0,37.0,0.357,1.0,1.0
prolific,1sxr2nbpa4aj8f9ggyd14vjn,31,2,1.0,38.0,0.014,0.0,0.0
prolific,1sxr2nbpa4aj8f9ggyd14vjn,32,2,2.0,39.0,0.31,1.0,1.0
prolific,1sxr2nbpa4aj8f9ggyd14vjn,33,2,0.0,37.0,0.453,0.0,0.0
prolific,1sxr2nbpa4aj8f9ggyd14vjn,34,2,2.0,39.0,0.27,1.0,1.0
prolific,1sxr2nbpa4aj8f9ggyd14vjn,35,2,1.0,38.0,0.438,0.0,1.0
prolific,1sxr2nbpa4aj8f9ggyd14vjn,36,2,2.0,39.0,0.334,1.0,1.0
prolific,1sxr2nbpa4aj8f9ggyd14vjn,37,2,1.0,38.0,0.415,0.0,1.0
prolific,1sxr2nbpa4aj8f9ggyd14vjn,38,2,2.0,39.0,0.478,1.0,1.0
prolific,1sxr2nbpa4aj8f9ggyd14vjn,39,2,0.0,37.0,0.797,0.0,1.0
prolific,1sxr2nbpa4aj8f9ggyd14vjn,40,2,2.0,39.0,0.542,1.0,1.0
prolific,1sxr2nbpa4aj8f9ggyd14vjn,41,2,1.0,38.0,0.437,0.0,0.0
prolific,1sxr2nbpa4aj8f9ggyd14vjn,42,2,0.0,37.0,0.31,0.0,0.0
prolific,1sxr2nbpa4aj8f9ggyd14vjn,43,2,2.0,39.0,0.414,1.0,0.0
prolific,1sxr2nbpa4aj8f9ggyd14vjn,44,2,0.0,37.0,1.029,0.0,0.0
prolific,1sxr2nbpa4aj8f9ggyd14vjn,45,2,1.0,38.0,0.613,0.0,0.0
prolific,1sxr2nbpa4aj8f9ggyd14vjn,46,0,2.0,39.0,0.406,0.0,0.0
prolific,1sxr2nbpa4aj8f9ggyd14vjn,47,0,0.0,37.0,0.494,1.0,1.0
prolific,1sxr2nbpa4aj8f9ggyd14vjn,48,0,1.0,38.0,0.093,0.0,0.0
prolific,1sxr2nbpa4aj8f9ggyd14vjn,49,0,0.0,37.0,0.39,1.0,1.0
prolific,1sxr2nbpa4aj8f9ggyd14vjn,50,0,2.0,39.0,0.502,0.0,0.0
prolific,1sxr2nbpa4aj8f9ggyd14vjn,51,0,0.0,37.0,0.372,1.0,0.0
prolific,1sxr2nbpa4aj8f9ggyd14vjn,52,0,1.0,38.0,0.342,0.0,1.0
prolific,1sxr2nbpa4aj8f9ggyd14vjn,53,0,1.0,38.0,0.502,0.0,0.0
prolific,1sxr2nbpa4aj8f9ggyd14vjn,54,0,2.0,39.0,0.366,0.0,0.0
prolific,1sxr2nbpa4aj8f9ggyd14vjn,55,0,0.0,37.0,0.334,1.0,0.0
prolific,1sxr2nbpa4aj8f9ggyd14vjn,56,0,1.0,38.0,0.166,0.0,0.0
prolific,1sxr2nbpa4aj8f9ggyd14vjn,57,0,2.0,39.0,0.526,0.0,0.0
prolific,1sxr2nbpa4aj8f9ggyd14vjn,58,0,2.0,39.0,0.63,0.0,0.0
prolific,1sxr2nbpa4aj8f9ggyd14vjn,59,0,0.0,37.0,0.054,1.0,1.0
prolific,1sxr2nbpa4aj8f9ggyd14vjn,60,0,0.0,37.0,0.413,1.0,0.0
prolific,1sxr2nbpa4aj8f9ggyd14vjn,61,2,1.0,38.0,0.038,0.0,0.0
prolific,1sxr2nbpa4aj8f9ggyd14vjn,62,2,2.0,39.0,0.031,1.0,1.0
prolific,1sxr2nbpa4aj8f9ggyd14vjn,63,2,0.0,37.0,0.453,0.0,0.0
prolific,1sxr2nbpa4aj8f9ggyd14vjn,64,2,1.0,38.0,0.63,0.0,0.0
prolific,1sxr2nbpa4aj8f9ggyd14vjn,65,2,0.0,37.0,0.581,0.0,0.0
prolific,1sxr2nbpa4aj8f9ggyd14vjn,66,2,2.0,39.0,0.325,1.0,1.0
prolific,1sxr2nbpa4aj8f9ggyd14vjn,67,2,2.0,39.0,0.414,1.0,1.0
prolific,1sxr2nbpa4aj8f9ggyd14vjn,68,2,1.0,38.0,0.621,0.0,0.0
prolific,1sxr2nbpa4aj8f9ggyd14vjn,69,2,2.0,39.0,0.366,1.0,1.0
prolific,1sxr2nbpa4aj8f9ggyd14vjn,70,2,2.0,39.0,0.486,1.0,1.0
prolific,1sxr2nbpa4aj8f9ggyd14vjn,71,2,2.0,39.0,0.606,1.0,1.0
prolific,1sxr2nbpa4aj8f9ggyd14vjn,72,2,2.0,39.0,0.382,1.0,1.0
prolific,1sxr2nbpa4aj8f9ggyd14vjn,73,2,2.0,39.0,0.35,1.0,1.0
prolific,1sxr2nbpa4aj8f9ggyd14vjn,74,2,2.0,39.0,0.454,1.0,1.0
prolific,1sxr2nbpa4aj8f9ggyd14vjn,75,2,2.0,39.0,0.365,1.0,1.0
prolific,1sxr2nbpa4aj8f9ggyd14vjn,76,0,2.0,39.0,0.478,0.0,0.0
prolific,1sxr2nbpa4aj8f9ggyd14vjn,77,0,1.0,38.0,0.334,0.0,0.0
prolific,1sxr2nbpa4aj8f9ggyd14vjn,78,0,0.0,37.0,0.317,1.0,1.0
prolific,1sxr2nbpa4aj8f9ggyd14vjn,79,0,0.0,37.0,0.159,1.0,1.0
prolific,1sxr2nbpa4aj8f9ggyd14vjn,80,0,0.0,37.0,0.366,1.0,1.0
prolific,1sxr2nbpa4aj8f9ggyd14vjn,81,0,0.0,37.0,0.389,1.0,1.0
prolific,1sxr2nbpa4aj8f9ggyd14vjn,82,0,0.0,37.0,0.318,1.0,1.0
prolific,1sxr2nbpa4aj8f9ggyd14vjn,83,0,0.0,37.0,0.374,1.0,0.0
prolific,1sxr2nbpa4aj8f9ggyd14vjn,84,0,2.0,39.0,0.132,0.0,0.0
prolific,1sxr2nbpa4aj8f9ggyd14vjn,85,0,1.0,38.0,0.381,0.0,0.0
prolific,1sxr2nbpa4aj8f9ggyd14vjn,86,0,2.0,39.0,0.326,0.0,0.0
prolific,1sxr2nbpa4aj8f9ggyd14vjn,87,0,1.0,38.0,0.294,0.0,0.0
prolific,1sxr2nbpa4aj8f9ggyd14vjn,88,0,0.0,37.0,0.343,1.0,1.0
prolific,1sxr2nbpa4aj8f9ggyd14vjn,89,0,0.0,37.0,0.439,1.0,1.0
prolific,1sxr2nbpa4aj8f9ggyd14vjn,90,0,0.0,37.0,0.406,1.0,1.0
prolific,1u2wyleqh3t6iqx93tokdv0k,1,2,1.0,38.0,7.409,0.0,0.0
prolific,1u2wyleqh3t6iqx93tokdv0k,2,2,2.0,39.0,1.504,1.0,1.0
prolific,1u2wyleqh3t6iqx93tokdv0k,3,2,0.0,37.0,1.033,0.0,0.0
prolific,1u2wyleqh3t6iqx93tokdv0k,4,2,2.0,39.0,0.225,1.0,0.0
prolific,1u2wyleqh3t6iqx93tokdv0k,5,2,1.0,38.0,0.064,0.0,0.0
prolific,1u2wyleqh3t6iqx93tokdv0k,6,2,0.0,37.0,0.676,0.0,0.0
prolific,1u2wyleqh3t6iqx93tokdv0k,7,2,0.0,37.0,1.969,0.0,0.0
prolific,1u2wyleqh3t6iqx93tokdv0k,8,2,2.0,39.0,0.125,1.0,1.0
prolific,1u2wyleqh3t6iqx93tokdv0k,9,2,2.0,39.0,3.938,1.0,1.0
prolific,1u2wyleqh3t6iqx93tokdv0k,10,2,2.0,39.0,1.717,1.0,0.0
prolific,1u2wyleqh3t6iqx93tokdv0k,11,2,0.0,37.0,0.372,0.0,0.0
prolific,1u2wyleqh3t6iqx93tokdv0k,12,2,1.0,38.0,0.383,0.0,0.0
prolific,1u2wyleqh3t6iqx93tokdv0k,13,2,2.0,39.0,0.688,1.0,1.0
prolific,1u2wyleqh3t6iqx93tokdv0k,14,2,2.0,39.0,0.645,1.0,1.0
prolific,1u2wyleqh3t6iqx93tokdv0k,15,2,2.0,39.0,0.772,1.0,1.0
prolific,1u2wyleqh3t6iqx93tokdv0k,16,1,2.0,39.0,0.768,0.0,0.0
prolific,1u2wyleqh3t6iqx93tokdv0k,17,1,0.0,37.0,0.116,0.0,0.0
prolific,1u2wyleqh3t6iqx93tokdv0k,18,1,1.0,38.0,0.048,1.0,1.0
prolific,1u2wyleqh3t6iqx93tokdv0k,19,1,1.0,38.0,0.414,1.0,1.0
prolific,1u2wyleqh3t6iqx93tokdv0k,20,1,1.0,38.0,0.827,1.0,1.0
prolific,1u2wyleqh3t6iqx93tokdv0k,21,1,1.0,38.0,0.765,1.0,1.0
prolific,1u2wyleqh3t6iqx93tokdv0k,22,1,1.0,38.0,0.76,1.0,1.0
prolific,1u2wyleqh3t6iqx93tokdv0k,23,1,1.0,38.0,0.446,1.0,1.0
prolific,1u2wyleqh3t6iqx93tokdv0k,24,1,1.0,38.0,1.034,1.0,1.0
prolific,1u2wyleqh3t6iqx93tokdv0k,25,1,1.0,38.0,0.929,1.0,1.0
prolific,1u2wyleqh3t6iqx93tokdv0k,26,1,1.0,38.0,0.734,1.0,1.0
prolific,1u2wyleqh3t6iqx93tokdv0k,27,1,1.0,38.0,0.481,1.0,1.0
prolific,1u2wyleqh3t6iqx93tokdv0k,28,1,1.0,38.0,0.552,1.0,1.0
prolific,1u2wyleqh3t6iqx93tokdv0k,29,1,1.0,38.0,0.43,1.0,1.0
prolific,1u2wyleqh3t6iqx93tokdv0k,30,1,1.0,38.0,0.552,1.0,1.0
prolific,1u2wyleqh3t6iqx93tokdv0k,31,2,1.0,38.0,0.48,0.0,0.0
prolific,1u2wyleqh3t6iqx93tokdv0k,32,2,2.0,39.0,0.142,1.0,1.0
prolific,1u2wyleqh3t6iqx93tokdv0k,33,2,2.0,39.0,0.344,1.0,1.0
prolific,1u2wyleqh3t6iqx93tokdv0k,34,2,2.0,39.0,0.186,1.0,1.0
prolific,1u2wyleqh3t6iqx93tokdv0k,35,2,2.0,39.0,0.306,1.0,1.0
prolific,1u2wyleqh3t6iqx93tokdv0k,36,2,2.0,39.0,0.308,1.0,1.0
prolific,1u2wyleqh3t6iqx93tokdv0k,37,2,2.0,39.0,0.358,1.0,1.0
prolific,1u2wyleqh3t6iqx93tokdv0k,38,2,2.0,39.0,0.409,1.0,1.0
prolific,1u2wyleqh3t6iqx93tokdv0k,39,2,2.0,39.0,0.485,1.0,1.0
prolific,1u2wyleqh3t6iqx93tokdv0k,40,2,2.0,39.0,0.354,1.0,0.0
prolific,1u2wyleqh3t6iqx93tokdv0k,41,2,0.0,37.0,1.499,0.0,1.0
prolific,1u2wyleqh3t6iqx93tokdv0k,42,2,0.0,37.0,0.34,0.0,0.0
prolific,1u2wyleqh3t6iqx93tokdv0k,43,2,0.0,37.0,0.46,0.0,0.0
prolific,1u2wyleqh3t6iqx93tokdv0k,44,2,2.0,39.0,1.073,1.0,1.0
prolific,1u2wyleqh3t6iqx93tokdv0k,45,2,2.0,39.0,0.583,1.0,0.0
prolific,1u2wyleqh3t6iqx93tokdv0k,46,1,0.0,37.0,0.243,0.0,0.0
prolific,1u2wyleqh3t6iqx93tokdv0k,47,1,1.0,38.0,1.352,1.0,1.0
prolific,1u2wyleqh3t6iqx93tokdv0k,48,1,1.0,38.0,0.464,1.0,1.0
prolific,1u2wyleqh3t6iqx93tokdv0k,49,1,1.0,38.0,0.321,1.0,1.0
prolific,1u2wyleqh3t6iqx93tokdv0k,50,1,1.0,38.0,0.648,1.0,1.0
prolific,1u2wyleqh3t6iqx93tokdv0k,51,1,1.0,38.0,0.458,1.0,1.0
prolific,1u2wyleqh3t6iqx93tokdv0k,52,1,1.0,38.0,0.503,1.0,1.0
prolific,1u2wyleqh3t6iqx93tokdv0k,53,1,1.0,38.0,0.504,1.0,0.0
prolific,1u2wyleqh3t6iqx93tokdv0k,54,1,2.0,39.0,0.346,0.0,0.0
prolific,1u2wyleqh3t6iqx93tokdv0k,55,1,0.0,37.0,1.042,0.0,0.0
prolific,1u2wyleqh3t6iqx93tokdv0k,56,1,1.0,38.0,0.135,1.0,1.0
prolific,1u2wyleqh3t6iqx93tokdv0k,57,1,1.0,38.0,0.276,1.0,1.0
prolific,1u2wyleqh3t6iqx93tokdv0k,58,1,1.0,38.0,0.138,1.0,0.0
prolific,1u2wyleqh3t6iqx93tokdv0k,59,1,2.0,39.0,0.075,0.0,0.0
prolific,1u2wyleqh3t6iqx93tokdv0k,60,1,0.0,37.0,1.084,0.0,0.0
prolific,1u2wyleqh3t6iqx93tokdv0k,61,2,1.0,38.0,0.064,0.0,0.0
prolific,1u2wyleqh3t6iqx93tokdv0k,62,2,2.0,39.0,1.292,1.0,0.0
prolific,1u2wyleqh3t6iqx93tokdv0k,63,2,0.0,37.0,1.151,0.0,0.0
prolific,1u2wyleqh3t6iqx93tokdv0k,64,2,2.0,39.0,0.488,1.0,1.0
prolific,1u2wyleqh3t6iqx93tokdv0k,65,2,2.0,39.0,0.148,1.0,1.0
prolific,1u2wyleqh3t6iqx93tokdv0k,66,2,2.0,39.0,1.188,1.0,1.0
prolific,1u2wyleqh3t6iqx93tokdv0k,67,2,2.0,39.0,0.164,1.0,0.0
prolific,1u2wyleqh3t6iqx93tokdv0k,68,2,0.0,37.0,0.048,0.0,1.0
prolific,1u2wyleqh3t6iqx93tokdv0k,69,2,0.0,37.0,0.149,0.0,1.0
prolific,1u2wyleqh3t6iqx93tokdv0k,70,2,0.0,37.0,0.077,0.0,0.0
prolific,1u2wyleqh3t6iqx93tokdv0k,71,2,0.0,37.0,0.3,0.0,0.0
prolific,1u2wyleqh3t6iqx93tokdv0k,72,2,1.0,38.0,0.695,0.0,0.0
prolific,1u2wyleqh3t6iqx93tokdv0k,73,2,0.0,37.0,0.034,0.0,0.0
prolific,1u2wyleqh3t6iqx93tokdv0k,74,2,2.0,39.0,0.778,1.0,1.0
prolific,1u2wyleqh3t6iqx93tokdv0k,75,2,2.0,39.0,0.028,1.0,1.0
prolific,1u2wyleqh3t6iqx93tokdv0k,76,1,2.0,39.0,0.211,0.0,0.0
prolific,1u2wyleqh3t6iqx93tokdv0k,77,1,0.0,37.0,0.359,0.0,0.0
prolific,1u2wyleqh3t6iqx93tokdv0k,78,1,1.0,38.0,0.669,1.0,1.0
prolific,1u2wyleqh3t6iqx93tokdv0k,79,1,1.0,38.0,1.773,1.0,1.0
prolific,1u2wyleqh3t6iqx93tokdv0k,80,1,1.0,38.0,0.193,1.0,1.0
prolific,1u2wyleqh3t6iqx93tokdv0k,81,1,1.0,38.0,0.378,1.0,0.0
prolific,1u2wyleqh3t6iqx93tokdv0k,82,1,2.0,39.0,0.858,0.0,1.0
prolific,1u2wyleqh3t6iqx93tokdv0k,83,1,2.0,39.0,0.133,0.0,0.0
prolific,1u2wyleqh3t6iqx93tokdv0k,84,1,0.0,37.0,0.114,0.0,0.0
prolific,1u2wyleqh3t6iqx93tokdv0k,85,1,1.0,38.0,0.089,1.0,1.0
prolific,1u2wyleqh3t6iqx93tokdv0k,86,1,1.0,38.0,0.01,1.0,1.0
prolific,1u2wyleqh3t6iqx93tokdv0k,87,1,1.0,38.0,0.849,1.0,1.0
prolific,1u2wyleqh3t6iqx93tokdv0k,88,1,1.0,38.0,0.469,1.0,1.0
prolific,1u2wyleqh3t6iqx93tokdv0k,89,1,1.0,38.0,0.718,1.0,1.0
prolific,1u2wyleqh3t6iqx93tokdv0k,90,1,1.0,38.0,0.659,1.0,1.0
prolific,25fuwx9wj8mwr4avjszslbbx,1,2,0.0,37.0,7.406,0.0,0.0
prolific,25fuwx9wj8mwr4avjszslbbx,2,2,2.0,39.0,6.586,1.0,1.0
prolific,25fuwx9wj8mwr4avjszslbbx,3,2,0.0,37.0,3.903,0.0,1.0
prolific,25fuwx9wj8mwr4avjszslbbx,4,2,1.0,38.0,2.576,0.0,0.0
prolific,25fuwx9wj8mwr4avjszslbbx,5,2,1.0,38.0,1.661,0.0,0.0
prolific,25fuwx9wj8mwr4avjszslbbx,6,2,0.0,37.0,2.082,0.0,0.0
prolific,25fuwx9wj8mwr4avjszslbbx,7,2,2.0,39.0,1.42,1.0,1.0
prolific,25fuwx9wj8mwr4avjszslbbx,8,2,2.0,39.0,2.598,1.0,1.0
prolific,25fuwx9wj8mwr4avjszslbbx,9,2,2.0,39.0,1.622,1.0,0.0
prolific,25fuwx9wj8mwr4avjszslbbx,10,2,1.0,38.0,1.13,0.0,1.0
prolific,25fuwx9wj8mwr4avjszslbbx,11,2,1.0,38.0,1.154,0.0,0.0
prolific,25fuwx9wj8mwr4avjszslbbx,12,2,0.0,37.0,1.778,0.0,0.0
prolific,25fuwx9wj8mwr4avjszslbbx,13,2,2.0,39.0,0.951,1.0,1.0
prolific,25fuwx9wj8mwr4avjszslbbx,14,2,2.0,39.0,1.033,1.0,1.0
prolific,25fuwx9wj8mwr4avjszslbbx,15,2,0.0,37.0,1.968,0.0,0.0
prolific,25fuwx9wj8mwr4avjszslbbx,16,0,2.0,39.0,0.791,0.0,0.0
prolific,25fuwx9wj8mwr4avjszslbbx,17,0,1.0,38.0,0.465,0.0,1.0
prolific,25fuwx9wj8mwr4avjszslbbx,18,0,1.0,38.0,1.069,0.0,0.0
prolific,25fuwx9wj8mwr4avjszslbbx,19,0,0.0,37.0,0.619,1.0,1.0
prolific,25fuwx9wj8mwr4avjszslbbx,20,0,0.0,37.0,1.574,1.0,0.0
prolific,25fuwx9wj8mwr4avjszslbbx,21,0,2.0,39.0,1.051,0.0,1.0
prolific,25fuwx9wj8mwr4avjszslbbx,22,0,2.0,39.0,0.804,0.0,0.0
prolific,25fuwx9wj8mwr4avjszslbbx,23,0,1.0,38.0,0.89,0.0,0.0
prolific,25fuwx9wj8mwr4avjszslbbx,24,0,1.0,38.0,1.054,0.0,1.0
prolific,25fuwx9wj8mwr4avjszslbbx,25,0,1.0,38.0,0.819,0.0,0.0
prolific,25fuwx9wj8mwr4avjszslbbx,26,0,0.0,37.0,0.542,1.0,0.0
prolific,25fuwx9wj8mwr4avjszslbbx,27,0,2.0,39.0,0.902,0.0,0.0
prolific,25fuwx9wj8mwr4avjszslbbx,28,0,0.0,37.0,0.599,1.0,1.0
prolific,25fuwx9wj8mwr4avjszslbbx,29,0,2.0,39.0,0.574,0.0,1.0
prolific,25fuwx9wj8mwr4avjszslbbx,30,0,1.0,38.0,0.481,0.0,1.0
prolific,25fuwx9wj8mwr4avjszslbbx,31,1,1.0,38.0,0.551,1.0,1.0
prolific,25fuwx9wj8mwr4avjszslbbx,32,1,1.0,38.0,1.243,1.0,0.0
prolific,25fuwx9wj8mwr4avjszslbbx,33,1,0.0,37.0,0.59,0.0,0.0
prolific,25fuwx9wj8mwr4avjszslbbx,34,1,0.0,37.0,0.372,0.0,0.0
prolific,25fuwx9wj8mwr4avjszslbbx,35,1,2.0,39.0,0.484,0.0,0.0
prolific,25fuwx9wj8mwr4avjszslbbx,36,1,1.0,38.0,0.486,1.0,1.0
prolific,25fuwx9wj8mwr4avjszslbbx,37,1,1.0,38.0,0.741,1.0,1.0
prolific,25fuwx9wj8mwr4avjszslbbx,38,1,1.0,38.0,0.689,1.0,1.0
prolific,25fuwx9wj8mwr4avjszslbbx,39,1,1.0,38.0,0.595,1.0,1.0
prolific,25fuwx9wj8mwr4avjszslbbx,40,1,1.0,38.0,0.522,1.0,1.0
prolific,25fuwx9wj8mwr4avjszslbbx,41,1,1.0,38.0,0.824,1.0,1.0
prolific,25fuwx9wj8mwr4avjszslbbx,42,1,1.0,38.0,0.435,1.0,0.0
prolific,25fuwx9wj8mwr4avjszslbbx,43,1,0.0,37.0,1.085,0.0,0.0
prolific,25fuwx9wj8mwr4avjszslbbx,44,1,1.0,38.0,0.369,1.0,1.0
prolific,25fuwx9wj8mwr4avjszslbbx,45,1,1.0,38.0,0.501,1.0,1.0
prolific,25fuwx9wj8mwr4avjszslbbx,46,2,1.0,38.0,0.511,0.0,0.0
prolific,25fuwx9wj8mwr4avjszslbbx,47,2,1.0,38.0,1.501,0.0,0.0
prolific,25fuwx9wj8mwr4avjszslbbx,48,2,2.0,39.0,0.533,1.0,1.0
prolific,25fuwx9wj8mwr4avjszslbbx,49,2,2.0,39.0,0.468,1.0,1.0
prolific,25fuwx9wj8mwr4avjszslbbx,50,2,2.0,39.0,0.482,1.0,1.0
prolific,25fuwx9wj8mwr4avjszslbbx,51,2,2.0,39.0,0.544,1.0,1.0
prolific,25fuwx9wj8mwr4avjszslbbx,52,2,2.0,39.0,0.536,1.0,1.0
prolific,25fuwx9wj8mwr4avjszslbbx,53,2,2.0,39.0,0.541,1.0,1.0
prolific,25fuwx9wj8mwr4avjszslbbx,54,2,2.0,39.0,0.505,1.0,1.0
prolific,25fuwx9wj8mwr4avjszslbbx,55,2,2.0,39.0,0.555,1.0,1.0
prolific,25fuwx9wj8mwr4avjszslbbx,56,2,2.0,39.0,0.559,1.0,0.0
prolific,25fuwx9wj8mwr4avjszslbbx,57,2,2.0,39.0,1.022,1.0,1.0
prolific,25fuwx9wj8mwr4avjszslbbx,58,2,2.0,39.0,0.448,1.0,0.0
prolific,25fuwx9wj8mwr4avjszslbbx,59,2,1.0,38.0,0.386,0.0,0.0
prolific,25fuwx9wj8mwr4avjszslbbx,60,2,2.0,39.0,0.422,1.0,1.0
prolific,25fuwx9wj8mwr4avjszslbbx,61,1,2.0,39.0,0.626,0.0,1.0
prolific,25fuwx9wj8mwr4avjszslbbx,62,1,2.0,39.0,0.321,0.0,0.0
prolific,25fuwx9wj8mwr4avjszslbbx,63,1,1.0,38.0,0.425,1.0,1.0
prolific,25fuwx9wj8mwr4avjszslbbx,64,1,1.0,38.0,0.337,1.0,1.0
prolific,25fuwx9wj8mwr4avjszslbbx,65,1,1.0,38.0,0.41,1.0,1.0
prolific,25fuwx9wj8mwr4avjszslbbx,66,1,1.0,38.0,0.594,1.0,1.0
prolific,25fuwx9wj8mwr4avjszslbbx,67,1,1.0,38.0,0.427,1.0,1.0
prolific,25fuwx9wj8mwr4avjszslbbx,68,1,1.0,38.0,0.488,1.0,1.0
prolific,25fuwx9wj8mwr4avjszslbbx,69,1,1.0,38.0,0.497,1.0,1.0
prolific,25fuwx9wj8mwr4avjszslbbx,70,1,1.0,38.0,0.465,1.0,0.0
prolific,25fuwx9wj8mwr4avjszslbbx,71,1,1.0,38.0,0.425,1.0,1.0
prolific,25fuwx9wj8mwr4avjszslbbx,72,1,1.0,38.0,0.456,1.0,1.0
prolific,25fuwx9wj8mwr4avjszslbbx,73,1,1.0,38.0,0.416,1.0,1.0
prolific,25fuwx9wj8mwr4avjszslbbx,74,1,1.0,38.0,0.503,1.0,0.0
prolific,25fuwx9wj8mwr4avjszslbbx,75,1,2.0,39.0,1.291,0.0,0.0
prolific,25fuwx9wj8mwr4avjszslbbx,76,0,2.0,39.0,0.458,0.0,0.0
prolific,25fuwx9wj8mwr4avjszslbbx,77,0,2.0,39.0,0.536,0.0,0.0
prolific,25fuwx9wj8mwr4avjszslbbx,78,0,1.0,38.0,0.607,0.0,0.0
prolific,25fuwx9wj8mwr4avjszslbbx,79,0,0.0,37.0,0.417,1.0,0.0
prolific,25fuwx9wj8mwr4avjszslbbx,80,0,0.0,37.0,0.552,1.0,1.0
prolific,25fuwx9wj8mwr4avjszslbbx,81,0,0.0,37.0,0.415,1.0,1.0
prolific,25fuwx9wj8mwr4avjszslbbx,82,0,0.0,37.0,0.421,1.0,1.0
prolific,25fuwx9wj8mwr4avjszslbbx,83,0,0.0,37.0,0.459,1.0,1.0
prolific,25fuwx9wj8mwr4avjszslbbx,84,0,0.0,37.0,0.443,1.0,1.0
prolific,25fuwx9wj8mwr4avjszslbbx,85,0,0.0,37.0,0.419,1.0,1.0
prolific,25fuwx9wj8mwr4avjszslbbx,86,0,0.0,37.0,0.388,1.0,0.0
prolific,25fuwx9wj8mwr4avjszslbbx,87,0,0.0,37.0,0.404,1.0,1.0
prolific,25fuwx9wj8mwr4avjszslbbx,88,0,0.0,37.0,0.384,1.0,1.0
prolific,25fuwx9wj8mwr4avjszslbbx,89,0,0.0,37.0,0.464,1.0,1.0
prolific,25fuwx9wj8mwr4avjszslbbx,90,0,0.0,37.0,0.382,1.0,0.0
prolific,2g95z4j2bkkzbjeeh5wex9qe,1,2,1.0,38.0,3.223,0.0,0.0
prolific,2g95z4j2bkkzbjeeh5wex9qe,2,2,1.0,38.0,1.13,0.0,0.0
prolific,2g95z4j2bkkzbjeeh5wex9qe,3,2,1.0,38.0,0.092,0.0,0.0
prolific,2g95z4j2bkkzbjeeh5wex9qe,4,2,1.0,38.0,0.307,0.0,0.0
prolific,2g95z4j2bkkzbjeeh5wex9qe,5,2,2.0,39.0,0.267,1.0,1.0
prolific,2g95z4j2bkkzbjeeh5wex9qe,6,2,0.0,37.0,1.444,0.0,0.0
prolific,2g95z4j2bkkzbjeeh5wex9qe,7,2,2.0,39.0,0.212,1.0,0.0
prolific,2g95z4j2bkkzbjeeh5wex9qe,8,2,1.0,38.0,0.684,0.0,0.0
prolific,2g95z4j2bkkzbjeeh5wex9qe,9,2,0.0,37.0,0.479,0.0,0.0
prolific,2g95z4j2bkkzbjeeh5wex9qe,10,2,0.0,37.0,0.364,0.0,0.0
prolific,2g95z4j2bkkzbjeeh5wex9qe,11,2,2.0,39.0,0.475,1.0,1.0
prolific,2g95z4j2bkkzbjeeh5wex9qe,12,2,2.0,39.0,0.356,1.0,1.0
prolific,2g95z4j2bkkzbjeeh5wex9qe,13,2,2.0,39.0,0.355,1.0,1.0
prolific,2g95z4j2bkkzbjeeh5wex9qe,14,2,2.0,39.0,0.42,1.0,0.0
prolific,2g95z4j2bkkzbjeeh5wex9qe,15,2,1.0,38.0,0.388,0.0,0.0
prolific,2g95z4j2bkkzbjeeh5wex9qe,16,1,1.0,38.0,0.372,1.0,0.0
prolific,2g95z4j2bkkzbjeeh5wex9qe,17,1,0.0,37.0,0.323,0.0,0.0
prolific,2g95z4j2bkkzbjeeh5wex9qe,18,1,2.0,39.0,0.036,0.0,0.0
prolific,2g95z4j2bkkzbjeeh5wex9qe,19,1,0.0,37.0,0.467,0.0,0.0
prolific,2g95z4j2bkkzbjeeh5wex9qe,20,1,1.0,38.0,0.291,1.0,1.0
prolific,2g95z4j2bkkzbjeeh5wex9qe,21,1,1.0,38.0,0.042,1.0,0.0
prolific,2g95z4j2bkkzbjeeh5wex9qe,22,1,2.0,39.0,0.011,0.0,1.0
prolific,2g95z4j2bkkzbjeeh5wex9qe,23,1,2.0,39.0,0.395,0.0,0.0
prolific,2g95z4j2bkkzbjeeh5wex9qe,24,1,0.0,37.0,0.324,0.0,0.0
prolific,2g95z4j2bkkzbjeeh5wex9qe,25,1,0.0,37.0,0.044,0.0,0.0
prolific,2g95z4j2bkkzbjeeh5wex9qe,26,1,0.0,37.0,0.164,0.0,0.0
prolific,2g95z4j2bkkzbjeeh5wex9qe,27,1,2.0,39.0,0.077,0.0,0.0
prolific,2g95z4j2bkkzbjeeh5wex9qe,28,1,1.0,38.0,0.108,1.0,1.0
prolific,2g95z4j2bkkzbjeeh5wex9qe,29,1,1.0,38.0,0.131,1.0,0.0
prolific,2g95z4j2bkkzbjeeh5wex9qe,30,1,2.0,39.0,0.205,0.0,0.0
prolific,2g95z4j2bkkzbjeeh5wex9qe,31,2,0.0,37.0,0.132,0.0,0.0
prolific,2g95z4j2bkkzbjeeh5wex9qe,32,2,2.0,39.0,0.051,1.0,0.0
prolific,2g95z4j2bkkzbjeeh5wex9qe,33,2,1.0,38.0,0.02,0.0,0.0
prolific,2g95z4j2bkkzbjeeh5wex9qe,34,2,2.0,39.0,0.237,1.0,1.0
prolific,2g95z4j2bkkzbjeeh5wex9qe,35,2,2.0,39.0,0.059,1.0,1.0
prolific,2g95z4j2bkkzbjeeh5wex9qe,36,2,2.0,39.0,0.069,1.0,0.0
prolific,2g95z4j2bkkzbjeeh5wex9qe,37,2,0.0,37.0,0.132,0.0,0.0
prolific,2g95z4j2bkkzbjeeh5wex9qe,38,2,0.0,37.0,0.115,0.0,0.0
prolific,2g95z4j2bkkzbjeeh5wex9qe,39,2,0.0,37.0,0.044,0.0,0.0
prolific,2g95z4j2bkkzbjeeh5wex9qe,40,2,1.0,38.0,0.284,0.0,0.0
prolific,2g95z4j2bkkzbjeeh5wex9qe,41,2,2.0,39.0,0.173,1.0,1.0
prolific,2g95z4j2bkkzbjeeh5wex9qe,42,2,1.0,38.0,0.059,0.0,0.0
prolific,2g95z4j2bkkzbjeeh5wex9qe,43,2,2.0,39.0,0.132,1.0,0.0
prolific,2g95z4j2bkkzbjeeh5wex9qe,44,2,0.0,37.0,0.004,0.0,1.0
prolific,2g95z4j2bkkzbjeeh5wex9qe,45,2,0.0,37.0,0.221,0.0,1.0
prolific,2g95z4j2bkkzbjeeh5wex9qe,46,0,0.0,37.0,0.028,1.0,1.0
prolific,2g95z4j2bkkzbjeeh5wex9qe,47,0,0.0,37.0,0.026,1.0,1.0
prolific,2g95z4j2bkkzbjeeh5wex9qe,48,0,0.0,37.0,0.084,1.0,0.0
prolific,2g95z4j2bkkzbjeeh5wex9qe,49,0,1.0,38.0,0.092,0.0,0.0
prolific,2g95z4j2bkkzbjeeh5wex9qe,50,0,2.0,39.0,0.244,0.0,0.0
prolific,2g95z4j2bkkzbjeeh5wex9qe,51,0,1.0,38.0,0.244,0.0,0.0
prolific,2g95z4j2bkkzbjeeh5wex9qe,52,0,1.0,38.0,0.372,0.0,1.0
prolific,2g95z4j2bkkzbjeeh5wex9qe,53,0,1.0,38.0,0.116,0.0,1.0
prolific,2g95z4j2bkkzbjeeh5wex9qe,54,0,1.0,38.0,0.084,0.0,1.0
prolific,2g95z4j2bkkzbjeeh5wex9qe,55,0,2.0,39.0,0.109,0.0,0.0
prolific,2g95z4j2bkkzbjeeh5wex9qe,56,0,1.0,38.0,0.164,0.0,0.0
prolific,2g95z4j2bkkzbjeeh5wex9qe,57,0,0.0,37.0,0.275,1.0,1.0
prolific,2g95z4j2bkkzbjeeh5wex9qe,58,0,0.0,37.0,0.036,1.0,1.0
prolific,2g95z4j2bkkzbjeeh5wex9qe,59,0,0.0,37.0,0.037,1.0,1.0
prolific,2g95z4j2bkkzbjeeh5wex9qe,60,0,0.0,37.0,0.124,1.0,1.0
prolific,2g95z4j2bkkzbjeeh5wex9qe,61,2,0.0,37.0,0.212,0.0,0.0
prolific,2g95z4j2bkkzbjeeh5wex9qe,62,2,2.0,39.0,0.067,1.0,1.0
prolific,2g95z4j2bkkzbjeeh5wex9qe,63,2,2.0,39.0,0.107,1.0,1.0
prolific,2g95z4j2bkkzbjeeh5wex9qe,64,2,2.0,39.0,0.004,1.0,1.0
prolific,2g95z4j2bkkzbjeeh5wex9qe,65,2,2.0,39.0,0.01,1.0,1.0
prolific,2g95z4j2bkkzbjeeh5wex9qe,66,2,2.0,39.0,0.116,1.0,1.0
prolific,2g95z4j2bkkzbjeeh5wex9qe,67,2,2.0,39.0,0.18,1.0,1.0
prolific,2g95z4j2bkkzbjeeh5wex9qe,68,2,2.0,39.0,0.019,1.0,1.0
prolific,2g95z4j2bkkzbjeeh5wex9qe,69,2,2.0,39.0,0.179,1.0,0.0
prolific,2g95z4j2bkkzbjeeh5wex9qe,70,2,1.0,38.0,0.203,0.0,0.0
prolific,2g95z4j2bkkzbjeeh5wex9qe,71,2,1.0,38.0,0.292,0.0,0.0
prolific,2g95z4j2bkkzbjeeh5wex9qe,72,2,1.0,38.0,0.283,0.0,0.0
prolific,2g95z4j2bkkzbjeeh5wex9qe,73,2,0.0,37.0,0.164,0.0,0.0
prolific,2g95z4j2bkkzbjeeh5wex9qe,74,2,2.0,39.0,0.14,1.0,1.0
prolific,2g95z4j2bkkzbjeeh5wex9qe,75,2,0.0,37.0,0.26,0.0,0.0
prolific,2g95z4j2bkkzbjeeh5wex9qe,76,0,2.0,39.0,0.124,0.0,0.0
prolific,2g95z4j2bkkzbjeeh5wex9qe,77,0,1.0,38.0,0.027,0.0,1.0
prolific,2g95z4j2bkkzbjeeh5wex9qe,78,0,1.0,38.0,0.253,0.0,1.0
prolific,2g95z4j2bkkzbjeeh5wex9qe,79,0,1.0,38.0,0.155,0.0,0.0
prolific,2g95z4j2bkkzbjeeh5wex9qe,80,0,0.0,37.0,0.076,1.0,1.0
prolific,2g95z4j2bkkzbjeeh5wex9qe,81,0,2.0,39.0,0.124,0.0,0.0
prolific,2g95z4j2bkkzbjeeh5wex9qe,82,0,0.0,37.0,0.205,1.0,0.0
prolific,2g95z4j2bkkzbjeeh5wex9qe,83,0,1.0,38.0,0.091,0.0,0.0
prolific,2g95z4j2bkkzbjeeh5wex9qe,84,0,2.0,39.0,0.26,0.0,0.0
prolific,2g95z4j2bkkzbjeeh5wex9qe,85,0,0.0,37.0,0.052,1.0,1.0
prolific,2g95z4j2bkkzbjeeh5wex9qe,86,0,0.0,37.0,0.076,1.0,1.0
prolific,2g95z4j2bkkzbjeeh5wex9qe,87,0,1.0,38.0,0.253,0.0,0.0
prolific,2g95z4j2bkkzbjeeh5wex9qe,88,0,2.0,39.0,0.188,0.0,0.0
prolific,2g95z4j2bkkzbjeeh5wex9qe,89,0,0.0,37.0,0.124,1.0,1.0
prolific,2g95z4j2bkkzbjeeh5wex9qe,90,0,0.0,37.0,0.132,1.0,0.0
prolific,2leyyrsxpwbmugus6n9l7hgm,1,0,1.0,38.0,3.414,0.0,1.0
prolific,2leyyrsxpwbmugus6n9l7hgm,2,0,1.0,38.0,9.896,0.0,0.0
prolific,2leyyrsxpwbmugus6n9l7hgm,3,0,2.0,39.0,2.147,0.0,0.0
prolific,2leyyrsxpwbmugus6n9l7hgm,4,0,1.0,38.0,1.411,0.0,1.0
prolific,2leyyrsxpwbmugus6n9l7hgm,5,0,0.0,37.0,1.115,1.0,1.0
prolific,2leyyrsxpwbmugus6n9l7hgm,6,0,2.0,39.0,1.974,0.0,0.0
prolific,2leyyrsxpwbmugus6n9l7hgm,7,0,2.0,39.0,0.681,0.0,0.0
prolific,2leyyrsxpwbmugus6n9l7hgm,8,0,1.0,38.0,0.535,0.0,0.0
prolific,2leyyrsxpwbmugus6n9l7hgm,9,0,0.0,37.0,1.306,1.0,1.0
prolific,2leyyrsxpwbmugus6n9l7hgm,10,0,1.0,38.0,1.067,0.0,0.0
prolific,2leyyrsxpwbmugus6n9l7hgm,11,0,0.0,37.0,0.558,1.0,1.0
prolific,2leyyrsxpwbmugus6n9l7hgm,12,0,2.0,39.0,0.858,0.0,0.0
prolific,2leyyrsxpwbmugus6n9l7hgm,13,0,0.0,37.0,0.567,1.0,1.0
prolific,2leyyrsxpwbmugus6n9l7hgm,14,0,1.0,38.0,0.501,0.0,0.0
prolific,2leyyrsxpwbmugus6n9l7hgm,15,0,0.0,37.0,0.399,1.0,1.0
prolific,2leyyrsxpwbmugus6n9l7hgm,16,2,0.0,37.0,0.586,0.0,1.0
prolific,2leyyrsxpwbmugus6n9l7hgm,17,2,1.0,38.0,0.888,0.0,1.0
prolific,2leyyrsxpwbmugus6n9l7hgm,18,2,0.0,37.0,1.68,0.0,0.0
prolific,2leyyrsxpwbmugus6n9l7hgm,19,2,1.0,38.0,0.86,0.0,0.0
prolific,2leyyrsxpwbmugus6n9l7hgm,20,2,0.0,37.0,0.457,0.0,0.0
prolific,2leyyrsxpwbmugus6n9l7hgm,21,2,2.0,39.0,0.49,1.0,1.0
prolific,2leyyrsxpwbmugus6n9l7hgm,22,2,1.0,38.0,0.617,0.0,0.0
prolific,2leyyrsxpwbmugus6n9l7hgm,23,2,2.0,39.0,0.384,1.0,1.0
prolific,2leyyrsxpwbmugus6n9l7hgm,24,2,0.0,37.0,0.402,0.0,0.0
prolific,2leyyrsxpwbmugus6n9l7hgm,25,2,2.0,39.0,0.407,1.0,1.0
prolific,2leyyrsxpwbmugus6n9l7hgm,26,2,2.0,39.0,0.422,1.0,1.0
prolific,2leyyrsxpwbmugus6n9l7hgm,27,2,2.0,39.0,0.48,1.0,1.0
prolific,2leyyrsxpwbmugus6n9l7hgm,28,2,2.0,39.0,0.453,1.0,1.0
prolific,2leyyrsxpwbmugus6n9l7hgm,29,2,2.0,39.0,0.488,1.0,0.0
prolific,2leyyrsxpwbmugus6n9l7hgm,30,2,0.0,37.0,0.543,0.0,0.0
prolific,2leyyrsxpwbmugus6n9l7hgm,31,0,2.0,39.0,0.371,0.0,0.0
prolific,2leyyrsxpwbmugus6n9l7hgm,32,0,1.0,38.0,0.337,0.0,0.0
prolific,2leyyrsxpwbmugus6n9l7hgm,33,0,2.0,39.0,0.618,0.0,0.0
prolific,2leyyrsxpwbmugus6n9l7hgm,34,0,1.0,38.0,0.657,0.0,0.0
prolific,2leyyrsxpwbmugus6n9l7hgm,35,0,0.0,37.0,0.38,1.0,1.0
prolific,2leyyrsxpwbmugus6n9l7hgm,36,0,0.0,37.0,0.434,1.0,1.0
prolific,2leyyrsxpwbmugus6n9l7hgm,37,0,0.0,37.0,0.472,1.0,1.0
prolific,2leyyrsxpwbmugus6n9l7hgm,38,0,0.0,37.0,0.387,1.0,1.0
prolific,2leyyrsxpwbmugus6n9l7hgm,39,0,0.0,37.0,0.429,1.0,1.0
prolific,2leyyrsxpwbmugus6n9l7hgm,40,0,0.0,37.0,0.514,1.0,1.0
prolific,2leyyrsxpwbmugus6n9l7hgm,41,0,0.0,37.0,0.413,1.0,1.0
prolific,2leyyrsxpwbmugus6n9l7hgm,42,0,0.0,37.0,0.552,1.0,1.0
prolific,2leyyrsxpwbmugus6n9l7hgm,43,0,0.0,37.0,0.385,1.0,1.0
prolific,2leyyrsxpwbmugus6n9l7hgm,44,0,0.0,37.0,0.53,1.0,1.0
prolific,2leyyrsxpwbmugus6n9l7hgm,45,0,0.0,37.0,0.442,1.0,1.0
prolific,2leyyrsxpwbmugus6n9l7hgm,46,2,0.0,37.0,0.486,0.0,0.0
prolific,2leyyrsxpwbmugus6n9l7hgm,47,2,2.0,39.0,0.569,1.0,1.0
prolific,2leyyrsxpwbmugus6n9l7hgm,48,2,2.0,39.0,0.48,1.0,1.0
prolific,2leyyrsxpwbmugus6n9l7hgm,49,2,2.0,39.0,0.504,1.0,1.0
prolific,2leyyrsxpwbmugus6n9l7hgm,50,2,2.0,39.0,0.407,1.0,0.0
prolific,2leyyrsxpwbmugus6n9l7hgm,51,2,0.0,37.0,0.507,0.0,1.0
prolific,2leyyrsxpwbmugus6n9l7hgm,52,2,0.0,37.0,0.391,0.0,0.0
prolific,2leyyrsxpwbmugus6n9l7hgm,53,2,1.0,38.0,0.342,0.0,0.0
prolific,2leyyrsxpwbmugus6n9l7hgm,54,2,1.0,38.0,0.39,0.0,0.0
prolific,2leyyrsxpwbmugus6n9l7hgm,55,2,2.0,39.0,0.359,1.0,1.0
prolific,2leyyrsxpwbmugus6n9l7hgm,56,2,2.0,39.0,0.501,1.0,1.0
prolific,2leyyrsxpwbmugus6n9l7hgm,57,2,2.0,39.0,0.37,1.0,1.0
prolific,2leyyrsxpwbmugus6n9l7hgm,58,2,2.0,39.0,1.586,1.0,1.0
prolific,2leyyrsxpwbmugus6n9l7hgm,59,2,2.0,39.0,0.451,1.0,1.0
prolific,2leyyrsxpwbmugus6n9l7hgm,60,2,2.0,39.0,1.207,1.0,1.0
prolific,2leyyrsxpwbmugus6n9l7hgm,61,0,2.0,39.0,0.957,0.0,1.0
prolific,2leyyrsxpwbmugus6n9l7hgm,62,0,2.0,39.0,2.544,0.0,0.0
prolific,2leyyrsxpwbmugus6n9l7hgm,63,0,0.0,37.0,0.547,1.0,1.0
prolific,2leyyrsxpwbmugus6n9l7hgm,64,0,0.0,37.0,3.126,1.0,1.0
prolific,2leyyrsxpwbmugus6n9l7hgm,65,0,0.0,37.0,0.792,1.0,1.0
prolific,2leyyrsxpwbmugus6n9l7hgm,66,0,0.0,37.0,0.938,1.0,1.0
prolific,2leyyrsxpwbmugus6n9l7hgm,67,0,0.0,37.0,0.623,1.0,1.0
prolific,2leyyrsxpwbmugus6n9l7hgm,68,0,0.0,37.0,0.705,1.0,1.0
prolific,2leyyrsxpwbmugus6n9l7hgm,69,0,0.0,37.0,0.744,1.0,1.0
prolific,2leyyrsxpwbmugus6n9l7hgm,70,0,0.0,37.0,0.397,1.0,1.0
prolific,2leyyrsxpwbmugus6n9l7hgm,71,0,0.0,37.0,0.474,1.0,1.0
prolific,2leyyrsxpwbmugus6n9l7hgm,72,0,0.0,37.0,0.495,1.0,0.0
prolific,2leyyrsxpwbmugus6n9l7hgm,73,0,1.0,38.0,0.383,0.0,0.0
prolific,2leyyrsxpwbmugus6n9l7hgm,74,0,0.0,37.0,0.343,1.0,1.0
prolific,2leyyrsxpwbmugus6n9l7hgm,75,0,0.0,37.0,0.388,1.0,1.0
prolific,2leyyrsxpwbmugus6n9l7hgm,76,1,0.0,37.0,0.337,0.0,0.0
prolific,2leyyrsxpwbmugus6n9l7hgm,77,1,1.0,38.0,0.763,1.0,1.0
prolific,2leyyrsxpwbmugus6n9l7hgm,78,1,1.0,38.0,0.381,1.0,1.0
prolific,2leyyrsxpwbmugus6n9l7hgm,79,1,1.0,38.0,0.335,1.0,1.0
prolific,2leyyrsxpwbmugus6n9l7hgm,80,1,1.0,38.0,0.344,1.0,1.0
prolific,2leyyrsxpwbmugus6n9l7hgm,81,1,1.0,38.0,0.325,1.0,0.0
prolific,2leyyrsxpwbmugus6n9l7hgm,82,1,0.0,37.0,0.335,0.0,1.0
prolific,2leyyrsxpwbmugus6n9l7hgm,83,1,0.0,37.0,0.369,0.0,0.0
prolific,2leyyrsxpwbmugus6n9l7hgm,84,1,2.0,39.0,0.269,0.0,0.0
prolific,2leyyrsxpwbmugus6n9l7hgm,85,1,2.0,39.0,0.387,0.0,1.0
prolific,2leyyrsxpwbmugus6n9l7hgm,86,1,2.0,39.0,0.571,0.0,0.0
prolific,2leyyrsxpwbmugus6n9l7hgm,87,1,1.0,38.0,0.434,1.0,1.0
prolific,2leyyrsxpwbmugus6n9l7hgm,88,1,1.0,38.0,0.381,1.0,0.0
prolific,2leyyrsxpwbmugus6n9l7hgm,89,1,0.0,37.0,0.327,0.0,0.0
prolific,2leyyrsxpwbmugus6n9l7hgm,90,1,0.0,37.0,0.342,0.0,1.0
prolific,2sdnu1yjjuxyew3zpe8nwlhb,1,2,1.0,38.0,0.966,0.0,1.0
prolific,2sdnu1yjjuxyew3zpe8nwlhb,2,2,1.0,38.0,0.162,0.0,0.0
prolific,2sdnu1yjjuxyew3zpe8nwlhb,3,2,1.0,38.0,0.367,0.0,0.0
prolific,2sdnu1yjjuxyew3zpe8nwlhb,4,2,0.0,37.0,0.124,0.0,0.0
prolific,2sdnu1yjjuxyew3zpe8nwlhb,5,2,0.0,37.0,0.08,0.0,0.0
prolific,2sdnu1yjjuxyew3zpe8nwlhb,6,2,0.0,37.0,0.005,0.0,0.0
prolific,2sdnu1yjjuxyew3zpe8nwlhb,7,2,2.0,39.0,0.075,1.0,1.0
prolific,2sdnu1yjjuxyew3zpe8nwlhb,8,2,2.0,39.0,0.12,1.0,1.0
prolific,2sdnu1yjjuxyew3zpe8nwlhb,9,2,2.0,39.0,0.144,1.0,1.0
prolific,2sdnu1yjjuxyew3zpe8nwlhb,10,2,2.0,39.0,0.094,1.0,1.0
prolific,2sdnu1yjjuxyew3zpe8nwlhb,11,2,2.0,39.0,0.078,1.0,0.0
prolific,2sdnu1yjjuxyew3zpe8nwlhb,12,2,2.0,39.0,0.054,1.0,1.0
prolific,2sdnu1yjjuxyew3zpe8nwlhb,13,2,2.0,39.0,0.037,1.0,1.0
prolific,2sdnu1yjjuxyew3zpe8nwlhb,14,2,2.0,39.0,0.143,1.0,0.0
prolific,2sdnu1yjjuxyew3zpe8nwlhb,15,2,2.0,39.0,0.029,1.0,1.0
prolific,2sdnu1yjjuxyew3zpe8nwlhb,16,0,2.0,39.0,0.402,0.0,1.0
prolific,2sdnu1yjjuxyew3zpe8nwlhb,17,0,2.0,39.0,0.067,0.0,1.0
prolific,2sdnu1yjjuxyew3zpe8nwlhb,18,0,2.0,39.0,0.202,0.0,0.0
prolific,2sdnu1yjjuxyew3zpe8nwlhb,19,0,2.0,39.0,0.027,0.0,0.0
prolific,2sdnu1yjjuxyew3zpe8nwlhb,20,0,2.0,39.0,0.119,0.0,0.0
prolific,2sdnu1yjjuxyew3zpe8nwlhb,21,0,1.0,38.0,0.39,0.0,0.0
prolific,2sdnu1yjjuxyew3zpe8nwlhb,22,0,1.0,38.0,0.224,0.0,1.0
prolific,2sdnu1yjjuxyew3zpe8nwlhb,23,0,1.0,38.0,0.148,0.0,0.0
prolific,2sdnu1yjjuxyew3zpe8nwlhb,24,0,1.0,38.0,0.152,0.0,0.0
prolific,2sdnu1yjjuxyew3zpe8nwlhb,25,0,1.0,38.0,0.095,0.0,1.0
prolific,2sdnu1yjjuxyew3zpe8nwlhb,26,0,1.0,38.0,0.151,0.0,0.0
prolific,2sdnu1yjjuxyew3zpe8nwlhb,27,0,0.0,37.0,0.249,1.0,1.0
prolific,2sdnu1yjjuxyew3zpe8nwlhb,28,0,0.0,37.0,0.464,1.0,1.0
prolific,2sdnu1yjjuxyew3zpe8nwlhb,29,0,0.0,37.0,0.256,1.0,0.0
prolific,2sdnu1yjjuxyew3zpe8nwlhb,30,0,0.0,37.0,0.144,1.0,1.0
prolific,2sdnu1yjjuxyew3zpe8nwlhb,31,2,0.0,37.0,0.017,0.0,1.0
prolific,2sdnu1yjjuxyew3zpe8nwlhb,32,2,0.0,37.0,0.245,0.0,0.0
prolific,2sdnu1yjjuxyew3zpe8nwlhb,33,2,0.0,37.0,0.031,0.0,0.0
prolific,2sdnu1yjjuxyew3zpe8nwlhb,34,2,0.0,37.0,0.149,0.0,0.0
prolific,2sdnu1yjjuxyew3zpe8nwlhb,35,2,0.0,37.0,0.06,0.0,0.0
prolific,2sdnu1yjjuxyew3zpe8nwlhb,36,2,2.0,39.0,0.075,1.0,0.0
prolific,2sdnu1yjjuxyew3zpe8nwlhb,37,2,2.0,39.0,0.015,1.0,1.0
prolific,2sdnu1yjjuxyew3zpe8nwlhb,38,2,2.0,39.0,0.042,1.0,1.0
prolific,2sdnu1yjjuxyew3zpe8nwlhb,39,2,2.0,39.0,0.129,1.0,1.0
prolific,2sdnu1yjjuxyew3zpe8nwlhb,40,2,2.0,39.0,0.041,1.0,1.0
prolific,2sdnu1yjjuxyew3zpe8nwlhb,41,2,2.0,39.0,0.084,1.0,1.0
prolific,2sdnu1yjjuxyew3zpe8nwlhb,42,2,2.0,39.0,0.125,1.0,1.0
prolific,2sdnu1yjjuxyew3zpe8nwlhb,43,2,2.0,39.0,0.039,1.0,1.0
prolific,2sdnu1yjjuxyew3zpe8nwlhb,44,2,2.0,39.0,0.135,1.0,1.0
prolific,2sdnu1yjjuxyew3zpe8nwlhb,45,2,2.0,39.0,0.085,1.0,1.0
prolific,2sdnu1yjjuxyew3zpe8nwlhb,46,1,2.0,39.0,0.116,0.0,0.0
prolific,2sdnu1yjjuxyew3zpe8nwlhb,47,1,2.0,39.0,0.167,0.0,0.0
prolific,2sdnu1yjjuxyew3zpe8nwlhb,48,1,2.0,39.0,0.444,0.0,0.0
prolific,2sdnu1yjjuxyew3zpe8nwlhb,49,1,2.0,39.0,0.381,0.0,0.0
prolific,2sdnu1yjjuxyew3zpe8nwlhb,50,1,2.0,39.0,0.162,0.0,0.0
prolific,2sdnu1yjjuxyew3zpe8nwlhb,51,1,1.0,38.0,0.263,1.0,1.0
prolific,2sdnu1yjjuxyew3zpe8nwlhb,52,1,1.0,38.0,0.003,1.0,1.0
prolific,2sdnu1yjjuxyew3zpe8nwlhb,53,1,1.0,38.0,0.176,1.0,1.0
prolific,2sdnu1yjjuxyew3zpe8nwlhb,54,1,1.0,38.0,0.234,1.0,1.0
prolific,2sdnu1yjjuxyew3zpe8nwlhb,55,1,1.0,38.0,0.087,1.0,1.0
prolific,2sdnu1yjjuxyew3zpe8nwlhb,56,1,1.0,38.0,0.126,1.0,1.0
prolific,2sdnu1yjjuxyew3zpe8nwlhb,57,1,1.0,38.0,0.183,1.0,1.0
prolific,2sdnu1yjjuxyew3zpe8nwlhb,58,1,1.0,38.0,0.013,1.0,0.0
prolific,2sdnu1yjjuxyew3zpe8nwlhb,59,1,1.0,38.0,0.148,1.0,0.0
prolific,2sdnu1yjjuxyew3zpe8nwlhb,60,1,1.0,38.0,0.181,1.0,1.0
prolific,2sdnu1yjjuxyew3zpe8nwlhb,61,0,1.0,38.0,0.383,0.0,0.0
prolific,2sdnu1yjjuxyew3zpe8nwlhb,62,0,1.0,38.0,0.202,0.0,0.0
prolific,2sdnu1yjjuxyew3zpe8nwlhb,63,0,1.0,38.0,0.259,0.0,0.0
prolific,2sdnu1yjjuxyew3zpe8nwlhb,64,0,1.0,38.0,0.241,0.0,0.0
prolific,2sdnu1yjjuxyew3zpe8nwlhb,65,0,1.0,38.0,0.115,0.0,1.0
prolific,2sdnu1yjjuxyew3zpe8nwlhb,66,0,0.0,37.0,0.248,1.0,1.0
prolific,2sdnu1yjjuxyew3zpe8nwlhb,67,0,0.0,37.0,0.356,1.0,0.0
prolific,2sdnu1yjjuxyew3zpe8nwlhb,68,0,0.0,37.0,0.12,1.0,1.0
prolific,2sdnu1yjjuxyew3zpe8nwlhb,69,0,0.0,37.0,0.206,1.0,1.0
prolific,2sdnu1yjjuxyew3zpe8nwlhb,70,0,0.0,37.0,0.115,1.0,0.0
prolific,2sdnu1yjjuxyew3zpe8nwlhb,71,0,0.0,37.0,0.104,1.0,1.0
prolific,2sdnu1yjjuxyew3zpe8nwlhb,72,0,0.0,37.0,0.27,1.0,1.0
prolific,2sdnu1yjjuxyew3zpe8nwlhb,73,0,0.0,37.0,0.22,1.0,1.0
prolific,2sdnu1yjjuxyew3zpe8nwlhb,74,0,0.0,37.0,0.259,1.0,1.0
prolific,2sdnu1yjjuxyew3zpe8nwlhb,75,0,0.0,37.0,0.182,1.0,1.0
prolific,2sdnu1yjjuxyew3zpe8nwlhb,76,1,0.0,37.0,0.175,0.0,0.0
prolific,2sdnu1yjjuxyew3zpe8nwlhb,77,1,0.0,37.0,0.21,0.0,0.0
prolific,2sdnu1yjjuxyew3zpe8nwlhb,78,1,2.0,39.0,0.232,0.0,0.0
prolific,2sdnu1yjjuxyew3zpe8nwlhb,79,1,2.0,39.0,0.05,0.0,0.0
prolific,2sdnu1yjjuxyew3zpe8nwlhb,80,1,2.0,39.0,0.011,0.0,0.0
prolific,2sdnu1yjjuxyew3zpe8nwlhb,81,1,1.0,38.0,0.274,1.0,1.0
prolific,2sdnu1yjjuxyew3zpe8nwlhb,82,1,1.0,38.0,0.152,1.0,1.0
prolific,2sdnu1yjjuxyew3zpe8nwlhb,83,1,1.0,38.0,0.234,1.0,1.0
prolific,2sdnu1yjjuxyew3zpe8nwlhb,84,1,1.0,38.0,0.244,1.0,1.0
prolific,2sdnu1yjjuxyew3zpe8nwlhb,85,1,1.0,38.0,0.081,1.0,1.0
prolific,2sdnu1yjjuxyew3zpe8nwlhb,86,1,1.0,38.0,0.053,1.0,1.0
prolific,2sdnu1yjjuxyew3zpe8nwlhb,87,1,1.0,38.0,0.074,1.0,0.0
prolific,2sdnu1yjjuxyew3zpe8nwlhb,88,1,1.0,38.0,0.227,1.0,1.0
prolific,2sdnu1yjjuxyew3zpe8nwlhb,89,1,1.0,38.0,0.09,1.0,1.0
prolific,2sdnu1yjjuxyew3zpe8nwlhb,90,1,1.0,38.0,0.142,1.0,1.0
prolific,354ipv8jxmf3sgg4kl6iwjyg,1,1,1.0,38.0,1.042,1.0,1.0
prolific,354ipv8jxmf3sgg4kl6iwjyg,2,1,1.0,38.0,0.402,1.0,1.0
prolific,354ipv8jxmf3sgg4kl6iwjyg,3,1,1.0,38.0,0.372,1.0,1.0
prolific,354ipv8jxmf3sgg4kl6iwjyg,4,1,1.0,38.0,0.282,1.0,0.0
prolific,354ipv8jxmf3sgg4kl6iwjyg,5,1,0.0,37.0,0.29,0.0,0.0
prolific,354ipv8jxmf3sgg4kl6iwjyg,6,1,2.0,39.0,0.552,0.0,0.0
prolific,354ipv8jxmf3sgg4kl6iwjyg,7,1,1.0,38.0,0.308,1.0,1.0
prolific,354ipv8jxmf3sgg4kl6iwjyg,8,1,1.0,38.0,0.4,1.0,1.0
prolific,354ipv8jxmf3sgg4kl6iwjyg,9,1,1.0,38.0,0.327,1.0,0.0
prolific,354ipv8jxmf3sgg4kl6iwjyg,10,1,0.0,37.0,0.296,0.0,1.0
prolific,354ipv8jxmf3sgg4kl6iwjyg,11,1,0.0,37.0,0.175,0.0,0.0
prolific,354ipv8jxmf3sgg4kl6iwjyg,12,1,2.0,39.0,0.15,0.0,0.0
prolific,354ipv8jxmf3sgg4kl6iwjyg,13,1,0.0,37.0,0.107,0.0,1.0
prolific,354ipv8jxmf3sgg4kl6iwjyg,14,1,0.0,37.0,0.195,0.0,0.0
prolific,354ipv8jxmf3sgg4kl6iwjyg,15,1,1.0,38.0,0.079,1.0,1.0
prolific,354ipv8jxmf3sgg4kl6iwjyg,16,0,1.0,38.0,0.148,0.0,0.0
prolific,354ipv8jxmf3sgg4kl6iwjyg,17,0,1.0,38.0,0.119,0.0,1.0
prolific,354ipv8jxmf3sgg4kl6iwjyg,18,0,1.0,38.0,0.156,0.0,0.0
prolific,354ipv8jxmf3sgg4kl6iwjyg,19,0,0.0,37.0,0.009,1.0,1.0
prolific,354ipv8jxmf3sgg4kl6iwjyg,20,0,0.0,37.0,0.057,1.0,1.0
prolific,354ipv8jxmf3sgg4kl6iwjyg,21,0,0.0,37.0,0.264,1.0,1.0
prolific,354ipv8jxmf3sgg4kl6iwjyg,22,0,0.0,37.0,0.1,1.0,1.0
prolific,354ipv8jxmf3sgg4kl6iwjyg,23,0,0.0,37.0,0.162,1.0,1.0
prolific,354ipv8jxmf3sgg4kl6iwjyg,24,0,0.0,37.0,0.175,1.0,1.0
prolific,354ipv8jxmf3sgg4kl6iwjyg,25,0,0.0,37.0,0.099,1.0,1.0
prolific,354ipv8jxmf3sgg4kl6iwjyg,26,0,0.0,37.0,0.277,1.0,1.0
prolific,354ipv8jxmf3sgg4kl6iwjyg,27,0,0.0,37.0,0.274,1.0,0.0
prolific,354ipv8jxmf3sgg4kl6iwjyg,28,0,1.0,38.0,0.04,0.0,0.0
prolific,354ipv8jxmf3sgg4kl6iwjyg,29,0,2.0,39.0,0.088,0.0,0.0
prolific,354ipv8jxmf3sgg4kl6iwjyg,30,0,0.0,37.0,0.51,1.0,0.0
prolific,354ipv8jxmf3sgg4kl6iwjyg,31,1,0.0,37.0,0.274,0.0,1.0
prolific,354ipv8jxmf3sgg4kl6iwjyg,32,1,0.0,37.0,0.063,0.0,0.0
prolific,354ipv8jxmf3sgg4kl6iwjyg,33,1,1.0,38.0,0.085,1.0,1.0
prolific,354ipv8jxmf3sgg4kl6iwjyg,34,1,1.0,38.0,0.417,1.0,1.0
prolific,354ipv8jxmf3sgg4kl6iwjyg,35,1,1.0,38.0,0.29,1.0,1.0
prolific,354ipv8jxmf3sgg4kl6iwjyg,36,1,1.0,38.0,0.241,1.0,1.0
prolific,354ipv8jxmf3sgg4kl6iwjyg,37,1,1.0,38.0,0.246,1.0,1.0
prolific,354ipv8jxmf3sgg4kl6iwjyg,38,1,1.0,38.0,0.228,1.0,0.0
prolific,354ipv8jxmf3sgg4kl6iwjyg,39,1,1.0,38.0,0.156,1.0,0.0
prolific,354ipv8jxmf3sgg4kl6iwjyg,40,1,2.0,39.0,0.33,0.0,1.0
prolific,354ipv8jxmf3sgg4kl6iwjyg,41,1,2.0,39.0,0.145,0.0,1.0
prolific,354ipv8jxmf3sgg4kl6iwjyg,42,1,2.0,39.0,0.274,0.0,1.0
prolific,354ipv8jxmf3sgg4kl6iwjyg,43,1,2.0,39.0,0.238,0.0,1.0
prolific,354ipv8jxmf3sgg4kl6iwjyg,44,1,2.0,39.0,0.198,0.0,0.0
prolific,354ipv8jxmf3sgg4kl6iwjyg,45,1,2.0,39.0,0.155,0.0,1.0
prolific,354ipv8jxmf3sgg4kl6iwjyg,46,0,2.0,39.0,0.382,0.0,0.0
prolific,354ipv8jxmf3sgg4kl6iwjyg,47,0,0.0,37.0,0.067,1.0,0.0
prolific,354ipv8jxmf3sgg4kl6iwjyg,48,0,1.0,38.0,0.426,0.0,0.0
prolific,354ipv8jxmf3sgg4kl6iwjyg,49,0,2.0,39.0,0.134,0.0,0.0
prolific,354ipv8jxmf3sgg4kl6iwjyg,50,0,0.0,37.0,0.046,1.0,1.0
prolific,354ipv8jxmf3sgg4kl6iwjyg,51,0,0.0,37.0,0.406,1.0,1.0
prolific,354ipv8jxmf3sgg4kl6iwjyg,52,0,0.0,37.0,0.273,1.0,1.0
prolific,354ipv8jxmf3sgg4kl6iwjyg,53,0,0.0,37.0,0.314,1.0,1.0
prolific,354ipv8jxmf3sgg4kl6iwjyg,54,0,0.0,37.0,0.271,1.0,1.0
prolific,354ipv8jxmf3sgg4kl6iwjyg,55,0,0.0,37.0,0.29,1.0,1.0
prolific,354ipv8jxmf3sgg4kl6iwjyg,56,0,0.0,37.0,0.291,1.0,1.0
prolific,354ipv8jxmf3sgg4kl6iwjyg,57,0,0.0,37.0,0.242,1.0,1.0
prolific,354ipv8jxmf3sgg4kl6iwjyg,58,0,0.0,37.0,0.285,1.0,0.0
prolific,354ipv8jxmf3sgg4kl6iwjyg,59,0,0.0,37.0,0.275,1.0,1.0
prolific,354ipv8jxmf3sgg4kl6iwjyg,60,0,0.0,37.0,0.0,1.0,1.0
prolific,354ipv8jxmf3sgg4kl6iwjyg,61,2,0.0,37.0,0.237,0.0,1.0
prolific,354ipv8jxmf3sgg4kl6iwjyg,62,2,0.0,37.0,0.222,0.0,1.0
prolific,354ipv8jxmf3sgg4kl6iwjyg,63,2,0.0,37.0,0.293,0.0,1.0
prolific,354ipv8jxmf3sgg4kl6iwjyg,64,2,0.0,37.0,0.257,0.0,0.0
prolific,354ipv8jxmf3sgg4kl6iwjyg,65,2,0.0,37.0,0.263,0.0,0.0
prolific,354ipv8jxmf3sgg4kl6iwjyg,66,2,1.0,38.0,0.209,0.0,0.0
prolific,354ipv8jxmf3sgg4kl6iwjyg,67,2,2.0,39.0,0.142,1.0,0.0
prolific,354ipv8jxmf3sgg4kl6iwjyg,68,2,0.0,37.0,0.108,0.0,0.0
prolific,354ipv8jxmf3sgg4kl6iwjyg,69,2,1.0,38.0,0.492,0.0,0.0
prolific,354ipv8jxmf3sgg4kl6iwjyg,70,2,2.0,39.0,0.071,1.0,1.0
prolific,354ipv8jxmf3sgg4kl6iwjyg,71,2,2.0,39.0,0.063,1.0,1.0
prolific,354ipv8jxmf3sgg4kl6iwjyg,72,2,2.0,39.0,0.231,1.0,1.0
prolific,354ipv8jxmf3sgg4kl6iwjyg,73,2,2.0,39.0,0.275,1.0,1.0
prolific,354ipv8jxmf3sgg4kl6iwjyg,74,2,2.0,39.0,0.229,1.0,0.0
prolific,354ipv8jxmf3sgg4kl6iwjyg,75,2,2.0,39.0,0.092,1.0,0.0
prolific,354ipv8jxmf3sgg4kl6iwjyg,76,1,0.0,37.0,0.165,0.0,1.0
prolific,354ipv8jxmf3sgg4kl6iwjyg,77,1,0.0,37.0,0.166,0.0,0.0
prolific,354ipv8jxmf3sgg4kl6iwjyg,78,1,0.0,37.0,0.265,0.0,1.0
prolific,354ipv8jxmf3sgg4kl6iwjyg,79,1,0.0,37.0,0.306,0.0,0.0
prolific,354ipv8jxmf3sgg4kl6iwjyg,80,1,1.0,38.0,0.31,1.0,1.0
prolific,354ipv8jxmf3sgg4kl6iwjyg,81,1,1.0,38.0,0.299,1.0,0.0
prolific,354ipv8jxmf3sgg4kl6iwjyg,82,1,1.0,38.0,0.278,1.0,1.0
prolific,354ipv8jxmf3sgg4kl6iwjyg,83,1,1.0,38.0,0.3,1.0,1.0
prolific,354ipv8jxmf3sgg4kl6iwjyg,84,1,1.0,38.0,0.237,1.0,1.0
prolific,354ipv8jxmf3sgg4kl6iwjyg,85,1,1.0,38.0,0.281,1.0,1.0
prolific,354ipv8jxmf3sgg4kl6iwjyg,86,1,1.0,38.0,0.283,1.0,0.0
prolific,354ipv8jxmf3sgg4kl6iwjyg,87,1,1.0,38.0,0.151,1.0,0.0
prolific,354ipv8jxmf3sgg4kl6iwjyg,88,1,2.0,39.0,0.081,0.0,0.0
prolific,354ipv8jxmf3sgg4kl6iwjyg,89,1,0.0,37.0,0.185,0.0,0.0
prolific,354ipv8jxmf3sgg4kl6iwjyg,90,1,2.0,39.0,0.433,0.0,1.0
prolific,3qz20dlryiffihwsltdnk6cn,1,2,0.0,37.0,1.643,0.0,0.0
prolific,3qz20dlryiffihwsltdnk6cn,2,2,0.0,37.0,0.925,0.0,1.0
prolific,3qz20dlryiffihwsltdnk6cn,3,2,1.0,38.0,3.574,0.0,0.0
prolific,3qz20dlryiffihwsltdnk6cn,4,2,1.0,38.0,0.414,0.0,0.0
prolific,3qz20dlryiffihwsltdnk6cn,5,2,1.0,38.0,0.325,0.0,0.0
prolific,3qz20dlryiffihwsltdnk6cn,6,2,1.0,38.0,0.214,0.0,0.0
prolific,3qz20dlryiffihwsltdnk6cn,7,2,1.0,38.0,0.189,0.0,0.0
prolific,3qz20dlryiffihwsltdnk6cn,8,2,1.0,38.0,0.062,0.0,1.0
prolific,3qz20dlryiffihwsltdnk6cn,9,2,1.0,38.0,0.981,0.0,0.0
prolific,3qz20dlryiffihwsltdnk6cn,10,2,2.0,39.0,0.727,1.0,1.0
prolific,3qz20dlryiffihwsltdnk6cn,11,2,0.0,37.0,0.398,0.0,0.0
prolific,3qz20dlryiffihwsltdnk6cn,12,2,0.0,37.0,0.229,0.0,0.0
prolific,3qz20dlryiffihwsltdnk6cn,13,2,0.0,37.0,0.109,0.0,0.0
prolific,3qz20dlryiffihwsltdnk6cn,14,2,0.0,37.0,0.094,0.0,0.0
prolific,3qz20dlryiffihwsltdnk6cn,15,2,0.0,37.0,0.054,0.0,0.0
prolific,3qz20dlryiffihwsltdnk6cn,16,0,0.0,37.0,0.077,1.0,1.0
prolific,3qz20dlryiffihwsltdnk6cn,17,0,0.0,37.0,0.446,1.0,1.0
prolific,3qz20dlryiffihwsltdnk6cn,18,0,0.0,37.0,0.526,1.0,0.0
prolific,3qz20dlryiffihwsltdnk6cn,19,0,1.0,38.0,0.238,0.0,1.0
prolific,3qz20dlryiffihwsltdnk6cn,20,0,2.0,39.0,0.35,0.0,0.0
prolific,3qz20dlryiffihwsltdnk6cn,21,0,2.0,39.0,0.759,0.0,1.0
prolific,3qz20dlryiffihwsltdnk6cn,22,0,0.0,37.0,1.039,1.0,1.0
prolific,3qz20dlryiffihwsltdnk6cn,23,0,0.0,37.0,0.19,1.0,0.0
prolific,3qz20dlryiffihwsltdnk6cn,24,0,1.0,38.0,2.623,0.0,0.0
prolific,3qz20dlryiffihwsltdnk6cn,25,0,1.0,38.0,0.918,0.0,0.0
prolific,3qz20dlryiffihwsltdnk6cn,26,0,1.0,38.0,0.015,0.0,0.0
prolific,3qz20dlryiffihwsltdnk6cn,27,0,1.0,38.0,0.223,0.0,0.0
prolific,3qz20dlryiffihwsltdnk6cn,28,0,1.0,38.0,0.119,0.0,0.0
prolific,3qz20dlryiffihwsltdnk6cn,29,0,1.0,38.0,0.279,0.0,1.0
prolific,3qz20dlryiffihwsltdnk6cn,30,0,1.0,38.0,0.109,0.0,0.0
prolific,3qz20dlryiffihwsltdnk6cn,31,1,2.0,39.0,0.03,0.0,1.0
prolific,3qz20dlryiffihwsltdnk6cn,32,1,0.0,37.0,0.0,0.0,0.0
prolific,3qz20dlryiffihwsltdnk6cn,33,1,0.0,37.0,0.541,0.0,1.0
prolific,3qz20dlryiffihwsltdnk6cn,34,1,1.0,38.0,0.35,1.0,1.0
prolific,3qz20dlryiffihwsltdnk6cn,35,1,2.0,39.0,0.118,0.0,0.0
prolific,3qz20dlryiffihwsltdnk6cn,36,1,2.0,39.0,0.158,0.0,0.0
prolific,3qz20dlryiffihwsltdnk6cn,37,1,2.0,39.0,0.231,0.0,0.0
prolific,3qz20dlryiffihwsltdnk6cn,38,1,2.0,39.0,0.071,0.0,0.0
prolific,3qz20dlryiffihwsltdnk6cn,39,1,2.0,39.0,0.231,0.0,0.0
prolific,3qz20dlryiffihwsltdnk6cn,40,1,2.0,39.0,0.326,0.0,0.0
prolific,3qz20dlryiffihwsltdnk6cn,41,1,2.0,39.0,0.271,0.0,0.0
prolific,3qz20dlryiffihwsltdnk6cn,42,1,2.0,39.0,0.247,0.0,0.0
prolific,3qz20dlryiffihwsltdnk6cn,43,1,2.0,39.0,0.27,0.0,0.0
prolific,3qz20dlryiffihwsltdnk6cn,44,1,2.0,39.0,0.244,0.0,0.0
prolific,3qz20dlryiffihwsltdnk6cn,45,1,2.0,39.0,0.27,0.0,1.0
prolific,3qz20dlryiffihwsltdnk6cn,46,2,2.0,39.0,0.229,1.0,1.0
prolific,3qz20dlryiffihwsltdnk6cn,47,2,2.0,39.0,0.158,1.0,0.0
prolific,3qz20dlryiffihwsltdnk6cn,48,2,0.0,37.0,0.182,0.0,0.0
prolific,3qz20dlryiffihwsltdnk6cn,49,2,0.0,37.0,0.087,0.0,1.0
prolific,3qz20dlryiffihwsltdnk6cn,50,2,1.0,38.0,0.262,0.0,0.0
prolific,3qz20dlryiffihwsltdnk6cn,51,2,1.0,38.0,0.095,0.0,0.0
prolific,3qz20dlryiffihwsltdnk6cn,52,2,1.0,38.0,0.238,0.0,0.0
prolific,3qz20dlryiffihwsltdnk6cn,53,2,1.0,38.0,0.038,0.0,0.0
prolific,3qz20dlryiffihwsltdnk6cn,54,2,1.0,38.0,0.126,0.0,0.0
prolific,3qz20dlryiffihwsltdnk6cn,55,2,1.0,38.0,0.062,0.0,1.0
prolific,3qz20dlryiffihwsltdnk6cn,56,2,1.0,38.0,0.126,0.0,0.0
prolific,3qz20dlryiffihwsltdnk6cn,57,2,2.0,39.0,0.0,1.0,1.0
prolific,3qz20dlryiffihwsltdnk6cn,58,2,0.0,37.0,0.037,0.0,0.0
prolific,3qz20dlryiffihwsltdnk6cn,59,2,0.0,37.0,0.143,0.0,0.0
prolific,3qz20dlryiffihwsltdnk6cn,60,2,0.0,37.0,0.662,0.0,0.0
prolific,3qz20dlryiffihwsltdnk6cn,61,0,0.0,37.0,0.134,1.0,1.0
prolific,3qz20dlryiffihwsltdnk6cn,62,0,0.0,37.0,0.131,1.0,1.0
prolific,3qz20dlryiffihwsltdnk6cn,63,0,0.0,37.0,0.1,1.0,1.0
prolific,3qz20dlryiffihwsltdnk6cn,64,0,0.0,37.0,0.086,1.0,0.0
prolific,3qz20dlryiffihwsltdnk6cn,65,0,1.0,38.0,0.07,0.0,0.0
prolific,3qz20dlryiffihwsltdnk6cn,66,0,1.0,38.0,0.103,0.0,0.0
prolific,3qz20dlryiffihwsltdnk6cn,67,0,1.0,38.0,0.078,0.0,0.0
prolific,3qz20dlryiffihwsltdnk6cn,68,0,1.0,38.0,0.19,0.0,0.0
prolific,3qz20dlryiffihwsltdnk6cn,69,0,1.0,38.0,0.254,0.0,0.0
prolific,3qz20dlryiffihwsltdnk6cn,70,0,1.0,38.0,0.0,0.0,1.0
prolific,3qz20dlryiffihwsltdnk6cn,71,0,1.0,38.0,0.139,0.0,0.0
prolific,3qz20dlryiffihwsltdnk6cn,72,0,2.0,39.0,0.215,0.0,0.0
prolific,3qz20dlryiffihwsltdnk6cn,73,0,2.0,39.0,0.151,0.0,0.0
prolific,3qz20dlryiffihwsltdnk6cn,74,0,2.0,39.0,0.126,0.0,1.0
prolific,3qz20dlryiffihwsltdnk6cn,75,0,2.0,39.0,0.231,0.0,1.0
prolific,3qz20dlryiffihwsltdnk6cn,76,2,2.0,39.0,0.062,1.0,1.0
prolific,3qz20dlryiffihwsltdnk6cn,77,2,2.0,39.0,0.07,1.0,1.0
prolific,3qz20dlryiffihwsltdnk6cn,78,2,2.0,39.0,0.046,1.0,1.0
prolific,3qz20dlryiffihwsltdnk6cn,79,2,2.0,39.0,0.023,1.0,1.0
prolific,3qz20dlryiffihwsltdnk6cn,80,2,2.0,39.0,0.014,1.0,1.0
prolific,3qz20dlryiffihwsltdnk6cn,81,2,2.0,39.0,0.007,1.0,1.0
prolific,3qz20dlryiffihwsltdnk6cn,82,2,2.0,39.0,0.0,1.0,1.0
prolific,3qz20dlryiffihwsltdnk6cn,83,2,2.0,39.0,0.163,1.0,1.0
prolific,3qz20dlryiffihwsltdnk6cn,84,2,2.0,39.0,0.079,1.0,1.0
prolific,3qz20dlryiffihwsltdnk6cn,85,2,2.0,39.0,0.095,1.0,1.0
prolific,3qz20dlryiffihwsltdnk6cn,86,2,2.0,39.0,0.066,1.0,1.0
prolific,3qz20dlryiffihwsltdnk6cn,87,2,2.0,39.0,0.286,1.0,1.0
prolific,3qz20dlryiffihwsltdnk6cn,88,2,2.0,39.0,0.037,1.0,1.0
prolific,3qz20dlryiffihwsltdnk6cn,89,2,2.0,39.0,0.013,1.0,1.0
prolific,3qz20dlryiffihwsltdnk6cn,90,2,2.0,39.0,0.486,1.0,1.0
prolific,3yg7loing1p7y2bbmo5b777o,1,0,0.0,37.0,3.383,1.0,1.0
prolific,3yg7loing1p7y2bbmo5b777o,2,0,0.0,37.0,4.988,1.0,1.0
prolific,3yg7loing1p7y2bbmo5b777o,3,0,0.0,37.0,2.332,1.0,1.0
prolific,3yg7loing1p7y2bbmo5b777o,4,0,0.0,37.0,1.859,1.0,1.0
prolific,3yg7loing1p7y2bbmo5b777o,5,0,0.0,37.0,1.228,1.0,1.0
prolific,3yg7loing1p7y2bbmo5b777o,6,0,0.0,37.0,1.196,1.0,1.0
prolific,3yg7loing1p7y2bbmo5b777o,7,0,0.0,37.0,0.891,1.0,0.0
prolific,3yg7loing1p7y2bbmo5b777o,8,0,1.0,38.0,0.907,0.0,0.0
prolific,3yg7loing1p7y2bbmo5b777o,9,0,1.0,38.0,0.86,0.0,1.0
prolific,3yg7loing1p7y2bbmo5b777o,10,0,1.0,38.0,0.844,0.0,1.0
prolific,3yg7loing1p7y2bbmo5b777o,11,0,1.0,38.0,0.708,0.0,0.0
prolific,3yg7loing1p7y2bbmo5b777o,12,0,2.0,39.0,0.556,0.0,1.0
prolific,3yg7loing1p7y2bbmo5b777o,13,0,2.0,39.0,0.571,0.0,0.0
prolific,3yg7loing1p7y2bbmo5b777o,14,0,0.0,37.0,0.46,1.0,1.0
prolific,3yg7loing1p7y2bbmo5b777o,15,0,0.0,37.0,0.418,1.0,0.0
prolific,3yg7loing1p7y2bbmo5b777o,16,1,2.0,39.0,0.491,0.0,0.0
prolific,3yg7loing1p7y2bbmo5b777o,17,1,2.0,39.0,0.451,0.0,0.0
prolific,3yg7loing1p7y2bbmo5b777o,18,1,0.0,37.0,0.339,0.0,0.0
prolific,3yg7loing1p7y2bbmo5b777o,19,1,1.0,38.0,0.307,1.0,1.0
prolific,3yg7loing1p7y2bbmo5b777o,20,1,1.0,38.0,0.317,1.0,1.0
prolific,3yg7loing1p7y2bbmo5b777o,21,1,1.0,38.0,0.411,1.0,1.0
prolific,3yg7loing1p7y2bbmo5b777o,22,1,1.0,38.0,0.461,1.0,1.0
prolific,3yg7loing1p7y2bbmo5b777o,23,1,1.0,38.0,0.508,1.0,1.0
prolific,3yg7loing1p7y2bbmo5b777o,24,1,1.0,38.0,0.587,1.0,0.0
prolific,3yg7loing1p7y2bbmo5b777o,25,1,2.0,39.0,0.634,0.0,0.0
prolific,3yg7loing1p7y2bbmo5b777o,26,1,2.0,39.0,0.595,0.0,0.0
prolific,3yg7loing1p7y2bbmo5b777o,27,1,0.0,37.0,0.498,0.0,0.0
prolific,3yg7loing1p7y2bbmo5b777o,28,1,0.0,37.0,0.284,0.0,0.0
prolific,3yg7loing1p7y2bbmo5b777o,29,1,1.0,38.0,0.147,1.0,1.0
prolific,3yg7loing1p7y2bbmo5b777o,30,1,1.0,38.0,0.355,1.0,1.0
prolific,3yg7loing1p7y2bbmo5b777o,31,0,1.0,38.0,0.402,0.0,0.0
prolific,3yg7loing1p7y2bbmo5b777o,32,0,1.0,38.0,0.444,0.0,0.0
prolific,3yg7loing1p7y2bbmo5b777o,33,0,1.0,38.0,0.306,0.0,0.0
prolific,3yg7loing1p7y2bbmo5b777o,34,0,2.0,39.0,0.516,0.0,0.0
prolific,3yg7loing1p7y2bbmo5b777o,35,0,2.0,39.0,0.3,0.0,0.0
prolific,3yg7loing1p7y2bbmo5b777o,36,0,0.0,37.0,0.492,1.0,1.0
prolific,3yg7loing1p7y2bbmo5b777o,37,0,0.0,37.0,0.46,1.0,1.0
prolific,3yg7loing1p7y2bbmo5b777o,38,0,0.0,37.0,0.732,1.0,0.0
prolific,3yg7loing1p7y2bbmo5b777o,39,0,1.0,38.0,0.691,0.0,0.0
prolific,3yg7loing1p7y2bbmo5b777o,40,0,0.0,37.0,0.204,1.0,1.0
prolific,3yg7loing1p7y2bbmo5b777o,41,0,0.0,37.0,0.38,1.0,0.0
prolific,3yg7loing1p7y2bbmo5b777o,42,0,2.0,39.0,0.188,0.0,0.0
prolific,3yg7loing1p7y2bbmo5b777o,43,0,1.0,38.0,0.244,0.0,0.0
prolific,3yg7loing1p7y2bbmo5b777o,44,0,1.0,38.0,0.483,0.0,0.0
prolific,3yg7loing1p7y2bbmo5b777o,45,0,0.0,37.0,0.381,1.0,1.0
prolific,3yg7loing1p7y2bbmo5b777o,46,2,0.0,37.0,0.403,0.0,0.0
prolific,3yg7loing1p7y2bbmo5b777o,47,2,0.0,37.0,0.428,0.0,0.0
prolific,3yg7loing1p7y2bbmo5b777o,48,2,0.0,37.0,0.484,0.0,0.0
prolific,3yg7loing1p7y2bbmo5b777o,49,2,1.0,38.0,0.395,0.0,0.0
prolific,3yg7loing1p7y2bbmo5b777o,50,2,1.0,38.0,0.339,0.0,1.0
prolific,3yg7loing1p7y2bbmo5b777o,51,2,1.0,38.0,0.347,0.0,0.0
prolific,3yg7loing1p7y2bbmo5b777o,52,2,1.0,38.0,0.364,0.0,0.0
prolific,3yg7loing1p7y2bbmo5b777o,53,2,2.0,39.0,0.642,1.0,1.0
prolific,3yg7loing1p7y2bbmo5b777o,54,2,2.0,39.0,0.387,1.0,0.0
prolific,3yg7loing1p7y2bbmo5b777o,55,2,2.0,39.0,0.363,1.0,1.0
prolific,3yg7loing1p7y2bbmo5b777o,56,2,2.0,39.0,0.49,1.0,0.0
prolific,3yg7loing1p7y2bbmo5b777o,57,2,2.0,39.0,0.363,1.0,0.0
prolific,3yg7loing1p7y2bbmo5b777o,58,2,0.0,37.0,0.242,0.0,0.0
prolific,3yg7loing1p7y2bbmo5b777o,59,2,0.0,37.0,0.361,0.0,0.0
prolific,3yg7loing1p7y2bbmo5b777o,60,2,1.0,38.0,0.258,0.0,0.0
prolific,3yg7loing1p7y2bbmo5b777o,61,1,1.0,38.0,0.315,1.0,1.0
prolific,3yg7loing1p7y2bbmo5b777o,62,1,1.0,38.0,0.376,1.0,1.0
prolific,3yg7loing1p7y2bbmo5b777o,63,1,1.0,38.0,0.419,1.0,1.0
prolific,3yg7loing1p7y2bbmo5b777o,64,1,1.0,38.0,0.403,1.0,1.0
prolific,3yg7loing1p7y2bbmo5b777o,65,1,1.0,38.0,0.323,1.0,1.0
prolific,3yg7loing1p7y2bbmo5b777o,66,1,1.0,38.0,0.315,1.0,0.0
prolific,3yg7loing1p7y2bbmo5b777o,67,1,0.0,37.0,0.676,0.0,0.0
prolific,3yg7loing1p7y2bbmo5b777o,68,1,2.0,39.0,0.34,0.0,0.0
prolific,3yg7loing1p7y2bbmo5b777o,69,1,0.0,37.0,0.331,0.0,0.0
prolific,3yg7loing1p7y2bbmo5b777o,70,1,1.0,38.0,0.099,1.0,0.0
prolific,3yg7loing1p7y2bbmo5b777o,71,1,2.0,39.0,0.044,0.0,0.0
prolific,3yg7loing1p7y2bbmo5b777o,72,1,0.0,37.0,0.444,0.0,1.0
prolific,3yg7loing1p7y2bbmo5b777o,73,1,0.0,37.0,0.499,0.0,0.0
prolific,3yg7loing1p7y2bbmo5b777o,74,1,0.0,37.0,0.322,0.0,1.0
prolific,3yg7loing1p7y2bbmo5b777o,75,1,0.0,37.0,0.363,0.0,0.0
prolific,3yg7loing1p7y2bbmo5b777o,76,2,0.0,37.0,0.346,0.0,1.0
prolific,3yg7loing1p7y2bbmo5b777o,77,2,1.0,38.0,0.506,0.0,0.0
prolific,3yg7loing1p7y2bbmo5b777o,78,2,1.0,38.0,0.218,0.0,0.0
prolific,3yg7loing1p7y2bbmo5b777o,79,2,1.0,38.0,0.314,0.0,0.0
prolific,3yg7loing1p7y2bbmo5b777o,80,2,0.0,37.0,0.378,0.0,1.0
prolific,3yg7loing1p7y2bbmo5b777o,81,2,0.0,37.0,0.386,0.0,0.0
prolific,3yg7loing1p7y2bbmo5b777o,82,2,0.0,37.0,0.458,0.0,1.0
prolific,3yg7loing1p7y2bbmo5b777o,83,2,0.0,37.0,0.691,0.0,0.0
prolific,3yg7loing1p7y2bbmo5b777o,84,2,0.0,37.0,0.387,0.0,0.0
prolific,3yg7loing1p7y2bbmo5b777o,85,2,0.0,37.0,0.242,0.0,0.0
prolific,3yg7loing1p7y2bbmo5b777o,86,2,1.0,38.0,0.507,0.0,1.0
prolific,3yg7loing1p7y2bbmo5b777o,87,2,1.0,38.0,0.347,0.0,1.0
