[{"responses":{"Q03":"2","Q02":"3","Q01":"2"},"rt":16365.554999967571,"survey":"pswq","trial_type":"survey-template","trial_index":0,"time_elapsed":16377,"internal_node_id":"0.0-0.0","task_version":"screening-prolific"},{"responses":{"Q02":"1","Q03":"2","Q08":"0","Q01":"1","Q04":"1","Q07":"0","Q06":"1","Q05":"1"},"rt":24338.884999975562,"survey":"gad7","trial_type":"survey-template","trial_index":1,"time_elapsed":40720,"internal_node_id":"0.0-1.0","task_version":"screening-prolific"},{"responses":{"Q02":"0","Q04":"0","Q09":"1","Q14":"1","Q07":"1","Q05":"1","Q01":"1","Q11":"2","Q10":"0","Q08":"1","Q13":"0","Q03":"1","Q12":"0","Q15":"0","Q06":"0"},"rt":103501.05500000063,"survey":"7up7down","trial_type":"survey-template","trial_index":2,"time_elapsed":144226,"internal_node_id":"0.0-2.0","task_version":"screening-prolific"},{"responses":{"Q09":"2","Q02":"2","Q07":"3","Q03":"2","Q04":"2","Q01":"2","Q08":"3","Q05":"3","Q06":"3","Q11":"2","Q12":"1","Q10":"2","Q13":"3"},"rt":52611.2500000163,"survey":"bisbas","trial_type":"survey-template","trial_index":3,"time_elapsed":196841,"internal_node_id":"0.0-3.0","task_version":"screening-prolific"},{"responses":{"Q15":"3","Q04":"3","Q03":"3","Q09":"2","Q01":"3","Q08":"3","Q10":"3","Q11":"3","Q02":"3","Q05":"3","Q07":"3","Q14":"3","Q06":"3","Q12":"3","Q13":"3"},"rt":36732.289999956265,"survey":"shaps","trial_type":"survey-template","trial_index":4,"time_elapsed":233578,"internal_node_id":"0.0-4.0","task_version":"screening-prolific"},{"view_history":"[{\"page_index\":0,\"viewing_time\":6234.325000026729},{\"page_index\":1,\"viewing_time\":6159.769999969285},{\"page_index\":2,\"viewing_time\":5031.920000037644},{\"page_index\":3,\"viewing_time\":6608.420000004116},{\"page_index\":4,\"viewing_time\":4583.534999983385},{\"page_index\":5,\"viewing_time\":5352.874999982305},{\"page_index\":6,\"viewing_time\":6663.255000021309},{\"page_index\":7,\"viewing_time\":5087.89500000421}]","rt":45722.99000003841,"trial_type":"instructions","trial_index":5,"time_elapsed":279302,"internal_node_id":"0.0-5.0-0.0","task_version":"screening-prolific"},{"responses":["True","True","True","False","True"],"num_errors":1,"rt":15773.789999948349,"trial_type":"three-arm-comprehension","trial_index":6,"time_elapsed":295079,"internal_node_id":"0.0-5.0-1.0","task_version":"screening-prolific"},{"view_history":"[{\"page_index\":0,\"viewing_time\":2123.3749999664724},{\"page_index\":1,\"viewing_time\":18549.360000004526},{\"page_index\":2,\"viewing_time\":2736.154999991413},{\"page_index\":3,\"viewing_time\":1920.5500000389293},{\"page_index\":4,\"viewing_time\":6855.564999976195},{\"page_index\":5,\"viewing_time\":5487.7550000092015},{\"page_index\":6,\"viewing_time\":976.0949999908917},{\"page_index\":7,\"viewing_time\":759.8250000155531}]","rt":39408.979999949224,"trial_type":"instructions","trial_index":7,"time_elapsed":334494,"internal_node_id":"0.0-5.1-0.1","task_version":"screening-prolific"},{"responses":["True","True","False","False","True"],"num_errors":0,"rt":13742.964999983087,"trial_type":"three-arm-comprehension","trial_index":8,"time_elapsed":348240,"internal_node_id":"0.0-5.1-1.1","task_version":"screening-prolific"},{"view_history":"[{\"page_index\":0,\"viewing_time\":3410.919999994803}]","rt":3411.209999991115,"trial_type":"instructions","trial_index":9,"time_elapsed":351655,"internal_node_id":"0.0-6.0","task_version":"screening-prolific"},{"contexts":["blue","red","green"],"outcomes":[0,0,1],"key":null,"rt":null,"trial":1,"correct":2,"trial_type":"three-arm-trial","trial_index":10,"time_elapsed":366661,"internal_node_id":"0.0-7.0-0.0","task_version":"screening-prolific","missing":true},{"contexts":["blue","red","green"],"outcomes":[0,0,1],"key":37,"choice":0,"rt":3586.9600000442006,"outcome":0,"trial":1,"correct":2,"trial_type":"three-arm-trial","trial_index":11,"time_elapsed":371451,"internal_node_id":"0.0-7.1-0.1","task_version":"screening-prolific","missing":false,"accuracy":0},{"contexts":["blue","red","green"],"outcomes":[0,0,1],"key":38,"choice":1,"rt":317.82999995630234,"outcome":0,"trial":2,"correct":2,"trial_type":"three-arm-trial","trial_index":12,"time_elapsed":372972,"internal_node_id":"0.0-8.0-0.0","task_version":"screening-prolific","missing":false,"accuracy":0},{"contexts":["blue","red","green"],"outcomes":[0,0,1],"key":39,"choice":2,"rt":472.8250000043772,"outcome":1,"trial":3,"correct":2,"trial_type":"three-arm-trial","trial_index":13,"time_elapsed":374648,"internal_node_id":"0.0-9.0-0.0","task_version":"screening-prolific","missing":false,"accuracy":1},{"contexts":["blue","red","green"],"outcomes":[0,0,1],"key":39,"choice":2,"rt":1294.9299999745563,"outcome":1,"trial":4,"correct":2,"trial_type":"three-arm-trial","trial_index":14,"time_elapsed":377146,"internal_node_id":"0.0-10.0-0.0","task_version":"screening-prolific","missing":false,"accuracy":1},{"contexts":["blue","red","green"],"outcomes":[1,1,1],"key":39,"choice":2,"rt":501.3800000306219,"outcome":1,"trial":5,"correct":2,"trial_type":"three-arm-trial","trial_index":15,"time_elapsed":378851,"internal_node_id":"0.0-11.0-0.0","task_version":"screening-prolific","missing":false,"accuracy":1},{"contexts":["blue","red","green"],"outcomes":[0,1,1],"key":39,"choice":2,"rt":333.11499998671934,"outcome":1,"trial":6,"correct":2,"trial_type":"three-arm-trial","trial_index":16,"time_elapsed":380387,"internal_node_id":"0.0-12.0-0.0","task_version":"screening-prolific","missing":false,"accuracy":1},{"contexts":["blue","red","green"],"outcomes":[1,0,1],"key":39,"choice":2,"rt":665.6150000053458,"outcome":1,"trial":7,"correct":2,"trial_type":"three-arm-trial","trial_index":17,"time_elapsed":382256,"internal_node_id":"0.0-13.0-0.0","task_version":"screening-prolific","missing":false,"accuracy":1},{"contexts":["blue","red","green"],"outcomes":[0,0,1],"key":39,"choice":2,"rt":386.034999974072,"outcome":1,"trial":8,"correct":2,"trial_type":"three-arm-trial","trial_index":18,"time_elapsed":383845,"internal_node_id":"0.0-14.0-0.0","task_version":"screening-prolific","missing":false,"accuracy":1},{"contexts":["blue","red","green"],"outcomes":[0,0,1],"key":39,"choice":2,"rt":322.8099999832921,"outcome":1,"trial":9,"correct":2,"trial_type":"three-arm-trial","trial_index":19,"time_elapsed":385371,"internal_node_id":"0.0-15.0-0.0","task_version":"screening-prolific","missing":false,"accuracy":1},{"contexts":["blue","red","green"],"outcomes":[0,0,0],"key":39,"choice":2,"rt":257.5199999846518,"outcome":0,"trial":10,"correct":2,"trial_type":"three-arm-trial","trial_index":20,"time_elapsed":386832,"internal_node_id":"0.0-16.0-0.0","task_version":"screening-prolific","missing":false,"accuracy":1},{"contexts":["blue","red","green"],"outcomes":[0,1,1],"key":37,"choice":0,"rt":402.3750000051223,"outcome":0,"trial":11,"correct":2,"trial_type":"three-arm-trial","trial_index":21,"time_elapsed":388437,"internal_node_id":"0.0-17.0-0.0","task_version":"screening-prolific","missing":false,"accuracy":0},{"contexts":["blue","red","green"],"outcomes":[0,1,0],"key":38,"choice":1,"rt":291.49000003235415,"outcome":1,"trial":12,"correct":2,"trial_type":"three-arm-trial","trial_index":22,"time_elapsed":389932,"internal_node_id":"0.0-18.0-0.0","task_version":"screening-prolific","missing":false,"accuracy":0},{"contexts":["blue","red","green"],"outcomes":[0,0,1],"key":38,"choice":1,"rt":281.2300000223331,"outcome":0,"trial":13,"correct":2,"trial_type":"three-arm-trial","trial_index":23,"time_elapsed":391417,"internal_node_id":"0.0-19.0-0.0","task_version":"screening-prolific","missing":false,"accuracy":0},{"contexts":["blue","red","green"],"outcomes":[0,1,1],"key":39,"choice":2,"rt":273.32499995827675,"outcome":1,"trial":14,"correct":2,"trial_type":"three-arm-trial","trial_index":24,"time_elapsed":392894,"internal_node_id":"0.0-20.0-0.0","task_version":"screening-prolific","missing":false,"accuracy":1},{"contexts":["blue","red","green"],"outcomes":[0,0,1],"key":39,"choice":2,"rt":377.6800000341609,"outcome":1,"trial":15,"correct":2,"trial_type":"three-arm-trial","trial_index":25,"time_elapsed":394476,"internal_node_id":"0.0-21.0-0.0","task_version":"screening-prolific","missing":false,"accuracy":1},{"contexts":["blue","red","green"],"outcomes":[1,1,0],"key":39,"choice":2,"rt":283.05999998701736,"outcome":0,"trial":16,"correct":1,"trial_type":"three-arm-trial","trial_index":26,"time_elapsed":395963,"internal_node_id":"0.0-22.0-0.0","task_version":"screening-prolific","missing":false,"accuracy":0},{"contexts":["blue","red","green"],"outcomes":[1,1,0],"key":39,"choice":2,"rt":61.36499997228384,"outcome":0,"trial":17,"correct":1,"trial_type":"three-arm-trial","trial_index":27,"time_elapsed":397228,"internal_node_id":"0.0-23.0-0.0","task_version":"screening-prolific","missing":false,"accuracy":0},{"contexts":["blue","red","green"],"outcomes":[1,0,1],"key":38,"choice":1,"rt":263.93499999539927,"outcome":0,"trial":18,"correct":1,"trial_type":"three-arm-trial","trial_index":28,"time_elapsed":398695,"internal_node_id":"0.0-24.0-0.0","task_version":"screening-prolific","missing":false,"accuracy":1},{"contexts":["blue","red","green"],"outcomes":[0,1,0],"key":37,"choice":0,"rt":317.7849999628961,"outcome":0,"trial":19,"correct":1,"trial_type":"three-arm-trial","trial_index":29,"time_elapsed":400217,"internal_node_id":"0.0-25.0-0.0","task_version":"screening-prolific","missing":false,"accuracy":0},{"contexts":["blue","red","green"],"outcomes":[1,0,0],"key":39,"choice":2,"rt":363.5599999688566,"outcome":0,"trial":20,"correct":1,"trial_type":"three-arm-trial","trial_index":30,"time_elapsed":401783,"internal_node_id":"0.0-26.0-0.0","task_version":"screening-prolific","missing":false,"accuracy":0},{"contexts":["blue","red","green"],"outcomes":[0,1,0],"key":38,"choice":1,"rt":105.19999999087304,"outcome":1,"trial":21,"correct":1,"trial_type":"three-arm-trial","trial_index":31,"time_elapsed":403091,"internal_node_id":"0.0-27.0-0.0","task_version":"screening-prolific","missing":false,"accuracy":1},{"contexts":["blue","red","green"],"outcomes":[0,1,1],"key":39,"choice":2,"rt":729.1599999880418,"outcome":1,"trial":22,"correct":1,"trial_type":"three-arm-trial","trial_index":32,"time_elapsed":405025,"internal_node_id":"0.0-28.0-0.0","task_version":"screening-prolific","missing":false,"accuracy":0},{"contexts":["blue","red","green"],"outcomes":[0,1,0],"key":39,"choice":2,"rt":415.83499999251217,"outcome":0,"trial":23,"correct":1,"trial_type":"three-arm-trial","trial_index":33,"time_elapsed":406644,"internal_node_id":"0.0-29.0-0.0","task_version":"screening-prolific","missing":false,"accuracy":0},{"contexts":["blue","red","green"],"outcomes":[0,1,0],"key":38,"choice":1,"rt":324.15000000037253,"outcome":1,"trial":24,"correct":1,"trial_type":"three-arm-trial","trial_index":34,"time_elapsed":408172,"internal_node_id":"0.0-30.0-0.0","task_version":"screening-prolific","missing":false,"accuracy":1},{"contexts":["blue","red","green"],"outcomes":[1,1,1],"key":38,"choice":1,"rt":398.3649999718182,"outcome":1,"trial":25,"correct":1,"trial_type":"three-arm-trial","trial_index":35,"time_elapsed":409774,"internal_node_id":"0.0-31.0-0.0","task_version":"screening-prolific","missing":false,"accuracy":1},{"contexts":["blue","red","green"],"outcomes":[1,0,1],"key":38,"choice":1,"rt":290.0800000061281,"outcome":0,"trial":26,"correct":1,"trial_type":"three-arm-trial","trial_index":36,"time_elapsed":411268,"internal_node_id":"0.0-32.0-0.0","task_version":"screening-prolific","missing":false,"accuracy":1},{"contexts":["blue","red","green"],"outcomes":[0,1,0],"key":39,"choice":2,"rt":254.32000000728294,"outcome":0,"trial":27,"correct":1,"trial_type":"three-arm-trial","trial_index":37,"time_elapsed":412725,"internal_node_id":"0.0-33.0-0.0","task_version":"screening-prolific","missing":false,"accuracy":0},{"contexts":["blue","red","green"],"outcomes":[0,1,0],"key":38,"choice":1,"rt":436.58000003779307,"outcome":1,"trial":28,"correct":1,"trial_type":"three-arm-trial","trial_index":38,"time_elapsed":414365,"internal_node_id":"0.0-34.0-0.0","task_version":"screening-prolific","missing":false,"accuracy":1},{"contexts":["blue","red","green"],"outcomes":[1,1,0],"key":38,"choice":1,"rt":290.49500002292916,"outcome":1,"trial":29,"correct":1,"trial_type":"three-arm-trial","trial_index":39,"time_elapsed":415860,"internal_node_id":"0.0-35.0-0.0","task_version":"screening-prolific","missing":false,"accuracy":1},{"contexts":["blue","red","green"],"outcomes":[0,1,0],"key":38,"choice":1,"rt":548.8449999829754,"outcome":1,"trial":30,"correct":1,"trial_type":"three-arm-trial","trial_index":40,"time_elapsed":417613,"internal_node_id":"0.0-36.0-0.0","task_version":"screening-prolific","missing":false,"accuracy":1},{"contexts":["blue","red","green"],"outcomes":[0,0,0],"key":38,"choice":1,"rt":582.6550000347197,"outcome":0,"trial":31,"correct":0,"trial_type":"three-arm-trial","trial_index":41,"time_elapsed":419400,"internal_node_id":"0.0-37.0-0.0","task_version":"screening-prolific","missing":false,"accuracy":0},{"contexts":["blue","red","green"],"outcomes":[1,0,1],"key":39,"choice":2,"rt":414.2250000149943,"outcome":1,"trial":32,"correct":0,"trial_type":"three-arm-trial","trial_index":42,"time_elapsed":421017,"internal_node_id":"0.0-38.0-0.0","task_version":"screening-prolific","missing":false,"accuracy":0},{"contexts":["blue","red","green"],"outcomes":[1,0,0],"key":39,"choice":2,"rt":455.9550000121817,"outcome":0,"trial":33,"correct":0,"trial_type":"three-arm-trial","trial_index":43,"time_elapsed":422675,"internal_node_id":"0.0-39.0-0.0","task_version":"screening-prolific","missing":false,"accuracy":0},{"contexts":["blue","red","green"],"outcomes":[1,0,0],"key":38,"choice":1,"rt":310.02500001341105,"outcome":0,"trial":34,"correct":0,"trial_type":"three-arm-trial","trial_index":44,"time_elapsed":424188,"internal_node_id":"0.0-40.0-0.0","task_version":"screening-prolific","missing":false,"accuracy":0},{"contexts":["blue","red","green"],"outcomes":[0,0,1],"key":37,"choice":0,"rt":10.109999973792583,"outcome":0,"trial":35,"correct":0,"trial_type":"three-arm-trial","trial_index":45,"time_elapsed":425401,"internal_node_id":"0.0-41.0-0.0","task_version":"screening-prolific","missing":false,"accuracy":1},{"contexts":["blue","red","green"],"outcomes":[1,0,1],"key":39,"choice":2,"rt":336.2700000288896,"outcome":1,"trial":36,"correct":0,"trial_type":"three-arm-trial","trial_index":46,"time_elapsed":426941,"internal_node_id":"0.0-42.0-0.0","task_version":"screening-prolific","missing":false,"accuracy":0},{"contexts":["blue","red","green"],"outcomes":[0,0,0],"key":39,"choice":2,"rt":167.63999999966472,"outcome":0,"trial":37,"correct":0,"trial_type":"three-arm-trial","trial_index":47,"time_elapsed":428313,"internal_node_id":"0.0-43.0-0.0","task_version":"screening-prolific","missing":false,"accuracy":0},{"contexts":["blue","red","green"],"outcomes":[1,0,0],"key":38,"choice":1,"rt":227.98000002512708,"outcome":0,"trial":38,"correct":0,"trial_type":"three-arm-trial","trial_index":48,"time_elapsed":429743,"internal_node_id":"0.0-44.0-0.0","task_version":"screening-prolific","missing":false,"accuracy":0},{"contexts":["blue","red","green"],"outcomes":[1,1,0],"key":39,"choice":2,"rt":161.23500000685453,"outcome":0,"trial":39,"correct":0,"trial_type":"three-arm-trial","trial_index":49,"time_elapsed":431108,"internal_node_id":"0.0-45.0-0.0","task_version":"screening-prolific","missing":false,"accuracy":0},{"contexts":["blue","red","green"],"outcomes":[0,0,0],"key":38,"choice":1,"rt":421.474999981001,"outcome":0,"trial":40,"correct":0,"trial_type":"three-arm-trial","trial_index":50,"time_elapsed":432732,"internal_node_id":"0.0-46.0-0.0","task_version":"screening-prolific","missing":false,"accuracy":0},{"contexts":["blue","red","green"],"outcomes":[1,0,1],"key":37,"choice":0,"rt":404.404999979306,"outcome":1,"trial":41,"correct":0,"trial_type":"three-arm-trial","trial_index":51,"time_elapsed":434339,"internal_node_id":"0.0-47.0-0.0","task_version":"screening-prolific","missing":false,"accuracy":1},{"contexts":["blue","red","green"],"outcomes":[0,0,0],"key":37,"choice":0,"rt":104.20999996131286,"outcome":0,"trial":42,"correct":0,"trial_type":"three-arm-trial","trial_index":52,"time_elapsed":435650,"internal_node_id":"0.0-48.0-0.0","task_version":"screening-prolific","missing":false,"accuracy":1},{"contexts":["blue","red","green"],"outcomes":[1,0,0],"key":39,"choice":2,"rt":76.65000000270084,"outcome":0,"trial":43,"correct":0,"trial_type":"three-arm-trial","trial_index":53,"time_elapsed":436930,"internal_node_id":"0.0-49.0-0.0","task_version":"screening-prolific","missing":false,"accuracy":0},{"contexts":["blue","red","green"],"outcomes":[1,0,0],"key":37,"choice":0,"rt":42.160000011790544,"outcome":1,"trial":44,"correct":0,"trial_type":"three-arm-trial","trial_index":54,"time_elapsed":438175,"internal_node_id":"0.0-50.0-0.0","task_version":"screening-prolific","missing":false,"accuracy":1},{"contexts":["blue","red","green"],"outcomes":[1,0,1],"key":37,"choice":0,"rt":21.97499998146668,"outcome":1,"trial":45,"correct":0,"trial_type":"three-arm-trial","trial_index":55,"time_elapsed":439400,"internal_node_id":"0.0-51.0-0.0","task_version":"screening-prolific","missing":false,"accuracy":1},{"contexts":["blue","red","green"],"outcomes":[0,1,0],"key":37,"choice":0,"rt":13.70500004850328,"outcome":0,"trial":46,"correct":1,"trial_type":"three-arm-trial","trial_index":56,"time_elapsed":440616,"internal_node_id":"0.0-52.0-0.0","task_version":"screening-prolific","missing":false,"accuracy":0},{"contexts":["blue","red","green"],"outcomes":[0,1,0],"key":38,"choice":1,"rt":415.23500002222136,"outcome":1,"trial":47,"correct":1,"trial_type":"three-arm-trial","trial_index":57,"time_elapsed":442234,"internal_node_id":"0.0-53.0-0.0","task_version":"screening-prolific","missing":false,"accuracy":1},{"contexts":["blue","red","green"],"outcomes":[0,1,0],"key":38,"choice":1,"rt":171.4849999989383,"outcome":1,"trial":48,"correct":1,"trial_type":"three-arm-trial","trial_index":58,"time_elapsed":443608,"internal_node_id":"0.0-54.0-0.0","task_version":"screening-prolific","missing":false,"accuracy":1},{"contexts":["blue","red","green"],"outcomes":[0,1,0],"key":38,"choice":1,"rt":88.86999997776002,"outcome":1,"trial":49,"correct":1,"trial_type":"three-arm-trial","trial_index":59,"time_elapsed":444900,"internal_node_id":"0.0-55.0-0.0","task_version":"screening-prolific","missing":false,"accuracy":1},{"contexts":["blue","red","green"],"outcomes":[1,1,0],"key":38,"choice":1,"rt":161.22500004712492,"outcome":1,"trial":50,"correct":1,"trial_type":"three-arm-trial","trial_index":60,"time_elapsed":446265,"internal_node_id":"0.0-56.0-0.0","task_version":"screening-prolific","missing":false,"accuracy":1},{"contexts":["blue","red","green"],"outcomes":[0,0,0],"key":38,"choice":1,"rt":106.30500002298504,"outcome":0,"trial":51,"correct":1,"trial_type":"three-arm-trial","trial_index":61,"time_elapsed":447574,"internal_node_id":"0.0-57.0-0.0","task_version":"screening-prolific","missing":false,"accuracy":1},{"contexts":["blue","red","green"],"outcomes":[1,1,0],"key":39,"choice":2,"rt":238.76000003656372,"outcome":0,"trial":52,"correct":1,"trial_type":"three-arm-trial","trial_index":62,"time_elapsed":449016,"internal_node_id":"0.0-58.0-0.0","task_version":"screening-prolific","missing":false,"accuracy":0},{"contexts":["blue","red","green"],"outcomes":[1,1,0],"key":37,"choice":0,"rt":43.185000016819686,"outcome":1,"trial":53,"correct":1,"trial_type":"three-arm-trial","trial_index":63,"time_elapsed":450262,"internal_node_id":"0.0-59.0-0.0","task_version":"screening-prolific","missing":false,"accuracy":0},{"contexts":["blue","red","green"],"outcomes":[0,1,0],"key":38,"choice":1,"rt":362.1150000253692,"outcome":1,"trial":54,"correct":1,"trial_type":"three-arm-trial","trial_index":64,"time_elapsed":451827,"internal_node_id":"0.0-60.0-0.0","task_version":"screening-prolific","missing":false,"accuracy":1},{"contexts":["blue","red","green"],"outcomes":[1,1,0],"key":37,"choice":0,"rt":184.56999998306856,"outcome":1,"trial":55,"correct":1,"trial_type":"three-arm-trial","trial_index":65,"time_elapsed":453215,"internal_node_id":"0.0-61.0-0.0","task_version":"screening-prolific","missing":false,"accuracy":0},{"contexts":["blue","red","green"],"outcomes":[1,1,1],"key":38,"choice":1,"rt":22.60500000556931,"outcome":1,"trial":56,"correct":1,"trial_type":"three-arm-trial","trial_index":66,"time_elapsed":454442,"internal_node_id":"0.0-62.0-0.0","task_version":"screening-prolific","missing":false,"accuracy":1},{"contexts":["blue","red","green"],"outcomes":[0,1,1],"key":37,"choice":0,"rt":136.38999999966472,"outcome":0,"trial":57,"correct":1,"trial_type":"three-arm-trial","trial_index":67,"time_elapsed":455782,"internal_node_id":"0.0-63.0-0.0","task_version":"screening-prolific","missing":false,"accuracy":0},{"contexts":["blue","red","green"],"outcomes":[0,1,0],"key":38,"choice":1,"rt":96.56999999424443,"outcome":1,"trial":58,"correct":1,"trial_type":"three-arm-trial","trial_index":68,"time_elapsed":457082,"internal_node_id":"0.0-64.0-0.0","task_version":"screening-prolific","missing":false,"accuracy":1},{"contexts":["blue","red","green"],"outcomes":[0,0,0],"key":39,"choice":2,"rt":121.63499998860061,"outcome":0,"trial":59,"correct":1,"trial_type":"three-arm-trial","trial_index":69,"time_elapsed":458406,"internal_node_id":"0.0-65.0-0.0","task_version":"screening-prolific","missing":false,"accuracy":0},{"contexts":["blue","red","green"],"outcomes":[0,1,0],"key":38,"choice":1,"rt":21.30999998189509,"outcome":1,"trial":60,"correct":1,"trial_type":"three-arm-trial","trial_index":70,"time_elapsed":459631,"internal_node_id":"0.0-66.0-0.0","task_version":"screening-prolific","missing":false,"accuracy":1},{"contexts":["blue","red","green"],"outcomes":[1,0,1],"key":38,"choice":1,"rt":111.13000003388152,"outcome":0,"trial":61,"correct":0,"trial_type":"three-arm-trial","trial_index":71,"time_elapsed":460946,"internal_node_id":"0.0-67.0-0.0","task_version":"screening-prolific","missing":false,"accuracy":0},{"contexts":["blue","red","green"],"outcomes":[0,0,0],"key":37,"choice":0,"rt":98.05999998934567,"outcome":0,"trial":62,"correct":0,"trial_type":"three-arm-trial","trial_index":72,"time_elapsed":462248,"internal_node_id":"0.0-68.0-0.0","task_version":"screening-prolific","missing":false,"accuracy":1},{"contexts":["blue","red","green"],"outcomes":[0,0,1],"key":39,"choice":2,"rt":121.68999999994412,"outcome":1,"trial":63,"correct":0,"trial_type":"three-arm-trial","trial_index":73,"time_elapsed":463573,"internal_node_id":"0.0-69.0-0.0","task_version":"screening-prolific","missing":false,"accuracy":0},{"contexts":["blue","red","green"],"outcomes":[0,0,0],"key":38,"choice":1,"rt":39.54000002704561,"outcome":0,"trial":64,"correct":0,"trial_type":"three-arm-trial","trial_index":74,"time_elapsed":464816,"internal_node_id":"0.0-70.0-0.0","task_version":"screening-prolific","missing":false,"accuracy":0},{"contexts":["blue","red","green"],"outcomes":[0,1,1],"key":39,"choice":2,"rt":3.589999978430569,"outcome":1,"trial":65,"correct":0,"trial_type":"three-arm-trial","trial_index":75,"time_elapsed":466022,"internal_node_id":"0.0-71.0-0.0","task_version":"screening-prolific","missing":false,"accuracy":0},{"contexts":["blue","red","green"],"outcomes":[1,0,0],"key":39,"choice":2,"rt":79.79000004706904,"outcome":0,"trial":66,"correct":0,"trial_type":"three-arm-trial","trial_index":76,"time_elapsed":467305,"internal_node_id":"0.0-72.0-0.0","task_version":"screening-prolific","missing":false,"accuracy":0},{"contexts":["blue","red","green"],"outcomes":[1,0,0],"key":38,"choice":1,"rt":55.31000002520159,"outcome":0,"trial":67,"correct":0,"trial_type":"three-arm-trial","trial_index":77,"time_elapsed":468563,"internal_node_id":"0.0-73.0-0.0","task_version":"screening-prolific","missing":false,"accuracy":0},{"contexts":["blue","red","green"],"outcomes":[1,0,0],"key":37,"choice":0,"rt":155.0450000213459,"outcome":1,"trial":68,"correct":0,"trial_type":"three-arm-trial","trial_index":78,"time_elapsed":469922,"internal_node_id":"0.0-74.0-0.0","task_version":"screening-prolific","missing":false,"accuracy":1},{"contexts":["blue","red","green"],"outcomes":[0,0,0],"key":39,"choice":2,"rt":357.6350000221282,"outcome":0,"trial":69,"correct":0,"trial_type":"three-arm-trial","trial_index":79,"time_elapsed":471484,"internal_node_id":"0.0-75.0-0.0","task_version":"screening-prolific","missing":false,"accuracy":0},{"contexts":["blue","red","green"],"outcomes":[1,1,0],"key":37,"choice":0,"rt":132.70999997621402,"outcome":1,"trial":70,"correct":0,"trial_type":"three-arm-trial","trial_index":80,"time_elapsed":472821,"internal_node_id":"0.0-76.0-0.0","task_version":"screening-prolific","missing":false,"accuracy":1},{"contexts":["blue","red","green"],"outcomes":[1,0,0],"key":37,"choice":0,"rt":89.57999997073784,"outcome":1,"trial":71,"correct":0,"trial_type":"three-arm-trial","trial_index":81,"time_elapsed":474115,"internal_node_id":"0.0-77.0-0.0","task_version":"screening-prolific","missing":false,"accuracy":1},{"contexts":["blue","red","green"],"outcomes":[1,0,1],"key":37,"choice":0,"rt":134.5450000371784,"outcome":1,"trial":72,"correct":0,"trial_type":"three-arm-trial","trial_index":82,"time_elapsed":475453,"internal_node_id":"0.0-78.0-0.0","task_version":"screening-prolific","missing":false,"accuracy":1},{"contexts":["blue","red","green"],"outcomes":[1,0,1],"key":37,"choice":0,"rt":119.02500002179295,"outcome":1,"trial":73,"correct":0,"trial_type":"three-arm-trial","trial_index":83,"time_elapsed":476775,"internal_node_id":"0.0-79.0-0.0","task_version":"screening-prolific","missing":false,"accuracy":1},{"contexts":["blue","red","green"],"outcomes":[1,1,0],"key":37,"choice":0,"rt":7.024999998975545,"outcome":1,"trial":74,"correct":0,"trial_type":"three-arm-trial","trial_index":84,"time_elapsed":477985,"internal_node_id":"0.0-80.0-0.0","task_version":"screening-prolific","missing":false,"accuracy":1},{"contexts":["blue","red","green"],"outcomes":[1,0,0],"key":37,"choice":0,"rt":161.23500000685453,"outcome":1,"trial":75,"correct":0,"trial_type":"three-arm-trial","trial_index":85,"time_elapsed":479349,"internal_node_id":"0.0-81.0-0.0","task_version":"screening-prolific","missing":false,"accuracy":1},{"contexts":["blue","red","green"],"outcomes":[1,1,1],"key":37,"choice":0,"rt":28.679999988526106,"outcome":1,"trial":76,"correct":1,"trial_type":"three-arm-trial","trial_index":86,"time_elapsed":480580,"internal_node_id":"0.0-82.0-0.0","task_version":"screening-prolific","missing":false,"accuracy":0},{"contexts":["blue","red","green"],"outcomes":[0,1,1],"key":37,"choice":0,"rt":186.2950000213459,"outcome":0,"trial":77,"correct":1,"trial_type":"three-arm-trial","trial_index":87,"time_elapsed":481970,"internal_node_id":"0.0-83.0-0.0","task_version":"screening-prolific","missing":false,"accuracy":0},{"contexts":["blue","red","green"],"outcomes":[0,1,1],"key":38,"choice":1,"rt":50.990000017918646,"outcome":1,"trial":78,"correct":1,"trial_type":"three-arm-trial","trial_index":88,"time_elapsed":483225,"internal_node_id":"0.0-84.0-0.0","task_version":"screening-prolific","missing":false,"accuracy":1},{"contexts":["blue","red","green"],"outcomes":[0,1,0],"key":38,"choice":1,"rt":212.70999999251217,"outcome":1,"trial":79,"correct":1,"trial_type":"three-arm-trial","trial_index":89,"time_elapsed":484641,"internal_node_id":"0.0-85.0-0.0","task_version":"screening-prolific","missing":false,"accuracy":1},{"contexts":["blue","red","green"],"outcomes":[0,0,1],"key":38,"choice":1,"rt":42.59500000625849,"outcome":0,"trial":80,"correct":1,"trial_type":"three-arm-trial","trial_index":90,"time_elapsed":485888,"internal_node_id":"0.0-86.0-0.0","task_version":"screening-prolific","missing":false,"accuracy":1},{"contexts":["blue","red","green"],"outcomes":[1,0,0],"key":39,"choice":2,"rt":279.35500000603497,"outcome":0,"trial":81,"correct":1,"trial_type":"three-arm-trial","trial_index":91,"time_elapsed":487371,"internal_node_id":"0.0-87.0-0.0","task_version":"screening-prolific","missing":false,"accuracy":0},{"contexts":["blue","red","green"],"outcomes":[0,1,0],"key":38,"choice":1,"rt":222.73999999742955,"outcome":1,"trial":82,"correct":1,"trial_type":"three-arm-trial","trial_index":92,"time_elapsed":488796,"internal_node_id":"0.0-88.0-0.0","task_version":"screening-prolific","missing":false,"accuracy":1},{"contexts":["blue","red","green"],"outcomes":[1,0,0],"key":38,"choice":1,"rt":10.665000008884817,"outcome":0,"trial":83,"correct":1,"trial_type":"three-arm-trial","trial_index":93,"time_elapsed":490010,"internal_node_id":"0.0-89.0-0.0","task_version":"screening-prolific","missing":false,"accuracy":1},{"contexts":["blue","red","green"],"outcomes":[0,1,0],"key":37,"choice":0,"rt":41.649999970104545,"outcome":0,"trial":84,"correct":1,"trial_type":"three-arm-trial","trial_index":94,"time_elapsed":491254,"internal_node_id":"0.0-90.0-0.0","task_version":"screening-prolific","missing":false,"accuracy":0},{"contexts":["blue","red","green"],"outcomes":[0,1,0],"key":38,"choice":1,"rt":67.92499998118728,"outcome":1,"trial":85,"correct":1,"trial_type":"three-arm-trial","trial_index":95,"time_elapsed":492525,"internal_node_id":"0.0-91.0-0.0","task_version":"screening-prolific","missing":false,"accuracy":1},{"contexts":["blue","red","green"],"outcomes":[1,1,0],"key":38,"choice":1,"rt":182.64499999349937,"outcome":1,"trial":86,"correct":1,"trial_type":"three-arm-trial","trial_index":96,"time_elapsed":493910,"internal_node_id":"0.0-92.0-0.0","task_version":"screening-prolific","missing":false,"accuracy":1},{"contexts":["blue","red","green"],"outcomes":[0,1,0],"key":38,"choice":1,"rt":96.6599999810569,"outcome":1,"trial":87,"correct":1,"trial_type":"three-arm-trial","trial_index":97,"time_elapsed":495210,"internal_node_id":"0.0-93.0-0.0","task_version":"screening-prolific","missing":false,"accuracy":1},{"contexts":["blue","red","green"],"outcomes":[1,1,0],"key":38,"choice":1,"rt":158.4150000126101,"outcome":1,"trial":88,"correct":1,"trial_type":"three-arm-trial","trial_index":98,"time_elapsed":496571,"internal_node_id":"0.0-94.0-0.0","task_version":"screening-prolific","missing":false,"accuracy":1},{"contexts":["blue","red","green"],"outcomes":[0,1,0],"key":38,"choice":1,"rt":263.3100000093691,"outcome":1,"trial":89,"correct":1,"trial_type":"three-arm-trial","trial_index":99,"time_elapsed":498037,"internal_node_id":"0.0-95.0-0.0","task_version":"screening-prolific","missing":false,"accuracy":1},{"contexts":["blue","red","green"],"outcomes":[0,1,0],"key":38,"choice":1,"rt":118.99500002618879,"outcome":1,"trial":90,"correct":1,"trial_type":"three-arm-trial","trial_index":100,"time_elapsed":499359,"internal_node_id":"0.0-96.0-0.0","task_version":"screening-prolific","missing":false,"accuracy":1},{"rt":17141.44999999553,"responses":{"age":"32","gender-categorical":"Male","gender-free-response":"","ethnicity":"Not Hispanic or Latino","race":["Asian"],"language":"Yes","fluency":"Very well","mturk":"No","mturk-this-study":"No"},"survey":"demographics","trial_type":"survey-demo","trial_index":101,"time_elapsed":516506,"internal_node_id":"0.0-97.0","task_version":"screening-prolific","interactions":"[]"}]