[{"responses":{"Q01":"1","Q03":"0","Q02":"0"},"rt":16201,"survey":"pswq","trial_type":"survey-template","trial_index":0,"time_elapsed":16207,"internal_node_id":"0.0-0.0","task_version":"screening-prolific"},{"responses":{"Q04":"0","Q14":"0","Q06":"0","Q05":"0","Q02":"0","Q15":"0","Q12":"0","Q10":"0","Q03":"0","Q08":"0","Q13":"0","Q09":"0","Q01":"0","Q11":"0","Q07":"0"},"rt":88106,"survey":"7up7down","trial_type":"survey-template","trial_index":1,"time_elapsed":104328,"internal_node_id":"0.0-1.0","task_version":"screening-prolific"},{"responses":{"Q07":"3","Q12":"3","Q01":"3","Q05":"3","Q04":"3","Q03":"3","Q14":"3","Q13":"3","Q11":"3","Q09":"3","Q15":"3","Q08":"3","Q02":"3","Q10":"3","Q06":"3"},"rt":51142,"survey":"shaps","trial_type":"survey-template","trial_index":2,"time_elapsed":155484,"internal_node_id":"0.0-2.0","task_version":"screening-prolific"},{"responses":{"Q08":"2","Q13":"3","Q05":"2","Q06":"2","Q12":"1","Q09":"2","Q07":"3","Q02":"1","Q10":"1","Q01":"1","Q03":"2","Q04":"3","Q11":"2"},"rt":59187,"survey":"bisbas","trial_type":"survey-template","trial_index":3,"time_elapsed":214685,"internal_node_id":"0.0-3.0","task_version":"screening-prolific"},{"responses":{"Q02":"0","Q04":"0","Q08":"0","Q06":"0","Q03":"0","Q05":"0","Q07":"0","Q01":"0"},"rt":22065,"survey":"gad7","trial_type":"survey-template","trial_index":4,"time_elapsed":236764,"internal_node_id":"0.0-4.0","task_version":"screening-prolific"},{"view_history":"[{\"page_index\":0,\"viewing_time\":6490},{\"page_index\":1,\"viewing_time\":5888},{\"page_index\":2,\"viewing_time\":8639},{\"page_index\":3,\"viewing_time\":7305},{\"page_index\":4,\"viewing_time\":5319},{\"page_index\":5,\"viewing_time\":3920},{\"page_index\":6,\"viewing_time\":3808},{\"page_index\":7,\"viewing_time\":4392}]","rt":45761,"trial_type":"instructions","trial_index":5,"time_elapsed":282532,"internal_node_id":"0.0-5.0-0.0","task_version":"screening-prolific"},{"responses":["True","True","True","False","True"],"num_errors":1,"rt":35243,"trial_type":"three-arm-comprehension","trial_index":6,"time_elapsed":317787,"internal_node_id":"0.0-5.0-1.0","task_version":"screening-prolific"},{"view_history":"[{\"page_index\":0,\"viewing_time\":5445},{\"page_index\":1,\"viewing_time\":4169},{\"page_index\":2,\"viewing_time\":4191},{\"page_index\":3,\"viewing_time\":3720},{\"page_index\":4,\"viewing_time\":7433},{\"page_index\":5,\"viewing_time\":5295},{\"page_index\":6,\"viewing_time\":1568},{\"page_index\":7,\"viewing_time\":1392}]","rt":33213,"trial_type":"instructions","trial_index":7,"time_elapsed":351011,"internal_node_id":"0.0-5.1-0.1","task_version":"screening-prolific"},{"responses":["True","True","False","False","True"],"num_errors":0,"rt":14750,"trial_type":"three-arm-comprehension","trial_index":8,"time_elapsed":365769,"internal_node_id":"0.0-5.1-1.1","task_version":"screening-prolific"},{"view_history":"[{\"page_index\":0,\"viewing_time\":2024}]","rt":2025,"trial_type":"instructions","trial_index":9,"time_elapsed":367803,"internal_node_id":"0.0-6.0","task_version":"screening-prolific"},{"contexts":["green","blue","red"],"outcomes":[0,1,0],"key":38,"choice":1,"rt":6029,"outcome":1,"trial":1,"correct":1,"trial_type":"three-arm-trial","trial_index":10,"time_elapsed":375046,"internal_node_id":"0.0-7.0-0.0","task_version":"screening-prolific","missing":false,"accuracy":1},{"contexts":["green","blue","red"],"outcomes":[0,1,0],"key":37,"choice":0,"rt":2072,"outcome":0,"trial":2,"correct":1,"trial_type":"three-arm-trial","trial_index":11,"time_elapsed":378334,"internal_node_id":"0.0-8.0-0.0","task_version":"screening-prolific","missing":false,"accuracy":0},{"contexts":["green","blue","red"],"outcomes":[0,1,0],"key":39,"choice":2,"rt":544,"outcome":0,"trial":3,"correct":1,"trial_type":"three-arm-trial","trial_index":12,"time_elapsed":380084,"internal_node_id":"0.0-9.0-0.0","task_version":"screening-prolific","missing":false,"accuracy":0},{"contexts":["green","blue","red"],"outcomes":[0,1,1],"key":38,"choice":1,"rt":507,"outcome":1,"trial":4,"correct":1,"trial_type":"three-arm-trial","trial_index":13,"time_elapsed":381805,"internal_node_id":"0.0-10.0-0.0","task_version":"screening-prolific","missing":false,"accuracy":1},{"contexts":["green","blue","red"],"outcomes":[0,0,1],"key":38,"choice":1,"rt":616,"outcome":0,"trial":5,"correct":1,"trial_type":"three-arm-trial","trial_index":14,"time_elapsed":383634,"internal_node_id":"0.0-11.0-0.0","task_version":"screening-prolific","missing":false,"accuracy":1},{"contexts":["green","blue","red"],"outcomes":[1,0,0],"key":37,"choice":0,"rt":339,"outcome":1,"trial":6,"correct":1,"trial_type":"three-arm-trial","trial_index":15,"time_elapsed":385184,"internal_node_id":"0.0-12.0-0.0","task_version":"screening-prolific","missing":false,"accuracy":0},{"contexts":["green","blue","red"],"outcomes":[0,0,0],"key":37,"choice":0,"rt":1127,"outcome":0,"trial":7,"correct":1,"trial_type":"three-arm-trial","trial_index":16,"time_elapsed":387525,"internal_node_id":"0.0-13.0-0.0","task_version":"screening-prolific","missing":false,"accuracy":0},{"contexts":["green","blue","red"],"outcomes":[0,1,0],"key":39,"choice":2,"rt":347,"outcome":0,"trial":8,"correct":1,"trial_type":"three-arm-trial","trial_index":17,"time_elapsed":389084,"internal_node_id":"0.0-14.0-0.0","task_version":"screening-prolific","missing":false,"accuracy":0},{"contexts":["green","blue","red"],"outcomes":[0,1,0],"key":38,"choice":1,"rt":708,"outcome":1,"trial":9,"correct":1,"trial_type":"three-arm-trial","trial_index":18,"time_elapsed":391004,"internal_node_id":"0.0-15.0-0.0","task_version":"screening-prolific","missing":false,"accuracy":1},{"contexts":["green","blue","red"],"outcomes":[0,1,0],"key":38,"choice":1,"rt":650,"outcome":1,"trial":10,"correct":1,"trial_type":"three-arm-trial","trial_index":19,"time_elapsed":392865,"internal_node_id":"0.0-16.0-0.0","task_version":"screening-prolific","missing":false,"accuracy":1},{"contexts":["green","blue","red"],"outcomes":[0,1,0],"key":38,"choice":1,"rt":438,"outcome":1,"trial":11,"correct":1,"trial_type":"three-arm-trial","trial_index":20,"time_elapsed":394514,"internal_node_id":"0.0-17.0-0.0","task_version":"screening-prolific","missing":false,"accuracy":1},{"contexts":["green","blue","red"],"outcomes":[0,1,0],"key":38,"choice":1,"rt":621,"outcome":1,"trial":12,"correct":1,"trial_type":"three-arm-trial","trial_index":21,"time_elapsed":396345,"internal_node_id":"0.0-18.0-0.0","task_version":"screening-prolific","missing":false,"accuracy":1},{"contexts":["green","blue","red"],"outcomes":[1,0,0],"key":38,"choice":1,"rt":614,"outcome":0,"trial":13,"correct":1,"trial_type":"three-arm-trial","trial_index":22,"time_elapsed":398164,"internal_node_id":"0.0-19.0-0.0","task_version":"screening-prolific","missing":false,"accuracy":1},{"contexts":["green","blue","red"],"outcomes":[0,1,0],"key":37,"choice":0,"rt":347,"outcome":0,"trial":14,"correct":1,"trial_type":"three-arm-trial","trial_index":23,"time_elapsed":399724,"internal_node_id":"0.0-20.0-0.0","task_version":"screening-prolific","missing":false,"accuracy":0},{"contexts":["green","blue","red"],"outcomes":[1,0,0],"key":39,"choice":2,"rt":356,"outcome":0,"trial":15,"correct":1,"trial_type":"three-arm-trial","trial_index":24,"time_elapsed":401284,"internal_node_id":"0.0-21.0-0.0","task_version":"screening-prolific","missing":false,"accuracy":0},{"contexts":["green","blue","red"],"outcomes":[1,0,1],"key":38,"choice":1,"rt":787,"outcome":0,"trial":16,"correct":2,"trial_type":"three-arm-trial","trial_index":25,"time_elapsed":403284,"internal_node_id":"0.0-22.0-0.0","task_version":"screening-prolific","missing":false,"accuracy":0},{"contexts":["green","blue","red"],"outcomes":[0,0,0],"key":38,"choice":1,"rt":315,"outcome":0,"trial":17,"correct":2,"trial_type":"three-arm-trial","trial_index":26,"time_elapsed":404803,"internal_node_id":"0.0-23.0-0.0","task_version":"screening-prolific","missing":false,"accuracy":0},{"contexts":["green","blue","red"],"outcomes":[0,1,0],"key":37,"choice":0,"rt":931,"outcome":0,"trial":18,"correct":2,"trial_type":"three-arm-trial","trial_index":27,"time_elapsed":406947,"internal_node_id":"0.0-24.0-0.0","task_version":"screening-prolific","missing":false,"accuracy":0},{"contexts":["green","blue","red"],"outcomes":[0,0,1],"key":37,"choice":0,"rt":50,"outcome":0,"trial":19,"correct":2,"trial_type":"three-arm-trial","trial_index":28,"time_elapsed":408203,"internal_node_id":"0.0-25.0-0.0","task_version":"screening-prolific","missing":false,"accuracy":0},{"contexts":["green","blue","red"],"outcomes":[0,0,1],"key":39,"choice":2,"rt":745,"outcome":1,"trial":20,"correct":2,"trial_type":"three-arm-trial","trial_index":29,"time_elapsed":410165,"internal_node_id":"0.0-26.0-0.0","task_version":"screening-prolific","missing":false,"accuracy":1},{"contexts":["green","blue","red"],"outcomes":[0,1,1],"key":39,"choice":2,"rt":354,"outcome":1,"trial":21,"correct":2,"trial_type":"three-arm-trial","trial_index":30,"time_elapsed":411724,"internal_node_id":"0.0-27.0-0.0","task_version":"screening-prolific","missing":false,"accuracy":1},{"contexts":["green","blue","red"],"outcomes":[0,0,1],"key":39,"choice":2,"rt":221,"outcome":1,"trial":22,"correct":2,"trial_type":"three-arm-trial","trial_index":31,"time_elapsed":413153,"internal_node_id":"0.0-28.0-0.0","task_version":"screening-prolific","missing":false,"accuracy":1},{"contexts":["green","blue","red"],"outcomes":[0,0,1],"key":39,"choice":2,"rt":93,"outcome":1,"trial":23,"correct":2,"trial_type":"three-arm-trial","trial_index":32,"time_elapsed":414452,"internal_node_id":"0.0-29.0-0.0","task_version":"screening-prolific","missing":false,"accuracy":1},{"contexts":["green","blue","red"],"outcomes":[0,0,1],"key":39,"choice":2,"rt":1258,"outcome":1,"trial":24,"correct":2,"trial_type":"three-arm-trial","trial_index":33,"time_elapsed":416923,"internal_node_id":"0.0-30.0-0.0","task_version":"screening-prolific","missing":false,"accuracy":1},{"contexts":["green","blue","red"],"outcomes":[1,0,1],"key":39,"choice":2,"rt":412,"outcome":1,"trial":25,"correct":2,"trial_type":"three-arm-trial","trial_index":34,"time_elapsed":418543,"internal_node_id":"0.0-31.0-0.0","task_version":"screening-prolific","missing":false,"accuracy":1},{"contexts":["green","blue","red"],"outcomes":[0,0,1],"key":39,"choice":2,"rt":216,"outcome":1,"trial":26,"correct":2,"trial_type":"three-arm-trial","trial_index":35,"time_elapsed":419963,"internal_node_id":"0.0-32.0-0.0","task_version":"screening-prolific","missing":false,"accuracy":1},{"contexts":["green","blue","red"],"outcomes":[0,0,1],"key":39,"choice":2,"rt":12,"outcome":1,"trial":27,"correct":2,"trial_type":"three-arm-trial","trial_index":36,"time_elapsed":421185,"internal_node_id":"0.0-33.0-0.0","task_version":"screening-prolific","missing":false,"accuracy":1},{"contexts":["green","blue","red"],"outcomes":[0,0,0],"key":39,"choice":2,"rt":302,"outcome":0,"trial":28,"correct":2,"trial_type":"three-arm-trial","trial_index":37,"time_elapsed":422693,"internal_node_id":"0.0-34.0-0.0","task_version":"screening-prolific","missing":false,"accuracy":1},{"contexts":["green","blue","red"],"outcomes":[0,0,0],"key":39,"choice":2,"rt":1024,"outcome":0,"trial":29,"correct":2,"trial_type":"three-arm-trial","trial_index":38,"time_elapsed":424923,"internal_node_id":"0.0-35.0-0.0","task_version":"screening-prolific","missing":false,"accuracy":1},{"contexts":["green","blue","red"],"outcomes":[0,0,0],"key":39,"choice":2,"rt":50,"outcome":0,"trial":30,"correct":2,"trial_type":"three-arm-trial","trial_index":39,"time_elapsed":426184,"internal_node_id":"0.0-36.0-0.0","task_version":"screening-prolific","missing":false,"accuracy":1},{"contexts":["green","blue","red"],"outcomes":[1,0,1],"key":38,"choice":1,"rt":534,"outcome":0,"trial":31,"correct":0,"trial_type":"three-arm-trial","trial_index":40,"time_elapsed":427923,"internal_node_id":"0.0-37.0-0.0","task_version":"screening-prolific","missing":false,"accuracy":0},{"contexts":["green","blue","red"],"outcomes":[1,0,1],"key":38,"choice":1,"rt":756,"outcome":0,"trial":32,"correct":0,"trial_type":"three-arm-trial","trial_index":41,"time_elapsed":429883,"internal_node_id":"0.0-38.0-0.0","task_version":"screening-prolific","missing":false,"accuracy":0},{"contexts":["green","blue","red"],"outcomes":[1,0,1],"key":37,"choice":0,"rt":269,"outcome":1,"trial":33,"correct":0,"trial_type":"three-arm-trial","trial_index":42,"time_elapsed":431363,"internal_node_id":"0.0-39.0-0.0","task_version":"screening-prolific","missing":false,"accuracy":1},{"contexts":["green","blue","red"],"outcomes":[0,0,0],"key":37,"choice":0,"rt":395,"outcome":0,"trial":34,"correct":0,"trial_type":"three-arm-trial","trial_index":43,"time_elapsed":432963,"internal_node_id":"0.0-40.0-0.0","task_version":"screening-prolific","missing":false,"accuracy":1},{"contexts":["green","blue","red"],"outcomes":[1,0,0],"key":37,"choice":0,"rt":1130,"outcome":1,"trial":35,"correct":0,"trial_type":"three-arm-trial","trial_index":44,"time_elapsed":435304,"internal_node_id":"0.0-41.0-0.0","task_version":"screening-prolific","missing":false,"accuracy":1},{"contexts":["green","blue","red"],"outcomes":[1,0,0],"key":37,"choice":0,"rt":685,"outcome":1,"trial":36,"correct":0,"trial_type":"three-arm-trial","trial_index":45,"time_elapsed":437205,"internal_node_id":"0.0-42.0-0.0","task_version":"screening-prolific","missing":false,"accuracy":1},{"contexts":["green","blue","red"],"outcomes":[1,1,0],"key":37,"choice":0,"rt":278,"outcome":1,"trial":37,"correct":0,"trial_type":"three-arm-trial","trial_index":46,"time_elapsed":438693,"internal_node_id":"0.0-43.0-0.0","task_version":"screening-prolific","missing":false,"accuracy":1},{"contexts":["green","blue","red"],"outcomes":[1,0,0],"key":37,"choice":0,"rt":353,"outcome":1,"trial":38,"correct":0,"trial_type":"three-arm-trial","trial_index":47,"time_elapsed":440253,"internal_node_id":"0.0-44.0-0.0","task_version":"screening-prolific","missing":false,"accuracy":1},{"contexts":["green","blue","red"],"outcomes":[1,0,0],"key":37,"choice":0,"rt":529,"outcome":1,"trial":39,"correct":0,"trial_type":"three-arm-trial","trial_index":48,"time_elapsed":441992,"internal_node_id":"0.0-45.0-0.0","task_version":"screening-prolific","missing":false,"accuracy":1},{"contexts":["green","blue","red"],"outcomes":[1,0,0],"key":37,"choice":0,"rt":701,"outcome":1,"trial":40,"correct":0,"trial_type":"three-arm-trial","trial_index":49,"time_elapsed":443902,"internal_node_id":"0.0-46.0-0.0","task_version":"screening-prolific","missing":false,"accuracy":1},{"contexts":["green","blue","red"],"outcomes":[1,0,0],"key":37,"choice":0,"rt":593,"outcome":1,"trial":41,"correct":0,"trial_type":"three-arm-trial","trial_index":50,"time_elapsed":445703,"internal_node_id":"0.0-47.0-0.0","task_version":"screening-prolific","missing":false,"accuracy":1},{"contexts":["green","blue","red"],"outcomes":[0,1,0],"key":37,"choice":0,"rt":215,"outcome":0,"trial":42,"correct":0,"trial_type":"three-arm-trial","trial_index":51,"time_elapsed":447123,"internal_node_id":"0.0-48.0-0.0","task_version":"screening-prolific","missing":false,"accuracy":1},{"contexts":["green","blue","red"],"outcomes":[1,0,0],"key":37,"choice":0,"rt":442,"outcome":1,"trial":43,"correct":0,"trial_type":"three-arm-trial","trial_index":52,"time_elapsed":448774,"internal_node_id":"0.0-49.0-0.0","task_version":"screening-prolific","missing":false,"accuracy":1},{"contexts":["green","blue","red"],"outcomes":[0,0,0],"key":37,"choice":0,"rt":30,"outcome":0,"trial":44,"correct":0,"trial_type":"three-arm-trial","trial_index":53,"time_elapsed":450013,"internal_node_id":"0.0-50.0-0.0","task_version":"screening-prolific","missing":false,"accuracy":1},{"contexts":["green","blue","red"],"outcomes":[1,0,0],"key":37,"choice":0,"rt":105,"outcome":1,"trial":45,"correct":0,"trial_type":"three-arm-trial","trial_index":54,"time_elapsed":451323,"internal_node_id":"0.0-51.0-0.0","task_version":"screening-prolific","missing":false,"accuracy":1},{"contexts":["green","blue","red"],"outcomes":[0,1,1],"key":37,"choice":0,"rt":282,"outcome":0,"trial":46,"correct":2,"trial_type":"three-arm-trial","trial_index":55,"time_elapsed":452813,"internal_node_id":"0.0-52.0-0.0","task_version":"screening-prolific","missing":false,"accuracy":0},{"contexts":["green","blue","red"],"outcomes":[1,0,1],"key":37,"choice":0,"rt":201,"outcome":1,"trial":47,"correct":2,"trial_type":"three-arm-trial","trial_index":56,"time_elapsed":454222,"internal_node_id":"0.0-53.0-0.0","task_version":"screening-prolific","missing":false,"accuracy":0},{"contexts":["green","blue","red"],"outcomes":[0,0,0],"key":37,"choice":0,"rt":54,"outcome":0,"trial":48,"correct":2,"trial_type":"three-arm-trial","trial_index":57,"time_elapsed":455482,"internal_node_id":"0.0-54.0-0.0","task_version":"screening-prolific","missing":false,"accuracy":0},{"contexts":["green","blue","red"],"outcomes":[0,0,1],"key":37,"choice":0,"rt":66,"outcome":0,"trial":49,"correct":2,"trial_type":"three-arm-trial","trial_index":58,"time_elapsed":456753,"internal_node_id":"0.0-55.0-0.0","task_version":"screening-prolific","missing":false,"accuracy":0},{"contexts":["green","blue","red"],"outcomes":[0,1,0],"key":37,"choice":0,"rt":126,"outcome":0,"trial":50,"correct":2,"trial_type":"three-arm-trial","trial_index":59,"time_elapsed":458082,"internal_node_id":"0.0-56.0-0.0","task_version":"screening-prolific","missing":false,"accuracy":0},{"contexts":["green","blue","red"],"outcomes":[0,0,1],"key":37,"choice":0,"rt":83,"outcome":0,"trial":51,"correct":2,"trial_type":"three-arm-trial","trial_index":60,"time_elapsed":459372,"internal_node_id":"0.0-57.0-0.0","task_version":"screening-prolific","missing":false,"accuracy":0},{"contexts":["green","blue","red"],"outcomes":[0,0,1],"key":39,"choice":2,"rt":258,"outcome":1,"trial":52,"correct":2,"trial_type":"three-arm-trial","trial_index":61,"time_elapsed":460843,"internal_node_id":"0.0-58.0-0.0","task_version":"screening-prolific","missing":false,"accuracy":1},{"contexts":["green","blue","red"],"outcomes":[0,0,1],"key":39,"choice":2,"rt":281,"outcome":1,"trial":53,"correct":2,"trial_type":"three-arm-trial","trial_index":62,"time_elapsed":462332,"internal_node_id":"0.0-59.0-0.0","task_version":"screening-prolific","missing":false,"accuracy":1},{"contexts":["green","blue","red"],"outcomes":[0,0,1],"key":39,"choice":2,"rt":251,"outcome":1,"trial":54,"correct":2,"trial_type":"three-arm-trial","trial_index":63,"time_elapsed":463793,"internal_node_id":"0.0-60.0-0.0","task_version":"screening-prolific","missing":false,"accuracy":1},{"contexts":["green","blue","red"],"outcomes":[0,1,0],"key":39,"choice":2,"rt":389,"outcome":0,"trial":55,"correct":2,"trial_type":"three-arm-trial","trial_index":64,"time_elapsed":465392,"internal_node_id":"0.0-61.0-0.0","task_version":"screening-prolific","missing":false,"accuracy":1},{"contexts":["green","blue","red"],"outcomes":[0,0,1],"key":39,"choice":2,"rt":125,"outcome":1,"trial":56,"correct":2,"trial_type":"three-arm-trial","trial_index":65,"time_elapsed":466723,"internal_node_id":"0.0-62.0-0.0","task_version":"screening-prolific","missing":false,"accuracy":1},{"contexts":["green","blue","red"],"outcomes":[0,0,0],"key":39,"choice":2,"rt":22,"outcome":0,"trial":57,"correct":2,"trial_type":"three-arm-trial","trial_index":66,"time_elapsed":467953,"internal_node_id":"0.0-63.0-0.0","task_version":"screening-prolific","missing":false,"accuracy":1},{"contexts":["green","blue","red"],"outcomes":[1,0,0],"key":39,"choice":2,"rt":36,"outcome":0,"trial":58,"correct":2,"trial_type":"three-arm-trial","trial_index":67,"time_elapsed":469222,"internal_node_id":"0.0-64.0-0.0","task_version":"screening-prolific","missing":false,"accuracy":1},{"contexts":["green","blue","red"],"outcomes":[0,1,1],"key":39,"choice":2,"rt":80,"outcome":1,"trial":59,"correct":2,"trial_type":"three-arm-trial","trial_index":68,"time_elapsed":470513,"internal_node_id":"0.0-65.0-0.0","task_version":"screening-prolific","missing":false,"accuracy":1},{"contexts":["green","blue","red"],"outcomes":[0,0,0],"key":39,"choice":2,"rt":276,"outcome":0,"trial":60,"correct":2,"trial_type":"three-arm-trial","trial_index":69,"time_elapsed":472002,"internal_node_id":"0.0-66.0-0.0","task_version":"screening-prolific","missing":false,"accuracy":1},{"contexts":["green","blue","red"],"outcomes":[1,0,0],"key":39,"choice":2,"rt":355,"outcome":0,"trial":61,"correct":0,"trial_type":"three-arm-trial","trial_index":70,"time_elapsed":473562,"internal_node_id":"0.0-67.0-0.0","task_version":"screening-prolific","missing":false,"accuracy":0},{"contexts":["green","blue","red"],"outcomes":[1,0,0],"key":37,"choice":0,"rt":2228,"outcome":1,"trial":62,"correct":0,"trial_type":"three-arm-trial","trial_index":71,"time_elapsed":477003,"internal_node_id":"0.0-68.0-0.0","task_version":"screening-prolific","missing":false,"accuracy":1},{"contexts":["green","blue","red"],"outcomes":[1,0,0],"key":37,"choice":0,"rt":1243,"outcome":1,"trial":63,"correct":0,"trial_type":"three-arm-trial","trial_index":72,"time_elapsed":479452,"internal_node_id":"0.0-69.0-0.0","task_version":"screening-prolific","missing":false,"accuracy":1},{"contexts":["green","blue","red"],"outcomes":[1,1,0],"key":37,"choice":0,"rt":200,"outcome":1,"trial":64,"correct":0,"trial_type":"three-arm-trial","trial_index":73,"time_elapsed":480863,"internal_node_id":"0.0-70.0-0.0","task_version":"screening-prolific","missing":false,"accuracy":1},{"contexts":["green","blue","red"],"outcomes":[1,0,0],"key":37,"choice":0,"rt":301,"outcome":1,"trial":65,"correct":0,"trial_type":"three-arm-trial","trial_index":74,"time_elapsed":482372,"internal_node_id":"0.0-71.0-0.0","task_version":"screening-prolific","missing":false,"accuracy":1},{"contexts":["green","blue","red"],"outcomes":[0,0,0],"key":37,"choice":0,"rt":47,"outcome":0,"trial":66,"correct":0,"trial_type":"three-arm-trial","trial_index":75,"time_elapsed":483632,"internal_node_id":"0.0-72.0-0.0","task_version":"screening-prolific","missing":false,"accuracy":1},{"contexts":["green","blue","red"],"outcomes":[1,0,0],"key":37,"choice":0,"rt":254,"outcome":1,"trial":67,"correct":0,"trial_type":"three-arm-trial","trial_index":76,"time_elapsed":485092,"internal_node_id":"0.0-73.0-0.0","task_version":"screening-prolific","missing":false,"accuracy":1},{"contexts":["green","blue","red"],"outcomes":[1,0,0],"key":37,"choice":0,"rt":226,"outcome":1,"trial":68,"correct":0,"trial_type":"three-arm-trial","trial_index":77,"time_elapsed":486522,"internal_node_id":"0.0-74.0-0.0","task_version":"screening-prolific","missing":false,"accuracy":1},{"contexts":["green","blue","red"],"outcomes":[1,0,0],"key":37,"choice":0,"rt":155,"outcome":1,"trial":69,"correct":0,"trial_type":"three-arm-trial","trial_index":78,"time_elapsed":487882,"internal_node_id":"0.0-75.0-0.0","task_version":"screening-prolific","missing":false,"accuracy":1},{"contexts":["green","blue","red"],"outcomes":[1,0,0],"key":37,"choice":0,"rt":179,"outcome":1,"trial":70,"correct":0,"trial_type":"three-arm-trial","trial_index":79,"time_elapsed":489272,"internal_node_id":"0.0-76.0-0.0","task_version":"screening-prolific","missing":false,"accuracy":1},{"contexts":["green","blue","red"],"outcomes":[0,1,0],"key":37,"choice":0,"rt":246,"outcome":0,"trial":71,"correct":0,"trial_type":"three-arm-trial","trial_index":80,"time_elapsed":490722,"internal_node_id":"0.0-77.0-0.0","task_version":"screening-prolific","missing":false,"accuracy":1},{"contexts":["green","blue","red"],"outcomes":[1,0,0],"key":37,"choice":0,"rt":531,"outcome":1,"trial":72,"correct":0,"trial_type":"three-arm-trial","trial_index":81,"time_elapsed":492462,"internal_node_id":"0.0-78.0-0.0","task_version":"screening-prolific","missing":false,"accuracy":1},{"contexts":["green","blue","red"],"outcomes":[1,1,0],"key":37,"choice":0,"rt":168,"outcome":1,"trial":73,"correct":0,"trial_type":"three-arm-trial","trial_index":82,"time_elapsed":493842,"internal_node_id":"0.0-79.0-0.0","task_version":"screening-prolific","missing":false,"accuracy":1},{"contexts":["green","blue","red"],"outcomes":[1,0,0],"key":37,"choice":0,"rt":251,"outcome":1,"trial":74,"correct":0,"trial_type":"three-arm-trial","trial_index":83,"time_elapsed":495302,"internal_node_id":"0.0-80.0-0.0","task_version":"screening-prolific","missing":false,"accuracy":1},{"contexts":["green","blue","red"],"outcomes":[1,0,0],"key":37,"choice":0,"rt":463,"outcome":1,"trial":75,"correct":0,"trial_type":"three-arm-trial","trial_index":84,"time_elapsed":496973,"internal_node_id":"0.0-81.0-0.0","task_version":"screening-prolific","missing":false,"accuracy":1},{"contexts":["green","blue","red"],"outcomes":[0,1,1],"key":37,"choice":0,"rt":54,"outcome":0,"trial":76,"correct":1,"trial_type":"three-arm-trial","trial_index":85,"time_elapsed":498232,"internal_node_id":"0.0-82.0-0.0","task_version":"screening-prolific","missing":false,"accuracy":0},{"contexts":["green","blue","red"],"outcomes":[0,1,0],"key":37,"choice":0,"rt":164,"outcome":0,"trial":77,"correct":1,"trial_type":"three-arm-trial","trial_index":86,"time_elapsed":499602,"internal_node_id":"0.0-83.0-0.0","task_version":"screening-prolific","missing":false,"accuracy":0},{"contexts":["green","blue","red"],"outcomes":[0,1,0],"key":37,"choice":0,"rt":857,"outcome":0,"trial":78,"correct":1,"trial_type":"three-arm-trial","trial_index":87,"time_elapsed":501673,"internal_node_id":"0.0-84.0-0.0","task_version":"screening-prolific","missing":false,"accuracy":0},{"contexts":["green","blue","red"],"outcomes":[1,1,1],"key":39,"choice":2,"rt":267,"outcome":1,"trial":79,"correct":1,"trial_type":"three-arm-trial","trial_index":88,"time_elapsed":503151,"internal_node_id":"0.0-85.0-0.0","task_version":"screening-prolific","missing":false,"accuracy":0},{"contexts":["green","blue","red"],"outcomes":[0,1,0],"key":39,"choice":2,"rt":125,"outcome":0,"trial":80,"correct":1,"trial_type":"three-arm-trial","trial_index":89,"time_elapsed":504481,"internal_node_id":"0.0-86.0-0.0","task_version":"screening-prolific","missing":false,"accuracy":0},{"contexts":["green","blue","red"],"outcomes":[1,1,0],"key":39,"choice":2,"rt":740,"outcome":0,"trial":81,"correct":1,"trial_type":"three-arm-trial","trial_index":90,"time_elapsed":506432,"internal_node_id":"0.0-87.0-0.0","task_version":"screening-prolific","missing":false,"accuracy":0},{"contexts":["green","blue","red"],"outcomes":[0,1,0],"key":38,"choice":1,"rt":516,"outcome":1,"trial":82,"correct":1,"trial_type":"three-arm-trial","trial_index":91,"time_elapsed":508162,"internal_node_id":"0.0-88.0-0.0","task_version":"screening-prolific","missing":false,"accuracy":1},{"contexts":["green","blue","red"],"outcomes":[1,1,0],"key":38,"choice":1,"rt":482,"outcome":1,"trial":83,"correct":1,"trial_type":"three-arm-trial","trial_index":92,"time_elapsed":509852,"internal_node_id":"0.0-89.0-0.0","task_version":"screening-prolific","missing":false,"accuracy":1},{"contexts":["green","blue","red"],"outcomes":[1,1,1],"key":38,"choice":1,"rt":369,"outcome":1,"trial":84,"correct":1,"trial_type":"three-arm-trial","trial_index":93,"time_elapsed":511431,"internal_node_id":"0.0-90.0-0.0","task_version":"screening-prolific","missing":false,"accuracy":1},{"contexts":["green","blue","red"],"outcomes":[0,1,0],"key":38,"choice":1,"rt":213,"outcome":1,"trial":85,"correct":1,"trial_type":"three-arm-trial","trial_index":94,"time_elapsed":512852,"internal_node_id":"0.0-91.0-0.0","task_version":"screening-prolific","missing":false,"accuracy":1},{"contexts":["green","blue","red"],"outcomes":[0,1,0],"key":38,"choice":1,"rt":40,"outcome":1,"trial":86,"correct":1,"trial_type":"three-arm-trial","trial_index":95,"time_elapsed":514102,"internal_node_id":"0.0-92.0-0.0","task_version":"screening-prolific","missing":false,"accuracy":1},{"contexts":["green","blue","red"],"outcomes":[0,1,0],"key":38,"choice":1,"rt":94,"outcome":1,"trial":87,"correct":1,"trial_type":"three-arm-trial","trial_index":96,"time_elapsed":515402,"internal_node_id":"0.0-93.0-0.0","task_version":"screening-prolific","missing":false,"accuracy":1},{"contexts":["green","blue","red"],"outcomes":[0,1,0],"key":38,"choice":1,"rt":82,"outcome":1,"trial":88,"correct":1,"trial_type":"three-arm-trial","trial_index":97,"time_elapsed":516691,"internal_node_id":"0.0-94.0-0.0","task_version":"screening-prolific","missing":false,"accuracy":1},{"contexts":["green","blue","red"],"outcomes":[0,1,0],"key":38,"choice":1,"rt":487,"outcome":1,"trial":89,"correct":1,"trial_type":"three-arm-trial","trial_index":98,"time_elapsed":518391,"internal_node_id":"0.0-95.0-0.0","task_version":"screening-prolific","missing":false,"accuracy":1},{"contexts":["green","blue","red"],"outcomes":[0,1,0],"key":38,"choice":1,"rt":1028,"outcome":1,"trial":90,"correct":1,"trial_type":"three-arm-trial","trial_index":99,"time_elapsed":520632,"internal_node_id":"0.0-96.0-0.0","task_version":"screening-prolific","missing":false,"accuracy":1},{"rt":27728,"responses":{"age":"67","gender-categorical":"Female","gender-free-response":"","ethnicity":"Not Hispanic or Latino","race":["White"],"language":"Yes","fluency":"Very well","mturk":"Yes","mturk-this-study":"No"},"survey":"demographics","trial_type":"survey-demo","trial_index":100,"time_elapsed":548378,"internal_node_id":"0.0-97.0","task_version":"screening-prolific","interactions":"[{\"event\":\"focus\",\"trial\":0,\"time\":0}]"}]