[{"responses":{"Q07":"2","Q05":"2","Q01":"2","Q08":"0","Q02":"2","Q04":"2","Q06":"2","Q03":"2"},"rt":128561.10000000002,"survey":"gad7","trial_type":"survey-template","trial_index":0,"time_elapsed":128569,"internal_node_id":"0.0-0.0","task_version":"screening-prolific"},{"responses":{"Q07":"2","Q10":"2","Q08":"2","Q13":"3","Q12":"1","Q02":"1","Q01":"2","Q11":"1","Q03":"1","Q06":"2","Q05":"2","Q04":"2","Q09":"1"},"rt":94346.72499999999,"survey":"bisbas","trial_type":"survey-template","trial_index":1,"time_elapsed":222921,"internal_node_id":"0.0-1.0","task_version":"screening-prolific"},{"responses":{"Q11":"2","Q09":"1","Q07":"2","Q10":"2","Q05":"2","Q06":"2","Q04":"2","Q14":"2","Q12":"2","Q08":"2","Q15":"2","Q13":"2","Q03":"2","Q01":"2","Q02":"2"},"rt":52578.994999999995,"survey":"shaps","trial_type":"survey-template","trial_index":2,"time_elapsed":275504,"internal_node_id":"0.0-2.0","task_version":"screening-prolific"},{"responses":{"Q03":"1","Q10":"1","Q07":"1","Q13":"1","Q15":"1","Q06":"1","Q04":"1","Q01":"1","Q09":"1","Q12":"1","Q02":"1","Q11":"1","Q05":"1","Q14":"1","Q08":"1"},"rt":63925.52000000002,"survey":"7up7down","trial_type":"survey-template","trial_index":3,"time_elapsed":339434,"internal_node_id":"0.0-3.0","task_version":"screening-prolific"},{"responses":{"Q01":"2","Q02":"2","Q03":"2"},"rt":13146.789999999979,"survey":"pswq","trial_type":"survey-template","trial_index":4,"time_elapsed":352585,"internal_node_id":"0.0-4.0","task_version":"screening-prolific"},{"view_history":"[{\"page_index\":0,\"viewing_time\":2490.3349999999627},{\"page_index\":1,\"viewing_time\":8146.309999999998},{\"page_index\":2,\"viewing_time\":5107.960000000021},{\"page_index\":3,\"viewing_time\":3824.994999999937},{\"page_index\":4,\"viewing_time\":3325.9749999999767},{\"page_index\":5,\"viewing_time\":1132.0850000000792},{\"page_index\":6,\"viewing_time\":591.8950000000186},{\"page_index\":7,\"viewing_time\":459.0449999999255}]","rt":25079.15499999991,"trial_type":"instructions","trial_index":5,"time_elapsed":377667,"internal_node_id":"0.0-5.0-0.0","task_version":"screening-prolific"},{"responses":["True","True","False","True","True"],"num_errors":1,"rt":35884.439999999944,"trial_type":"three-arm-comprehension","trial_index":6,"time_elapsed":413553,"internal_node_id":"0.0-5.0-1.0","task_version":"screening-prolific"},{"view_history":"[{\"page_index\":0,\"viewing_time\":2240.3099999999977},{\"page_index\":1,\"viewing_time\":11896.070000000007},{\"page_index\":2,\"viewing_time\":7033.9349999999395},{\"page_index\":3,\"viewing_time\":6861.965000000026},{\"page_index\":4,\"viewing_time\":10872.634999999951},{\"page_index\":5,\"viewing_time\":6349.405000000086},{\"page_index\":6,\"viewing_time\":4755.929999999993},{\"page_index\":7,\"viewing_time\":3041.1149999999907}]","rt":53051.64499999996,"trial_type":"instructions","trial_index":7,"time_elapsed":466610,"internal_node_id":"0.0-5.1-0.1","task_version":"screening-prolific"},{"responses":["True","True","False","False","True"],"num_errors":0,"rt":42275.840000000026,"trial_type":"three-arm-comprehension","trial_index":8,"time_elapsed":508887,"internal_node_id":"0.0-5.1-1.1","task_version":"screening-prolific"},{"view_history":"[{\"page_index\":0,\"viewing_time\":2683.234999999928}]","rt":2683.419999999809,"trial_type":"instructions","trial_index":9,"time_elapsed":511576,"internal_node_id":"0.0-6.0","task_version":"screening-prolific"},{"contexts":["red","blue","green"],"outcomes":[0,0,1],"key":null,"rt":null,"trial":1,"correct":2,"trial_type":"three-arm-trial","trial_index":10,"time_elapsed":526580,"internal_node_id":"0.0-7.0-0.0","task_version":"screening-prolific","missing":true},{"contexts":["red","blue","green"],"outcomes":[0,0,1],"key":38,"choice":1,"rt":3223.1350000000093,"outcome":0,"trial":1,"correct":2,"trial_type":"three-arm-trial","trial_index":11,"time_elapsed":531007,"internal_node_id":"0.0-7.1-0.1","task_version":"screening-prolific","missing":false,"accuracy":0},{"contexts":["red","blue","green"],"outcomes":[0,0,1],"key":38,"choice":1,"rt":1129.6600000000326,"outcome":0,"trial":2,"correct":2,"trial_type":"three-arm-trial","trial_index":12,"time_elapsed":533341,"internal_node_id":"0.0-8.0-0.0","task_version":"screening-prolific","missing":false,"accuracy":0},{"contexts":["red","blue","green"],"outcomes":[0,0,1],"key":38,"choice":1,"rt":92.23499999986961,"outcome":0,"trial":3,"correct":2,"trial_type":"three-arm-trial","trial_index":13,"time_elapsed":534638,"internal_node_id":"0.0-9.0-0.0","task_version":"screening-prolific","missing":false,"accuracy":0},{"contexts":["red","blue","green"],"outcomes":[0,0,1],"key":38,"choice":1,"rt":306.9099999999162,"outcome":0,"trial":4,"correct":2,"trial_type":"three-arm-trial","trial_index":14,"time_elapsed":536150,"internal_node_id":"0.0-10.0-0.0","task_version":"screening-prolific","missing":false,"accuracy":0},{"contexts":["red","blue","green"],"outcomes":[0,0,1],"key":39,"choice":2,"rt":267.19000000006054,"outcome":1,"trial":5,"correct":2,"trial_type":"three-arm-trial","trial_index":15,"time_elapsed":537621,"internal_node_id":"0.0-11.0-0.0","task_version":"screening-prolific","missing":false,"accuracy":1},{"contexts":["red","blue","green"],"outcomes":[0,0,1],"key":37,"choice":0,"rt":1443.9500000000698,"outcome":0,"trial":6,"correct":2,"trial_type":"three-arm-trial","trial_index":16,"time_elapsed":540269,"internal_node_id":"0.0-12.0-0.0","task_version":"screening-prolific","missing":false,"accuracy":0},{"contexts":["red","blue","green"],"outcomes":[1,0,0],"key":39,"choice":2,"rt":211.8200000000652,"outcome":0,"trial":7,"correct":2,"trial_type":"three-arm-trial","trial_index":17,"time_elapsed":541685,"internal_node_id":"0.0-13.0-0.0","task_version":"screening-prolific","missing":false,"accuracy":1},{"contexts":["red","blue","green"],"outcomes":[0,0,1],"key":38,"choice":1,"rt":684.3799999998882,"outcome":0,"trial":8,"correct":2,"trial_type":"three-arm-trial","trial_index":18,"time_elapsed":543578,"internal_node_id":"0.0-14.0-0.0","task_version":"screening-prolific","missing":false,"accuracy":0},{"contexts":["red","blue","green"],"outcomes":[0,0,1],"key":37,"choice":0,"rt":479.2249999997439,"outcome":0,"trial":9,"correct":2,"trial_type":"three-arm-trial","trial_index":19,"time_elapsed":545261,"internal_node_id":"0.0-15.0-0.0","task_version":"screening-prolific","missing":false,"accuracy":0},{"contexts":["red","blue","green"],"outcomes":[0,0,1],"key":37,"choice":0,"rt":363.8949999999022,"outcome":0,"trial":10,"correct":2,"trial_type":"three-arm-trial","trial_index":20,"time_elapsed":546830,"internal_node_id":"0.0-16.0-0.0","task_version":"screening-prolific","missing":false,"accuracy":0},{"contexts":["red","blue","green"],"outcomes":[0,0,1],"key":39,"choice":2,"rt":475.30000000004657,"outcome":1,"trial":11,"correct":2,"trial_type":"three-arm-trial","trial_index":21,"time_elapsed":548509,"internal_node_id":"0.0-17.0-0.0","task_version":"screening-prolific","missing":false,"accuracy":1},{"contexts":["red","blue","green"],"outcomes":[0,0,1],"key":39,"choice":2,"rt":355.5000000001164,"outcome":1,"trial":12,"correct":2,"trial_type":"three-arm-trial","trial_index":22,"time_elapsed":550069,"internal_node_id":"0.0-18.0-0.0","task_version":"screening-prolific","missing":false,"accuracy":1},{"contexts":["red","blue","green"],"outcomes":[1,0,1],"key":39,"choice":2,"rt":355.464999999851,"outcome":1,"trial":13,"correct":2,"trial_type":"three-arm-trial","trial_index":23,"time_elapsed":551629,"internal_node_id":"0.0-19.0-0.0","task_version":"screening-prolific","missing":false,"accuracy":1},{"contexts":["red","blue","green"],"outcomes":[0,0,0],"key":39,"choice":2,"rt":419.97500000009313,"outcome":0,"trial":14,"correct":2,"trial_type":"three-arm-trial","trial_index":24,"time_elapsed":553253,"internal_node_id":"0.0-20.0-0.0","task_version":"screening-prolific","missing":false,"accuracy":1},{"contexts":["red","blue","green"],"outcomes":[0,0,0],"key":38,"choice":1,"rt":388.1250000001164,"outcome":0,"trial":15,"correct":2,"trial_type":"three-arm-trial","trial_index":25,"time_elapsed":554846,"internal_node_id":"0.0-21.0-0.0","task_version":"screening-prolific","missing":false,"accuracy":0},{"contexts":["red","blue","green"],"outcomes":[0,0,0],"key":38,"choice":1,"rt":371.50499999988824,"outcome":0,"trial":16,"correct":1,"trial_type":"three-arm-trial","trial_index":26,"time_elapsed":556421,"internal_node_id":"0.0-22.0-0.0","task_version":"screening-prolific","missing":false,"accuracy":1},{"contexts":["red","blue","green"],"outcomes":[0,1,0],"key":37,"choice":0,"rt":323.10999999998603,"outcome":0,"trial":17,"correct":1,"trial_type":"three-arm-trial","trial_index":27,"time_elapsed":557949,"internal_node_id":"0.0-23.0-0.0","task_version":"screening-prolific","missing":false,"accuracy":0},{"contexts":["red","blue","green"],"outcomes":[1,1,0],"key":39,"choice":2,"rt":36.28499999991618,"outcome":0,"trial":18,"correct":1,"trial_type":"three-arm-trial","trial_index":28,"time_elapsed":559190,"internal_node_id":"0.0-24.0-0.0","task_version":"screening-prolific","missing":false,"accuracy":0},{"contexts":["red","blue","green"],"outcomes":[0,1,0],"key":37,"choice":0,"rt":466.5600000000559,"outcome":0,"trial":19,"correct":1,"trial_type":"three-arm-trial","trial_index":29,"time_elapsed":560862,"internal_node_id":"0.0-25.0-0.0","task_version":"screening-prolific","missing":false,"accuracy":0},{"contexts":["red","blue","green"],"outcomes":[0,1,0],"key":38,"choice":1,"rt":291.43499999993946,"outcome":1,"trial":20,"correct":1,"trial_type":"three-arm-trial","trial_index":30,"time_elapsed":562358,"internal_node_id":"0.0-26.0-0.0","task_version":"screening-prolific","missing":false,"accuracy":1},{"contexts":["red","blue","green"],"outcomes":[0,0,0],"key":38,"choice":1,"rt":42.32499999983702,"outcome":0,"trial":21,"correct":1,"trial_type":"three-arm-trial","trial_index":31,"time_elapsed":563604,"internal_node_id":"0.0-27.0-0.0","task_version":"screening-prolific","missing":false,"accuracy":1},{"contexts":["red","blue","green"],"outcomes":[0,1,1],"key":39,"choice":2,"rt":11.275000000023283,"outcome":1,"trial":22,"correct":1,"trial_type":"three-arm-trial","trial_index":32,"time_elapsed":564821,"internal_node_id":"0.0-28.0-0.0","task_version":"screening-prolific","missing":false,"accuracy":0},{"contexts":["red","blue","green"],"outcomes":[0,1,0],"key":39,"choice":2,"rt":395.15999999979977,"outcome":0,"trial":23,"correct":1,"trial_type":"three-arm-trial","trial_index":33,"time_elapsed":566421,"internal_node_id":"0.0-29.0-0.0","task_version":"screening-prolific","missing":false,"accuracy":0},{"contexts":["red","blue","green"],"outcomes":[0,0,0],"key":37,"choice":0,"rt":324.21999999997206,"outcome":0,"trial":24,"correct":1,"trial_type":"three-arm-trial","trial_index":34,"time_elapsed":567949,"internal_node_id":"0.0-30.0-0.0","task_version":"screening-prolific","missing":false,"accuracy":0},{"contexts":["red","blue","green"],"outcomes":[0,1,0],"key":37,"choice":0,"rt":43.65000000002328,"outcome":0,"trial":25,"correct":1,"trial_type":"three-arm-trial","trial_index":35,"time_elapsed":569197,"internal_node_id":"0.0-31.0-0.0","task_version":"screening-prolific","missing":false,"accuracy":0},{"contexts":["red","blue","green"],"outcomes":[0,1,0],"key":37,"choice":0,"rt":163.54999999993015,"outcome":0,"trial":26,"correct":1,"trial_type":"three-arm-trial","trial_index":36,"time_elapsed":570564,"internal_node_id":"0.0-32.0-0.0","task_version":"screening-prolific","missing":false,"accuracy":0},{"contexts":["red","blue","green"],"outcomes":[1,1,0],"key":39,"choice":2,"rt":76.65500000002794,"outcome":0,"trial":27,"correct":1,"trial_type":"three-arm-trial","trial_index":37,"time_elapsed":571845,"internal_node_id":"0.0-33.0-0.0","task_version":"screening-prolific","missing":false,"accuracy":0},{"contexts":["red","blue","green"],"outcomes":[1,1,0],"key":38,"choice":1,"rt":107.7949999999255,"outcome":1,"trial":28,"correct":1,"trial_type":"three-arm-trial","trial_index":38,"time_elapsed":573157,"internal_node_id":"0.0-34.0-0.0","task_version":"screening-prolific","missing":false,"accuracy":1},{"contexts":["red","blue","green"],"outcomes":[0,0,0],"key":38,"choice":1,"rt":131.46500000020023,"outcome":0,"trial":29,"correct":1,"trial_type":"three-arm-trial","trial_index":39,"time_elapsed":574492,"internal_node_id":"0.0-35.0-0.0","task_version":"screening-prolific","missing":false,"accuracy":1},{"contexts":["red","blue","green"],"outcomes":[0,1,0],"key":39,"choice":2,"rt":204.7949999999255,"outcome":0,"trial":30,"correct":1,"trial_type":"three-arm-trial","trial_index":40,"time_elapsed":575901,"internal_node_id":"0.0-36.0-0.0","task_version":"screening-prolific","missing":false,"accuracy":0},{"contexts":["red","blue","green"],"outcomes":[0,1,1],"key":37,"choice":0,"rt":131.8850000000093,"outcome":0,"trial":31,"correct":2,"trial_type":"three-arm-trial","trial_index":41,"time_elapsed":577237,"internal_node_id":"0.0-37.0-0.0","task_version":"screening-prolific","missing":false,"accuracy":0},{"contexts":["red","blue","green"],"outcomes":[0,1,0],"key":39,"choice":2,"rt":51.13000000012107,"outcome":0,"trial":32,"correct":2,"trial_type":"three-arm-trial","trial_index":42,"time_elapsed":578493,"internal_node_id":"0.0-38.0-0.0","task_version":"screening-prolific","missing":false,"accuracy":1},{"contexts":["red","blue","green"],"outcomes":[0,0,1],"key":38,"choice":1,"rt":19.70500000019092,"outcome":0,"trial":33,"correct":2,"trial_type":"three-arm-trial","trial_index":43,"time_elapsed":579716,"internal_node_id":"0.0-39.0-0.0","task_version":"screening-prolific","missing":false,"accuracy":0},{"contexts":["red","blue","green"],"outcomes":[1,0,1],"key":39,"choice":2,"rt":236.82499999995343,"outcome":1,"trial":34,"correct":2,"trial_type":"three-arm-trial","trial_index":44,"time_elapsed":581157,"internal_node_id":"0.0-40.0-0.0","task_version":"screening-prolific","missing":false,"accuracy":1},{"contexts":["red","blue","green"],"outcomes":[0,0,1],"key":39,"choice":2,"rt":58.92999999993481,"outcome":1,"trial":35,"correct":2,"trial_type":"three-arm-trial","trial_index":45,"time_elapsed":582420,"internal_node_id":"0.0-41.0-0.0","task_version":"screening-prolific","missing":false,"accuracy":1},{"contexts":["red","blue","green"],"outcomes":[0,1,0],"key":39,"choice":2,"rt":68.78500000014901,"outcome":0,"trial":36,"correct":2,"trial_type":"three-arm-trial","trial_index":46,"time_elapsed":583693,"internal_node_id":"0.0-42.0-0.0","task_version":"screening-prolific","missing":false,"accuracy":1},{"contexts":["red","blue","green"],"outcomes":[0,0,0],"key":37,"choice":0,"rt":131.92499999993015,"outcome":0,"trial":37,"correct":2,"trial_type":"three-arm-trial","trial_index":47,"time_elapsed":585029,"internal_node_id":"0.0-43.0-0.0","task_version":"screening-prolific","missing":false,"accuracy":0},{"contexts":["red","blue","green"],"outcomes":[0,0,1],"key":37,"choice":0,"rt":115.20999999984633,"outcome":0,"trial":38,"correct":2,"trial_type":"three-arm-trial","trial_index":48,"time_elapsed":586348,"internal_node_id":"0.0-44.0-0.0","task_version":"screening-prolific","missing":false,"accuracy":0},{"contexts":["red","blue","green"],"outcomes":[0,1,0],"key":37,"choice":0,"rt":44.300000000046566,"outcome":0,"trial":39,"correct":2,"trial_type":"three-arm-trial","trial_index":49,"time_elapsed":587597,"internal_node_id":"0.0-45.0-0.0","task_version":"screening-prolific","missing":false,"accuracy":0},{"contexts":["red","blue","green"],"outcomes":[1,0,1],"key":38,"choice":1,"rt":284.10999999998603,"outcome":0,"trial":40,"correct":2,"trial_type":"three-arm-trial","trial_index":50,"time_elapsed":589084,"internal_node_id":"0.0-46.0-0.0","task_version":"screening-prolific","missing":false,"accuracy":0},{"contexts":["red","blue","green"],"outcomes":[0,0,1],"key":39,"choice":2,"rt":172.56999999994878,"outcome":1,"trial":41,"correct":2,"trial_type":"three-arm-trial","trial_index":51,"time_elapsed":590461,"internal_node_id":"0.0-47.0-0.0","task_version":"screening-prolific","missing":false,"accuracy":1},{"contexts":["red","blue","green"],"outcomes":[0,0,1],"key":38,"choice":1,"rt":59.48000000009779,"outcome":0,"trial":42,"correct":2,"trial_type":"three-arm-trial","trial_index":52,"time_elapsed":591725,"internal_node_id":"0.0-48.0-0.0","task_version":"screening-prolific","missing":false,"accuracy":0},{"contexts":["red","blue","green"],"outcomes":[0,0,0],"key":39,"choice":2,"rt":131.82500000018626,"outcome":0,"trial":43,"correct":2,"trial_type":"three-arm-trial","trial_index":53,"time_elapsed":593061,"internal_node_id":"0.0-49.0-0.0","task_version":"screening-prolific","missing":false,"accuracy":1},{"contexts":["red","blue","green"],"outcomes":[1,1,1],"key":37,"choice":0,"rt":4.130000000004657,"outcome":1,"trial":44,"correct":2,"trial_type":"three-arm-trial","trial_index":54,"time_elapsed":594268,"internal_node_id":"0.0-50.0-0.0","task_version":"screening-prolific","missing":false,"accuracy":0},{"contexts":["red","blue","green"],"outcomes":[1,0,1],"key":37,"choice":0,"rt":220.6950000001816,"outcome":1,"trial":45,"correct":2,"trial_type":"three-arm-trial","trial_index":55,"time_elapsed":595694,"internal_node_id":"0.0-51.0-0.0","task_version":"screening-prolific","missing":false,"accuracy":0},{"contexts":["red","blue","green"],"outcomes":[1,0,0],"key":37,"choice":0,"rt":27.505000000004657,"outcome":1,"trial":46,"correct":0,"trial_type":"three-arm-trial","trial_index":56,"time_elapsed":596926,"internal_node_id":"0.0-52.0-0.0","task_version":"screening-prolific","missing":false,"accuracy":1},{"contexts":["red","blue","green"],"outcomes":[1,1,0],"key":37,"choice":0,"rt":26.15999999991618,"outcome":1,"trial":47,"correct":0,"trial_type":"three-arm-trial","trial_index":57,"time_elapsed":598157,"internal_node_id":"0.0-53.0-0.0","task_version":"screening-prolific","missing":false,"accuracy":1},{"contexts":["red","blue","green"],"outcomes":[0,0,0],"key":37,"choice":0,"rt":83.73500000010245,"outcome":0,"trial":48,"correct":0,"trial_type":"three-arm-trial","trial_index":58,"time_elapsed":599445,"internal_node_id":"0.0-54.0-0.0","task_version":"screening-prolific","missing":false,"accuracy":1},{"contexts":["red","blue","green"],"outcomes":[0,0,0],"key":38,"choice":1,"rt":91.9749999998603,"outcome":0,"trial":49,"correct":0,"trial_type":"three-arm-trial","trial_index":59,"time_elapsed":600740,"internal_node_id":"0.0-55.0-0.0","task_version":"screening-prolific","missing":false,"accuracy":0},{"contexts":["red","blue","green"],"outcomes":[1,0,0],"key":39,"choice":2,"rt":243.7950000000419,"outcome":0,"trial":50,"correct":0,"trial_type":"three-arm-trial","trial_index":60,"time_elapsed":602188,"internal_node_id":"0.0-56.0-0.0","task_version":"screening-prolific","missing":false,"accuracy":0},{"contexts":["red","blue","green"],"outcomes":[1,0,0],"key":38,"choice":1,"rt":243.52000000001863,"outcome":0,"trial":51,"correct":0,"trial_type":"three-arm-trial","trial_index":61,"time_elapsed":603637,"internal_node_id":"0.0-57.0-0.0","task_version":"screening-prolific","missing":false,"accuracy":0},{"contexts":["red","blue","green"],"outcomes":[1,1,0],"key":38,"choice":1,"rt":371.5200000000186,"outcome":1,"trial":52,"correct":0,"trial_type":"three-arm-trial","trial_index":62,"time_elapsed":605213,"internal_node_id":"0.0-58.0-0.0","task_version":"screening-prolific","missing":false,"accuracy":0},{"contexts":["red","blue","green"],"outcomes":[1,1,0],"key":38,"choice":1,"rt":115.75500000000466,"outcome":1,"trial":53,"correct":0,"trial_type":"three-arm-trial","trial_index":63,"time_elapsed":606532,"internal_node_id":"0.0-59.0-0.0","task_version":"screening-prolific","missing":false,"accuracy":0},{"contexts":["red","blue","green"],"outcomes":[1,1,1],"key":38,"choice":1,"rt":84.19999999995343,"outcome":1,"trial":54,"correct":0,"trial_type":"three-arm-trial","trial_index":64,"time_elapsed":607820,"internal_node_id":"0.0-60.0-0.0","task_version":"screening-prolific","missing":false,"accuracy":0},{"contexts":["red","blue","green"],"outcomes":[0,0,0],"key":39,"choice":2,"rt":108.5350000000326,"outcome":0,"trial":55,"correct":0,"trial_type":"three-arm-trial","trial_index":65,"time_elapsed":609133,"internal_node_id":"0.0-61.0-0.0","task_version":"screening-prolific","missing":false,"accuracy":0},{"contexts":["red","blue","green"],"outcomes":[1,0,0],"key":38,"choice":1,"rt":163.5099999998929,"outcome":0,"trial":56,"correct":0,"trial_type":"three-arm-trial","trial_index":66,"time_elapsed":610501,"internal_node_id":"0.0-62.0-0.0","task_version":"screening-prolific","missing":false,"accuracy":0},{"contexts":["red","blue","green"],"outcomes":[1,0,0],"key":37,"choice":0,"rt":275.1450000000186,"outcome":1,"trial":57,"correct":0,"trial_type":"three-arm-trial","trial_index":67,"time_elapsed":611981,"internal_node_id":"0.0-63.0-0.0","task_version":"screening-prolific","missing":false,"accuracy":1},{"contexts":["red","blue","green"],"outcomes":[1,0,0],"key":37,"choice":0,"rt":35.635000000242144,"outcome":1,"trial":58,"correct":0,"trial_type":"three-arm-trial","trial_index":68,"time_elapsed":613220,"internal_node_id":"0.0-64.0-0.0","task_version":"screening-prolific","missing":false,"accuracy":1},{"contexts":["red","blue","green"],"outcomes":[1,0,0],"key":37,"choice":0,"rt":36.52500000002328,"outcome":1,"trial":59,"correct":0,"trial_type":"three-arm-trial","trial_index":69,"time_elapsed":614461,"internal_node_id":"0.0-65.0-0.0","task_version":"screening-prolific","missing":false,"accuracy":1},{"contexts":["red","blue","green"],"outcomes":[1,0,1],"key":37,"choice":0,"rt":123.85499999986496,"outcome":1,"trial":60,"correct":0,"trial_type":"three-arm-trial","trial_index":70,"time_elapsed":615788,"internal_node_id":"0.0-66.0-0.0","task_version":"screening-prolific","missing":false,"accuracy":1},{"contexts":["red","blue","green"],"outcomes":[0,0,1],"key":37,"choice":0,"rt":212.00499999988824,"outcome":0,"trial":61,"correct":2,"trial_type":"three-arm-trial","trial_index":71,"time_elapsed":617206,"internal_node_id":"0.0-67.0-0.0","task_version":"screening-prolific","missing":false,"accuracy":0},{"contexts":["red","blue","green"],"outcomes":[0,0,1],"key":39,"choice":2,"rt":66.55999999993946,"outcome":1,"trial":62,"correct":2,"trial_type":"three-arm-trial","trial_index":72,"time_elapsed":618477,"internal_node_id":"0.0-68.0-0.0","task_version":"screening-prolific","missing":false,"accuracy":1},{"contexts":["red","blue","green"],"outcomes":[0,1,1],"key":39,"choice":2,"rt":107.23999999999069,"outcome":1,"trial":63,"correct":2,"trial_type":"three-arm-trial","trial_index":73,"time_elapsed":619789,"internal_node_id":"0.0-69.0-0.0","task_version":"screening-prolific","missing":false,"accuracy":1},{"contexts":["red","blue","green"],"outcomes":[1,1,1],"key":39,"choice":2,"rt":4.439999999827705,"outcome":1,"trial":64,"correct":2,"trial_type":"three-arm-trial","trial_index":74,"time_elapsed":620999,"internal_node_id":"0.0-70.0-0.0","task_version":"screening-prolific","missing":false,"accuracy":1},{"contexts":["red","blue","green"],"outcomes":[1,0,1],"key":39,"choice":2,"rt":10.084999999846332,"outcome":1,"trial":65,"correct":2,"trial_type":"three-arm-trial","trial_index":75,"time_elapsed":622212,"internal_node_id":"0.0-71.0-0.0","task_version":"screening-prolific","missing":false,"accuracy":1},{"contexts":["red","blue","green"],"outcomes":[0,0,1],"key":39,"choice":2,"rt":116.43999999994412,"outcome":1,"trial":66,"correct":2,"trial_type":"three-arm-trial","trial_index":76,"time_elapsed":623533,"internal_node_id":"0.0-72.0-0.0","task_version":"screening-prolific","missing":false,"accuracy":1},{"contexts":["red","blue","green"],"outcomes":[0,1,1],"key":39,"choice":2,"rt":179.7300000000978,"outcome":1,"trial":67,"correct":2,"trial_type":"three-arm-trial","trial_index":77,"time_elapsed":624917,"internal_node_id":"0.0-73.0-0.0","task_version":"screening-prolific","missing":false,"accuracy":1},{"contexts":["red","blue","green"],"outcomes":[0,1,1],"key":39,"choice":2,"rt":19.35500000009779,"outcome":1,"trial":68,"correct":2,"trial_type":"three-arm-trial","trial_index":78,"time_elapsed":626141,"internal_node_id":"0.0-74.0-0.0","task_version":"screening-prolific","missing":false,"accuracy":1},{"contexts":["red","blue","green"],"outcomes":[0,0,0],"key":39,"choice":2,"rt":179.49999999988358,"outcome":0,"trial":69,"correct":2,"trial_type":"three-arm-trial","trial_index":79,"time_elapsed":627524,"internal_node_id":"0.0-75.0-0.0","task_version":"screening-prolific","missing":false,"accuracy":1},{"contexts":["red","blue","green"],"outcomes":[0,0,0],"key":38,"choice":1,"rt":202.56999999994878,"outcome":0,"trial":70,"correct":2,"trial_type":"three-arm-trial","trial_index":80,"time_elapsed":628932,"internal_node_id":"0.0-76.0-0.0","task_version":"screening-prolific","missing":false,"accuracy":0},{"contexts":["red","blue","green"],"outcomes":[0,0,1],"key":38,"choice":1,"rt":292.05999999993946,"outcome":0,"trial":71,"correct":2,"trial_type":"three-arm-trial","trial_index":81,"time_elapsed":630429,"internal_node_id":"0.0-77.0-0.0","task_version":"screening-prolific","missing":false,"accuracy":0},{"contexts":["red","blue","green"],"outcomes":[0,0,1],"key":38,"choice":1,"rt":282.785000000149,"outcome":0,"trial":72,"correct":2,"trial_type":"three-arm-trial","trial_index":82,"time_elapsed":631916,"internal_node_id":"0.0-78.0-0.0","task_version":"screening-prolific","missing":false,"accuracy":0},{"contexts":["red","blue","green"],"outcomes":[0,0,1],"key":37,"choice":0,"rt":164.47499999997672,"outcome":0,"trial":73,"correct":2,"trial_type":"three-arm-trial","trial_index":83,"time_elapsed":633285,"internal_node_id":"0.0-79.0-0.0","task_version":"screening-prolific","missing":false,"accuracy":0},{"contexts":["red","blue","green"],"outcomes":[0,0,1],"key":39,"choice":2,"rt":140.05000000004657,"outcome":1,"trial":74,"correct":2,"trial_type":"three-arm-trial","trial_index":84,"time_elapsed":634628,"internal_node_id":"0.0-80.0-0.0","task_version":"screening-prolific","missing":false,"accuracy":1},{"contexts":["red","blue","green"],"outcomes":[0,0,1],"key":37,"choice":0,"rt":260.0350000000326,"outcome":0,"trial":75,"correct":2,"trial_type":"three-arm-trial","trial_index":85,"time_elapsed":636092,"internal_node_id":"0.0-81.0-0.0","task_version":"screening-prolific","missing":false,"accuracy":0},{"contexts":["red","blue","green"],"outcomes":[1,0,0],"key":39,"choice":2,"rt":124.4550000000745,"outcome":0,"trial":76,"correct":0,"trial_type":"three-arm-trial","trial_index":86,"time_elapsed":637420,"internal_node_id":"0.0-82.0-0.0","task_version":"screening-prolific","missing":false,"accuracy":0},{"contexts":["red","blue","green"],"outcomes":[1,1,1],"key":38,"choice":1,"rt":27.494999999995343,"outcome":1,"trial":77,"correct":0,"trial_type":"three-arm-trial","trial_index":87,"time_elapsed":638652,"internal_node_id":"0.0-83.0-0.0","task_version":"screening-prolific","missing":false,"accuracy":0},{"contexts":["red","blue","green"],"outcomes":[0,1,1],"key":38,"choice":1,"rt":252.7399999999907,"outcome":1,"trial":78,"correct":0,"trial_type":"three-arm-trial","trial_index":88,"time_elapsed":640109,"internal_node_id":"0.0-84.0-0.0","task_version":"screening-prolific","missing":false,"accuracy":0},{"contexts":["red","blue","green"],"outcomes":[1,0,1],"key":38,"choice":1,"rt":155.23499999986961,"outcome":0,"trial":79,"correct":0,"trial_type":"three-arm-trial","trial_index":89,"time_elapsed":641468,"internal_node_id":"0.0-85.0-0.0","task_version":"screening-prolific","missing":false,"accuracy":0},{"contexts":["red","blue","green"],"outcomes":[1,0,0],"key":37,"choice":0,"rt":76.27000000001863,"outcome":1,"trial":80,"correct":0,"trial_type":"three-arm-trial","trial_index":90,"time_elapsed":642749,"internal_node_id":"0.0-86.0-0.0","task_version":"screening-prolific","missing":false,"accuracy":1},{"contexts":["red","blue","green"],"outcomes":[1,1,0],"key":39,"choice":2,"rt":123.66500000003725,"outcome":0,"trial":81,"correct":0,"trial_type":"three-arm-trial","trial_index":91,"time_elapsed":644076,"internal_node_id":"0.0-87.0-0.0","task_version":"screening-prolific","missing":false,"accuracy":0},{"contexts":["red","blue","green"],"outcomes":[0,0,0],"key":37,"choice":0,"rt":204.5549999998184,"outcome":0,"trial":82,"correct":0,"trial_type":"three-arm-trial","trial_index":92,"time_elapsed":645485,"internal_node_id":"0.0-88.0-0.0","task_version":"screening-prolific","missing":false,"accuracy":1},{"contexts":["red","blue","green"],"outcomes":[1,0,1],"key":38,"choice":1,"rt":91.30999999993946,"outcome":0,"trial":83,"correct":0,"trial_type":"three-arm-trial","trial_index":93,"time_elapsed":646780,"internal_node_id":"0.0-89.0-0.0","task_version":"screening-prolific","missing":false,"accuracy":0},{"contexts":["red","blue","green"],"outcomes":[1,0,0],"key":39,"choice":2,"rt":260.29000000015367,"outcome":0,"trial":84,"correct":0,"trial_type":"three-arm-trial","trial_index":94,"time_elapsed":648245,"internal_node_id":"0.0-90.0-0.0","task_version":"screening-prolific","missing":false,"accuracy":0},{"contexts":["red","blue","green"],"outcomes":[1,0,1],"key":37,"choice":0,"rt":51.71500000008382,"outcome":1,"trial":85,"correct":0,"trial_type":"three-arm-trial","trial_index":95,"time_elapsed":649501,"internal_node_id":"0.0-91.0-0.0","task_version":"screening-prolific","missing":false,"accuracy":1},{"contexts":["red","blue","green"],"outcomes":[1,1,0],"key":37,"choice":0,"rt":75.76500000013039,"outcome":1,"trial":86,"correct":0,"trial_type":"three-arm-trial","trial_index":96,"time_elapsed":650780,"internal_node_id":"0.0-92.0-0.0","task_version":"screening-prolific","missing":false,"accuracy":1},{"contexts":["red","blue","green"],"outcomes":[1,0,0],"key":38,"choice":1,"rt":252.74999999988358,"outcome":0,"trial":87,"correct":0,"trial_type":"three-arm-trial","trial_index":97,"time_elapsed":652236,"internal_node_id":"0.0-93.0-0.0","task_version":"screening-prolific","missing":false,"accuracy":0},{"contexts":["red","blue","green"],"outcomes":[1,1,0],"key":39,"choice":2,"rt":188.31999999994878,"outcome":0,"trial":88,"correct":0,"trial_type":"three-arm-trial","trial_index":98,"time_elapsed":653629,"internal_node_id":"0.0-94.0-0.0","task_version":"screening-prolific","missing":false,"accuracy":0},{"contexts":["red","blue","green"],"outcomes":[1,0,0],"key":37,"choice":0,"rt":124.00000000011642,"outcome":1,"trial":89,"correct":0,"trial_type":"three-arm-trial","trial_index":99,"time_elapsed":654957,"internal_node_id":"0.0-95.0-0.0","task_version":"screening-prolific","missing":false,"accuracy":1},{"contexts":["red","blue","green"],"outcomes":[0,1,0],"key":37,"choice":0,"rt":131.875,"outcome":0,"trial":90,"correct":0,"trial_type":"three-arm-trial","trial_index":100,"time_elapsed":656292,"internal_node_id":"0.0-96.0-0.0","task_version":"screening-prolific","missing":false,"accuracy":1},{"rt":24689.249999999884,"responses":{"age":"28","gender-categorical":"Male","gender-free-response":"","ethnicity":"Not Hispanic or Latino","race":["White"],"language":"Yes","fluency":"Very well","mturk":"No","mturk-this-study":"No"},"survey":"demographics","trial_type":"survey-demo","trial_index":101,"time_elapsed":680986,"internal_node_id":"0.0-97.0","task_version":"screening-prolific","interactions":"[{\"event\":\"focus\",\"trial\":0,\"time\":43610},{\"event\":\"blur\",\"trial\":0,\"time\":71200},{\"event\":\"focus\",\"trial\":0,\"time\":71952},{\"event\":\"blur\",\"trial\":0,\"time\":74087},{\"event\":\"focus\",\"trial\":0,\"time\":111088},{\"event\":\"blur\",\"trial\":0,\"time\":114247},{\"event\":\"focus\",\"trial\":0,\"time\":118059},{\"event\":\"blur\",\"trial\":0,\"time\":124009},{\"event\":\"focus\",\"trial\":0,\"time\":124508},{\"event\":\"blur\",\"trial\":1,\"time\":129134},{\"event\":\"focus\",\"trial\":1,\"time\":136107},{\"event\":\"blur\",\"trial\":2,\"time\":225981},{\"event\":\"focus\",\"trial\":2,\"time\":227195},{\"event\":\"blur\",\"trial\":2,\"time\":229633},{\"event\":\"focus\",\"trial\":2,\"time\":235963}]"}]