[{"responses":{"Q09":"1","Q13":"1","Q01":"1","Q02":"1","Q12":"1","Q11":"1","Q08":"0","Q10":"1","Q07":"1","Q06":"1","Q04":"1","Q03":"1","Q05":"1","Q14":"1","Q15":"0"},"rt":62438.98000003537,"survey":"7up7down","trial_type":"survey-template","trial_index":0,"time_elapsed":62453,"internal_node_id":"0.0-0.0","task_version":"screening-prolific"},{"responses":{"Q05":"1","Q01":"1","Q08":"0","Q03":"1","Q04":"1","Q06":"1","Q07":"1","Q02":"1"},"rt":31888.77499999944,"survey":"gad7","trial_type":"survey-template","trial_index":1,"time_elapsed":94349,"internal_node_id":"0.0-1.0","task_version":"screening-prolific"},{"responses":{"Q02":"1","Q03":"1","Q01":"1"},"rt":12253.324999997858,"survey":"pswq","trial_type":"survey-template","trial_index":2,"time_elapsed":106606,"internal_node_id":"0.0-2.0","task_version":"screening-prolific"},{"responses":{"Q06":"2","Q10":"2","Q05":"2","Q07":"2","Q03":"2","Q04":"2","Q02":"2","Q15":"2","Q01":"2","Q08":"2","Q12":"2","Q13":"2","Q14":"2","Q11":"2","Q09":"2"},"rt":38999.65999997221,"survey":"shaps","trial_type":"survey-template","trial_index":3,"time_elapsed":145612,"internal_node_id":"0.0-3.0","task_version":"screening-prolific"},{"responses":{"Q12":"1","Q13":"2","Q05":"2","Q09":"2","Q01":"1","Q11":"2","Q02":"1","Q03":"2","Q10":"2","Q08":"2","Q04":"2","Q06":"2","Q07":"2"},"rt":45209.550000028685,"survey":"bisbas","trial_type":"survey-template","trial_index":4,"time_elapsed":190827,"internal_node_id":"0.0-4.0","task_version":"screening-prolific"},{"view_history":"[{\"page_index\":0,\"viewing_time\":9146.565000002738},{\"page_index\":1,\"viewing_time\":11274.724999966566},{\"page_index\":2,\"viewing_time\":8611.940000031609},{\"page_index\":3,\"viewing_time\":6307.900000014342},{\"page_index\":4,\"viewing_time\":16667.83499997109},{\"page_index\":5,\"viewing_time\":4151.925000012852},{\"page_index\":4,\"viewing_time\":1777.925000002142},{\"page_index\":5,\"viewing_time\":3933.9649999747053},{\"page_index\":6,\"viewing_time\":2741.9349999981932},{\"page_index\":7,\"viewing_time\":7186.32500001695}]","rt":71802.64999996871,"trial_type":"instructions","trial_index":5,"time_elapsed":262632,"internal_node_id":"0.0-5.0-0.0","task_version":"screening-prolific"},{"responses":["True","True","False","False","True"],"num_errors":0,"rt":23888.480000023264,"trial_type":"three-arm-comprehension","trial_index":6,"time_elapsed":286527,"internal_node_id":"0.0-5.0-1.0","task_version":"screening-prolific"},{"view_history":"[{\"page_index\":0,\"viewing_time\":2305.3849999560043}]","rt":2305.739999981597,"trial_type":"instructions","trial_index":7,"time_elapsed":288838,"internal_node_id":"0.0-6.0","task_version":"screening-prolific"},{"contexts":["green","blue","red"],"outcomes":[1,0,1],"key":38,"choice":1,"rt":6835.054999974091,"outcome":0,"trial":1,"correct":2,"trial_type":"three-arm-trial","trial_index":8,"time_elapsed":296880,"internal_node_id":"0.0-7.0-0.0","task_version":"screening-prolific","missing":false,"accuracy":0},{"contexts":["green","blue","red"],"outcomes":[1,0,1],"key":38,"choice":1,"rt":1981.4050000277348,"outcome":0,"trial":2,"correct":2,"trial_type":"three-arm-trial","trial_index":9,"time_elapsed":300072,"internal_node_id":"0.0-8.0-0.0","task_version":"screening-prolific","missing":false,"accuracy":0},{"contexts":["green","blue","red"],"outcomes":[0,0,1],"key":37,"choice":0,"rt":798.7149999826215,"outcome":0,"trial":3,"correct":2,"trial_type":"three-arm-trial","trial_index":10,"time_elapsed":302081,"internal_node_id":"0.0-9.0-0.0","task_version":"screening-prolific","missing":false,"accuracy":0},{"contexts":["green","blue","red"],"outcomes":[0,0,1],"key":38,"choice":1,"rt":1316.5099999750964,"outcome":0,"trial":4,"correct":2,"trial_type":"three-arm-trial","trial_index":11,"time_elapsed":304608,"internal_node_id":"0.0-10.0-0.0","task_version":"screening-prolific","missing":false,"accuracy":0},{"contexts":["green","blue","red"],"outcomes":[0,1,1],"key":39,"choice":2,"rt":15.524999995250255,"outcome":1,"trial":5,"correct":2,"trial_type":"three-arm-trial","trial_index":12,"time_elapsed":305831,"internal_node_id":"0.0-11.0-0.0","task_version":"screening-prolific","missing":false,"accuracy":1},{"contexts":["green","blue","red"],"outcomes":[0,0,1],"key":39,"choice":2,"rt":489.6400000434369,"outcome":1,"trial":6,"correct":2,"trial_type":"three-arm-trial","trial_index":13,"time_elapsed":307529,"internal_node_id":"0.0-12.0-0.0","task_version":"screening-prolific","missing":false,"accuracy":1},{"contexts":["green","blue","red"],"outcomes":[0,0,1],"key":39,"choice":2,"rt":352.66500001307577,"outcome":1,"trial":7,"correct":2,"trial_type":"three-arm-trial","trial_index":14,"time_elapsed":309091,"internal_node_id":"0.0-13.0-0.0","task_version":"screening-prolific","missing":false,"accuracy":1},{"contexts":["green","blue","red"],"outcomes":[0,0,0],"key":39,"choice":2,"rt":171.94000002928078,"outcome":0,"trial":8,"correct":2,"trial_type":"three-arm-trial","trial_index":15,"time_elapsed":310470,"internal_node_id":"0.0-14.0-0.0","task_version":"screening-prolific","missing":false,"accuracy":1},{"contexts":["green","blue","red"],"outcomes":[1,0,1],"key":39,"choice":2,"rt":504.19499998679385,"outcome":1,"trial":9,"correct":2,"trial_type":"three-arm-trial","trial_index":16,"time_elapsed":312182,"internal_node_id":"0.0-15.0-0.0","task_version":"screening-prolific","missing":false,"accuracy":1},{"contexts":["green","blue","red"],"outcomes":[0,1,1],"key":39,"choice":2,"rt":300.6200000527315,"outcome":1,"trial":10,"correct":2,"trial_type":"three-arm-trial","trial_index":17,"time_elapsed":313688,"internal_node_id":"0.0-16.0-0.0","task_version":"screening-prolific","missing":false,"accuracy":1},{"contexts":["green","blue","red"],"outcomes":[0,1,1],"key":39,"choice":2,"rt":551.0699999867938,"outcome":1,"trial":11,"correct":2,"trial_type":"three-arm-trial","trial_index":18,"time_elapsed":315451,"internal_node_id":"0.0-17.0-0.0","task_version":"screening-prolific","missing":false,"accuracy":1},{"contexts":["green","blue","red"],"outcomes":[0,0,1],"key":39,"choice":2,"rt":631.3949999748729,"outcome":1,"trial":12,"correct":2,"trial_type":"three-arm-trial","trial_index":19,"time_elapsed":317292,"internal_node_id":"0.0-18.0-0.0","task_version":"screening-prolific","missing":false,"accuracy":1},{"contexts":["green","blue","red"],"outcomes":[0,0,1],"key":39,"choice":2,"rt":397.0949999638833,"outcome":1,"trial":13,"correct":2,"trial_type":"three-arm-trial","trial_index":20,"time_elapsed":318894,"internal_node_id":"0.0-19.0-0.0","task_version":"screening-prolific","missing":false,"accuracy":1},{"contexts":["green","blue","red"],"outcomes":[0,1,1],"key":39,"choice":2,"rt":679.6249999897555,"outcome":1,"trial":14,"correct":2,"trial_type":"three-arm-trial","trial_index":21,"time_elapsed":320783,"internal_node_id":"0.0-20.0-0.0","task_version":"screening-prolific","missing":false,"accuracy":1},{"contexts":["green","blue","red"],"outcomes":[0,1,1],"key":39,"choice":2,"rt":285.1500000106171,"outcome":1,"trial":15,"correct":2,"trial_type":"three-arm-trial","trial_index":22,"time_elapsed":322274,"internal_node_id":"0.0-21.0-0.0","task_version":"screening-prolific","missing":false,"accuracy":1},{"contexts":["green","blue","red"],"outcomes":[1,0,1],"key":39,"choice":2,"rt":120.23000000044703,"outcome":1,"trial":16,"correct":0,"trial_type":"three-arm-trial","trial_index":23,"time_elapsed":323602,"internal_node_id":"0.0-22.0-0.0","task_version":"screening-prolific","missing":false,"accuracy":0},{"contexts":["green","blue","red"],"outcomes":[1,0,0],"key":39,"choice":2,"rt":691.8949999962933,"outcome":0,"trial":17,"correct":0,"trial_type":"three-arm-trial","trial_index":24,"time_elapsed":325501,"internal_node_id":"0.0-23.0-0.0","task_version":"screening-prolific","missing":false,"accuracy":0},{"contexts":["green","blue","red"],"outcomes":[0,0,1],"key":39,"choice":2,"rt":254.65000001713634,"outcome":1,"trial":18,"correct":0,"trial_type":"three-arm-trial","trial_index":25,"time_elapsed":326965,"internal_node_id":"0.0-24.0-0.0","task_version":"screening-prolific","missing":false,"accuracy":0},{"contexts":["green","blue","red"],"outcomes":[1,0,0],"key":39,"choice":2,"rt":224.70999998040497,"outcome":0,"trial":19,"correct":0,"trial_type":"three-arm-trial","trial_index":26,"time_elapsed":328398,"internal_node_id":"0.0-25.0-0.0","task_version":"screening-prolific","missing":false,"accuracy":0},{"contexts":["green","blue","red"],"outcomes":[0,0,0],"key":37,"choice":0,"rt":238.01500000990927,"outcome":0,"trial":20,"correct":0,"trial_type":"three-arm-trial","trial_index":27,"time_elapsed":329843,"internal_node_id":"0.0-26.0-0.0","task_version":"screening-prolific","missing":false,"accuracy":1},{"contexts":["green","blue","red"],"outcomes":[1,0,0],"key":38,"choice":1,"rt":557.7199999825098,"outcome":0,"trial":21,"correct":0,"trial_type":"three-arm-trial","trial_index":28,"time_elapsed":331609,"internal_node_id":"0.0-27.0-0.0","task_version":"screening-prolific","missing":false,"accuracy":0},{"contexts":["green","blue","red"],"outcomes":[1,1,0],"key":39,"choice":2,"rt":202.35999999567866,"outcome":0,"trial":22,"correct":0,"trial_type":"three-arm-trial","trial_index":29,"time_elapsed":333016,"internal_node_id":"0.0-28.0-0.0","task_version":"screening-prolific","missing":false,"accuracy":0},{"contexts":["green","blue","red"],"outcomes":[0,0,0],"key":39,"choice":2,"rt":89.81999999377877,"outcome":0,"trial":23,"correct":0,"trial_type":"three-arm-trial","trial_index":30,"time_elapsed":334316,"internal_node_id":"0.0-29.0-0.0","task_version":"screening-prolific","missing":false,"accuracy":0},{"contexts":["green","blue","red"],"outcomes":[1,0,0],"key":38,"choice":1,"rt":375.7300000288524,"outcome":0,"trial":24,"correct":0,"trial_type":"three-arm-trial","trial_index":31,"time_elapsed":335902,"internal_node_id":"0.0-30.0-0.0","task_version":"screening-prolific","missing":false,"accuracy":0},{"contexts":["green","blue","red"],"outcomes":[1,0,0],"key":37,"choice":0,"rt":32.31500001857057,"outcome":1,"trial":25,"correct":0,"trial_type":"three-arm-trial","trial_index":32,"time_elapsed":337143,"internal_node_id":"0.0-31.0-0.0","task_version":"screening-prolific","missing":false,"accuracy":1},{"contexts":["green","blue","red"],"outcomes":[1,1,0],"key":37,"choice":0,"rt":534.0950000099838,"outcome":1,"trial":26,"correct":0,"trial_type":"three-arm-trial","trial_index":33,"time_elapsed":338887,"internal_node_id":"0.0-32.0-0.0","task_version":"screening-prolific","missing":false,"accuracy":1},{"contexts":["green","blue","red"],"outcomes":[1,0,0],"key":37,"choice":0,"rt":183.95500001497567,"outcome":1,"trial":27,"correct":0,"trial_type":"three-arm-trial","trial_index":34,"time_elapsed":340281,"internal_node_id":"0.0-33.0-0.0","task_version":"screening-prolific","missing":false,"accuracy":1},{"contexts":["green","blue","red"],"outcomes":[1,0,0],"key":37,"choice":0,"rt":701.9999999902211,"outcome":1,"trial":28,"correct":0,"trial_type":"three-arm-trial","trial_index":35,"time_elapsed":342192,"internal_node_id":"0.0-34.0-0.0","task_version":"screening-prolific","missing":false,"accuracy":1},{"contexts":["green","blue","red"],"outcomes":[0,0,0],"key":37,"choice":0,"rt":345.16500000609085,"outcome":0,"trial":29,"correct":0,"trial_type":"three-arm-trial","trial_index":36,"time_elapsed":343743,"internal_node_id":"0.0-35.0-0.0","task_version":"screening-prolific","missing":false,"accuracy":1},{"contexts":["green","blue","red"],"outcomes":[1,0,0],"key":39,"choice":2,"rt":497.5400000112131,"outcome":0,"trial":30,"correct":0,"trial_type":"three-arm-trial","trial_index":37,"time_elapsed":345447,"internal_node_id":"0.0-36.0-0.0","task_version":"screening-prolific","missing":false,"accuracy":0},{"contexts":["green","blue","red"],"outcomes":[0,1,0],"key":38,"choice":1,"rt":65.2000000118278,"outcome":1,"trial":31,"correct":1,"trial_type":"three-arm-trial","trial_index":38,"time_elapsed":346720,"internal_node_id":"0.0-37.0-0.0","task_version":"screening-prolific","missing":false,"accuracy":1},{"contexts":["green","blue","red"],"outcomes":[0,1,0],"key":38,"choice":1,"rt":631.7799999960698,"outcome":1,"trial":32,"correct":1,"trial_type":"three-arm-trial","trial_index":39,"time_elapsed":348561,"internal_node_id":"0.0-38.0-0.0","task_version":"screening-prolific","missing":false,"accuracy":1},{"contexts":["green","blue","red"],"outcomes":[0,1,0],"key":38,"choice":1,"rt":241.32500000996515,"outcome":1,"trial":33,"correct":1,"trial_type":"three-arm-trial","trial_index":40,"time_elapsed":350011,"internal_node_id":"0.0-39.0-0.0","task_version":"screening-prolific","missing":false,"accuracy":1},{"contexts":["green","blue","red"],"outcomes":[0,1,0],"key":38,"choice":1,"rt":47.74499998893589,"outcome":1,"trial":34,"correct":1,"trial_type":"three-arm-trial","trial_index":41,"time_elapsed":351267,"internal_node_id":"0.0-40.0-0.0","task_version":"screening-prolific","missing":false,"accuracy":1},{"contexts":["green","blue","red"],"outcomes":[0,1,0],"key":38,"choice":1,"rt":197.87999999243766,"outcome":1,"trial":35,"correct":1,"trial_type":"three-arm-trial","trial_index":42,"time_elapsed":352671,"internal_node_id":"0.0-41.0-0.0","task_version":"screening-prolific","missing":false,"accuracy":1},{"contexts":["green","blue","red"],"outcomes":[0,1,0],"key":38,"choice":1,"rt":284.58499995758757,"outcome":1,"trial":36,"correct":1,"trial_type":"three-arm-trial","trial_index":43,"time_elapsed":354163,"internal_node_id":"0.0-42.0-0.0","task_version":"screening-prolific","missing":false,"accuracy":1},{"contexts":["green","blue","red"],"outcomes":[0,1,0],"key":38,"choice":1,"rt":144.83000000473112,"outcome":1,"trial":37,"correct":1,"trial_type":"three-arm-trial","trial_index":44,"time_elapsed":355517,"internal_node_id":"0.0-43.0-0.0","task_version":"screening-prolific","missing":false,"accuracy":1},{"contexts":["green","blue","red"],"outcomes":[0,1,1],"key":38,"choice":1,"rt":145.58499999111518,"outcome":1,"trial":38,"correct":1,"trial_type":"three-arm-trial","trial_index":45,"time_elapsed":356871,"internal_node_id":"0.0-44.0-0.0","task_version":"screening-prolific","missing":false,"accuracy":1},{"contexts":["green","blue","red"],"outcomes":[0,1,0],"key":38,"choice":1,"rt":88.9399999869056,"outcome":1,"trial":39,"correct":1,"trial_type":"three-arm-trial","trial_index":46,"time_elapsed":358168,"internal_node_id":"0.0-45.0-0.0","task_version":"screening-prolific","missing":false,"accuracy":1},{"contexts":["green","blue","red"],"outcomes":[0,1,0],"key":38,"choice":1,"rt":94.2899999790825,"outcome":1,"trial":40,"correct":1,"trial_type":"three-arm-trial","trial_index":47,"time_elapsed":359469,"internal_node_id":"0.0-46.0-0.0","task_version":"screening-prolific","missing":false,"accuracy":1},{"contexts":["green","blue","red"],"outcomes":[0,1,0],"key":38,"choice":1,"rt":17.29500002693385,"outcome":1,"trial":41,"correct":1,"trial_type":"three-arm-trial","trial_index":48,"time_elapsed":360694,"internal_node_id":"0.0-47.0-0.0","task_version":"screening-prolific","missing":false,"accuracy":1},{"contexts":["green","blue","red"],"outcomes":[0,1,0],"key":38,"choice":1,"rt":881.9850000436418,"outcome":1,"trial":42,"correct":1,"trial_type":"three-arm-trial","trial_index":49,"time_elapsed":362780,"internal_node_id":"0.0-48.0-0.0","task_version":"screening-prolific","missing":false,"accuracy":1},{"contexts":["green","blue","red"],"outcomes":[0,1,0],"key":38,"choice":1,"rt":271.20499999728054,"outcome":1,"trial":43,"correct":1,"trial_type":"three-arm-trial","trial_index":50,"time_elapsed":364256,"internal_node_id":"0.0-49.0-0.0","task_version":"screening-prolific","missing":false,"accuracy":1},{"contexts":["green","blue","red"],"outcomes":[0,1,0],"key":38,"choice":1,"rt":813.6600000434555,"outcome":1,"trial":44,"correct":1,"trial_type":"three-arm-trial","trial_index":51,"time_elapsed":366280,"internal_node_id":"0.0-50.0-0.0","task_version":"screening-prolific","missing":false,"accuracy":1},{"contexts":["green","blue","red"],"outcomes":[0,1,0],"key":38,"choice":1,"rt":111.25499999616295,"outcome":1,"trial":45,"correct":1,"trial_type":"three-arm-trial","trial_index":52,"time_elapsed":367601,"internal_node_id":"0.0-51.0-0.0","task_version":"screening-prolific","missing":false,"accuracy":1},{"contexts":["green","blue","red"],"outcomes":[0,0,1],"key":38,"choice":1,"rt":16.660000022966415,"outcome":0,"trial":46,"correct":2,"trial_type":"three-arm-trial","trial_index":53,"time_elapsed":368826,"internal_node_id":"0.0-52.0-0.0","task_version":"screening-prolific","missing":false,"accuracy":0},{"contexts":["green","blue","red"],"outcomes":[1,1,1],"key":38,"choice":1,"rt":404.7499999869615,"outcome":1,"trial":47,"correct":2,"trial_type":"three-arm-trial","trial_index":54,"time_elapsed":370434,"internal_node_id":"0.0-53.0-0.0","task_version":"screening-prolific","missing":false,"accuracy":0},{"contexts":["green","blue","red"],"outcomes":[0,0,1],"key":38,"choice":1,"rt":173.40999998850748,"outcome":0,"trial":48,"correct":2,"trial_type":"three-arm-trial","trial_index":55,"time_elapsed":371812,"internal_node_id":"0.0-54.0-0.0","task_version":"screening-prolific","missing":false,"accuracy":0},{"contexts":["green","blue","red"],"outcomes":[1,0,1],"key":39,"choice":2,"rt":366.93499999819323,"outcome":1,"trial":49,"correct":2,"trial_type":"three-arm-trial","trial_index":56,"time_elapsed":373385,"internal_node_id":"0.0-55.0-0.0","task_version":"screening-prolific","missing":false,"accuracy":1},{"contexts":["green","blue","red"],"outcomes":[0,0,0],"key":39,"choice":2,"rt":302.95000004116446,"outcome":0,"trial":50,"correct":2,"trial_type":"three-arm-trial","trial_index":57,"time_elapsed":374897,"internal_node_id":"0.0-56.0-0.0","task_version":"screening-prolific","missing":false,"accuracy":1},{"contexts":["green","blue","red"],"outcomes":[0,1,1],"key":39,"choice":2,"rt":329.4999999925494,"outcome":1,"trial":51,"correct":2,"trial_type":"three-arm-trial","trial_index":58,"time_elapsed":376436,"internal_node_id":"0.0-57.0-0.0","task_version":"screening-prolific","missing":false,"accuracy":1},{"contexts":["green","blue","red"],"outcomes":[0,0,1],"key":39,"choice":2,"rt":249.18000004254282,"outcome":1,"trial":52,"correct":2,"trial_type":"three-arm-trial","trial_index":59,"time_elapsed":377894,"internal_node_id":"0.0-58.0-0.0","task_version":"screening-prolific","missing":false,"accuracy":1},{"contexts":["green","blue","red"],"outcomes":[1,1,1],"key":39,"choice":2,"rt":305.40000001201406,"outcome":1,"trial":53,"correct":2,"trial_type":"three-arm-trial","trial_index":60,"time_elapsed":379410,"internal_node_id":"0.0-59.0-0.0","task_version":"screening-prolific","missing":false,"accuracy":1},{"contexts":["green","blue","red"],"outcomes":[0,0,0],"key":39,"choice":2,"rt":15.644999977666885,"outcome":0,"trial":54,"correct":2,"trial_type":"three-arm-trial","trial_index":61,"time_elapsed":380634,"internal_node_id":"0.0-60.0-0.0","task_version":"screening-prolific","missing":false,"accuracy":1},{"contexts":["green","blue","red"],"outcomes":[0,0,1],"key":39,"choice":2,"rt":148.39500002563,"outcome":1,"trial":55,"correct":2,"trial_type":"three-arm-trial","trial_index":62,"time_elapsed":381988,"internal_node_id":"0.0-61.0-0.0","task_version":"screening-prolific","missing":false,"accuracy":1},{"contexts":["green","blue","red"],"outcomes":[0,0,1],"key":37,"choice":0,"rt":368.51000000024214,"outcome":0,"trial":56,"correct":2,"trial_type":"three-arm-trial","trial_index":63,"time_elapsed":383565,"internal_node_id":"0.0-62.0-0.0","task_version":"screening-prolific","missing":false,"accuracy":0},{"contexts":["green","blue","red"],"outcomes":[0,0,1],"key":39,"choice":2,"rt":515.3300000238232,"outcome":1,"trial":57,"correct":2,"trial_type":"three-arm-trial","trial_index":64,"time_elapsed":385291,"internal_node_id":"0.0-63.0-0.0","task_version":"screening-prolific","missing":false,"accuracy":1},{"contexts":["green","blue","red"],"outcomes":[1,0,1],"key":39,"choice":2,"rt":376.8350000027567,"outcome":1,"trial":58,"correct":2,"trial_type":"three-arm-trial","trial_index":65,"time_elapsed":386877,"internal_node_id":"0.0-64.0-0.0","task_version":"screening-prolific","missing":false,"accuracy":1},{"contexts":["green","blue","red"],"outcomes":[0,0,1],"key":39,"choice":2,"rt":352.7200000244193,"outcome":1,"trial":59,"correct":2,"trial_type":"three-arm-trial","trial_index":66,"time_elapsed":388439,"internal_node_id":"0.0-65.0-0.0","task_version":"screening-prolific","missing":false,"accuracy":1},{"contexts":["green","blue","red"],"outcomes":[0,1,1],"key":39,"choice":2,"rt":320.2399999718182,"outcome":1,"trial":60,"correct":2,"trial_type":"three-arm-trial","trial_index":67,"time_elapsed":389968,"internal_node_id":"0.0-66.0-0.0","task_version":"screening-prolific","missing":false,"accuracy":1},{"contexts":["green","blue","red"],"outcomes":[0,1,0],"key":39,"choice":2,"rt":313.2099999929778,"outcome":0,"trial":61,"correct":1,"trial_type":"three-arm-trial","trial_index":68,"time_elapsed":391493,"internal_node_id":"0.0-67.0-0.0","task_version":"screening-prolific","missing":false,"accuracy":0},{"contexts":["green","blue","red"],"outcomes":[0,1,0],"key":39,"choice":2,"rt":502.8850000235252,"outcome":0,"trial":62,"correct":1,"trial_type":"three-arm-trial","trial_index":69,"time_elapsed":393204,"internal_node_id":"0.0-68.0-0.0","task_version":"screening-prolific","missing":false,"accuracy":0},{"contexts":["green","blue","red"],"outcomes":[0,1,0],"key":37,"choice":0,"rt":354.5049999956973,"outcome":0,"trial":63,"correct":1,"trial_type":"three-arm-trial","trial_index":70,"time_elapsed":394768,"internal_node_id":"0.0-69.0-0.0","task_version":"screening-prolific","missing":false,"accuracy":0},{"contexts":["green","blue","red"],"outcomes":[0,1,0],"key":38,"choice":1,"rt":336.5600000252016,"outcome":1,"trial":64,"correct":1,"trial_type":"three-arm-trial","trial_index":71,"time_elapsed":396313,"internal_node_id":"0.0-70.0-0.0","task_version":"screening-prolific","missing":false,"accuracy":1},{"contexts":["green","blue","red"],"outcomes":[0,1,0],"key":38,"choice":1,"rt":178.43000002903864,"outcome":1,"trial":65,"correct":1,"trial_type":"three-arm-trial","trial_index":72,"time_elapsed":397699,"internal_node_id":"0.0-71.0-0.0","task_version":"screening-prolific","missing":false,"accuracy":1},{"contexts":["green","blue","red"],"outcomes":[0,1,0],"key":38,"choice":1,"rt":123.78000002354383,"outcome":1,"trial":66,"correct":1,"trial_type":"three-arm-trial","trial_index":73,"time_elapsed":399028,"internal_node_id":"0.0-72.0-0.0","task_version":"screening-prolific","missing":false,"accuracy":1},{"contexts":["green","blue","red"],"outcomes":[0,1,1],"key":38,"choice":1,"rt":635.3249999810942,"outcome":1,"trial":67,"correct":1,"trial_type":"three-arm-trial","trial_index":74,"time_elapsed":400871,"internal_node_id":"0.0-73.0-0.0","task_version":"screening-prolific","missing":false,"accuracy":1},{"contexts":["green","blue","red"],"outcomes":[1,1,0],"key":38,"choice":1,"rt":384.39500000094995,"outcome":1,"trial":68,"correct":1,"trial_type":"three-arm-trial","trial_index":75,"time_elapsed":402464,"internal_node_id":"0.0-74.0-0.0","task_version":"screening-prolific","missing":false,"accuracy":1},{"contexts":["green","blue","red"],"outcomes":[1,0,0],"key":38,"choice":1,"rt":152.68499997910112,"outcome":0,"trial":69,"correct":1,"trial_type":"three-arm-trial","trial_index":76,"time_elapsed":403826,"internal_node_id":"0.0-75.0-0.0","task_version":"screening-prolific","missing":false,"accuracy":1},{"contexts":["green","blue","red"],"outcomes":[1,0,1],"key":39,"choice":2,"rt":290.320000029169,"outcome":1,"trial":70,"correct":1,"trial_type":"three-arm-trial","trial_index":77,"time_elapsed":405323,"internal_node_id":"0.0-76.0-0.0","task_version":"screening-prolific","missing":false,"accuracy":0},{"contexts":["green","blue","red"],"outcomes":[0,1,1],"key":39,"choice":2,"rt":304.42000000039116,"outcome":1,"trial":71,"correct":1,"trial_type":"three-arm-trial","trial_index":78,"time_elapsed":406834,"internal_node_id":"0.0-77.0-0.0","task_version":"screening-prolific","missing":false,"accuracy":0},{"contexts":["green","blue","red"],"outcomes":[0,1,0],"key":39,"choice":2,"rt":277.8399999951944,"outcome":0,"trial":72,"correct":1,"trial_type":"three-arm-trial","trial_index":79,"time_elapsed":408320,"internal_node_id":"0.0-78.0-0.0","task_version":"screening-prolific","missing":false,"accuracy":0},{"contexts":["green","blue","red"],"outcomes":[0,1,1],"key":37,"choice":0,"rt":337.8299999749288,"outcome":0,"trial":73,"correct":1,"trial_type":"three-arm-trial","trial_index":80,"time_elapsed":409867,"internal_node_id":"0.0-79.0-0.0","task_version":"screening-prolific","missing":false,"accuracy":0},{"contexts":["green","blue","red"],"outcomes":[0,1,1],"key":38,"choice":1,"rt":304.75999996997416,"outcome":1,"trial":74,"correct":1,"trial_type":"three-arm-trial","trial_index":81,"time_elapsed":411380,"internal_node_id":"0.0-80.0-0.0","task_version":"screening-prolific","missing":false,"accuracy":1},{"contexts":["green","blue","red"],"outcomes":[0,1,0],"key":38,"choice":1,"rt":295.93999998178333,"outcome":1,"trial":75,"correct":1,"trial_type":"three-arm-trial","trial_index":82,"time_elapsed":412886,"internal_node_id":"0.0-81.0-0.0","task_version":"screening-prolific","missing":false,"accuracy":1},{"contexts":["green","blue","red"],"outcomes":[0,0,0],"key":38,"choice":1,"rt":241.5550000150688,"outcome":0,"trial":76,"correct":0,"trial_type":"three-arm-trial","trial_index":83,"time_elapsed":414335,"internal_node_id":"0.0-82.0-0.0","task_version":"screening-prolific","missing":false,"accuracy":0},{"contexts":["green","blue","red"],"outcomes":[0,0,0],"key":39,"choice":2,"rt":99.93000002577901,"outcome":0,"trial":77,"correct":0,"trial_type":"three-arm-trial","trial_index":84,"time_elapsed":415642,"internal_node_id":"0.0-83.0-0.0","task_version":"screening-prolific","missing":false,"accuracy":0},{"contexts":["green","blue","red"],"outcomes":[0,0,0],"key":37,"choice":0,"rt":53.73499996494502,"outcome":0,"trial":78,"correct":0,"trial_type":"three-arm-trial","trial_index":85,"time_elapsed":416908,"internal_node_id":"0.0-84.0-0.0","task_version":"screening-prolific","missing":false,"accuracy":1},{"contexts":["green","blue","red"],"outcomes":[1,0,0],"key":38,"choice":1,"rt":416.8749999953434,"outcome":0,"trial":79,"correct":0,"trial_type":"three-arm-trial","trial_index":86,"time_elapsed":418534,"internal_node_id":"0.0-85.0-0.0","task_version":"screening-prolific","missing":false,"accuracy":0},{"contexts":["green","blue","red"],"outcomes":[1,0,0],"key":39,"choice":2,"rt":433.3549999864772,"outcome":0,"trial":80,"correct":0,"trial_type":"three-arm-trial","trial_index":87,"time_elapsed":420181,"internal_node_id":"0.0-86.0-0.0","task_version":"screening-prolific","missing":false,"accuracy":0},{"contexts":["green","blue","red"],"outcomes":[1,1,0],"key":39,"choice":2,"rt":105.34499998902902,"outcome":0,"trial":81,"correct":0,"trial_type":"three-arm-trial","trial_index":88,"time_elapsed":421493,"internal_node_id":"0.0-87.0-0.0","task_version":"screening-prolific","missing":false,"accuracy":0},{"contexts":["green","blue","red"],"outcomes":[1,0,0],"key":38,"choice":1,"rt":448.2950000092387,"outcome":0,"trial":82,"correct":0,"trial_type":"three-arm-trial","trial_index":89,"time_elapsed":423151,"internal_node_id":"0.0-88.0-0.0","task_version":"screening-prolific","missing":false,"accuracy":0},{"contexts":["green","blue","red"],"outcomes":[1,1,1],"key":37,"choice":0,"rt":304.42000000039116,"outcome":1,"trial":83,"correct":0,"trial_type":"three-arm-trial","trial_index":90,"time_elapsed":424661,"internal_node_id":"0.0-89.0-0.0","task_version":"screening-prolific","missing":false,"accuracy":1},{"contexts":["green","blue","red"],"outcomes":[1,1,1],"key":37,"choice":0,"rt":301.1649999534711,"outcome":1,"trial":84,"correct":0,"trial_type":"three-arm-trial","trial_index":91,"time_elapsed":426169,"internal_node_id":"0.0-90.0-0.0","task_version":"screening-prolific","missing":false,"accuracy":1},{"contexts":["green","blue","red"],"outcomes":[1,0,0],"key":37,"choice":0,"rt":120.7799999974668,"outcome":1,"trial":85,"correct":0,"trial_type":"three-arm-trial","trial_index":92,"time_elapsed":427499,"internal_node_id":"0.0-91.0-0.0","task_version":"screening-prolific","missing":false,"accuracy":1},{"contexts":["green","blue","red"],"outcomes":[1,0,0],"key":37,"choice":0,"rt":559.0450000017881,"outcome":1,"trial":86,"correct":0,"trial_type":"three-arm-trial","trial_index":93,"time_elapsed":429268,"internal_node_id":"0.0-92.0-0.0","task_version":"screening-prolific","missing":false,"accuracy":1},{"contexts":["green","blue","red"],"outcomes":[1,0,1],"key":37,"choice":0,"rt":414.2400000127964,"outcome":1,"trial":87,"correct":0,"trial_type":"three-arm-trial","trial_index":94,"time_elapsed":430891,"internal_node_id":"0.0-93.0-0.0","task_version":"screening-prolific","missing":false,"accuracy":1},{"contexts":["green","blue","red"],"outcomes":[1,0,0],"key":37,"choice":0,"rt":128.06499999715015,"outcome":1,"trial":88,"correct":0,"trial_type":"three-arm-trial","trial_index":95,"time_elapsed":432227,"internal_node_id":"0.0-94.0-0.0","task_version":"screening-prolific","missing":false,"accuracy":1},{"contexts":["green","blue","red"],"outcomes":[1,0,0],"key":37,"choice":0,"rt":365.53499998990446,"outcome":1,"trial":89,"correct":0,"trial_type":"three-arm-trial","trial_index":96,"time_elapsed":433798,"internal_node_id":"0.0-95.0-0.0","task_version":"screening-prolific","missing":false,"accuracy":1},{"contexts":["green","blue","red"],"outcomes":[1,0,0],"key":37,"choice":0,"rt":243.22000000393018,"outcome":1,"trial":90,"correct":0,"trial_type":"three-arm-trial","trial_index":97,"time_elapsed":435247,"internal_node_id":"0.0-96.0-0.0","task_version":"screening-prolific","missing":false,"accuracy":1},{"rt":20733.720000018366,"responses":{"age":"35","gender-categorical":"Male","gender-free-response":"","ethnicity":"Not Hispanic or Latino","race":["Asian"],"language":"Yes","fluency":"Well","mturk":"Yes","mturk-this-study":"No"},"survey":"demographics","trial_type":"survey-demo","trial_index":98,"time_elapsed":456008,"internal_node_id":"0.0-97.0","task_version":"screening-prolific","interactions":"[{\"event\":\"blur\",\"trial\":0,\"time\":17772},{\"event\":\"focus\",\"trial\":0,\"time\":19019}]"}]