[{"responses":{"Q07":"1","Q04":"1","Q05":"1","Q10":"1","Q02":"1","Q03":"2","Q12":"1","Q13":"1","Q01":"1","Q09":"1","Q08":"2","Q11":"0","Q06":"1","Q14":"0","Q15":"0"},"rt":313398,"survey":"7up7down","trial_type":"survey-template","trial_index":0,"time_elapsed":313479,"internal_node_id":"0.0-0.0","task_version":"screening-prolific"},{"responses":{"Q10":"2","Q12":"2","Q03":"2","Q07":"2","Q06":"3","Q05":"3","Q08":"2","Q04":"2","Q09":"2","Q02":"2","Q13":"2","Q11":"2","Q01":"3"},"rt":160887,"survey":"bisbas","trial_type":"survey-template","trial_index":1,"time_elapsed":474375,"internal_node_id":"0.0-1.0","task_version":"screening-prolific"},{"responses":{"Q03":"2","Q06":"2","Q11":"2","Q09":"1","Q13":"2","Q04":"3","Q07":"2","Q01":"2","Q12":"2","Q05":"2","Q02":"3","Q10":"2","Q08":"2","Q15":"2","Q14":"2"},"rt":117338,"survey":"shaps","trial_type":"survey-template","trial_index":2,"time_elapsed":591723,"internal_node_id":"0.0-2.0","task_version":"screening-prolific"},{"responses":{"Q03":"1","Q01":"1","Q02":"0"},"rt":43972,"survey":"pswq","trial_type":"survey-template","trial_index":3,"time_elapsed":635700,"internal_node_id":"0.0-3.0","task_version":"screening-prolific"},{"responses":{"Q07":"1","Q03":"1","Q08":"0","Q02":"0","Q06":"0","Q04":"0","Q05":"0","Q01":"1"},"rt":91050,"survey":"gad7","trial_type":"survey-template","trial_index":4,"time_elapsed":726758,"internal_node_id":"0.0-4.0","task_version":"screening-prolific"},{"view_history":"[{\"page_index\":0,\"viewing_time\":13440},{\"page_index\":1,\"viewing_time\":21279},{\"page_index\":2,\"viewing_time\":32264},{\"page_index\":3,\"viewing_time\":13048},{\"page_index\":4,\"viewing_time\":15272},{\"page_index\":5,\"viewing_time\":7768},{\"page_index\":6,\"viewing_time\":7193},{\"page_index\":7,\"viewing_time\":8224}]","rt":118489,"trial_type":"instructions","trial_index":5,"time_elapsed":845257,"internal_node_id":"0.0-5.0-0.0","task_version":"screening-prolific"},{"responses":["True","True","False","False","True"],"num_errors":0,"rt":30382,"trial_type":"three-arm-comprehension","trial_index":6,"time_elapsed":875646,"internal_node_id":"0.0-5.0-1.0","task_version":"screening-prolific"},{"view_history":"[{\"page_index\":0,\"viewing_time\":3077}]","rt":3077,"trial_type":"instructions","trial_index":7,"time_elapsed":878729,"internal_node_id":"0.0-6.0","task_version":"screening-prolific"},{"contexts":["green","blue","red"],"outcomes":[0,1,1],"key":37,"choice":0,"rt":7661,"outcome":0,"trial":1,"correct":1,"trial_type":"three-arm-trial","trial_index":8,"time_elapsed":887594,"internal_node_id":"0.0-7.0-0.0","task_version":"screening-prolific","missing":false,"accuracy":0},{"contexts":["green","blue","red"],"outcomes":[1,1,0],"key":38,"choice":1,"rt":3275,"outcome":1,"trial":2,"correct":1,"trial_type":"three-arm-trial","trial_index":9,"time_elapsed":892089,"internal_node_id":"0.0-8.0-0.0","task_version":"screening-prolific","missing":false,"accuracy":1},{"contexts":["green","blue","red"],"outcomes":[0,1,1],"key":37,"choice":0,"rt":966,"outcome":0,"trial":3,"correct":1,"trial_type":"three-arm-trial","trial_index":10,"time_elapsed":894259,"internal_node_id":"0.0-9.0-0.0","task_version":"screening-prolific","missing":false,"accuracy":0},{"contexts":["green","blue","red"],"outcomes":[0,1,0],"key":39,"choice":2,"rt":1340,"outcome":0,"trial":4,"correct":1,"trial_type":"three-arm-trial","trial_index":11,"time_elapsed":896803,"internal_node_id":"0.0-10.0-0.0","task_version":"screening-prolific","missing":false,"accuracy":0},{"contexts":["green","blue","red"],"outcomes":[0,1,1],"key":37,"choice":0,"rt":1396,"outcome":0,"trial":5,"correct":1,"trial_type":"three-arm-trial","trial_index":12,"time_elapsed":899403,"internal_node_id":"0.0-11.0-0.0","task_version":"screening-prolific","missing":false,"accuracy":0},{"contexts":["green","blue","red"],"outcomes":[0,1,0],"key":38,"choice":1,"rt":635,"outcome":1,"trial":6,"correct":1,"trial_type":"three-arm-trial","trial_index":13,"time_elapsed":901242,"internal_node_id":"0.0-12.0-0.0","task_version":"screening-prolific","missing":false,"accuracy":1},{"contexts":["green","blue","red"],"outcomes":[0,1,1],"key":38,"choice":1,"rt":717,"outcome":1,"trial":7,"correct":1,"trial_type":"three-arm-trial","trial_index":14,"time_elapsed":903162,"internal_node_id":"0.0-13.0-0.0","task_version":"screening-prolific","missing":false,"accuracy":1},{"contexts":["green","blue","red"],"outcomes":[0,1,0],"key":38,"choice":1,"rt":549,"outcome":1,"trial":8,"correct":1,"trial_type":"three-arm-trial","trial_index":15,"time_elapsed":904913,"internal_node_id":"0.0-14.0-0.0","task_version":"screening-prolific","missing":false,"accuracy":1},{"contexts":["green","blue","red"],"outcomes":[0,1,0],"key":38,"choice":1,"rt":471,"outcome":1,"trial":9,"correct":1,"trial_type":"three-arm-trial","trial_index":16,"time_elapsed":906587,"internal_node_id":"0.0-15.0-0.0","task_version":"screening-prolific","missing":false,"accuracy":1},{"contexts":["green","blue","red"],"outcomes":[0,1,0],"key":38,"choice":1,"rt":485,"outcome":1,"trial":10,"correct":1,"trial_type":"three-arm-trial","trial_index":17,"time_elapsed":908273,"internal_node_id":"0.0-16.0-0.0","task_version":"screening-prolific","missing":false,"accuracy":1},{"contexts":["green","blue","red"],"outcomes":[0,1,0],"key":38,"choice":1,"rt":398,"outcome":1,"trial":11,"correct":1,"trial_type":"three-arm-trial","trial_index":18,"time_elapsed":909875,"internal_node_id":"0.0-17.0-0.0","task_version":"screening-prolific","missing":false,"accuracy":1},{"contexts":["green","blue","red"],"outcomes":[1,1,1],"key":38,"choice":1,"rt":460,"outcome":1,"trial":12,"correct":1,"trial_type":"three-arm-trial","trial_index":19,"time_elapsed":911538,"internal_node_id":"0.0-18.0-0.0","task_version":"screening-prolific","missing":false,"accuracy":1},{"contexts":["green","blue","red"],"outcomes":[1,1,0],"key":38,"choice":1,"rt":435,"outcome":1,"trial":13,"correct":1,"trial_type":"three-arm-trial","trial_index":20,"time_elapsed":913177,"internal_node_id":"0.0-19.0-0.0","task_version":"screening-prolific","missing":false,"accuracy":1},{"contexts":["green","blue","red"],"outcomes":[0,1,1],"key":38,"choice":1,"rt":406,"outcome":1,"trial":14,"correct":1,"trial_type":"three-arm-trial","trial_index":21,"time_elapsed":914786,"internal_node_id":"0.0-20.0-0.0","task_version":"screening-prolific","missing":false,"accuracy":1},{"contexts":["green","blue","red"],"outcomes":[0,1,0],"key":38,"choice":1,"rt":501,"outcome":1,"trial":15,"correct":1,"trial_type":"three-arm-trial","trial_index":22,"time_elapsed":916489,"internal_node_id":"0.0-21.0-0.0","task_version":"screening-prolific","missing":false,"accuracy":1},{"contexts":["green","blue","red"],"outcomes":[0,1,0],"key":38,"choice":1,"rt":390,"outcome":1,"trial":16,"correct":0,"trial_type":"three-arm-trial","trial_index":23,"time_elapsed":918085,"internal_node_id":"0.0-22.0-0.0","task_version":"screening-prolific","missing":false,"accuracy":0},{"contexts":["green","blue","red"],"outcomes":[1,1,0],"key":38,"choice":1,"rt":424,"outcome":1,"trial":17,"correct":0,"trial_type":"three-arm-trial","trial_index":24,"time_elapsed":919714,"internal_node_id":"0.0-23.0-0.0","task_version":"screening-prolific","missing":false,"accuracy":0},{"contexts":["green","blue","red"],"outcomes":[1,0,0],"key":38,"choice":1,"rt":364,"outcome":0,"trial":18,"correct":0,"trial_type":"three-arm-trial","trial_index":25,"time_elapsed":921281,"internal_node_id":"0.0-24.0-0.0","task_version":"screening-prolific","missing":false,"accuracy":0},{"contexts":["green","blue","red"],"outcomes":[1,0,0],"key":39,"choice":2,"rt":439,"outcome":0,"trial":19,"correct":0,"trial_type":"three-arm-trial","trial_index":26,"time_elapsed":922923,"internal_node_id":"0.0-25.0-0.0","task_version":"screening-prolific","missing":false,"accuracy":0},{"contexts":["green","blue","red"],"outcomes":[1,1,0],"key":37,"choice":0,"rt":379,"outcome":1,"trial":20,"correct":0,"trial_type":"three-arm-trial","trial_index":27,"time_elapsed":924505,"internal_node_id":"0.0-26.0-0.0","task_version":"screening-prolific","missing":false,"accuracy":1},{"contexts":["green","blue","red"],"outcomes":[1,0,0],"key":37,"choice":0,"rt":462,"outcome":1,"trial":21,"correct":0,"trial_type":"three-arm-trial","trial_index":28,"time_elapsed":926170,"internal_node_id":"0.0-27.0-0.0","task_version":"screening-prolific","missing":false,"accuracy":1},{"contexts":["green","blue","red"],"outcomes":[0,0,0],"key":37,"choice":0,"rt":472,"outcome":0,"trial":22,"correct":0,"trial_type":"three-arm-trial","trial_index":29,"time_elapsed":927849,"internal_node_id":"0.0-28.0-0.0","task_version":"screening-prolific","missing":false,"accuracy":1},{"contexts":["green","blue","red"],"outcomes":[1,1,0],"key":39,"choice":2,"rt":333,"outcome":0,"trial":23,"correct":0,"trial_type":"three-arm-trial","trial_index":30,"time_elapsed":929386,"internal_node_id":"0.0-29.0-0.0","task_version":"screening-prolific","missing":false,"accuracy":0},{"contexts":["green","blue","red"],"outcomes":[1,0,0],"key":38,"choice":1,"rt":269,"outcome":0,"trial":24,"correct":0,"trial_type":"three-arm-trial","trial_index":31,"time_elapsed":930859,"internal_node_id":"0.0-30.0-0.0","task_version":"screening-prolific","missing":false,"accuracy":0},{"contexts":["green","blue","red"],"outcomes":[1,0,0],"key":39,"choice":2,"rt":278,"outcome":0,"trial":25,"correct":0,"trial_type":"three-arm-trial","trial_index":32,"time_elapsed":932338,"internal_node_id":"0.0-31.0-0.0","task_version":"screening-prolific","missing":false,"accuracy":0},{"contexts":["green","blue","red"],"outcomes":[1,1,0],"key":37,"choice":0,"rt":284,"outcome":1,"trial":26,"correct":0,"trial_type":"three-arm-trial","trial_index":33,"time_elapsed":933826,"internal_node_id":"0.0-32.0-0.0","task_version":"screening-prolific","missing":false,"accuracy":1},{"contexts":["green","blue","red"],"outcomes":[1,0,0],"key":37,"choice":0,"rt":405,"outcome":1,"trial":27,"correct":0,"trial_type":"three-arm-trial","trial_index":34,"time_elapsed":935434,"internal_node_id":"0.0-33.0-0.0","task_version":"screening-prolific","missing":false,"accuracy":1},{"contexts":["green","blue","red"],"outcomes":[1,1,0],"key":37,"choice":0,"rt":389,"outcome":1,"trial":28,"correct":0,"trial_type":"three-arm-trial","trial_index":35,"time_elapsed":937027,"internal_node_id":"0.0-34.0-0.0","task_version":"screening-prolific","missing":false,"accuracy":1},{"contexts":["green","blue","red"],"outcomes":[1,1,0],"key":37,"choice":0,"rt":445,"outcome":1,"trial":29,"correct":0,"trial_type":"three-arm-trial","trial_index":36,"time_elapsed":938674,"internal_node_id":"0.0-35.0-0.0","task_version":"screening-prolific","missing":false,"accuracy":1},{"contexts":["green","blue","red"],"outcomes":[1,0,0],"key":37,"choice":0,"rt":380,"outcome":1,"trial":30,"correct":0,"trial_type":"three-arm-trial","trial_index":37,"time_elapsed":940257,"internal_node_id":"0.0-36.0-0.0","task_version":"screening-prolific","missing":false,"accuracy":1},{"contexts":["green","blue","red"],"outcomes":[1,1,0],"key":37,"choice":0,"rt":413,"outcome":1,"trial":31,"correct":1,"trial_type":"three-arm-trial","trial_index":38,"time_elapsed":941873,"internal_node_id":"0.0-37.0-0.0","task_version":"screening-prolific","missing":false,"accuracy":0},{"contexts":["green","blue","red"],"outcomes":[0,1,0],"key":37,"choice":0,"rt":454,"outcome":0,"trial":32,"correct":1,"trial_type":"three-arm-trial","trial_index":39,"time_elapsed":943531,"internal_node_id":"0.0-38.0-0.0","task_version":"screening-prolific","missing":false,"accuracy":0},{"contexts":["green","blue","red"],"outcomes":[0,1,0],"key":38,"choice":1,"rt":414,"outcome":1,"trial":33,"correct":1,"trial_type":"three-arm-trial","trial_index":40,"time_elapsed":945147,"internal_node_id":"0.0-39.0-0.0","task_version":"screening-prolific","missing":false,"accuracy":1},{"contexts":["green","blue","red"],"outcomes":[0,1,0],"key":38,"choice":1,"rt":411,"outcome":1,"trial":34,"correct":1,"trial_type":"three-arm-trial","trial_index":41,"time_elapsed":946762,"internal_node_id":"0.0-40.0-0.0","task_version":"screening-prolific","missing":false,"accuracy":1},{"contexts":["green","blue","red"],"outcomes":[0,1,0],"key":38,"choice":1,"rt":445,"outcome":1,"trial":35,"correct":1,"trial_type":"three-arm-trial","trial_index":42,"time_elapsed":948409,"internal_node_id":"0.0-41.0-0.0","task_version":"screening-prolific","missing":false,"accuracy":1},{"contexts":["green","blue","red"],"outcomes":[1,1,0],"key":38,"choice":1,"rt":342,"outcome":1,"trial":36,"correct":1,"trial_type":"three-arm-trial","trial_index":43,"time_elapsed":949953,"internal_node_id":"0.0-42.0-0.0","task_version":"screening-prolific","missing":false,"accuracy":1},{"contexts":["green","blue","red"],"outcomes":[1,1,0],"key":38,"choice":1,"rt":459,"outcome":1,"trial":37,"correct":1,"trial_type":"three-arm-trial","trial_index":44,"time_elapsed":951624,"internal_node_id":"0.0-43.0-0.0","task_version":"screening-prolific","missing":false,"accuracy":1},{"contexts":["green","blue","red"],"outcomes":[0,1,0],"key":38,"choice":1,"rt":302,"outcome":1,"trial":38,"correct":1,"trial_type":"three-arm-trial","trial_index":45,"time_elapsed":953143,"internal_node_id":"0.0-44.0-0.0","task_version":"screening-prolific","missing":false,"accuracy":1},{"contexts":["green","blue","red"],"outcomes":[0,1,0],"key":38,"choice":1,"rt":416,"outcome":1,"trial":39,"correct":1,"trial_type":"three-arm-trial","trial_index":46,"time_elapsed":954767,"internal_node_id":"0.0-45.0-0.0","task_version":"screening-prolific","missing":false,"accuracy":1},{"contexts":["green","blue","red"],"outcomes":[0,1,0],"key":38,"choice":1,"rt":409,"outcome":1,"trial":40,"correct":1,"trial_type":"three-arm-trial","trial_index":47,"time_elapsed":956378,"internal_node_id":"0.0-46.0-0.0","task_version":"screening-prolific","missing":false,"accuracy":1},{"contexts":["green","blue","red"],"outcomes":[0,1,0],"key":38,"choice":1,"rt":412,"outcome":1,"trial":41,"correct":1,"trial_type":"three-arm-trial","trial_index":48,"time_elapsed":958001,"internal_node_id":"0.0-47.0-0.0","task_version":"screening-prolific","missing":false,"accuracy":1},{"contexts":["green","blue","red"],"outcomes":[1,1,0],"key":38,"choice":1,"rt":471,"outcome":1,"trial":42,"correct":1,"trial_type":"three-arm-trial","trial_index":49,"time_elapsed":959674,"internal_node_id":"0.0-48.0-0.0","task_version":"screening-prolific","missing":false,"accuracy":1},{"contexts":["green","blue","red"],"outcomes":[0,1,1],"key":38,"choice":1,"rt":389,"outcome":1,"trial":43,"correct":1,"trial_type":"three-arm-trial","trial_index":50,"time_elapsed":961268,"internal_node_id":"0.0-49.0-0.0","task_version":"screening-prolific","missing":false,"accuracy":1},{"contexts":["green","blue","red"],"outcomes":[0,1,0],"key":38,"choice":1,"rt":370,"outcome":1,"trial":44,"correct":1,"trial_type":"three-arm-trial","trial_index":51,"time_elapsed":962845,"internal_node_id":"0.0-50.0-0.0","task_version":"screening-prolific","missing":false,"accuracy":1},{"contexts":["green","blue","red"],"outcomes":[0,1,1],"key":38,"choice":1,"rt":410,"outcome":1,"trial":45,"correct":1,"trial_type":"three-arm-trial","trial_index":52,"time_elapsed":964466,"internal_node_id":"0.0-51.0-0.0","task_version":"screening-prolific","missing":false,"accuracy":1},{"contexts":["green","blue","red"],"outcomes":[0,0,1],"key":38,"choice":1,"rt":342,"outcome":0,"trial":46,"correct":2,"trial_type":"three-arm-trial","trial_index":53,"time_elapsed":966018,"internal_node_id":"0.0-52.0-0.0","task_version":"screening-prolific","missing":false,"accuracy":0},{"contexts":["green","blue","red"],"outcomes":[0,0,1],"key":39,"choice":2,"rt":309,"outcome":1,"trial":47,"correct":2,"trial_type":"three-arm-trial","trial_index":54,"time_elapsed":967530,"internal_node_id":"0.0-53.0-0.0","task_version":"screening-prolific","missing":false,"accuracy":1},{"contexts":["green","blue","red"],"outcomes":[0,0,1],"key":39,"choice":2,"rt":389,"outcome":1,"trial":48,"correct":2,"trial_type":"three-arm-trial","trial_index":55,"time_elapsed":969130,"internal_node_id":"0.0-54.0-0.0","task_version":"screening-prolific","missing":false,"accuracy":1},{"contexts":["green","blue","red"],"outcomes":[0,1,1],"key":39,"choice":2,"rt":463,"outcome":1,"trial":49,"correct":2,"trial_type":"three-arm-trial","trial_index":56,"time_elapsed":970796,"internal_node_id":"0.0-55.0-0.0","task_version":"screening-prolific","missing":false,"accuracy":1},{"contexts":["green","blue","red"],"outcomes":[1,0,1],"key":39,"choice":2,"rt":323,"outcome":1,"trial":50,"correct":2,"trial_type":"three-arm-trial","trial_index":57,"time_elapsed":972328,"internal_node_id":"0.0-56.0-0.0","task_version":"screening-prolific","missing":false,"accuracy":1},{"contexts":["green","blue","red"],"outcomes":[0,0,1],"key":39,"choice":2,"rt":438,"outcome":1,"trial":51,"correct":2,"trial_type":"three-arm-trial","trial_index":58,"time_elapsed":973969,"internal_node_id":"0.0-57.0-0.0","task_version":"screening-prolific","missing":false,"accuracy":1},{"contexts":["green","blue","red"],"outcomes":[0,0,1],"key":39,"choice":2,"rt":374,"outcome":1,"trial":52,"correct":2,"trial_type":"three-arm-trial","trial_index":59,"time_elapsed":975546,"internal_node_id":"0.0-58.0-0.0","task_version":"screening-prolific","missing":false,"accuracy":1},{"contexts":["green","blue","red"],"outcomes":[0,0,1],"key":39,"choice":2,"rt":397,"outcome":1,"trial":53,"correct":2,"trial_type":"three-arm-trial","trial_index":60,"time_elapsed":977163,"internal_node_id":"0.0-59.0-0.0","task_version":"screening-prolific","missing":false,"accuracy":1},{"contexts":["green","blue","red"],"outcomes":[0,0,1],"key":39,"choice":2,"rt":373,"outcome":1,"trial":54,"correct":2,"trial_type":"three-arm-trial","trial_index":61,"time_elapsed":978741,"internal_node_id":"0.0-60.0-0.0","task_version":"screening-prolific","missing":false,"accuracy":1},{"contexts":["green","blue","red"],"outcomes":[0,0,0],"key":39,"choice":2,"rt":371,"outcome":0,"trial":55,"correct":2,"trial_type":"three-arm-trial","trial_index":62,"time_elapsed":980323,"internal_node_id":"0.0-61.0-0.0","task_version":"screening-prolific","missing":false,"accuracy":1},{"contexts":["green","blue","red"],"outcomes":[0,1,0],"key":38,"choice":1,"rt":525,"outcome":1,"trial":56,"correct":2,"trial_type":"three-arm-trial","trial_index":63,"time_elapsed":982056,"internal_node_id":"0.0-62.0-0.0","task_version":"screening-prolific","missing":false,"accuracy":0},{"contexts":["green","blue","red"],"outcomes":[1,0,0],"key":38,"choice":1,"rt":359,"outcome":0,"trial":57,"correct":2,"trial_type":"three-arm-trial","trial_index":64,"time_elapsed":983617,"internal_node_id":"0.0-63.0-0.0","task_version":"screening-prolific","missing":false,"accuracy":0},{"contexts":["green","blue","red"],"outcomes":[0,0,1],"key":37,"choice":0,"rt":118,"outcome":0,"trial":58,"correct":2,"trial_type":"three-arm-trial","trial_index":65,"time_elapsed":984947,"internal_node_id":"0.0-64.0-0.0","task_version":"screening-prolific","missing":false,"accuracy":0},{"contexts":["green","blue","red"],"outcomes":[0,0,1],"key":38,"choice":1,"rt":1197,"outcome":0,"trial":59,"correct":2,"trial_type":"three-arm-trial","trial_index":66,"time_elapsed":987346,"internal_node_id":"0.0-65.0-0.0","task_version":"screening-prolific","missing":false,"accuracy":0},{"contexts":["green","blue","red"],"outcomes":[0,0,0],"key":39,"choice":2,"rt":558,"outcome":0,"trial":60,"correct":2,"trial_type":"three-arm-trial","trial_index":67,"time_elapsed":989112,"internal_node_id":"0.0-66.0-0.0","task_version":"screening-prolific","missing":false,"accuracy":1},{"contexts":["green","blue","red"],"outcomes":[1,0,0],"key":38,"choice":1,"rt":504,"outcome":0,"trial":61,"correct":0,"trial_type":"three-arm-trial","trial_index":68,"time_elapsed":990825,"internal_node_id":"0.0-67.0-0.0","task_version":"screening-prolific","missing":false,"accuracy":0},{"contexts":["green","blue","red"],"outcomes":[1,0,1],"key":37,"choice":0,"rt":477,"outcome":1,"trial":62,"correct":0,"trial_type":"three-arm-trial","trial_index":69,"time_elapsed":992506,"internal_node_id":"0.0-68.0-0.0","task_version":"screening-prolific","missing":false,"accuracy":1},{"contexts":["green","blue","red"],"outcomes":[1,0,0],"key":37,"choice":0,"rt":396,"outcome":1,"trial":63,"correct":0,"trial_type":"three-arm-trial","trial_index":70,"time_elapsed":994108,"internal_node_id":"0.0-69.0-0.0","task_version":"screening-prolific","missing":false,"accuracy":1},{"contexts":["green","blue","red"],"outcomes":[0,0,1],"key":37,"choice":0,"rt":380,"outcome":0,"trial":64,"correct":0,"trial_type":"three-arm-trial","trial_index":71,"time_elapsed":995693,"internal_node_id":"0.0-70.0-0.0","task_version":"screening-prolific","missing":false,"accuracy":1},{"contexts":["green","blue","red"],"outcomes":[1,0,0],"key":37,"choice":0,"rt":649,"outcome":1,"trial":65,"correct":0,"trial_type":"three-arm-trial","trial_index":72,"time_elapsed":997547,"internal_node_id":"0.0-71.0-0.0","task_version":"screening-prolific","missing":false,"accuracy":1},{"contexts":["green","blue","red"],"outcomes":[1,0,0],"key":37,"choice":0,"rt":469,"outcome":1,"trial":66,"correct":0,"trial_type":"three-arm-trial","trial_index":73,"time_elapsed":999224,"internal_node_id":"0.0-72.0-0.0","task_version":"screening-prolific","missing":false,"accuracy":1},{"contexts":["green","blue","red"],"outcomes":[1,1,1],"key":37,"choice":0,"rt":407,"outcome":1,"trial":67,"correct":0,"trial_type":"three-arm-trial","trial_index":74,"time_elapsed":1000837,"internal_node_id":"0.0-73.0-0.0","task_version":"screening-prolific","missing":false,"accuracy":1},{"contexts":["green","blue","red"],"outcomes":[0,0,0],"key":37,"choice":0,"rt":361,"outcome":0,"trial":68,"correct":0,"trial_type":"three-arm-trial","trial_index":75,"time_elapsed":1002402,"internal_node_id":"0.0-74.0-0.0","task_version":"screening-prolific","missing":false,"accuracy":1},{"contexts":["green","blue","red"],"outcomes":[0,0,0],"key":39,"choice":2,"rt":423,"outcome":0,"trial":69,"correct":0,"trial_type":"three-arm-trial","trial_index":76,"time_elapsed":1004037,"internal_node_id":"0.0-75.0-0.0","task_version":"screening-prolific","missing":false,"accuracy":0},{"contexts":["green","blue","red"],"outcomes":[1,0,0],"key":38,"choice":1,"rt":346,"outcome":0,"trial":70,"correct":0,"trial_type":"three-arm-trial","trial_index":77,"time_elapsed":1005586,"internal_node_id":"0.0-76.0-0.0","task_version":"screening-prolific","missing":false,"accuracy":0},{"contexts":["green","blue","red"],"outcomes":[1,0,0],"key":38,"choice":1,"rt":396,"outcome":0,"trial":71,"correct":0,"trial_type":"three-arm-trial","trial_index":78,"time_elapsed":1007195,"internal_node_id":"0.0-77.0-0.0","task_version":"screening-prolific","missing":false,"accuracy":0},{"contexts":["green","blue","red"],"outcomes":[1,1,0],"key":37,"choice":0,"rt":460,"outcome":1,"trial":72,"correct":0,"trial_type":"three-arm-trial","trial_index":79,"time_elapsed":1008858,"internal_node_id":"0.0-78.0-0.0","task_version":"screening-prolific","missing":false,"accuracy":1},{"contexts":["green","blue","red"],"outcomes":[0,0,1],"key":37,"choice":0,"rt":461,"outcome":0,"trial":73,"correct":0,"trial_type":"three-arm-trial","trial_index":80,"time_elapsed":1010522,"internal_node_id":"0.0-79.0-0.0","task_version":"screening-prolific","missing":false,"accuracy":1},{"contexts":["green","blue","red"],"outcomes":[1,0,1],"key":39,"choice":2,"rt":452,"outcome":1,"trial":74,"correct":0,"trial_type":"three-arm-trial","trial_index":81,"time_elapsed":1012181,"internal_node_id":"0.0-80.0-0.0","task_version":"screening-prolific","missing":false,"accuracy":0},{"contexts":["green","blue","red"],"outcomes":[1,0,1],"key":39,"choice":2,"rt":488,"outcome":1,"trial":75,"correct":0,"trial_type":"three-arm-trial","trial_index":82,"time_elapsed":1013873,"internal_node_id":"0.0-81.0-0.0","task_version":"screening-prolific","missing":false,"accuracy":0},{"contexts":["green","blue","red"],"outcomes":[0,1,1],"key":39,"choice":2,"rt":558,"outcome":1,"trial":76,"correct":1,"trial_type":"three-arm-trial","trial_index":83,"time_elapsed":1015634,"internal_node_id":"0.0-82.0-0.0","task_version":"screening-prolific","missing":false,"accuracy":0},{"contexts":["green","blue","red"],"outcomes":[0,0,0],"key":39,"choice":2,"rt":390,"outcome":0,"trial":77,"correct":1,"trial_type":"three-arm-trial","trial_index":84,"time_elapsed":1017228,"internal_node_id":"0.0-83.0-0.0","task_version":"screening-prolific","missing":false,"accuracy":0},{"contexts":["green","blue","red"],"outcomes":[0,0,1],"key":38,"choice":1,"rt":443,"outcome":0,"trial":78,"correct":1,"trial_type":"three-arm-trial","trial_index":85,"time_elapsed":1018879,"internal_node_id":"0.0-84.0-0.0","task_version":"screening-prolific","missing":false,"accuracy":1},{"contexts":["green","blue","red"],"outcomes":[1,1,1],"key":38,"choice":1,"rt":384,"outcome":1,"trial":79,"correct":1,"trial_type":"three-arm-trial","trial_index":86,"time_elapsed":1020466,"internal_node_id":"0.0-85.0-0.0","task_version":"screening-prolific","missing":false,"accuracy":1},{"contexts":["green","blue","red"],"outcomes":[0,1,0],"key":38,"choice":1,"rt":443,"outcome":1,"trial":80,"correct":1,"trial_type":"three-arm-trial","trial_index":87,"time_elapsed":1022116,"internal_node_id":"0.0-86.0-0.0","task_version":"screening-prolific","missing":false,"accuracy":1},{"contexts":["green","blue","red"],"outcomes":[0,0,0],"key":38,"choice":1,"rt":450,"outcome":0,"trial":81,"correct":1,"trial_type":"three-arm-trial","trial_index":88,"time_elapsed":1023769,"internal_node_id":"0.0-87.0-0.0","task_version":"screening-prolific","missing":false,"accuracy":1},{"contexts":["green","blue","red"],"outcomes":[1,1,0],"key":38,"choice":1,"rt":549,"outcome":1,"trial":82,"correct":1,"trial_type":"three-arm-trial","trial_index":89,"time_elapsed":1025522,"internal_node_id":"0.0-88.0-0.0","task_version":"screening-prolific","missing":false,"accuracy":1},{"contexts":["green","blue","red"],"outcomes":[0,0,0],"key":38,"choice":1,"rt":412,"outcome":0,"trial":83,"correct":1,"trial_type":"three-arm-trial","trial_index":90,"time_elapsed":1027147,"internal_node_id":"0.0-89.0-0.0","task_version":"screening-prolific","missing":false,"accuracy":1},{"contexts":["green","blue","red"],"outcomes":[0,1,0],"key":37,"choice":0,"rt":380,"outcome":0,"trial":84,"correct":1,"trial_type":"three-arm-trial","trial_index":91,"time_elapsed":1028736,"internal_node_id":"0.0-90.0-0.0","task_version":"screening-prolific","missing":false,"accuracy":0},{"contexts":["green","blue","red"],"outcomes":[0,0,0],"key":37,"choice":0,"rt":403,"outcome":0,"trial":85,"correct":1,"trial_type":"three-arm-trial","trial_index":92,"time_elapsed":1030344,"internal_node_id":"0.0-91.0-0.0","task_version":"screening-prolific","missing":false,"accuracy":0},{"contexts":["green","blue","red"],"outcomes":[0,1,0],"key":39,"choice":2,"rt":534,"outcome":0,"trial":86,"correct":1,"trial_type":"three-arm-trial","trial_index":93,"time_elapsed":1032082,"internal_node_id":"0.0-92.0-0.0","task_version":"screening-prolific","missing":false,"accuracy":0},{"contexts":["green","blue","red"],"outcomes":[0,1,0],"key":39,"choice":2,"rt":388,"outcome":0,"trial":87,"correct":1,"trial_type":"three-arm-trial","trial_index":94,"time_elapsed":1033674,"internal_node_id":"0.0-93.0-0.0","task_version":"screening-prolific","missing":false,"accuracy":0},{"contexts":["green","blue","red"],"outcomes":[0,1,0],"key":38,"choice":1,"rt":413,"outcome":1,"trial":88,"correct":1,"trial_type":"three-arm-trial","trial_index":95,"time_elapsed":1035299,"internal_node_id":"0.0-94.0-0.0","task_version":"screening-prolific","missing":false,"accuracy":1},{"contexts":["green","blue","red"],"outcomes":[0,1,0],"key":38,"choice":1,"rt":348,"outcome":1,"trial":89,"correct":1,"trial_type":"three-arm-trial","trial_index":96,"time_elapsed":1036860,"internal_node_id":"0.0-95.0-0.0","task_version":"screening-prolific","missing":false,"accuracy":1},{"contexts":["green","blue","red"],"outcomes":[1,1,0],"key":38,"choice":1,"rt":545,"outcome":1,"trial":90,"correct":1,"trial_type":"three-arm-trial","trial_index":97,"time_elapsed":1038608,"internal_node_id":"0.0-96.0-0.0","task_version":"screening-prolific","missing":false,"accuracy":1},{"rt":57703,"responses":{"age":"25","gender-categorical":"Male","gender-free-response":"","ethnicity":"Not Hispanic or Latino","race":["White"],"language":"Yes","fluency":"Very well","mturk":"No","mturk-this-study":"No"},"survey":"demographics","trial_type":"survey-demo","trial_index":98,"time_elapsed":1096362,"internal_node_id":"0.0-97.0","task_version":"screening-prolific","interactions":"[{\"event\":\"focus\",\"trial\":0,\"time\":0},{\"event\":\"blur\",\"trial\":3,\"time\":602471},{\"event\":\"focus\",\"trial\":3,\"time\":604525},{\"event\":\"blur\",\"trial\":4,\"time\":646016},{\"event\":\"focus\",\"trial\":4,\"time\":647990}]"}]