[{"responses":{"Q04":"1","Q11":"1","Q14":"0","Q13":"1","Q02":"2","Q05":"2","Q01":"1","Q08":"0","Q15":"0","Q09":"2","Q10":"2","Q06":"1","Q12":"2","Q07":"1","Q03":"1"},"rt":114444.58500001929,"survey":"7up7down","trial_type":"survey-template","trial_index":0,"time_elapsed":114478,"internal_node_id":"0.0-0.0","task_version":"screening-prolific"},{"responses":{"Q06":"1","Q03":"1","Q01":"0","Q07":"0","Q08":"0","Q04":"1","Q05":"1","Q02":"0"},"rt":30179.065000003902,"survey":"gad7","trial_type":"survey-template","trial_index":1,"time_elapsed":144675,"internal_node_id":"0.0-1.0","task_version":"screening-prolific"},{"responses":{"Q12":"3","Q04":"3","Q15":"3","Q03":"3","Q13":"3","Q01":"3","Q08":"3","Q02":"3","Q11":"3","Q05":"3","Q10":"3","Q07":"3","Q14":"3","Q06":"3","Q09":"3"},"rt":57196.63000002038,"survey":"shaps","trial_type":"survey-template","trial_index":2,"time_elapsed":201886,"internal_node_id":"0.0-2.0","task_version":"screening-prolific"},{"responses":{"Q01":"3","Q07":"3","Q03":"2","Q10":"1","Q13":"3","Q08":"3","Q09":"1","Q12":"0","Q11":"1","Q02":"0","Q05":"3","Q06":"3","Q04":"3"},"rt":56647.70500001032,"survey":"bisbas","trial_type":"survey-template","trial_index":3,"time_elapsed":258546,"internal_node_id":"0.0-3.0","task_version":"screening-prolific"},{"responses":{"Q03":"4","Q01":"4","Q02":"4"},"rt":8329.165000002831,"survey":"pswq","trial_type":"survey-template","trial_index":4,"time_elapsed":266885,"internal_node_id":"0.0-4.0","task_version":"screening-prolific"},{"view_history":"[{\"page_index\":0,\"viewing_time\":5093.954999989364},{\"page_index\":1,\"viewing_time\":10528.15999998711},{\"page_index\":2,\"viewing_time\":12911.650000023656},{\"page_index\":3,\"viewing_time\":3607.864999998128},{\"page_index\":4,\"viewing_time\":4937.389999977313},{\"page_index\":5,\"viewing_time\":4231.010000017704},{\"page_index\":6,\"viewing_time\":3111.7450000019744},{\"page_index\":7,\"viewing_time\":3121.38500000583}]","rt":47544.25499998615,"trial_type":"instructions","trial_index":5,"time_elapsed":314437,"internal_node_id":"0.0-5.0-0.0","task_version":"screening-prolific"},{"responses":["True","True","False","False","False"],"num_errors":1,"rt":16293.490000010934,"trial_type":"three-arm-comprehension","trial_index":6,"time_elapsed":330739,"internal_node_id":"0.0-5.0-1.0","task_version":"screening-prolific"},{"view_history":"[{\"page_index\":0,\"viewing_time\":2935.8099999953993},{\"page_index\":1,\"viewing_time\":2249.4650000007823},{\"page_index\":2,\"viewing_time\":1391.330000013113},{\"page_index\":3,\"viewing_time\":4879.509999998845},{\"page_index\":4,\"viewing_time\":6904.5249999908265},{\"page_index\":5,\"viewing_time\":2775.920000014594},{\"page_index\":6,\"viewing_time\":1695.899999991525},{\"page_index\":7,\"viewing_time\":736.2800000119023}]","rt":23569.530000007944,"trial_type":"instructions","trial_index":7,"time_elapsed":354318,"internal_node_id":"0.0-5.1-0.1","task_version":"screening-prolific"},{"responses":["True","True","True","False","False"],"num_errors":2,"rt":13821.525000006659,"trial_type":"three-arm-comprehension","trial_index":8,"time_elapsed":368146,"internal_node_id":"0.0-5.1-1.1","task_version":"screening-prolific"},{"view_history":"[{\"page_index\":0,\"viewing_time\":1747.2700000216719},{\"page_index\":1,\"viewing_time\":600.1649999816436},{\"page_index\":2,\"viewing_time\":408.09000001172535},{\"page_index\":3,\"viewing_time\":512.0250000036322},{\"page_index\":4,\"viewing_time\":527.6599999924656},{\"page_index\":5,\"viewing_time\":655.815000005532},{\"page_index\":6,\"viewing_time\":2088.1999999983236},{\"page_index\":7,\"viewing_time\":568.0149999971036}]","rt":7108.015000005253,"trial_type":"instructions","trial_index":9,"time_elapsed":375262,"internal_node_id":"0.0-5.2-0.2","task_version":"screening-prolific"},{"responses":["True","True","False","False","True"],"num_errors":0,"rt":24774.459999985993,"trial_type":"three-arm-comprehension","trial_index":10,"time_elapsed":400042,"internal_node_id":"0.0-5.2-1.2","task_version":"screening-prolific"},{"view_history":"[{\"page_index\":0,\"viewing_time\":4532.059999997728}]","rt":4532.735000015236,"trial_type":"instructions","trial_index":11,"time_elapsed":404583,"internal_node_id":"0.0-6.0","task_version":"screening-prolific"},{"contexts":["blue","green","red"],"outcomes":[0,1,0],"key":38,"choice":1,"rt":2628.11000001966,"outcome":1,"trial":1,"correct":1,"trial_type":"three-arm-trial","trial_index":12,"time_elapsed":408422,"internal_node_id":"0.0-7.0-0.0","task_version":"screening-prolific","missing":false,"accuracy":1},{"contexts":["blue","green","red"],"outcomes":[0,1,0],"key":38,"choice":1,"rt":6967.019999981858,"outcome":1,"trial":2,"correct":1,"trial_type":"three-arm-trial","trial_index":13,"time_elapsed":416605,"internal_node_id":"0.0-8.0-0.0","task_version":"screening-prolific","missing":false,"accuracy":1},{"contexts":["blue","green","red"],"outcomes":[0,1,0],"key":38,"choice":1,"rt":1828.944999986561,"outcome":1,"trial":3,"correct":1,"trial_type":"three-arm-trial","trial_index":14,"time_elapsed":419643,"internal_node_id":"0.0-9.0-0.0","task_version":"screening-prolific","missing":false,"accuracy":1},{"contexts":["blue","green","red"],"outcomes":[0,1,0],"key":38,"choice":1,"rt":2278.169999975944,"outcome":1,"trial":4,"correct":1,"trial_type":"three-arm-trial","trial_index":15,"time_elapsed":423132,"internal_node_id":"0.0-10.0-0.0","task_version":"screening-prolific","missing":false,"accuracy":1},{"contexts":["blue","green","red"],"outcomes":[0,1,0],"key":38,"choice":1,"rt":2339.159999974072,"outcome":1,"trial":5,"correct":1,"trial_type":"three-arm-trial","trial_index":16,"time_elapsed":426681,"internal_node_id":"0.0-11.0-0.0","task_version":"screening-prolific","missing":false,"accuracy":1},{"contexts":["blue","green","red"],"outcomes":[0,0,0],"key":37,"choice":0,"rt":2879.049999988638,"outcome":0,"trial":6,"correct":1,"trial_type":"three-arm-trial","trial_index":17,"time_elapsed":430771,"internal_node_id":"0.0-12.0-0.0","task_version":"screening-prolific","missing":false,"accuracy":0},{"contexts":["blue","green","red"],"outcomes":[0,1,0],"key":38,"choice":1,"rt":926.1800000094809,"outcome":1,"trial":7,"correct":1,"trial_type":"three-arm-trial","trial_index":18,"time_elapsed":432908,"internal_node_id":"0.0-13.0-0.0","task_version":"screening-prolific","missing":false,"accuracy":1},{"contexts":["blue","green","red"],"outcomes":[0,1,0],"key":38,"choice":1,"rt":652.1699999866541,"outcome":1,"trial":8,"correct":1,"trial_type":"three-arm-trial","trial_index":19,"time_elapsed":434773,"internal_node_id":"0.0-14.0-0.0","task_version":"screening-prolific","missing":false,"accuracy":1},{"contexts":["blue","green","red"],"outcomes":[1,0,0],"key":37,"choice":0,"rt":813.0750000127591,"outcome":1,"trial":9,"correct":1,"trial_type":"three-arm-trial","trial_index":20,"time_elapsed":436796,"internal_node_id":"0.0-15.0-0.0","task_version":"screening-prolific","missing":false,"accuracy":0},{"contexts":["blue","green","red"],"outcomes":[0,0,0],"key":39,"choice":2,"rt":1027.6999999769032,"outcome":0,"trial":10,"correct":1,"trial_type":"three-arm-trial","trial_index":21,"time_elapsed":439033,"internal_node_id":"0.0-16.0-0.0","task_version":"screening-prolific","missing":false,"accuracy":0},{"contexts":["blue","green","red"],"outcomes":[1,0,0],"key":37,"choice":0,"rt":577.2100000176579,"outcome":1,"trial":11,"correct":1,"trial_type":"three-arm-trial","trial_index":22,"time_elapsed":440823,"internal_node_id":"0.0-17.0-0.0","task_version":"screening-prolific","missing":false,"accuracy":0},{"contexts":["blue","green","red"],"outcomes":[1,1,0],"key":38,"choice":1,"rt":2487.135000003036,"outcome":1,"trial":12,"correct":1,"trial_type":"three-arm-trial","trial_index":23,"time_elapsed":444519,"internal_node_id":"0.0-18.0-0.0","task_version":"screening-prolific","missing":false,"accuracy":1},{"contexts":["blue","green","red"],"outcomes":[0,1,0],"key":38,"choice":1,"rt":1061.1949999874923,"outcome":1,"trial":13,"correct":1,"trial_type":"three-arm-trial","trial_index":24,"time_elapsed":446790,"internal_node_id":"0.0-19.0-0.0","task_version":"screening-prolific","missing":false,"accuracy":1},{"contexts":["blue","green","red"],"outcomes":[0,1,1],"key":39,"choice":2,"rt":2042.9299999959767,"outcome":1,"trial":14,"correct":1,"trial_type":"three-arm-trial","trial_index":25,"time_elapsed":450044,"internal_node_id":"0.0-20.0-0.0","task_version":"screening-prolific","missing":false,"accuracy":0},{"contexts":["blue","green","red"],"outcomes":[0,1,0],"key":38,"choice":1,"rt":490.7850000017788,"outcome":1,"trial":15,"correct":1,"trial_type":"three-arm-trial","trial_index":26,"time_elapsed":451745,"internal_node_id":"0.0-21.0-0.0","task_version":"screening-prolific","missing":false,"accuracy":1},{"contexts":["blue","green","red"],"outcomes":[0,0,1],"key":39,"choice":2,"rt":918.9750000077765,"outcome":1,"trial":16,"correct":2,"trial_type":"three-arm-trial","trial_index":27,"time_elapsed":453876,"internal_node_id":"0.0-22.0-0.0","task_version":"screening-prolific","missing":false,"accuracy":1},{"contexts":["blue","green","red"],"outcomes":[0,1,1],"key":39,"choice":2,"rt":2931.299999996554,"outcome":1,"trial":17,"correct":2,"trial_type":"three-arm-trial","trial_index":28,"time_elapsed":458016,"internal_node_id":"0.0-23.0-0.0","task_version":"screening-prolific","missing":false,"accuracy":1},{"contexts":["blue","green","red"],"outcomes":[0,1,0],"key":38,"choice":1,"rt":506.30000000819564,"outcome":1,"trial":18,"correct":2,"trial_type":"three-arm-trial","trial_index":29,"time_elapsed":459733,"internal_node_id":"0.0-24.0-0.0","task_version":"screening-prolific","missing":false,"accuracy":0},{"contexts":["blue","green","red"],"outcomes":[0,1,1],"key":38,"choice":1,"rt":1476.729999994859,"outcome":1,"trial":19,"correct":2,"trial_type":"three-arm-trial","trial_index":30,"time_elapsed":462418,"internal_node_id":"0.0-25.0-0.0","task_version":"screening-prolific","missing":false,"accuracy":0},{"contexts":["blue","green","red"],"outcomes":[1,0,0],"key":37,"choice":0,"rt":720.7699999853503,"outcome":1,"trial":20,"correct":2,"trial_type":"three-arm-trial","trial_index":31,"time_elapsed":464348,"internal_node_id":"0.0-26.0-0.0","task_version":"screening-prolific","missing":false,"accuracy":0},{"contexts":["blue","green","red"],"outcomes":[0,0,1],"key":39,"choice":2,"rt":700.7100000046194,"outcome":1,"trial":21,"correct":2,"trial_type":"three-arm-trial","trial_index":32,"time_elapsed":466260,"internal_node_id":"0.0-27.0-0.0","task_version":"screening-prolific","missing":false,"accuracy":1},{"contexts":["blue","green","red"],"outcomes":[1,1,0],"key":37,"choice":0,"rt":1269.6600000199396,"outcome":1,"trial":22,"correct":2,"trial_type":"three-arm-trial","trial_index":33,"time_elapsed":468740,"internal_node_id":"0.0-28.0-0.0","task_version":"screening-prolific","missing":false,"accuracy":0},{"contexts":["blue","green","red"],"outcomes":[0,0,1],"key":39,"choice":2,"rt":833.1049999978859,"outcome":1,"trial":23,"correct":2,"trial_type":"three-arm-trial","trial_index":34,"time_elapsed":470782,"internal_node_id":"0.0-29.0-0.0","task_version":"screening-prolific","missing":false,"accuracy":1},{"contexts":["blue","green","red"],"outcomes":[1,0,1],"key":39,"choice":2,"rt":1202.450000011595,"outcome":1,"trial":24,"correct":2,"trial_type":"three-arm-trial","trial_index":35,"time_elapsed":473194,"internal_node_id":"0.0-30.0-0.0","task_version":"screening-prolific","missing":false,"accuracy":1},{"contexts":["blue","green","red"],"outcomes":[0,0,0],"key":37,"choice":0,"rt":843.3450000011362,"outcome":0,"trial":25,"correct":2,"trial_type":"three-arm-trial","trial_index":36,"time_elapsed":475249,"internal_node_id":"0.0-31.0-0.0","task_version":"screening-prolific","missing":false,"accuracy":0},{"contexts":["blue","green","red"],"outcomes":[0,0,1],"key":39,"choice":2,"rt":561.0650000162423,"outcome":1,"trial":26,"correct":2,"trial_type":"three-arm-trial","trial_index":37,"time_elapsed":477021,"internal_node_id":"0.0-32.0-0.0","task_version":"screening-prolific","missing":false,"accuracy":1},{"contexts":["blue","green","red"],"outcomes":[1,0,1],"key":37,"choice":0,"rt":1039.279999997234,"outcome":1,"trial":27,"correct":2,"trial_type":"three-arm-trial","trial_index":38,"time_elapsed":479271,"internal_node_id":"0.0-33.0-0.0","task_version":"screening-prolific","missing":false,"accuracy":0},{"contexts":["blue","green","red"],"outcomes":[0,0,1],"key":39,"choice":2,"rt":675.1250000088476,"outcome":1,"trial":28,"correct":2,"trial_type":"three-arm-trial","trial_index":39,"time_elapsed":481157,"internal_node_id":"0.0-34.0-0.0","task_version":"screening-prolific","missing":false,"accuracy":1},{"contexts":["blue","green","red"],"outcomes":[0,0,1],"key":39,"choice":2,"rt":653.5650000150781,"outcome":1,"trial":29,"correct":2,"trial_type":"three-arm-trial","trial_index":40,"time_elapsed":483021,"internal_node_id":"0.0-35.0-0.0","task_version":"screening-prolific","missing":false,"accuracy":1},{"contexts":["blue","green","red"],"outcomes":[1,0,1],"key":39,"choice":2,"rt":2799.6099999872968,"outcome":1,"trial":30,"correct":2,"trial_type":"three-arm-trial","trial_index":41,"time_elapsed":487030,"internal_node_id":"0.0-36.0-0.0","task_version":"screening-prolific","missing":false,"accuracy":1},{"contexts":["blue","green","red"],"outcomes":[1,0,0],"key":37,"choice":0,"rt":469.01500000967644,"outcome":1,"trial":31,"correct":0,"trial_type":"three-arm-trial","trial_index":42,"time_elapsed":488710,"internal_node_id":"0.0-37.0-0.0","task_version":"screening-prolific","missing":false,"accuracy":1},{"contexts":["blue","green","red"],"outcomes":[1,0,0],"key":37,"choice":0,"rt":877.7800000098068,"outcome":1,"trial":32,"correct":0,"trial_type":"three-arm-trial","trial_index":43,"time_elapsed":490797,"internal_node_id":"0.0-38.0-0.0","task_version":"screening-prolific","missing":false,"accuracy":1},{"contexts":["blue","green","red"],"outcomes":[0,0,0],"key":37,"choice":0,"rt":825.5599999974947,"outcome":0,"trial":33,"correct":0,"trial_type":"three-arm-trial","trial_index":44,"time_elapsed":492833,"internal_node_id":"0.0-39.0-0.0","task_version":"screening-prolific","missing":false,"accuracy":1},{"contexts":["blue","green","red"],"outcomes":[0,1,0],"key":38,"choice":1,"rt":740.3599999961443,"outcome":1,"trial":34,"correct":0,"trial_type":"three-arm-trial","trial_index":45,"time_elapsed":494785,"internal_node_id":"0.0-40.0-0.0","task_version":"screening-prolific","missing":false,"accuracy":0},{"contexts":["blue","green","red"],"outcomes":[1,0,0],"key":37,"choice":0,"rt":750.9749999735504,"outcome":1,"trial":35,"correct":0,"trial_type":"three-arm-trial","trial_index":46,"time_elapsed":496746,"internal_node_id":"0.0-41.0-0.0","task_version":"screening-prolific","missing":false,"accuracy":1},{"contexts":["blue","green","red"],"outcomes":[1,0,0],"key":37,"choice":0,"rt":752.3899999796413,"outcome":1,"trial":36,"correct":0,"trial_type":"three-arm-trial","trial_index":47,"time_elapsed":498710,"internal_node_id":"0.0-42.0-0.0","task_version":"screening-prolific","missing":false,"accuracy":1},{"contexts":["blue","green","red"],"outcomes":[1,0,0],"key":37,"choice":0,"rt":888.3149999892339,"outcome":1,"trial":37,"correct":0,"trial_type":"three-arm-trial","trial_index":48,"time_elapsed":500809,"internal_node_id":"0.0-43.0-0.0","task_version":"screening-prolific","missing":false,"accuracy":1},{"contexts":["blue","green","red"],"outcomes":[0,0,0],"key":39,"choice":2,"rt":739.8099999991246,"outcome":0,"trial":38,"correct":0,"trial_type":"three-arm-trial","trial_index":49,"time_elapsed":502758,"internal_node_id":"0.0-44.0-0.0","task_version":"screening-prolific","missing":false,"accuracy":0},{"contexts":["blue","green","red"],"outcomes":[1,0,0],"key":37,"choice":0,"rt":504.15000002249144,"outcome":1,"trial":39,"correct":0,"trial_type":"three-arm-trial","trial_index":50,"time_elapsed":504472,"internal_node_id":"0.0-45.0-0.0","task_version":"screening-prolific","missing":false,"accuracy":1},{"contexts":["blue","green","red"],"outcomes":[1,0,0],"key":37,"choice":0,"rt":1146.5050000115298,"outcome":1,"trial":40,"correct":0,"trial_type":"three-arm-trial","trial_index":51,"time_elapsed":506829,"internal_node_id":"0.0-46.0-0.0","task_version":"screening-prolific","missing":false,"accuracy":1},{"contexts":["blue","green","red"],"outcomes":[1,0,0],"key":37,"choice":0,"rt":708.489999989979,"outcome":1,"trial":41,"correct":0,"trial_type":"three-arm-trial","trial_index":52,"time_elapsed":508748,"internal_node_id":"0.0-47.0-0.0","task_version":"screening-prolific","missing":false,"accuracy":1},{"contexts":["blue","green","red"],"outcomes":[0,0,0],"key":38,"choice":1,"rt":848.9150000095833,"outcome":0,"trial":42,"correct":0,"trial_type":"three-arm-trial","trial_index":53,"time_elapsed":510809,"internal_node_id":"0.0-48.0-0.0","task_version":"screening-prolific","missing":false,"accuracy":0},{"contexts":["blue","green","red"],"outcomes":[1,0,0],"key":37,"choice":0,"rt":515.1150000165217,"outcome":1,"trial":43,"correct":0,"trial_type":"three-arm-trial","trial_index":54,"time_elapsed":512535,"internal_node_id":"0.0-49.0-0.0","task_version":"screening-prolific","missing":false,"accuracy":1},{"contexts":["blue","green","red"],"outcomes":[1,0,0],"key":39,"choice":2,"rt":540.0800000061281,"outcome":0,"trial":44,"correct":0,"trial_type":"three-arm-trial","trial_index":55,"time_elapsed":514284,"internal_node_id":"0.0-50.0-0.0","task_version":"screening-prolific","missing":false,"accuracy":0},{"contexts":["blue","green","red"],"outcomes":[1,0,0],"key":37,"choice":0,"rt":640.2200000011362,"outcome":1,"trial":45,"correct":0,"trial_type":"three-arm-trial","trial_index":56,"time_elapsed":516134,"internal_node_id":"0.0-51.0-0.0","task_version":"screening-prolific","missing":false,"accuracy":1},{"contexts":["blue","green","red"],"outcomes":[1,0,0],"key":37,"choice":0,"rt":764.3350000143982,"outcome":1,"trial":46,"correct":2,"trial_type":"three-arm-trial","trial_index":57,"time_elapsed":518109,"internal_node_id":"0.0-52.0-0.0","task_version":"screening-prolific","missing":false,"accuracy":0},{"contexts":["blue","green","red"],"outcomes":[1,0,0],"key":37,"choice":0,"rt":657.3849999986123,"outcome":1,"trial":47,"correct":2,"trial_type":"three-arm-trial","trial_index":58,"time_elapsed":519976,"internal_node_id":"0.0-53.0-0.0","task_version":"screening-prolific","missing":false,"accuracy":0},{"contexts":["blue","green","red"],"outcomes":[0,0,1],"key":39,"choice":2,"rt":734.8800000036135,"outcome":1,"trial":48,"correct":2,"trial_type":"three-arm-trial","trial_index":59,"time_elapsed":521923,"internal_node_id":"0.0-54.0-0.0","task_version":"screening-prolific","missing":false,"accuracy":1},{"contexts":["blue","green","red"],"outcomes":[1,0,1],"key":39,"choice":2,"rt":1112.6100000110455,"outcome":1,"trial":49,"correct":2,"trial_type":"three-arm-trial","trial_index":60,"time_elapsed":524248,"internal_node_id":"0.0-55.0-0.0","task_version":"screening-prolific","missing":false,"accuracy":1},{"contexts":["blue","green","red"],"outcomes":[0,0,0],"key":37,"choice":0,"rt":576.535000000149,"outcome":0,"trial":50,"correct":2,"trial_type":"three-arm-trial","trial_index":61,"time_elapsed":526033,"internal_node_id":"0.0-56.0-0.0","task_version":"screening-prolific","missing":false,"accuracy":0},{"contexts":["blue","green","red"],"outcomes":[0,0,1],"key":38,"choice":1,"rt":727.6149999815971,"outcome":0,"trial":51,"correct":2,"trial_type":"three-arm-trial","trial_index":62,"time_elapsed":527971,"internal_node_id":"0.0-57.0-0.0","task_version":"screening-prolific","missing":false,"accuracy":0},{"contexts":["blue","green","red"],"outcomes":[0,0,1],"key":39,"choice":2,"rt":1910.3950000135228,"outcome":1,"trial":52,"correct":2,"trial_type":"three-arm-trial","trial_index":63,"time_elapsed":531091,"internal_node_id":"0.0-58.0-0.0","task_version":"screening-prolific","missing":false,"accuracy":1},{"contexts":["blue","green","red"],"outcomes":[0,0,1],"key":39,"choice":2,"rt":870.855000015581,"outcome":1,"trial":53,"correct":2,"trial_type":"three-arm-trial","trial_index":64,"time_elapsed":533172,"internal_node_id":"0.0-59.0-0.0","task_version":"screening-prolific","missing":false,"accuracy":1},{"contexts":["blue","green","red"],"outcomes":[0,1,0],"key":38,"choice":1,"rt":1977.1949999849312,"outcome":1,"trial":54,"correct":2,"trial_type":"three-arm-trial","trial_index":65,"time_elapsed":536359,"internal_node_id":"0.0-60.0-0.0","task_version":"screening-prolific","missing":false,"accuracy":0},{"contexts":["blue","green","red"],"outcomes":[0,1,1],"key":38,"choice":1,"rt":1049.9199999903794,"outcome":1,"trial":55,"correct":2,"trial_type":"three-arm-trial","trial_index":66,"time_elapsed":538617,"internal_node_id":"0.0-61.0-0.0","task_version":"screening-prolific","missing":false,"accuracy":0},{"contexts":["blue","green","red"],"outcomes":[1,0,1],"key":39,"choice":2,"rt":341.0099999746308,"outcome":1,"trial":56,"correct":2,"trial_type":"three-arm-trial","trial_index":67,"time_elapsed":540169,"internal_node_id":"0.0-62.0-0.0","task_version":"screening-prolific","missing":false,"accuracy":1},{"contexts":["blue","green","red"],"outcomes":[0,0,1],"key":37,"choice":0,"rt":466.89000001060776,"outcome":0,"trial":57,"correct":2,"trial_type":"three-arm-trial","trial_index":68,"time_elapsed":541848,"internal_node_id":"0.0-63.0-0.0","task_version":"screening-prolific","missing":false,"accuracy":0},{"contexts":["blue","green","red"],"outcomes":[1,0,0],"key":37,"choice":0,"rt":439.7750000061933,"outcome":1,"trial":58,"correct":2,"trial_type":"three-arm-trial","trial_index":69,"time_elapsed":543499,"internal_node_id":"0.0-64.0-0.0","task_version":"screening-prolific","missing":false,"accuracy":0},{"contexts":["blue","green","red"],"outcomes":[0,0,1],"key":39,"choice":2,"rt":574.9399999913294,"outcome":1,"trial":59,"correct":2,"trial_type":"three-arm-trial","trial_index":70,"time_elapsed":545283,"internal_node_id":"0.0-65.0-0.0","task_version":"screening-prolific","missing":false,"accuracy":1},{"contexts":["blue","green","red"],"outcomes":[1,1,1],"key":38,"choice":1,"rt":1375.1099999935832,"outcome":1,"trial":60,"correct":2,"trial_type":"three-arm-trial","trial_index":71,"time_elapsed":547870,"internal_node_id":"0.0-66.0-0.0","task_version":"screening-prolific","missing":false,"accuracy":0},{"contexts":["blue","green","red"],"outcomes":[0,1,0],"key":38,"choice":1,"rt":727.9549999802839,"outcome":1,"trial":61,"correct":1,"trial_type":"three-arm-trial","trial_index":72,"time_elapsed":549810,"internal_node_id":"0.0-67.0-0.0","task_version":"screening-prolific","missing":false,"accuracy":1},{"contexts":["blue","green","red"],"outcomes":[0,1,0],"key":38,"choice":1,"rt":612.9049999872223,"outcome":1,"trial":62,"correct":1,"trial_type":"three-arm-trial","trial_index":73,"time_elapsed":551632,"internal_node_id":"0.0-68.0-0.0","task_version":"screening-prolific","missing":false,"accuracy":1},{"contexts":["blue","green","red"],"outcomes":[0,1,0],"key":38,"choice":1,"rt":353.68000000016764,"outcome":1,"trial":63,"correct":1,"trial_type":"three-arm-trial","trial_index":74,"time_elapsed":553196,"internal_node_id":"0.0-69.0-0.0","task_version":"screening-prolific","missing":false,"accuracy":1},{"contexts":["blue","green","red"],"outcomes":[0,1,0],"key":38,"choice":1,"rt":465.35499999299645,"outcome":1,"trial":64,"correct":1,"trial_type":"three-arm-trial","trial_index":75,"time_elapsed":554872,"internal_node_id":"0.0-70.0-0.0","task_version":"screening-prolific","missing":false,"accuracy":1},{"contexts":["blue","green","red"],"outcomes":[0,1,0],"key":38,"choice":1,"rt":378.95499999285676,"outcome":1,"trial":65,"correct":1,"trial_type":"three-arm-trial","trial_index":76,"time_elapsed":556462,"internal_node_id":"0.0-71.0-0.0","task_version":"screening-prolific","missing":false,"accuracy":1},{"contexts":["blue","green","red"],"outcomes":[1,0,0],"key":37,"choice":0,"rt":583.2399999781046,"outcome":1,"trial":66,"correct":1,"trial_type":"three-arm-trial","trial_index":77,"time_elapsed":558257,"internal_node_id":"0.0-72.0-0.0","task_version":"screening-prolific","missing":false,"accuracy":0},{"contexts":["blue","green","red"],"outcomes":[1,1,0],"key":38,"choice":1,"rt":853.3799999859184,"outcome":1,"trial":67,"correct":1,"trial_type":"three-arm-trial","trial_index":78,"time_elapsed":560321,"internal_node_id":"0.0-73.0-0.0","task_version":"screening-prolific","missing":false,"accuracy":1},{"contexts":["blue","green","red"],"outcomes":[0,1,0],"key":37,"choice":0,"rt":424.34999998658895,"outcome":0,"trial":68,"correct":1,"trial_type":"three-arm-trial","trial_index":79,"time_elapsed":561959,"internal_node_id":"0.0-74.0-0.0","task_version":"screening-prolific","missing":false,"accuracy":0},{"contexts":["blue","green","red"],"outcomes":[1,1,0],"key":37,"choice":0,"rt":902.2000000113621,"outcome":1,"trial":69,"correct":1,"trial_type":"three-arm-trial","trial_index":80,"time_elapsed":564072,"internal_node_id":"0.0-75.0-0.0","task_version":"screening-prolific","missing":false,"accuracy":0},{"contexts":["blue","green","red"],"outcomes":[0,0,0],"key":38,"choice":1,"rt":901.6100000008009,"outcome":0,"trial":70,"correct":1,"trial_type":"three-arm-trial","trial_index":81,"time_elapsed":566184,"internal_node_id":"0.0-76.0-0.0","task_version":"screening-prolific","missing":false,"accuracy":1},{"contexts":["blue","green","red"],"outcomes":[0,1,0],"key":38,"choice":1,"rt":488.25999998371117,"outcome":1,"trial":71,"correct":1,"trial_type":"three-arm-trial","trial_index":82,"time_elapsed":567886,"internal_node_id":"0.0-77.0-0.0","task_version":"screening-prolific","missing":false,"accuracy":1},{"contexts":["blue","green","red"],"outcomes":[0,1,0],"key":38,"choice":1,"rt":712.4549999716692,"outcome":1,"trial":72,"correct":1,"trial_type":"three-arm-trial","trial_index":83,"time_elapsed":569811,"internal_node_id":"0.0-78.0-0.0","task_version":"screening-prolific","missing":false,"accuracy":1},{"contexts":["blue","green","red"],"outcomes":[1,1,0],"key":37,"choice":0,"rt":1010.4299999948125,"outcome":1,"trial":73,"correct":1,"trial_type":"three-arm-trial","trial_index":84,"time_elapsed":572032,"internal_node_id":"0.0-79.0-0.0","task_version":"screening-prolific","missing":false,"accuracy":0},{"contexts":["blue","green","red"],"outcomes":[0,1,1],"key":38,"choice":1,"rt":416.35000001406297,"outcome":1,"trial":74,"correct":1,"trial_type":"three-arm-trial","trial_index":85,"time_elapsed":573659,"internal_node_id":"0.0-80.0-0.0","task_version":"screening-prolific","missing":false,"accuracy":1},{"contexts":["blue","green","red"],"outcomes":[0,1,1],"key":39,"choice":2,"rt":1171.7650000064168,"outcome":1,"trial":75,"correct":1,"trial_type":"three-arm-trial","trial_index":86,"time_elapsed":576048,"internal_node_id":"0.0-81.0-0.0","task_version":"screening-prolific","missing":false,"accuracy":0},{"contexts":["blue","green","red"],"outcomes":[0,0,1],"key":38,"choice":1,"rt":676.9250000070315,"outcome":0,"trial":76,"correct":2,"trial_type":"three-arm-trial","trial_index":87,"time_elapsed":577934,"internal_node_id":"0.0-82.0-0.0","task_version":"screening-prolific","missing":false,"accuracy":0},{"contexts":["blue","green","red"],"outcomes":[0,0,0],"key":38,"choice":1,"rt":802.2200000123121,"outcome":0,"trial":77,"correct":2,"trial_type":"three-arm-trial","trial_index":88,"time_elapsed":579947,"internal_node_id":"0.0-83.0-0.0","task_version":"screening-prolific","missing":false,"accuracy":0},{"contexts":["blue","green","red"],"outcomes":[0,0,1],"key":39,"choice":2,"rt":649.280000012368,"outcome":1,"trial":78,"correct":2,"trial_type":"three-arm-trial","trial_index":89,"time_elapsed":581808,"internal_node_id":"0.0-84.0-0.0","task_version":"screening-prolific","missing":false,"accuracy":1},{"contexts":["blue","green","red"],"outcomes":[0,0,1],"key":39,"choice":2,"rt":807.1850000123959,"outcome":1,"trial":79,"correct":2,"trial_type":"three-arm-trial","trial_index":90,"time_elapsed":583823,"internal_node_id":"0.0-85.0-0.0","task_version":"screening-prolific","missing":false,"accuracy":1},{"contexts":["blue","green","red"],"outcomes":[0,0,1],"key":39,"choice":2,"rt":450.0150000094436,"outcome":1,"trial":80,"correct":2,"trial_type":"three-arm-trial","trial_index":91,"time_elapsed":585484,"internal_node_id":"0.0-86.0-0.0","task_version":"screening-prolific","missing":false,"accuracy":1},{"contexts":["blue","green","red"],"outcomes":[1,0,1],"key":39,"choice":2,"rt":377.3700000019744,"outcome":1,"trial":81,"correct":2,"trial_type":"three-arm-trial","trial_index":92,"time_elapsed":587071,"internal_node_id":"0.0-87.0-0.0","task_version":"screening-prolific","missing":false,"accuracy":1},{"contexts":["blue","green","red"],"outcomes":[1,0,0],"key":37,"choice":0,"rt":1466.004999994766,"outcome":1,"trial":82,"correct":2,"trial_type":"three-arm-trial","trial_index":93,"time_elapsed":589748,"internal_node_id":"0.0-88.0-0.0","task_version":"screening-prolific","missing":false,"accuracy":0},{"contexts":["blue","green","red"],"outcomes":[0,1,1],"key":38,"choice":1,"rt":827.8949999948964,"outcome":1,"trial":83,"correct":2,"trial_type":"three-arm-trial","trial_index":94,"time_elapsed":591784,"internal_node_id":"0.0-89.0-0.0","task_version":"screening-prolific","missing":false,"accuracy":0},{"contexts":["blue","green","red"],"outcomes":[0,0,1],"key":39,"choice":2,"rt":414.53499998897314,"outcome":1,"trial":84,"correct":2,"trial_type":"three-arm-trial","trial_index":95,"time_elapsed":593408,"internal_node_id":"0.0-90.0-0.0","task_version":"screening-prolific","missing":false,"accuracy":1},{"contexts":["blue","green","red"],"outcomes":[0,0,1],"key":39,"choice":2,"rt":440.63500000629574,"outcome":1,"trial":85,"correct":2,"trial_type":"three-arm-trial","trial_index":96,"time_elapsed":595058,"internal_node_id":"0.0-91.0-0.0","task_version":"screening-prolific","missing":false,"accuracy":1},{"contexts":["blue","green","red"],"outcomes":[0,0,1],"key":39,"choice":2,"rt":419.6200000005774,"outcome":1,"trial":86,"correct":2,"trial_type":"three-arm-trial","trial_index":97,"time_elapsed":596688,"internal_node_id":"0.0-92.0-0.0","task_version":"screening-prolific","missing":false,"accuracy":1},{"contexts":["blue","green","red"],"outcomes":[1,0,0],"key":37,"choice":0,"rt":526.0399999970105,"outcome":1,"trial":87,"correct":2,"trial_type":"three-arm-trial","trial_index":98,"time_elapsed":598423,"internal_node_id":"0.0-93.0-0.0","task_version":"screening-prolific","missing":false,"accuracy":0},{"contexts":["blue","green","red"],"outcomes":[0,0,1],"key":39,"choice":2,"rt":593.525000003865,"outcome":1,"trial":88,"correct":2,"trial_type":"three-arm-trial","trial_index":99,"time_elapsed":600228,"internal_node_id":"0.0-94.0-0.0","task_version":"screening-prolific","missing":false,"accuracy":1},{"contexts":["blue","green","red"],"outcomes":[0,0,1],"key":39,"choice":2,"rt":760.0850000162609,"outcome":1,"trial":89,"correct":2,"trial_type":"three-arm-trial","trial_index":100,"time_elapsed":602201,"internal_node_id":"0.0-95.0-0.0","task_version":"screening-prolific","missing":false,"accuracy":1},{"contexts":["blue","green","red"],"outcomes":[1,1,1],"key":38,"choice":1,"rt":859.6600000164472,"outcome":1,"trial":90,"correct":2,"trial_type":"three-arm-trial","trial_index":101,"time_elapsed":604273,"internal_node_id":"0.0-96.0-0.0","task_version":"screening-prolific","missing":false,"accuracy":0},{"rt":20174.700000003213,"responses":{"age":"29","gender-categorical":"Female","gender-free-response":"","ethnicity":"Not Hispanic or Latino","race":["White"],"language":"Yes","fluency":"Very well","mturk":"No","mturk-this-study":"No"},"survey":"demographics","trial_type":"survey-demo","trial_index":102,"time_elapsed":624473,"internal_node_id":"0.0-97.0","task_version":"screening-prolific","interactions":"[]"}]