[{"success":true,"timeout":false,"failed_images":[],"failed_audio":[],"failed_video":[],"trial_type":"preload","trial_index":0,"time_elapsed":717,"internal_node_id":"0.0-0.0","task_version":"1.0","jspsych_version":"6.3.1"},{"success":true,"trial_type":"fullscreen","trial_index":1,"time_elapsed":5249,"internal_node_id":"0.0-1.0","task_version":"1.0","jspsych_version":"6.3.1"},{"view_history":[{"page_index":0,"viewing_time":4782.599999964237}],"rt":4784.799999952316,"trial_type":"instructions","trial_index":2,"time_elapsed":10041,"internal_node_id":"0.0-2.0","task_version":"1.0","jspsych_version":"6.3.1"},{"responses":{"Q07":"0","Q08":"0","Q01":"0","Q05":"1","Q04":"1","Q02":"1","Q06":"0","Q03":"1"},"rt":54340,"item_order":[6,7,0,4,3,1,5,2],"radio_events":[15403.100000023842,23417.100000023842,30269,34707.10000002384,39481,44553.69999998808,49662.80000001192,53307.10000002384],"key_events":[],"mouse_events":[0.30000001192092896,14473.199999988079,15403.100000023842,23417.100000023842,30269,34707.10000002384,39481,43804,44553.69999998808,49662.80000001192,53307.10000002384,54336.30000001192],"straightlining":0.5,"zigzagging":0.42857142857142855,"honeypot":0,"survey":"depression","trial_type":"survey-template","trial_index":3,"time_elapsed":64411,"internal_node_id":"0.0-3.0","task_version":"1.0","jspsych_version":"6.3.1"},{"responses":{"Q03":"3","Q08":"0","Q06":"3","Q07":"2","Q02":"2","Q01":"3","Q04":"3","Q05":"3"},"rt":21727.30000001192,"item_order":[2,7,5,6,1,0,3,4],"radio_events":[10459.5,12147.699999988079,13977.300000011921,15631,17243.30000001192,18673.80000001192,20501.19999998808,21121.100000023842],"key_events":[],"mouse_events":[8898.300000011921,10459.5,12147.699999988079,13977.300000011921,15631,17243.30000001192,18673.80000001192,20501.19999998808,21121.100000023842,21724.80000001192],"straightlining":0.625,"zigzagging":0.5714285714285714,"honeypot":0,"survey":"anxiety","trial_type":"survey-template","trial_index":4,"time_elapsed":86156,"internal_node_id":"0.0-4.0","task_version":"1.0","jspsych_version":"6.3.1"},{"responses":{"Q03":"4","Q04":"1","Q07":"3","Q01":"5","Q05":"1","Q06":"2","Q02":"1"},"rt":26588.69999998808,"item_order":[2,3,6,0,4,5,1],"radio_events":[6977.199999988079,8763.300000011921,10162,13685.399999976158,20096.899999976158,23532.899999976158,25573],"key_events":[],"mouse_events":[6977.199999988079,8763.300000011921,10162,13685.399999976158,20096.899999976158,23532.899999976158,25573,26585.100000023842],"straightlining":0.2857142857142857,"zigzagging":0.3333333333333333,"honeypot":0,"survey":"artistic","trial_type":"survey-template","trial_index":5,"time_elapsed":112759,"internal_node_id":"0.0-5.0","task_version":"1.0","jspsych_version":"6.3.1"},{"responses":{"Q04":"0","Q01":"0","Q06":"0","Q08":"3","Q07":"0","Q02":"0","Q05":"0","Q03":"0"},"rt":65373.30000001192,"item_order":[3,0,5,7,6,1,4,2],"radio_events":[11693.199999988079,20937.19999998808,27282.900000035763,33271.40000003576,45358.90000003576,52200.69999998808,59136.69999998808,64532.40000003576],"key_events":[],"mouse_events":[11693.199999988079,20937.19999998808,27282.900000035763,32033,33271.40000003576,45358.90000003576,52200.69999998808,59136.69999998808,64532.40000003576,65370.60000002384],"straightlining":0.875,"zigzagging":0.2857142857142857,"honeypot":0,"survey":"mania","trial_type":"survey-template","trial_index":6,"time_elapsed":178145,"internal_node_id":"0.0-6.0","task_version":"1.0","jspsych_version":"6.3.1"},{"responses":{"Q04":"3","Q05":"1","Q07":"6","Q03":"0","Q01":"0","Q02":"0","Q06":"0"},"rt":25284.5,"item_order":[3,4,6,2,0,1,5],"radio_events":[7993.400000035763,13375.400000035763,14725.400000035763,17091,19591.400000035763,20365.200000047684,21873.30000001192,24337.5],"key_events":[],"mouse_events":[7993.400000035763,13375.400000035763,14725.400000035763,17091,19591.400000035763,20365.200000047684,21873.30000001192,23773.5,24337.5,25279.30000001192],"straightlining":0.5714285714285714,"zigzagging":0.16666666666666666,"honeypot":0,"survey":"greed","trial_type":"survey-template","trial_index":7,"time_elapsed":203441,"internal_node_id":"0.0-7.0","task_version":"1.0","jspsych_version":"6.3.1"},{"view_history":"[{\"page_index\":0,\"viewing_time\":7100.199999988079},{\"page_index\":1,\"viewing_time\":7241.300000011921},{\"page_index\":2,\"viewing_time\":4255.899999976158},{\"page_index\":3,\"viewing_time\":11911.800000011921},{\"page_index\":4,\"viewing_time\":5524},{\"page_index\":5,\"viewing_time\":3602.100000023842},{\"page_index\":6,\"viewing_time\":2203.899999976158},{\"page_index\":7,\"viewing_time\":6232.199999988079},{\"page_index\":8,\"viewing_time\":9599.800000011921},{\"page_index\":9,\"viewing_time\":8000},{\"page_index\":10,\"viewing_time\":5133.800000011921}]","rt":70808.80000001192,"trial_type":"two-step-instructions","trial_index":8,"time_elapsed":274277,"internal_node_id":"0.0-8.0-1.0","task_version":"1.0","jspsych_version":"6.3.1"},{"responses":["left/right arrow keys","True","True"],"num_errors":0,"rt":15633.5,"quiz":1,"trial_type":"two-step-comprehension","trial_index":9,"time_elapsed":289925,"internal_node_id":"0.0-8.0-2.0","task_version":"1.0","jspsych_version":"6.3.1"},{"view_history":"[{\"page_index\":0,\"viewing_time\":9308.600000023842}]","rt":9309.5,"phase":"instructions_1b","trial_type":"two-step-instructions","trial_index":10,"time_elapsed":299250,"internal_node_id":"0.0-9.0-0.0-0.0","task_version":"1.0","jspsych_version":"6.3.1"},{"state_2_ids":[0,1],"state_2_key":1,"state_2_choice":1,"state_2_rt":3101.300000011921,"outcome":1,"screen_resolution":[1280,1024],"minimum_resolution":1,"trial_type":"alien-practice","trial_index":11,"time_elapsed":304569,"internal_node_id":"0.0-9.0-1.0-0.0","task_version":"1.0","jspsych_version":"6.3.1"},{"state_2_ids":[0,1],"state_2_key":1,"state_2_choice":1,"state_2_rt":1705.5999999642372,"outcome":0,"screen_resolution":[1280,1024],"minimum_resolution":1,"trial_type":"alien-practice","trial_index":12,"time_elapsed":308484,"internal_node_id":"0.0-9.0-2.0-0.0","task_version":"1.0","jspsych_version":"6.3.1"},{"state_2_ids":[0,1],"state_2_key":1,"state_2_choice":1,"state_2_rt":1375.199999988079,"outcome":1,"screen_resolution":[1280,1024],"minimum_resolution":1,"trial_type":"alien-practice","trial_index":13,"time_elapsed":312068,"internal_node_id":"0.0-9.0-3.0-0.0","task_version":"1.0","jspsych_version":"6.3.1"},{"state_2_ids":[0,1],"state_2_key":1,"state_2_choice":1,"state_2_rt":1103.1000000238419,"outcome":1,"screen_resolution":[1280,1024],"minimum_resolution":1,"trial_type":"alien-practice","trial_index":14,"time_elapsed":315380,"internal_node_id":"0.0-9.0-4.0-0.0","task_version":"1.0","jspsych_version":"6.3.1"},{"state_2_ids":[0,1],"state_2_key":1,"state_2_choice":1,"state_2_rt":726.8999999761581,"outcome":1,"screen_resolution":[1280,1024],"minimum_resolution":1,"trial_type":"alien-practice","trial_index":15,"time_elapsed":318315,"internal_node_id":"0.0-9.0-5.0-0.0","task_version":"1.0","jspsych_version":"6.3.1"},{"view_history":"[{\"page_index\":0,\"viewing_time\":6089.700000047684},{\"page_index\":1,\"viewing_time\":3098.099999964237},{\"page_index\":2,\"viewing_time\":9463.699999988079},{\"page_index\":3,\"viewing_time\":11562.100000023842},{\"page_index\":4,\"viewing_time\":4344.699999988079},{\"page_index\":5,\"viewing_time\":4049}]","rt":38608.700000047684,"trial_type":"two-step-instructions","trial_index":16,"time_elapsed":356936,"internal_node_id":"0.0-10.0-1.0","task_version":"1.0","jspsych_version":"6.3.1"},{"responses":["left/right arrow keys","False","True"],"num_errors":0,"rt":16905.5,"quiz":2,"trial_type":"two-step-comprehension","trial_index":17,"time_elapsed":373851,"internal_node_id":"0.0-10.0-2.0","task_version":"1.0","jspsych_version":"6.3.1"},{"view_history":"[{\"page_index\":0,\"viewing_time\":13753.600000023842},{\"page_index\":1,\"viewing_time\":5261.899999976158},{\"page_index\":2,\"viewing_time\":11173.300000011921}]","rt":30190.100000023842,"trial_type":"two-step-instructions","trial_index":18,"time_elapsed":404053,"internal_node_id":"0.0-11.0-0.0","task_version":"1.0","jspsych_version":"6.3.1"},{"state_1_ids":[1,0],"state_1_key":1,"state_1_choice":0,"state_1_rt":2371.7000000476837,"transition":1,"state":0,"state_2_ids":[0,1],"state_2_key":1,"state_2_choice":1,"state_2_rt":2928.300000011921,"outcome":0,"rocket_colors":["#486ea7","#a75248"],"planet_colors":["#706081","#5b7c65"],"screen_resolution":[1280,1024],"minimum_resolution":1,"trial":0,"trial_type":"two-step-trial","trial_index":19,"time_elapsed":411371,"internal_node_id":"0.0-11.0-1.0-0.0","task_version":"1.0","jspsych_version":"6.3.1","missing":false},{"state_1_ids":[1,0],"state_1_key":0,"state_1_choice":1,"state_1_rt":3191.099999964237,"transition":1,"state":1,"state_2_ids":[2,3],"state_2_key":1,"state_2_choice":3,"state_2_rt":2636.800000011921,"outcome":1,"rocket_colors":["#486ea7","#a75248"],"planet_colors":["#706081","#5b7c65"],"screen_resolution":[1280,1024],"minimum_resolution":1,"trial":0,"trial_type":"two-step-trial","trial_index":20,"time_elapsed":419210,"internal_node_id":"0.0-11.0-1.0-0.1","task_version":"1.0","jspsych_version":"6.3.1","missing":false},{"state_1_ids":[0,1],"state_1_key":0,"state_1_choice":0,"state_1_rt":3169.300000011921,"transition":0,"state":1,"state_2_ids":[2,3],"state_2_key":1,"state_2_choice":3,"state_2_rt":1420.800000011921,"outcome":0,"rocket_colors":["#486ea7","#a75248"],"planet_colors":["#706081","#5b7c65"],"screen_resolution":[1280,1024],"minimum_resolution":1,"trial":0,"trial_type":"two-step-trial","trial_index":21,"time_elapsed":425810,"internal_node_id":"0.0-11.0-1.0-0.2","task_version":"1.0","jspsych_version":"6.3.1","missing":false},{"state_1_ids":[0,1],"state_1_key":0,"state_1_choice":0,"state_1_rt":2833.600000023842,"transition":0,"state":1,"state_2_ids":[2,3],"state_2_key":0,"state_2_choice":2,"state_2_rt":1285.5,"outcome":0,"rocket_colors":["#486ea7","#a75248"],"planet_colors":["#706081","#5b7c65"],"screen_resolution":[1280,1024],"minimum_resolution":1,"trial":0,"trial_type":"two-step-trial","trial_index":22,"time_elapsed":431938,"internal_node_id":"0.0-11.0-1.0-0.3","task_version":"1.0","jspsych_version":"6.3.1","missing":false},{"state_1_ids":[1,0],"state_1_key":1,"state_1_choice":0,"state_1_rt":2096.600000023842,"transition":0,"state":1,"state_2_ids":[2,3],"state_2_key":1,"state_2_choice":3,"state_2_rt":1162.5,"outcome":1,"rocket_colors":["#486ea7","#a75248"],"planet_colors":["#706081","#5b7c65"],"screen_resolution":[1280,1024],"minimum_resolution":1,"trial":0,"trial_type":"two-step-trial","trial_index":23,"time_elapsed":437211,"internal_node_id":"0.0-11.0-1.0-0.4","task_version":"1.0","jspsych_version":"6.3.1","missing":false},{"state_1_ids":[0,1],"state_1_key":1,"state_1_choice":1,"state_1_rt":1993,"transition":1,"state":1,"state_2_ids":[2,3],"state_2_key":1,"state_2_choice":3,"state_2_rt":1331.5999999642372,"outcome":1,"rocket_colors":["#486ea7","#a75248"],"planet_colors":["#706081","#5b7c65"],"screen_resolution":[1280,1024],"minimum_resolution":1,"trial":0,"trial_type":"two-step-trial","trial_index":24,"time_elapsed":442545,"internal_node_id":"0.0-11.0-1.0-0.5","task_version":"1.0","jspsych_version":"6.3.1","missing":false},{"state_1_ids":[1,0],"state_1_key":1,"state_1_choice":0,"state_1_rt":1673.9000000357628,"transition":1,"state":0,"state_2_ids":[0,1],"state_2_key":1,"state_2_choice":1,"state_2_rt":1077.699999988079,"outcome":1,"rocket_colors":["#486ea7","#a75248"],"planet_colors":["#706081","#5b7c65"],"screen_resolution":[1280,1024],"minimum_resolution":1,"trial":0,"trial_type":"two-step-trial","trial_index":25,"time_elapsed":447319,"internal_node_id":"0.0-11.0-1.0-0.6","task_version":"1.0","jspsych_version":"6.3.1","missing":false},{"state_1_ids":[0,1],"state_1_key":0,"state_1_choice":0,"state_1_rt":1123.6000000238419,"transition":1,"state":0,"state_2_ids":[0,1],"state_2_key":1,"state_2_choice":1,"state_2_rt":1004.5999999642372,"outcome":0,"rocket_colors":["#486ea7","#a75248"],"planet_colors":["#706081","#5b7c65"],"screen_resolution":[1280,1024],"minimum_resolution":1,"trial":0,"trial_type":"two-step-trial","trial_index":26,"time_elapsed":451458,"internal_node_id":"0.0-11.0-1.0-0.7","task_version":"1.0","jspsych_version":"6.3.1","missing":false},{"state_1_ids":[0,1],"state_1_key":0,"state_1_choice":0,"state_1_rt":881.1999999880791,"transition":1,"state":0,"state_2_ids":[0,1],"state_2_key":1,"state_2_choice":1,"state_2_rt":837.8000000119209,"outcome":0,"rocket_colors":["#486ea7","#a75248"],"planet_colors":["#706081","#5b7c65"],"screen_resolution":[1280,1024],"minimum_resolution":1,"trial":0,"trial_type":"two-step-trial","trial_index":27,"time_elapsed":455186,"internal_node_id":"0.0-11.0-1.0-0.8","task_version":"1.0","jspsych_version":"6.3.1","missing":false},{"state_1_ids":[0,1],"state_1_key":0,"state_1_choice":0,"state_1_rt":888.6999999880791,"transition":1,"state":0,"state_2_ids":[0,1],"state_2_key":1,"state_2_choice":1,"state_2_rt":709.5,"outcome":0,"rocket_colors":["#486ea7","#a75248"],"planet_colors":["#706081","#5b7c65"],"screen_resolution":[1280,1024],"minimum_resolution":1,"trial":0,"trial_type":"two-step-trial","trial_index":28,"time_elapsed":458794,"internal_node_id":"0.0-11.0-1.0-0.9","task_version":"1.0","jspsych_version":"6.3.1","missing":false},{"view_history":"[{\"page_index\":0,\"viewing_time\":4916.399999976158},{\"page_index\":1,\"viewing_time\":3638.699999988079},{\"page_index\":2,\"viewing_time\":2339.2000000476837},{\"page_index\":3,\"viewing_time\":3528.2999999523163},{\"page_index\":4,\"viewing_time\":12787.700000047684},{\"page_index\":5,\"viewing_time\":27885.899999976158},{\"page_index\":6,\"viewing_time\":5463.800000011921}]","rt":60561.30000001192,"trial_type":"two-step-instructions","trial_index":29,"time_elapsed":519371,"internal_node_id":"0.0-12.0-1.0","task_version":"1.0","jspsych_version":"6.3.1"},{"responses":["True","False","True"],"num_errors":0,"rt":15218.300000011921,"quiz":3,"trial_type":"two-step-comprehension","trial_index":30,"time_elapsed":534598,"internal_node_id":"0.0-12.0-2.0","task_version":"1.0","jspsych_version":"6.3.1"},{"view_history":"[{\"page_index\":0,\"viewing_time\":2791},{\"page_index\":1,\"viewing_time\":4704.400000035763},{\"page_index\":2,\"viewing_time\":6131.299999952316}]","rt":13627.699999988079,"trial_type":"two-step-instructions","trial_index":31,"time_elapsed":548238,"internal_node_id":"0.0-13.0","task_version":"1.0","jspsych_version":"6.3.1"},{"state_1_ids":[0,1],"state_1_key":1,"state_1_choice":1,"state_1_rt":3173.300000011921,"transition":1,"state":1,"state_2_ids":[2,3],"state_2_key":0,"state_2_choice":2,"state_2_rt":1564.3999999761581,"outcome":1,"rocket_colors":["#955db9","#48a782"],"planet_colors":["#5f6f81","#7f5d5d"],"screen_resolution":[1280,1024],"minimum_resolution":1,"trial":1,"drifts":[0.305,0.438,0.598,0.713],"drift_ix":3,"trial_type":"two-step-trial","trial_index":32,"time_elapsed":554993,"internal_node_id":"0.0-14.0-0.0","task_version":"1.0","jspsych_version":"6.3.1","browser_interactions":0,"missing":false},{"state_1_ids":[1,0],"state_1_key":0,"state_1_choice":1,"state_1_rt":2262.800000011921,"transition":1,"state":1,"state_2_ids":[2,3],"state_2_key":0,"state_2_choice":2,"state_2_rt":886.3000000119209,"outcome":1,"rocket_colors":["#955db9","#48a782"],"planet_colors":["#5f6f81","#7f5d5d"],"screen_resolution":[1280,1024],"minimum_resolution":1,"trial":2,"drifts":[0.326,0.396,0.598,0.702],"drift_ix":3,"trial_type":"two-step-trial","trial_index":33,"time_elapsed":560154,"internal_node_id":"0.0-15.0-0.0","task_version":"1.0","jspsych_version":"6.3.1","browser_interactions":0,"missing":false},{"state_1_ids":[1,0],"state_1_key":0,"state_1_choice":1,"state_1_rt":1256.5999999642372,"transition":0,"state":0,"state_2_ids":[0,1],"state_2_key":1,"state_2_choice":1,"state_2_rt":1602.8999999761581,"outcome":0,"rocket_colors":["#955db9","#48a782"],"planet_colors":["#5f6f81","#7f5d5d"],"screen_resolution":[1280,1024],"minimum_resolution":1,"trial":3,"drifts":[0.302,0.426,0.576,0.736],"drift_ix":3,"trial_type":"two-step-trial","trial_index":34,"time_elapsed":565025,"internal_node_id":"0.0-16.0-0.0","task_version":"1.0","jspsych_version":"6.3.1","browser_interactions":0,"missing":false},{"state_1_ids":[1,0],"state_1_key":1,"state_1_choice":0,"state_1_rt":1536.5999999642372,"transition":0,"state":1,"state_2_ids":[2,3],"state_2_key":0,"state_2_choice":2,"state_2_rt":1893,"outcome":1,"rocket_colors":["#955db9","#48a782"],"planet_colors":["#5f6f81","#7f5d5d"],"screen_resolution":[1280,1024],"minimum_resolution":1,"trial":4,"drifts":[0.362,0.43,0.582,0.702],"drift_ix":3,"trial_type":"two-step-trial","trial_index":35,"time_elapsed":570465,"internal_node_id":"0.0-17.0-0.0","task_version":"1.0","jspsych_version":"6.3.1","browser_interactions":0,"missing":false},{"state_1_ids":[0,1],"state_1_key":1,"state_1_choice":1,"state_1_rt":1841.1000000238419,"transition":1,"state":1,"state_2_ids":[2,3],"state_2_key":0,"state_2_choice":2,"state_2_rt":997.3000000119209,"outcome":0,"rocket_colors":["#955db9","#48a782"],"planet_colors":["#5f6f81","#7f5d5d"],"screen_resolution":[1280,1024],"minimum_resolution":1,"trial":5,"drifts":[0.368,0.485,0.615,0.711],"drift_ix":3,"trial_type":"two-step-trial","trial_index":36,"time_elapsed":575313,"internal_node_id":"0.0-18.0-0.0","task_version":"1.0","jspsych_version":"6.3.1","browser_interactions":0,"missing":false},{"state_1_ids":[0,1],"state_1_key":1,"state_1_choice":1,"state_1_rt":809.3000000119209,"transition":1,"state":1,"state_2_ids":[2,3],"state_2_key":0,"state_2_choice":2,"state_2_rt":829.0999999642372,"outcome":0,"rocket_colors":["#955db9","#48a782"],"planet_colors":["#5f6f81","#7f5d5d"],"screen_resolution":[1280,1024],"minimum_resolution":1,"trial":6,"drifts":[0.404,0.486,0.616,0.744],"drift_ix":3,"trial_type":"two-step-trial","trial_index":37,"time_elapsed":578961,"internal_node_id":"0.0-19.0-0.0","task_version":"1.0","jspsych_version":"6.3.1","browser_interactions":0,"missing":false},{"state_1_ids":[0,1],"state_1_key":1,"state_1_choice":1,"state_1_rt":881.1999999880791,"transition":1,"state":1,"state_2_ids":[2,3],"state_2_key":0,"state_2_choice":2,"state_2_rt":703.0999999642372,"outcome":1,"rocket_colors":["#955db9","#48a782"],"planet_colors":["#5f6f81","#7f5d5d"],"screen_resolution":[1280,1024],"minimum_resolution":1,"trial":7,"drifts":[0.387,0.453,0.558,0.725],"drift_ix":3,"trial_type":"two-step-trial","trial_index":38,"time_elapsed":582555,"internal_node_id":"0.0-20.0-0.0","task_version":"1.0","jspsych_version":"6.3.1","browser_interactions":0,"missing":false},{"state_1_ids":[1,0],"state_1_key":0,"state_1_choice":1,"state_1_rt":2448.100000023842,"transition":1,"state":1,"state_2_ids":[2,3],"state_2_key":0,"state_2_choice":2,"state_2_rt":1586.5,"outcome":1,"rocket_colors":["#955db9","#48a782"],"planet_colors":["#5f6f81","#7f5d5d"],"screen_resolution":[1280,1024],"minimum_resolution":1,"trial":8,"drifts":[0.438,0.474,0.539,0.737],"drift_ix":3,"trial_type":"two-step-trial","trial_index":39,"time_elapsed":588600,"internal_node_id":"0.0-21.0-0.0","task_version":"1.0","jspsych_version":"6.3.1","browser_interactions":0,"missing":false},{"state_1_ids":[0,1],"state_1_key":1,"state_1_choice":1,"state_1_rt":1049.6000000238419,"transition":1,"state":1,"state_2_ids":[2,3],"state_2_key":0,"state_2_choice":2,"state_2_rt":844.8000000119209,"outcome":1,"rocket_colors":["#955db9","#48a782"],"planet_colors":["#5f6f81","#7f5d5d"],"screen_resolution":[1280,1024],"minimum_resolution":1,"trial":9,"drifts":[0.459,0.489,0.53,0.714],"drift_ix":3,"trial_type":"two-step-trial","trial_index":40,"time_elapsed":592505,"internal_node_id":"0.0-22.0-0.0","task_version":"1.0","jspsych_version":"6.3.1","browser_interactions":0,"missing":false},{"state_1_ids":[1,0],"state_1_key":0,"state_1_choice":1,"state_1_rt":1184.8999999761581,"transition":0,"state":0,"state_2_ids":[0,1],"state_2_key":0,"state_2_choice":0,"state_2_rt":2254.199999988079,"outcome":0,"rocket_colors":["#955db9","#48a782"],"planet_colors":["#5f6f81","#7f5d5d"],"screen_resolution":[1280,1024],"minimum_resolution":1,"trial":10,"drifts":[0.45,0.506,0.534,0.707],"drift_ix":3,"trial_type":"two-step-trial","trial_index":41,"time_elapsed":597952,"internal_node_id":"0.0-23.0-0.0","task_version":"1.0","jspsych_version":"6.3.1","browser_interactions":0,"missing":false},{"state_1_ids":[1,0],"state_1_key":0,"state_1_choice":1,"state_1_rt":1449.5,"transition":1,"state":1,"state_2_ids":[2,3],"state_2_key":0,"state_2_choice":2,"state_2_rt":1061.6000000238419,"outcome":0,"rocket_colors":["#955db9","#48a782"],"planet_colors":["#5f6f81","#7f5d5d"],"screen_resolution":[1280,1024],"minimum_resolution":1,"trial":11,"drifts":[0.425,0.476,0.477,0.71],"drift_ix":3,"trial_type":"two-step-trial","trial_index":42,"time_elapsed":602473,"internal_node_id":"0.0-24.0-0.0","task_version":"1.0","jspsych_version":"6.3.1","browser_interactions":0,"missing":false},{"state_1_ids":[1,0],"state_1_key":0,"state_1_choice":1,"state_1_rt":906,"transition":1,"state":1,"state_2_ids":[2,3],"state_2_key":0,"state_2_choice":2,"state_2_rt":683.5,"outcome":0,"rocket_colors":["#955db9","#48a782"],"planet_colors":["#5f6f81","#7f5d5d"],"screen_resolution":[1280,1024],"minimum_resolution":1,"trial":12,"drifts":[0.397,0.483,0.492,0.681],"drift_ix":3,"trial_type":"two-step-trial","trial_index":43,"time_elapsed":606072,"internal_node_id":"0.0-25.0-0.0","task_version":"1.0","jspsych_version":"6.3.1","browser_interactions":0,"missing":false},{"state_1_ids":[0,1],"state_1_key":1,"state_1_choice":1,"state_1_rt":1209.5999999642372,"transition":1,"state":1,"state_2_ids":[2,3],"state_2_key":0,"state_2_choice":2,"state_2_rt":694.3000000119209,"outcome":0,"rocket_colors":["#955db9","#48a782"],"planet_colors":["#5f6f81","#7f5d5d"],"screen_resolution":[1280,1024],"minimum_resolution":1,"trial":13,"drifts":[0.407,0.496,0.476,0.697],"drift_ix":3,"trial_type":"two-step-trial","trial_index":44,"time_elapsed":609985,"internal_node_id":"0.0-26.0-0.0","task_version":"1.0","jspsych_version":"6.3.1","browser_interactions":0,"missing":false},{"state_1_ids":[1,0],"state_1_key":0,"state_1_choice":1,"state_1_rt":1152.7999999523163,"transition":1,"state":1,"state_2_ids":[2,3],"state_2_key":0,"state_2_choice":2,"state_2_rt":1278.2999999523163,"outcome":0,"rocket_colors":["#955db9","#48a782"],"planet_colors":["#5f6f81","#7f5d5d"],"screen_resolution":[1280,1024],"minimum_resolution":1,"trial":14,"drifts":[0.369,0.494,0.493,0.747],"drift_ix":3,"trial_type":"two-step-trial","trial_index":45,"time_elapsed":614424,"internal_node_id":"0.0-27.0-0.0","task_version":"1.0","jspsych_version":"6.3.1","browser_interactions":0,"missing":false},{"state_1_ids":[0,1],"state_1_key":1,"state_1_choice":1,"state_1_rt":1153.7000000476837,"transition":1,"state":1,"state_2_ids":[2,3],"state_2_key":1,"state_2_choice":3,"state_2_rt":812,"outcome":1,"rocket_colors":["#955db9","#48a782"],"planet_colors":["#5f6f81","#7f5d5d"],"screen_resolution":[1280,1024],"minimum_resolution":1,"trial":15,"drifts":[0.342,0.537,0.465,0.735],"drift_ix":3,"trial_type":"two-step-trial","trial_index":46,"time_elapsed":618400,"internal_node_id":"0.0-28.0-0.0","task_version":"1.0","jspsych_version":"6.3.1","browser_interactions":0,"missing":false},{"state_1_ids":[1,0],"state_1_key":0,"state_1_choice":1,"state_1_rt":921,"transition":1,"state":1,"state_2_ids":[2,3],"state_2_key":1,"state_2_choice":3,"state_2_rt":890.5,"outcome":1,"rocket_colors":["#955db9","#48a782"],"planet_colors":["#5f6f81","#7f5d5d"],"screen_resolution":[1280,1024],"minimum_resolution":1,"trial":16,"drifts":[0.313,0.512,0.467,0.743],"drift_ix":3,"trial_type":"two-step-trial","trial_index":47,"time_elapsed":622224,"internal_node_id":"0.0-29.0-0.0","task_version":"1.0","jspsych_version":"6.3.1","browser_interactions":0,"missing":false},{"state_1_ids":[0,1],"state_1_key":1,"state_1_choice":1,"state_1_rt":1209.3999999761581,"transition":1,"state":1,"state_2_ids":[2,3],"state_2_key":1,"state_2_choice":3,"state_2_rt":1173.5999999642372,"outcome":0,"rocket_colors":["#955db9","#48a782"],"planet_colors":["#5f6f81","#7f5d5d"],"screen_resolution":[1280,1024],"minimum_resolution":1,"trial":17,"drifts":[0.313,0.504,0.486,0.73],"drift_ix":3,"trial_type":"two-step-trial","trial_index":48,"time_elapsed":626616,"internal_node_id":"0.0-30.0-0.0","task_version":"1.0","jspsych_version":"6.3.1","browser_interactions":0,"missing":false},{"state_1_ids":[0,1],"state_1_key":1,"state_1_choice":1,"state_1_rt":1273.800000011921,"transition":1,"state":1,"state_2_ids":[2,3],"state_2_key":1,"state_2_choice":3,"state_2_rt":1051.800000011921,"outcome":0,"rocket_colors":["#955db9","#48a782"],"planet_colors":["#5f6f81","#7f5d5d"],"screen_resolution":[1280,1024],"minimum_resolution":1,"trial":18,"drifts":[0.334,0.526,0.501,0.707],"drift_ix":3,"trial_type":"two-step-trial","trial_index":49,"time_elapsed":630952,"internal_node_id":"0.0-31.0-0.0","task_version":"1.0","jspsych_version":"6.3.1","browser_interactions":0,"missing":false},{"state_1_ids":[1,0],"state_1_key":0,"state_1_choice":1,"state_1_rt":2449.399999976158,"transition":1,"state":1,"state_2_ids":[2,3],"state_2_key":0,"state_2_choice":2,"state_2_rt":809.1000000238419,"outcome":1,"rocket_colors":["#955db9","#48a782"],"planet_colors":["#5f6f81","#7f5d5d"],"screen_resolution":[1280,1024],"minimum_resolution":1,"trial":19,"drifts":[0.312,0.543,0.473,0.695],"drift_ix":3,"trial_type":"two-step-trial","trial_index":50,"time_elapsed":636225,"internal_node_id":"0.0-32.0-0.0","task_version":"1.0","jspsych_version":"6.3.1","browser_interactions":0,"missing":false},{"state_1_ids":[0,1],"state_1_key":1,"state_1_choice":1,"state_1_rt":888.9000000357628,"transition":1,"state":1,"state_2_ids":[2,3],"state_2_key":0,"state_2_choice":2,"state_2_rt":733.3000000119209,"outcome":0,"rocket_colors":["#955db9","#48a782"],"planet_colors":["#5f6f81","#7f5d5d"],"screen_resolution":[1280,1024],"minimum_resolution":1,"trial":20,"drifts":[0.304,0.536,0.482,0.668],"drift_ix":3,"trial_type":"two-step-trial","trial_index":51,"time_elapsed":639857,"internal_node_id":"0.0-33.0-0.0","task_version":"1.0","jspsych_version":"6.3.1","browser_interactions":0,"missing":false},{"state_1_ids":[1,0],"state_1_key":0,"state_1_choice":1,"state_1_rt":1087.699999988079,"transition":1,"state":1,"state_2_ids":[2,3],"state_2_key":0,"state_2_choice":2,"state_2_rt":2405.2999999523163,"outcome":1,"rocket_colors":["#955db9","#48a782"],"planet_colors":["#5f6f81","#7f5d5d"],"screen_resolution":[1280,1024],"minimum_resolution":1,"trial":21,"drifts":[0.309,0.543,0.477,0.682],"drift_ix":3,"trial_type":"two-step-trial","trial_index":52,"time_elapsed":645360,"internal_node_id":"0.0-34.0-0.0","task_version":"1.0","jspsych_version":"6.3.1","browser_interactions":0,"missing":false},{"state_1_ids":[0,1],"state_1_key":1,"state_1_choice":1,"state_1_rt":825.5,"transition":1,"state":1,"state_2_ids":[2,3],"state_2_key":0,"state_2_choice":2,"state_2_rt":684.8000000119209,"outcome":0,"rocket_colors":["#955db9","#48a782"],"planet_colors":["#5f6f81","#7f5d5d"],"screen_resolution":[1280,1024],"minimum_resolution":1,"trial":22,"drifts":[0.301,0.563,0.45,0.702],"drift_ix":3,"trial_type":"two-step-trial","trial_index":53,"time_elapsed":648881,"internal_node_id":"0.0-35.0-0.0","task_version":"1.0","jspsych_version":"6.3.1","browser_interactions":0,"missing":false},{"state_1_ids":[1,0],"state_1_key":1,"state_1_choice":0,"state_1_rt":1665.199999988079,"transition":1,"state":0,"state_2_ids":[0,1],"state_2_key":1,"state_2_choice":1,"state_2_rt":1469.8999999761581,"outcome":1,"rocket_colors":["#955db9","#48a782"],"planet_colors":["#5f6f81","#7f5d5d"],"screen_resolution":[1280,1024],"minimum_resolution":1,"trial":23,"drifts":[0.322,0.569,0.42,0.742],"drift_ix":3,"trial_type":"two-step-trial","trial_index":54,"time_elapsed":654033,"internal_node_id":"0.0-36.0-0.0","task_version":"1.0","jspsych_version":"6.3.1","browser_interactions":0,"missing":false},{"state_1_ids":[1,0],"state_1_key":1,"state_1_choice":0,"state_1_rt":872.0999999642372,"transition":0,"state":1,"state_2_ids":[2,3],"state_2_key":1,"state_2_choice":3,"state_2_rt":2013.699999988079,"outcome":1,"rocket_colors":["#955db9","#48a782"],"planet_colors":["#5f6f81","#7f5d5d"],"screen_resolution":[1280,1024],"minimum_resolution":1,"trial":24,"drifts":[0.298,0.566,0.43,0.74],"drift_ix":3,"trial_type":"two-step-trial","trial_index":55,"time_elapsed":658928,"internal_node_id":"0.0-37.0-0.0","task_version":"1.0","jspsych_version":"6.3.1","browser_interactions":0,"missing":false},{"state_1_ids":[1,0],"state_1_key":1,"state_1_choice":0,"state_1_rt":1768.699999988079,"transition":1,"state":0,"state_2_ids":[0,1],"state_2_key":1,"state_2_choice":1,"state_2_rt":893.5999999642372,"outcome":1,"rocket_colors":["#955db9","#48a782"],"planet_colors":["#5f6f81","#7f5d5d"],"screen_resolution":[1280,1024],"minimum_resolution":1,"trial":25,"drifts":[0.293,0.552,0.394,0.669],"drift_ix":3,"trial_type":"two-step-trial","trial_index":56,"time_elapsed":663601,"internal_node_id":"0.0-38.0-0.0","task_version":"1.0","jspsych_version":"6.3.1","browser_interactions":0,"missing":false},{"state_1_ids":[1,0],"state_1_key":0,"state_1_choice":1,"state_1_rt":952.2000000476837,"transition":1,"state":1,"state_2_ids":[2,3],"state_2_key":1,"state_2_choice":3,"state_2_rt":1693.7999999523163,"outcome":1,"rocket_colors":["#955db9","#48a782"],"planet_colors":["#5f6f81","#7f5d5d"],"screen_resolution":[1280,1024],"minimum_resolution":1,"trial":26,"drifts":[0.285,0.566,0.393,0.625],"drift_ix":3,"trial_type":"two-step-trial","trial_index":57,"time_elapsed":668256,"internal_node_id":"0.0-39.0-0.0","task_version":"1.0","jspsych_version":"6.3.1","browser_interactions":0,"missing":false},{"state_1_ids":[1,0],"state_1_key":1,"state_1_choice":0,"state_1_rt":1985.5999999642372,"transition":1,"state":0,"state_2_ids":[0,1],"state_2_key":1,"state_2_choice":1,"state_2_rt":907.8000000119209,"outcome":1,"rocket_colors":["#955db9","#48a782"],"planet_colors":["#5f6f81","#7f5d5d"],"screen_resolution":[1280,1024],"minimum_resolution":1,"trial":27,"drifts":[0.303,0.511,0.422,0.685],"drift_ix":3,"trial_type":"two-step-trial","trial_index":58,"time_elapsed":673161,"internal_node_id":"0.0-40.0-0.0","task_version":"1.0","jspsych_version":"6.3.1","browser_interactions":0,"missing":false},{"state_1_ids":[1,0],"state_1_key":1,"state_1_choice":0,"state_1_rt":1288.5,"transition":1,"state":0,"state_2_ids":[0,1],"state_2_key":1,"state_2_choice":1,"state_2_rt":733.7999999523163,"outcome":1,"rocket_colors":["#955db9","#48a782"],"planet_colors":["#5f6f81","#7f5d5d"],"screen_resolution":[1280,1024],"minimum_resolution":1,"trial":28,"drifts":[0.301,0.517,0.418,0.733],"drift_ix":3,"trial_type":"two-step-trial","trial_index":59,"time_elapsed":677192,"internal_node_id":"0.0-41.0-0.0","task_version":"1.0","jspsych_version":"6.3.1","browser_interactions":0,"missing":false},{"state_1_ids":[1,0],"state_1_key":1,"state_1_choice":0,"state_1_rt":857,"transition":1,"state":0,"state_2_ids":[0,1],"state_2_key":1,"state_2_choice":1,"state_2_rt":805.7000000476837,"outcome":0,"rocket_colors":["#955db9","#48a782"],"planet_colors":["#5f6f81","#7f5d5d"],"screen_resolution":[1280,1024],"minimum_resolution":1,"trial":29,"drifts":[0.345,0.508,0.373,0.733],"drift_ix":3,"trial_type":"two-step-trial","trial_index":60,"time_elapsed":680864,"internal_node_id":"0.0-42.0-0.0","task_version":"1.0","jspsych_version":"6.3.1","browser_interactions":0,"missing":false},{"state_1_ids":[0,1],"state_1_key":0,"state_1_choice":0,"state_1_rt":1399.8999999761581,"transition":1,"state":0,"state_2_ids":[0,1],"state_2_key":1,"state_2_choice":1,"state_2_rt":837.8000000119209,"outcome":0,"rocket_colors":["#955db9","#48a782"],"planet_colors":["#5f6f81","#7f5d5d"],"screen_resolution":[1280,1024],"minimum_resolution":1,"trial":30,"drifts":[0.33,0.509,0.425,0.737],"drift_ix":3,"trial_type":"two-step-trial","trial_index":61,"time_elapsed":685112,"internal_node_id":"0.0-43.0-0.0","task_version":"1.0","jspsych_version":"6.3.1","browser_interactions":0,"missing":false},{"state_1_ids":[1,0],"state_1_key":1,"state_1_choice":0,"state_1_rt":1089.300000011921,"transition":1,"state":0,"state_2_ids":[0,1],"state_2_key":0,"state_2_choice":0,"state_2_rt":709.8000000119209,"outcome":0,"rocket_colors":["#955db9","#48a782"],"planet_colors":["#5f6f81","#7f5d5d"],"screen_resolution":[1280,1024],"minimum_resolution":1,"trial":31,"drifts":[0.33,0.475,0.428,0.706],"drift_ix":3,"trial_type":"two-step-trial","trial_index":62,"time_elapsed":688920,"internal_node_id":"0.0-44.0-0.0","task_version":"1.0","jspsych_version":"6.3.1","browser_interactions":0,"missing":false},{"state_1_ids":[1,0],"state_1_key":1,"state_1_choice":0,"state_1_rt":1000.5,"transition":1,"state":0,"state_2_ids":[0,1],"state_2_key":1,"state_2_choice":1,"state_2_rt":677.1999999880791,"outcome":0,"rocket_colors":["#955db9","#48a782"],"planet_colors":["#5f6f81","#7f5d5d"],"screen_resolution":[1280,1024],"minimum_resolution":1,"trial":32,"drifts":[0.332,0.492,0.442,0.701],"drift_ix":3,"trial_type":"two-step-trial","trial_index":63,"time_elapsed":692607,"internal_node_id":"0.0-45.0-0.0","task_version":"1.0","jspsych_version":"6.3.1","browser_interactions":0,"missing":false},{"state_1_ids":[1,0],"state_1_key":1,"state_1_choice":0,"state_1_rt":969.6999999880791,"transition":1,"state":0,"state_2_ids":[0,1],"state_2_key":1,"state_2_choice":1,"state_2_rt":716.5,"outcome":0,"rocket_colors":["#955db9","#48a782"],"planet_colors":["#5f6f81","#7f5d5d"],"screen_resolution":[1280,1024],"minimum_resolution":1,"trial":33,"drifts":[0.306,0.461,0.388,0.724],"drift_ix":3,"trial_type":"two-step-trial","trial_index":64,"time_elapsed":696304,"internal_node_id":"0.0-46.0-0.0","task_version":"1.0","jspsych_version":"6.3.1","browser_interactions":0,"missing":false},{"state_1_ids":[0,1],"state_1_key":0,"state_1_choice":0,"state_1_rt":1121.2000000476837,"transition":1,"state":0,"state_2_ids":[0,1],"state_2_key":0,"state_2_choice":0,"state_2_rt":581.5,"outcome":0,"rocket_colors":["#955db9","#48a782"],"planet_colors":["#5f6f81","#7f5d5d"],"screen_resolution":[1280,1024],"minimum_resolution":1,"trial":34,"drifts":[0.335,0.445,0.418,0.721],"drift_ix":3,"trial_type":"two-step-trial","trial_index":65,"time_elapsed":700015,"internal_node_id":"0.0-47.0-0.0","task_version":"1.0","jspsych_version":"6.3.1","browser_interactions":0,"missing":false},{"state_1_ids":[0,1],"state_1_key":1,"state_1_choice":1,"state_1_rt":977.8999999761581,"transition":1,"state":1,"state_2_ids":[2,3],"state_2_key":0,"state_2_choice":2,"state_2_rt":789.7999999523163,"outcome":0,"rocket_colors":["#955db9","#48a782"],"planet_colors":["#5f6f81","#7f5d5d"],"screen_resolution":[1280,1024],"minimum_resolution":1,"trial":35,"drifts":[0.342,0.479,0.439,0.713],"drift_ix":3,"trial_type":"two-step-trial","trial_index":66,"time_elapsed":703792,"internal_node_id":"0.0-48.0-0.0","task_version":"1.0","jspsych_version":"6.3.1","browser_interactions":0,"missing":false},{"state_1_ids":[1,0],"state_1_key":1,"state_1_choice":0,"state_1_rt":674.1999999880791,"transition":1,"state":0,"state_2_ids":[0,1],"state_2_key":1,"state_2_choice":1,"state_2_rt":1772.300000011921,"outcome":0,"rocket_colors":["#955db9","#48a782"],"planet_colors":["#5f6f81","#7f5d5d"],"screen_resolution":[1280,1024],"minimum_resolution":1,"trial":36,"drifts":[0.323,0.462,0.51,0.711],"drift_ix":3,"trial_type":"two-step-trial","trial_index":67,"time_elapsed":708248,"internal_node_id":"0.0-49.0-0.0","task_version":"1.0","jspsych_version":"6.3.1","browser_interactions":0,"missing":false},{"state_1_ids":[0,1],"state_1_key":1,"state_1_choice":1,"state_1_rt":657.3000000119209,"transition":1,"state":1,"state_2_ids":[2,3],"state_2_key":1,"state_2_choice":3,"state_2_rt":1029.0999999642372,"outcome":0,"rocket_colors":["#955db9","#48a782"],"planet_colors":["#5f6f81","#7f5d5d"],"screen_resolution":[1280,1024],"minimum_resolution":1,"trial":37,"drifts":[0.323,0.441,0.493,0.674],"drift_ix":3,"trial_type":"two-step-trial","trial_index":68,"time_elapsed":711945,"internal_node_id":"0.0-50.0-0.0","task_version":"1.0","jspsych_version":"6.3.1","browser_interactions":0,"missing":false},{"state_1_ids":[0,1],"state_1_key":0,"state_1_choice":0,"state_1_rt":1664.3999999761581,"transition":1,"state":0,"state_2_ids":[0,1],"state_2_key":0,"state_2_choice":0,"state_2_rt":1203.3999999761581,"outcome":0,"rocket_colors":["#955db9","#48a782"],"planet_colors":["#5f6f81","#7f5d5d"],"screen_resolution":[1280,1024],"minimum_resolution":1,"trial":38,"drifts":[0.361,0.419,0.482,0.648],"drift_ix":3,"trial_type":"two-step-trial","trial_index":69,"time_elapsed":716824,"internal_node_id":"0.0-51.0-0.0","task_version":"1.0","jspsych_version":"6.3.1","browser_interactions":0,"missing":false},{"state_1_ids":[1,0],"state_1_key":1,"state_1_choice":0,"state_1_rt":905.1999999880791,"transition":0,"state":1,"state_2_ids":[2,3],"state_2_key":0,"state_2_choice":2,"state_2_rt":1821.8999999761581,"outcome":0,"rocket_colors":["#955db9","#48a782"],"planet_colors":["#5f6f81","#7f5d5d"],"screen_resolution":[1280,1024],"minimum_resolution":1,"trial":39,"drifts":[0.386,0.389,0.441,0.619],"drift_ix":3,"trial_type":"two-step-trial","trial_index":70,"time_elapsed":721561,"internal_node_id":"0.0-52.0-0.0","task_version":"1.0","jspsych_version":"6.3.1","browser_interactions":0,"missing":false},{"state_1_ids":[1,0],"state_1_key":1,"state_1_choice":0,"state_1_rt":1048,"transition":1,"state":0,"state_2_ids":[0,1],"state_2_key":1,"state_2_choice":1,"state_2_rt":1317.199999988079,"outcome":0,"rocket_colors":["#955db9","#48a782"],"planet_colors":["#5f6f81","#7f5d5d"],"screen_resolution":[1280,1024],"minimum_resolution":1,"trial":40,"drifts":[0.384,0.374,0.431,0.605],"drift_ix":3,"trial_type":"two-step-trial","trial_index":71,"time_elapsed":725937,"internal_node_id":"0.0-53.0-0.0","task_version":"1.0","jspsych_version":"6.3.1","browser_interactions":0,"missing":false},{"state_1_ids":[0,1],"state_1_key":0,"state_1_choice":0,"state_1_rt":1168.800000011921,"transition":1,"state":0,"state_2_ids":[0,1],"state_2_key":1,"state_2_choice":1,"state_2_rt":746.3999999761581,"outcome":1,"rocket_colors":["#955db9","#48a782"],"planet_colors":["#5f6f81","#7f5d5d"],"screen_resolution":[1280,1024],"minimum_resolution":1,"trial":41,"drifts":[0.382,0.413,0.442,0.617],"drift_ix":3,"trial_type":"two-step-trial","trial_index":72,"time_elapsed":729863,"internal_node_id":"0.0-54.0-0.0","task_version":"1.0","jspsych_version":"6.3.1","browser_interactions":0,"missing":false},{"state_1_ids":[0,1],"state_1_key":0,"state_1_choice":0,"state_1_rt":1194.2000000476837,"transition":0,"state":1,"state_2_ids":[2,3],"state_2_key":1,"state_2_choice":3,"state_2_rt":1302.300000011921,"outcome":1,"rocket_colors":["#955db9","#48a782"],"planet_colors":["#5f6f81","#7f5d5d"],"screen_resolution":[1280,1024],"minimum_resolution":1,"trial":42,"drifts":[0.398,0.39,0.424,0.641],"drift_ix":3,"trial_type":"two-step-trial","trial_index":73,"time_elapsed":734369,"internal_node_id":"0.0-55.0-0.0","task_version":"1.0","jspsych_version":"6.3.1","browser_interactions":0,"missing":false},{"state_1_ids":[0,1],"state_1_key":0,"state_1_choice":0,"state_1_rt":848.3000000119209,"transition":0,"state":1,"state_2_ids":[2,3],"state_2_key":1,"state_2_choice":3,"state_2_rt":746.6000000238419,"outcome":1,"rocket_colors":["#955db9","#48a782"],"planet_colors":["#5f6f81","#7f5d5d"],"screen_resolution":[1280,1024],"minimum_resolution":1,"trial":43,"drifts":[0.37,0.404,0.412,0.63],"drift_ix":3,"trial_type":"two-step-trial","trial_index":74,"time_elapsed":737975,"internal_node_id":"0.0-56.0-0.0","task_version":"1.0","jspsych_version":"6.3.1","browser_interactions":0,"missing":false},{"state_1_ids":[1,0],"state_1_key":0,"state_1_choice":1,"state_1_rt":762.1999999880791,"transition":1,"state":1,"state_2_ids":[2,3],"state_2_key":1,"state_2_choice":3,"state_2_rt":756.8000000119209,"outcome":0,"rocket_colors":["#955db9","#48a782"],"planet_colors":["#5f6f81","#7f5d5d"],"screen_resolution":[1280,1024],"minimum_resolution":1,"trial":44,"drifts":[0.417,0.444,0.403,0.613],"drift_ix":3,"trial_type":"two-step-trial","trial_index":75,"time_elapsed":741503,"internal_node_id":"0.0-57.0-0.0","task_version":"1.0","jspsych_version":"6.3.1","browser_interactions":0,"missing":false},{"state_1_ids":[1,0],"state_1_key":0,"state_1_choice":1,"state_1_rt":522.1000000238419,"transition":1,"state":1,"state_2_ids":[2,3],"state_2_key":1,"state_2_choice":3,"state_2_rt":652.8000000119209,"outcome":1,"rocket_colors":["#955db9","#48a782"],"planet_colors":["#5f6f81","#7f5d5d"],"screen_resolution":[1280,1024],"minimum_resolution":1,"trial":45,"drifts":[0.439,0.427,0.37,0.612],"drift_ix":3,"trial_type":"two-step-trial","trial_index":76,"time_elapsed":744697,"internal_node_id":"0.0-58.0-0.0","task_version":"1.0","jspsych_version":"6.3.1","browser_interactions":0,"missing":false},{"state_1_ids":[1,0],"state_1_key":0,"state_1_choice":1,"state_1_rt":743.8000000119209,"transition":1,"state":1,"state_2_ids":[2,3],"state_2_key":1,"state_2_choice":3,"state_2_rt":732,"outcome":1,"rocket_colors":["#955db9","#48a782"],"planet_colors":["#5f6f81","#7f5d5d"],"screen_resolution":[1280,1024],"minimum_resolution":1,"trial":46,"drifts":[0.459,0.416,0.369,0.621],"drift_ix":3,"trial_type":"two-step-trial","trial_index":77,"time_elapsed":748183,"internal_node_id":"0.0-59.0-0.0","task_version":"1.0","jspsych_version":"6.3.1","browser_interactions":0,"missing":false},{"state_1_ids":[1,0],"state_1_key":0,"state_1_choice":1,"state_1_rt":793.8000000119209,"transition":1,"state":1,"state_2_ids":[2,3],"state_2_key":1,"state_2_choice":3,"state_2_rt":907.6999999880791,"outcome":1,"rocket_colors":["#955db9","#48a782"],"planet_colors":["#5f6f81","#7f5d5d"],"screen_resolution":[1280,1024],"minimum_resolution":1,"trial":47,"drifts":[0.475,0.425,0.384,0.6],"drift_ix":3,"trial_type":"two-step-trial","trial_index":78,"time_elapsed":751896,"internal_node_id":"0.0-60.0-0.0","task_version":"1.0","jspsych_version":"6.3.1","browser_interactions":0,"missing":false},{"state_1_ids":[0,1],"state_1_key":1,"state_1_choice":1,"state_1_rt":953,"transition":1,"state":1,"state_2_ids":[2,3],"state_2_key":0,"state_2_choice":2,"state_2_rt":765.1999999880791,"outcome":0,"rocket_colors":["#955db9","#48a782"],"planet_colors":["#5f6f81","#7f5d5d"],"screen_resolution":[1280,1024],"minimum_resolution":1,"trial":48,"drifts":[0.438,0.4,0.412,0.606],"drift_ix":3,"trial_type":"two-step-trial","trial_index":79,"time_elapsed":755623,"internal_node_id":"0.0-61.0-0.0","task_version":"1.0","jspsych_version":"6.3.1","browser_interactions":0,"missing":false},{"state_1_ids":[1,0],"state_1_key":0,"state_1_choice":1,"state_1_rt":929.6999999880791,"transition":1,"state":1,"state_2_ids":[2,3],"state_2_key":1,"state_2_choice":3,"state_2_rt":846,"outcome":0,"rocket_colors":["#955db9","#48a782"],"planet_colors":["#5f6f81","#7f5d5d"],"screen_resolution":[1280,1024],"minimum_resolution":1,"trial":49,"drifts":[0.47,0.408,0.421,0.598],"drift_ix":3,"trial_type":"two-step-trial","trial_index":80,"time_elapsed":759407,"internal_node_id":"0.0-62.0-0.0","task_version":"1.0","jspsych_version":"6.3.1","browser_interactions":0,"missing":false},{"state_1_ids":[0,1],"state_1_key":1,"state_1_choice":1,"state_1_rt":713.8999999761581,"transition":1,"state":1,"state_2_ids":[2,3],"state_2_key":1,"state_2_choice":3,"state_2_rt":782.1999999880791,"outcome":1,"rocket_colors":["#955db9","#48a782"],"planet_colors":["#5f6f81","#7f5d5d"],"screen_resolution":[1280,1024],"minimum_resolution":1,"trial":50,"drifts":[0.41,0.42,0.42,0.6],"drift_ix":3,"trial_type":"two-step-trial","trial_index":81,"time_elapsed":762911,"internal_node_id":"0.0-63.0-0.0","task_version":"1.0","jspsych_version":"6.3.1","browser_interactions":0,"missing":false},{"state_1_ids":[1,0],"state_1_key":0,"state_1_choice":1,"state_1_rt":1625.6000000238419,"transition":1,"state":1,"state_2_ids":[2,3],"state_2_key":1,"state_2_choice":3,"state_2_rt":677.1000000238419,"outcome":0,"rocket_colors":["#955db9","#48a782"],"planet_colors":["#5f6f81","#7f5d5d"],"screen_resolution":[1280,1024],"minimum_resolution":1,"trial":51,"drifts":[0.412,0.415,0.461,0.564],"drift_ix":3,"trial_type":"two-step-trial","trial_index":82,"time_elapsed":767224,"internal_node_id":"0.0-64.0-0.0","task_version":"1.0","jspsych_version":"6.3.1","browser_interactions":0,"missing":false},{"state_1_ids":[1,0],"state_1_key":0,"state_1_choice":1,"state_1_rt":897.1999999880791,"transition":1,"state":1,"state_2_ids":[2,3],"state_2_key":1,"state_2_choice":3,"state_2_rt":509.19999998807907,"outcome":0,"rocket_colors":["#955db9","#48a782"],"planet_colors":["#5f6f81","#7f5d5d"],"screen_resolution":[1280,1024],"minimum_resolution":1,"trial":52,"drifts":[0.424,0.4,0.482,0.568],"drift_ix":3,"trial_type":"two-step-trial","trial_index":83,"time_elapsed":770640,"internal_node_id":"0.0-65.0-0.0","task_version":"1.0","jspsych_version":"6.3.1","browser_interactions":0,"missing":false},{"state_1_ids":[0,1],"state_1_key":1,"state_1_choice":1,"state_1_rt":754,"transition":1,"state":1,"state_2_ids":[2,3],"state_2_key":0,"state_2_choice":2,"state_2_rt":461.30000001192093,"outcome":0,"rocket_colors":["#955db9","#48a782"],"planet_colors":["#5f6f81","#7f5d5d"],"screen_resolution":[1280,1024],"minimum_resolution":1,"trial":53,"drifts":[0.449,0.35,0.448,0.582],"drift_ix":3,"trial_type":"two-step-trial","trial_index":84,"time_elapsed":773863,"internal_node_id":"0.0-66.0-0.0","task_version":"1.0","jspsych_version":"6.3.1","browser_interactions":0,"missing":false},{"state_1_ids":[1,0],"state_1_key":1,"state_1_choice":0,"state_1_rt":554.3999999761581,"transition":1,"state":0,"state_2_ids":[0,1],"state_2_key":0,"state_2_choice":0,"state_2_rt":870.3000000119209,"outcome":0,"rocket_colors":["#955db9","#48a782"],"planet_colors":["#5f6f81","#7f5d5d"],"screen_resolution":[1280,1024],"minimum_resolution":1,"trial":54,"drifts":[0.409,0.381,0.436,0.573],"drift_ix":3,"trial_type":"two-step-trial","trial_index":85,"time_elapsed":777296,"internal_node_id":"0.0-67.0-0.0","task_version":"1.0","jspsych_version":"6.3.1","browser_interactions":0,"missing":false},{"state_1_ids":[1,0],"state_1_key":1,"state_1_choice":0,"state_1_rt":985.4000000357628,"transition":0,"state":1,"state_2_ids":[2,3],"state_2_key":0,"state_2_choice":2,"state_2_rt":828.3999999761581,"outcome":0,"rocket_colors":["#955db9","#48a782"],"planet_colors":["#5f6f81","#7f5d5d"],"screen_resolution":[1280,1024],"minimum_resolution":1,"trial":55,"drifts":[0.408,0.407,0.428,0.609],"drift_ix":3,"trial_type":"two-step-trial","trial_index":86,"time_elapsed":781120,"internal_node_id":"0.0-68.0-0.0","task_version":"1.0","jspsych_version":"6.3.1","browser_interactions":0,"missing":false},{"state_1_ids":[1,0],"state_1_key":1,"state_1_choice":0,"state_1_rt":609.8000000119209,"transition":0,"state":1,"state_2_ids":[2,3],"state_2_key":0,"state_2_choice":2,"state_2_rt":614,"outcome":0,"rocket_colors":["#955db9","#48a782"],"planet_colors":["#5f6f81","#7f5d5d"],"screen_resolution":[1280,1024],"minimum_resolution":1,"trial":56,"drifts":[0.417,0.354,0.381,0.598],"drift_ix":3,"trial_type":"two-step-trial","trial_index":87,"time_elapsed":784352,"internal_node_id":"0.0-69.0-0.0","task_version":"1.0","jspsych_version":"6.3.1","browser_interactions":0,"missing":false},{"state_1_ids":[1,0],"state_1_key":1,"state_1_choice":0,"state_1_rt":632,"transition":1,"state":0,"state_2_ids":[0,1],"state_2_key":1,"state_2_choice":1,"state_2_rt":1395.699999988079,"outcome":0,"rocket_colors":["#955db9","#48a782"],"planet_colors":["#5f6f81","#7f5d5d"],"screen_resolution":[1280,1024],"minimum_resolution":1,"trial":57,"drifts":[0.462,0.35,0.396,0.55],"drift_ix":3,"trial_type":"two-step-trial","trial_index":88,"time_elapsed":788392,"internal_node_id":"0.0-70.0-0.0","task_version":"1.0","jspsych_version":"6.3.1","browser_interactions":0,"missing":false},{"state_1_ids":[0,1],"state_1_key":1,"state_1_choice":1,"state_1_rt":680.1999999880791,"transition":1,"state":1,"state_2_ids":[2,3],"state_2_key":1,"state_2_choice":3,"state_2_rt":893.5,"outcome":0,"rocket_colors":["#955db9","#48a782"],"planet_colors":["#5f6f81","#7f5d5d"],"screen_resolution":[1280,1024],"minimum_resolution":1,"trial":58,"drifts":[0.474,0.332,0.382,0.55],"drift_ix":3,"trial_type":"two-step-trial","trial_index":89,"time_elapsed":791976,"internal_node_id":"0.0-71.0-0.0","task_version":"1.0","jspsych_version":"6.3.1","browser_interactions":0,"missing":false},{"state_1_ids":[0,1],"state_1_key":1,"state_1_choice":1,"state_1_rt":673.6000000238419,"transition":1,"state":1,"state_2_ids":[2,3],"state_2_key":1,"state_2_choice":3,"state_2_rt":723.1999999880791,"outcome":0,"rocket_colors":["#955db9","#48a782"],"planet_colors":["#5f6f81","#7f5d5d"],"screen_resolution":[1280,1024],"minimum_resolution":1,"trial":59,"drifts":[0.462,0.326,0.376,0.559],"drift_ix":3,"trial_type":"two-step-trial","trial_index":90,"time_elapsed":795383,"internal_node_id":"0.0-72.0-0.0","task_version":"1.0","jspsych_version":"6.3.1","browser_interactions":0,"missing":false},{"state_1_ids":[1,0],"state_1_key":0,"state_1_choice":1,"state_1_rt":1025.699999988079,"transition":1,"state":1,"state_2_ids":[2,3],"state_2_key":0,"state_2_choice":2,"state_2_rt":846,"outcome":0,"rocket_colors":["#955db9","#48a782"],"planet_colors":["#5f6f81","#7f5d5d"],"screen_resolution":[1280,1024],"minimum_resolution":1,"trial":60,"drifts":[0.432,0.348,0.372,0.56],"drift_ix":3,"trial_type":"two-step-trial","trial_index":91,"time_elapsed":799264,"internal_node_id":"0.0-73.0-0.0","task_version":"1.0","jspsych_version":"6.3.1","browser_interactions":0,"missing":false},{"state_1_ids":[0,1],"state_1_key":1,"state_1_choice":1,"state_1_rt":905.1000000238419,"transition":1,"state":1,"state_2_ids":[2,3],"state_2_key":1,"state_2_choice":3,"state_2_rt":813.0999999642372,"outcome":1,"rocket_colors":["#955db9","#48a782"],"planet_colors":["#5f6f81","#7f5d5d"],"screen_resolution":[1280,1024],"minimum_resolution":1,"trial":61,"drifts":[0.43,0.371,0.389,0.587],"drift_ix":3,"trial_type":"two-step-trial","trial_index":92,"time_elapsed":802994,"internal_node_id":"0.0-74.0-0.0","task_version":"1.0","jspsych_version":"6.3.1","browser_interactions":0,"missing":false},{"state_1_ids":[0,1],"state_1_key":1,"state_1_choice":1,"state_1_rt":752.0999999642372,"transition":0,"state":0,"state_2_ids":[0,1],"state_2_key":0,"state_2_choice":0,"state_2_rt":1338.7000000476837,"outcome":0,"rocket_colors":["#955db9","#48a782"],"planet_colors":["#5f6f81","#7f5d5d"],"screen_resolution":[1280,1024],"minimum_resolution":1,"trial":62,"drifts":[0.426,0.371,0.382,0.585],"drift_ix":3,"trial_type":"two-step-trial","trial_index":93,"time_elapsed":807096,"internal_node_id":"0.0-75.0-0.0","task_version":"1.0","jspsych_version":"6.3.1","browser_interactions":0,"missing":false},{"state_1_ids":[1,0],"state_1_key":0,"state_1_choice":1,"state_1_rt":937,"transition":1,"state":1,"state_2_ids":[2,3],"state_2_key":1,"state_2_choice":3,"state_2_rt":1077.1000000238419,"outcome":1,"rocket_colors":["#955db9","#48a782"],"planet_colors":["#5f6f81","#7f5d5d"],"screen_resolution":[1280,1024],"minimum_resolution":1,"trial":63,"drifts":[0.431,0.358,0.396,0.59],"drift_ix":3,"trial_type":"two-step-trial","trial_index":94,"time_elapsed":811119,"internal_node_id":"0.0-76.0-0.0","task_version":"1.0","jspsych_version":"6.3.1","browser_interactions":0,"missing":false},{"state_1_ids":[1,0],"state_1_key":0,"state_1_choice":1,"state_1_rt":842,"transition":1,"state":1,"state_2_ids":[2,3],"state_2_key":1,"state_2_choice":3,"state_2_rt":652.3999999761581,"outcome":0,"rocket_colors":["#955db9","#48a782"],"planet_colors":["#5f6f81","#7f5d5d"],"screen_resolution":[1280,1024],"minimum_resolution":1,"trial":64,"drifts":[0.392,0.299,0.415,0.581],"drift_ix":3,"trial_type":"two-step-trial","trial_index":95,"time_elapsed":814624,"internal_node_id":"0.0-77.0-0.0","task_version":"1.0","jspsych_version":"6.3.1","browser_interactions":0,"missing":false},{"state_1_ids":[0,1],"state_1_key":1,"state_1_choice":1,"state_1_rt":945.1000000238419,"transition":1,"state":1,"state_2_ids":[2,3],"state_2_key":1,"state_2_choice":3,"state_2_rt":1141.7000000476837,"outcome":1,"rocket_colors":["#955db9","#48a782"],"planet_colors":["#5f6f81","#7f5d5d"],"screen_resolution":[1280,1024],"minimum_resolution":1,"trial":65,"drifts":[0.371,0.329,0.405,0.589],"drift_ix":3,"trial_type":"two-step-trial","trial_index":96,"time_elapsed":818720,"internal_node_id":"0.0-78.0-0.0","task_version":"1.0","jspsych_version":"6.3.1","browser_interactions":0,"missing":false},{"state_1_ids":[0,1],"state_1_key":1,"state_1_choice":1,"state_1_rt":1184.8999999761581,"transition":1,"state":1,"state_2_ids":[2,3],"state_2_key":1,"state_2_choice":3,"state_2_rt":702.1999999880791,"outcome":1,"rocket_colors":["#955db9","#48a782"],"planet_colors":["#5f6f81","#7f5d5d"],"screen_resolution":[1280,1024],"minimum_resolution":1,"trial":66,"drifts":[0.354,0.287,0.413,0.591],"drift_ix":3,"trial_type":"two-step-trial","trial_index":97,"time_elapsed":822615,"internal_node_id":"0.0-79.0-0.0","task_version":"1.0","jspsych_version":"6.3.1","browser_interactions":0,"missing":false},{"state_1_ids":[0,1],"state_1_key":1,"state_1_choice":1,"state_1_rt":721.6000000238419,"transition":1,"state":1,"state_2_ids":[2,3],"state_2_key":1,"state_2_choice":3,"state_2_rt":692.5,"outcome":0,"rocket_colors":["#955db9","#48a782"],"planet_colors":["#5f6f81","#7f5d5d"],"screen_resolution":[1280,1024],"minimum_resolution":1,"trial":67,"drifts":[0.398,0.254,0.426,0.603],"drift_ix":3,"trial_type":"two-step-trial","trial_index":98,"time_elapsed":826039,"internal_node_id":"0.0-80.0-0.0","task_version":"1.0","jspsych_version":"6.3.1","browser_interactions":0,"missing":false},{"state_1_ids":[0,1],"state_1_key":1,"state_1_choice":1,"state_1_rt":712.9000000357628,"transition":0,"state":0,"state_2_ids":[0,1],"state_2_key":1,"state_2_choice":1,"state_2_rt":597,"outcome":0,"rocket_colors":["#955db9","#48a782"],"planet_colors":["#5f6f81","#7f5d5d"],"screen_resolution":[1280,1024],"minimum_resolution":1,"trial":68,"drifts":[0.425,0.254,0.441,0.582],"drift_ix":3,"trial_type":"two-step-trial","trial_index":99,"time_elapsed":829365,"internal_node_id":"0.0-81.0-0.0","task_version":"1.0","jspsych_version":"6.3.1","browser_interactions":0,"missing":false},{"state_1_ids":[0,1],"state_1_key":1,"state_1_choice":1,"state_1_rt":611,"transition":0,"state":0,"state_2_ids":[0,1],"state_2_key":1,"state_2_choice":1,"state_2_rt":685.3000000119209,"outcome":1,"rocket_colors":["#955db9","#48a782"],"planet_colors":["#5f6f81","#7f5d5d"],"screen_resolution":[1280,1024],"minimum_resolution":1,"trial":69,"drifts":[0.474,0.287,0.392,0.531],"drift_ix":3,"trial_type":"two-step-trial","trial_index":100,"time_elapsed":832670,"internal_node_id":"0.0-82.0-0.0","task_version":"1.0","jspsych_version":"6.3.1","browser_interactions":0,"missing":false},{"state_1_ids":[0,1],"state_1_key":1,"state_1_choice":1,"state_1_rt":697.6999999880791,"transition":1,"state":1,"state_2_ids":[2,3],"state_2_key":1,"state_2_choice":3,"state_2_rt":771.8999999761581,"outcome":0,"rocket_colors":["#955db9","#48a782"],"planet_colors":["#5f6f81","#7f5d5d"],"screen_resolution":[1280,1024],"minimum_resolution":1,"trial":70,"drifts":[0.51,0.279,0.378,0.487],"drift_ix":3,"trial_type":"two-step-trial","trial_index":101,"time_elapsed":836151,"internal_node_id":"0.0-83.0-0.0","task_version":"1.0","jspsych_version":"6.3.1","browser_interactions":0,"missing":false},{"state_1_ids":[1,0],"state_1_key":1,"state_1_choice":0,"state_1_rt":721.1999999880791,"transition":1,"state":0,"state_2_ids":[0,1],"state_2_key":1,"state_2_choice":1,"state_2_rt":733.8000000119209,"outcome":0,"rocket_colors":["#955db9","#48a782"],"planet_colors":["#5f6f81","#7f5d5d"],"screen_resolution":[1280,1024],"minimum_resolution":1,"trial":71,"drifts":[0.506,0.269,0.381,0.477],"drift_ix":3,"trial_type":"two-step-trial","trial_index":102,"time_elapsed":839615,"internal_node_id":"0.0-84.0-0.0","task_version":"1.0","jspsych_version":"6.3.1","browser_interactions":0,"missing":false},{"state_1_ids":[1,0],"state_1_key":1,"state_1_choice":0,"state_1_rt":513.1999999880791,"transition":1,"state":0,"state_2_ids":[0,1],"state_2_key":1,"state_2_choice":1,"state_2_rt":669.5999999642372,"outcome":0,"rocket_colors":["#955db9","#48a782"],"planet_colors":["#5f6f81","#7f5d5d"],"screen_resolution":[1280,1024],"minimum_resolution":1,"trial":72,"drifts":[0.541,0.263,0.39,0.466],"drift_ix":3,"trial_type":"two-step-trial","trial_index":103,"time_elapsed":842806,"internal_node_id":"0.0-85.0-0.0","task_version":"1.0","jspsych_version":"6.3.1","browser_interactions":0,"missing":false},{"state_1_ids":[0,1],"state_1_key":1,"state_1_choice":1,"state_1_rt":562.1000000238419,"transition":1,"state":1,"state_2_ids":[2,3],"state_2_key":1,"state_2_choice":3,"state_2_rt":661.4000000357628,"outcome":0,"rocket_colors":["#955db9","#48a782"],"planet_colors":["#5f6f81","#7f5d5d"],"screen_resolution":[1280,1024],"minimum_resolution":1,"trial":73,"drifts":[0.49,0.271,0.373,0.466],"drift_ix":3,"trial_type":"two-step-trial","trial_index":104,"time_elapsed":846039,"internal_node_id":"0.0-86.0-0.0","task_version":"1.0","jspsych_version":"6.3.1","browser_interactions":0,"missing":false},{"state_1_ids":[0,1],"state_1_key":1,"state_1_choice":1,"state_1_rt":537.3999999761581,"transition":1,"state":1,"state_2_ids":[2,3],"state_2_key":1,"state_2_choice":3,"state_2_rt":486.10000002384186,"outcome":0,"rocket_colors":["#955db9","#48a782"],"planet_colors":["#5f6f81","#7f5d5d"],"screen_resolution":[1280,1024],"minimum_resolution":1,"trial":74,"drifts":[0.512,0.277,0.41,0.457],"drift_ix":3,"trial_type":"two-step-trial","trial_index":105,"time_elapsed":849071,"internal_node_id":"0.0-87.0-0.0","task_version":"1.0","jspsych_version":"6.3.1","browser_interactions":0,"missing":false},{"state_1_ids":[0,1],"state_1_key":1,"state_1_choice":1,"state_1_rt":424.30000001192093,"transition":1,"state":1,"state_2_ids":[2,3],"state_2_key":1,"state_2_choice":3,"state_2_rt":490.80000001192093,"outcome":0,"rocket_colors":["#955db9","#48a782"],"planet_colors":["#5f6f81","#7f5d5d"],"screen_resolution":[1280,1024],"minimum_resolution":1,"trial":75,"drifts":[0.537,0.271,0.42,0.478],"drift_ix":3,"trial_type":"two-step-trial","trial_index":106,"time_elapsed":852000,"internal_node_id":"0.0-88.0-0.0","task_version":"1.0","jspsych_version":"6.3.1","browser_interactions":0,"missing":false},{"state_1_ids":[0,1],"state_1_key":1,"state_1_choice":1,"state_1_rt":504.69999998807907,"transition":0,"state":0,"state_2_ids":[0,1],"state_2_key":1,"state_2_choice":1,"state_2_rt":501,"outcome":1,"rocket_colors":["#955db9","#48a782"],"planet_colors":["#5f6f81","#7f5d5d"],"screen_resolution":[1280,1024],"minimum_resolution":1,"trial":76,"drifts":[0.539,0.257,0.455,0.448],"drift_ix":3,"trial_type":"two-step-trial","trial_index":107,"time_elapsed":855014,"internal_node_id":"0.0-89.0-0.0","task_version":"1.0","jspsych_version":"6.3.1","browser_interactions":0,"missing":false},{"state_1_ids":[1,0],"state_1_key":1,"state_1_choice":0,"state_1_rt":544.9000000357628,"transition":1,"state":0,"state_2_ids":[0,1],"state_2_key":1,"state_2_choice":1,"state_2_rt":501.10000002384186,"outcome":0,"rocket_colors":["#955db9","#48a782"],"planet_colors":["#5f6f81","#7f5d5d"],"screen_resolution":[1280,1024],"minimum_resolution":1,"trial":77,"drifts":[0.56,0.261,0.459,0.423],"drift_ix":3,"trial_type":"two-step-trial","trial_index":108,"time_elapsed":858071,"internal_node_id":"0.0-90.0-0.0","task_version":"1.0","jspsych_version":"6.3.1","browser_interactions":0,"missing":false},{"state_1_ids":[0,1],"state_1_key":1,"state_1_choice":1,"state_1_rt":490,"transition":1,"state":1,"state_2_ids":[2,3],"state_2_key":0,"state_2_choice":2,"state_2_rt":763,"outcome":0,"rocket_colors":["#955db9","#48a782"],"planet_colors":["#5f6f81","#7f5d5d"],"screen_resolution":[1280,1024],"minimum_resolution":1,"trial":78,"drifts":[0.543,0.26,0.436,0.441],"drift_ix":3,"trial_type":"two-step-trial","trial_index":109,"time_elapsed":861335,"internal_node_id":"0.0-91.0-0.0","task_version":"1.0","jspsych_version":"6.3.1","browser_interactions":0,"missing":false},{"state_1_ids":[0,1],"state_1_key":1,"state_1_choice":1,"state_1_rt":625,"transition":0,"state":0,"state_2_ids":[0,1],"state_2_key":1,"state_2_choice":1,"state_2_rt":1084.3999999761581,"outcome":0,"rocket_colors":["#955db9","#48a782"],"planet_colors":["#5f6f81","#7f5d5d"],"screen_resolution":[1280,1024],"minimum_resolution":1,"trial":79,"drifts":[0.536,0.268,0.465,0.475],"drift_ix":3,"trial_type":"two-step-trial","trial_index":110,"time_elapsed":865055,"internal_node_id":"0.0-92.0-0.0","task_version":"1.0","jspsych_version":"6.3.1","browser_interactions":0,"missing":false},{"state_1_ids":[1,0],"state_1_key":1,"state_1_choice":0,"state_1_rt":560.7000000476837,"transition":1,"state":0,"state_2_ids":[0,1],"state_2_key":0,"state_2_choice":0,"state_2_rt":981,"outcome":1,"rocket_colors":["#955db9","#48a782"],"planet_colors":["#5f6f81","#7f5d5d"],"screen_resolution":[1280,1024],"minimum_resolution":1,"trial":80,"drifts":[0.534,0.324,0.464,0.482],"drift_ix":3,"trial_type":"two-step-trial","trial_index":111,"time_elapsed":868606,"internal_node_id":"0.0-93.0-0.0","task_version":"1.0","jspsych_version":"6.3.1","browser_interactions":0,"missing":false},{"state_1_ids":[1,0],"state_1_key":1,"state_1_choice":0,"state_1_rt":914,"transition":1,"state":0,"state_2_ids":[0,1],"state_2_key":0,"state_2_choice":0,"state_2_rt":581.3999999761581,"outcome":1,"rocket_colors":["#955db9","#48a782"],"planet_colors":["#5f6f81","#7f5d5d"],"screen_resolution":[1280,1024],"minimum_resolution":1,"trial":81,"drifts":[0.553,0.309,0.445,0.465],"drift_ix":3,"trial_type":"two-step-trial","trial_index":112,"time_elapsed":872110,"internal_node_id":"0.0-94.0-0.0","task_version":"1.0","jspsych_version":"6.3.1","browser_interactions":0,"missing":false},{"state_1_ids":[0,1],"state_1_key":0,"state_1_choice":0,"state_1_rt":730.1999999880791,"transition":0,"state":1,"state_2_ids":[2,3],"state_2_key":1,"state_2_choice":3,"state_2_rt":1204,"outcome":1,"rocket_colors":["#955db9","#48a782"],"planet_colors":["#5f6f81","#7f5d5d"],"screen_resolution":[1280,1024],"minimum_resolution":1,"trial":82,"drifts":[0.563,0.291,0.404,0.437],"drift_ix":3,"trial_type":"two-step-trial","trial_index":113,"time_elapsed":876054,"internal_node_id":"0.0-95.0-0.0","task_version":"1.0","jspsych_version":"6.3.1","browser_interactions":0,"missing":false},{"state_1_ids":[1,0],"state_1_key":1,"state_1_choice":0,"state_1_rt":1353.699999988079,"transition":1,"state":0,"state_2_ids":[0,1],"state_2_key":0,"state_2_choice":0,"state_2_rt":668.3999999761581,"outcome":0,"rocket_colors":["#955db9","#48a782"],"planet_colors":["#5f6f81","#7f5d5d"],"screen_resolution":[1280,1024],"minimum_resolution":1,"trial":83,"drifts":[0.563,0.298,0.442,0.474],"drift_ix":3,"trial_type":"two-step-trial","trial_index":114,"time_elapsed":880087,"internal_node_id":"0.0-96.0-0.0","task_version":"1.0","jspsych_version":"6.3.1","browser_interactions":0,"missing":false},{"state_1_ids":[0,1],"state_1_key":1,"state_1_choice":1,"state_1_rt":562.3000000119209,"transition":1,"state":1,"state_2_ids":[2,3],"state_2_key":1,"state_2_choice":3,"state_2_rt":691.8000000119209,"outcome":1,"rocket_colors":["#955db9","#48a782"],"planet_colors":["#5f6f81","#7f5d5d"],"screen_resolution":[1280,1024],"minimum_resolution":1,"trial":84,"drifts":[0.591,0.316,0.454,0.449],"drift_ix":3,"trial_type":"two-step-trial","trial_index":115,"time_elapsed":883350,"internal_node_id":"0.0-97.0-0.0","task_version":"1.0","jspsych_version":"6.3.1","browser_interactions":0,"missing":false},{"state_1_ids":[0,1],"state_1_key":0,"state_1_choice":0,"state_1_rt":970.2000000476837,"transition":1,"state":0,"state_2_ids":[0,1],"state_2_key":0,"state_2_choice":0,"state_2_rt":660.1000000238419,"outcome":0,"rocket_colors":["#955db9","#48a782"],"planet_colors":["#5f6f81","#7f5d5d"],"screen_resolution":[1280,1024],"minimum_resolution":1,"trial":85,"drifts":[0.57,0.324,0.436,0.421],"drift_ix":3,"trial_type":"two-step-trial","trial_index":116,"time_elapsed":886990,"internal_node_id":"0.0-98.0-0.0","task_version":"1.0","jspsych_version":"6.3.1","browser_interactions":0,"missing":false},{"state_1_ids":[0,1],"state_1_key":0,"state_1_choice":0,"state_1_rt":905.1000000238419,"transition":0,"state":1,"state_2_ids":[2,3],"state_2_key":1,"state_2_choice":3,"state_2_rt":1069.800000011921,"outcome":0,"rocket_colors":["#955db9","#48a782"],"planet_colors":["#5f6f81","#7f5d5d"],"screen_resolution":[1280,1024],"minimum_resolution":1,"trial":86,"drifts":[0.531,0.336,0.408,0.378],"drift_ix":3,"trial_type":"two-step-trial","trial_index":117,"time_elapsed":890975,"internal_node_id":"0.0-99.0-0.0","task_version":"1.0","jspsych_version":"6.3.1","browser_interactions":0,"missing":false},{"state_1_ids":[0,1],"state_1_key":0,"state_1_choice":0,"state_1_rt":521.6999999880791,"transition":0,"state":1,"state_2_ids":[2,3],"state_2_key":1,"state_2_choice":3,"state_2_rt":955.3999999761581,"outcome":1,"rocket_colors":["#955db9","#48a782"],"planet_colors":["#5f6f81","#7f5d5d"],"screen_resolution":[1280,1024],"minimum_resolution":1,"trial":87,"drifts":[0.529,0.309,0.432,0.403],"drift_ix":3,"trial_type":"two-step-trial","trial_index":118,"time_elapsed":894462,"internal_node_id":"0.0-100.0-0.0","task_version":"1.0","jspsych_version":"6.3.1","browser_interactions":0,"missing":false},{"state_1_ids":[0,1],"state_1_key":0,"state_1_choice":0,"state_1_rt":3586.600000023842,"transition":1,"state":0,"state_2_ids":[0,1],"state_2_key":0,"state_2_choice":0,"state_2_rt":1059.800000011921,"outcome":0,"rocket_colors":["#955db9","#48a782"],"planet_colors":["#5f6f81","#7f5d5d"],"screen_resolution":[1280,1024],"minimum_resolution":1,"trial":88,"drifts":[0.532,0.296,0.431,0.406],"drift_ix":3,"trial_type":"two-step-trial","trial_index":119,"time_elapsed":901117,"internal_node_id":"0.0-101.0-0.0","task_version":"1.0","jspsych_version":"6.3.1","browser_interactions":0,"missing":false},{"state_1_ids":[0,1],"state_1_key":0,"state_1_choice":0,"state_1_rt":738.5999999642372,"transition":1,"state":0,"state_2_ids":[0,1],"state_2_key":0,"state_2_choice":0,"state_2_rt":612.5999999642372,"outcome":1,"rocket_colors":["#955db9","#48a782"],"planet_colors":["#5f6f81","#7f5d5d"],"screen_resolution":[1280,1024],"minimum_resolution":1,"trial":89,"drifts":[0.553,0.328,0.456,0.411],"drift_ix":3,"trial_type":"two-step-trial","trial_index":120,"time_elapsed":904478,"internal_node_id":"0.0-102.0-0.0","task_version":"1.0","jspsych_version":"6.3.1","browser_interactions":0,"missing":false},{"state_1_ids":[1,0],"state_1_key":1,"state_1_choice":0,"state_1_rt":712.8000000119209,"transition":1,"state":0,"state_2_ids":[0,1],"state_2_key":0,"state_2_choice":0,"state_2_rt":875.8000000119209,"outcome":1,"rocket_colors":["#955db9","#48a782"],"planet_colors":["#5f6f81","#7f5d5d"],"screen_resolution":[1280,1024],"minimum_resolution":1,"trial":90,"drifts":[0.542,0.3,0.493,0.409],"drift_ix":3,"trial_type":"two-step-trial","trial_index":121,"time_elapsed":908078,"internal_node_id":"0.0-103.0-0.0","task_version":"1.0","jspsych_version":"6.3.1","browser_interactions":0,"missing":false},{"state_1_ids":[1,0],"state_1_key":1,"state_1_choice":0,"state_1_rt":608.6999999880791,"transition":1,"state":0,"state_2_ids":[0,1],"state_2_key":0,"state_2_choice":0,"state_2_rt":621.6000000238419,"outcome":0,"rocket_colors":["#955db9","#48a782"],"planet_colors":["#5f6f81","#7f5d5d"],"screen_resolution":[1280,1024],"minimum_resolution":1,"trial":91,"drifts":[0.54,0.298,0.512,0.437],"drift_ix":3,"trial_type":"two-step-trial","trial_index":122,"time_elapsed":911318,"internal_node_id":"0.0-104.0-0.0","task_version":"1.0","jspsych_version":"6.3.1","browser_interactions":0,"missing":false},{"state_1_ids":[1,0],"state_1_key":1,"state_1_choice":0,"state_1_rt":473.80000001192093,"transition":1,"state":0,"state_2_ids":[0,1],"state_2_key":0,"state_2_choice":0,"state_2_rt":595.7999999523163,"outcome":1,"rocket_colors":["#955db9","#48a782"],"planet_colors":["#5f6f81","#7f5d5d"],"screen_resolution":[1280,1024],"minimum_resolution":1,"trial":92,"drifts":[0.564,0.281,0.499,0.45],"drift_ix":3,"trial_type":"two-step-trial","trial_index":123,"time_elapsed":914398,"internal_node_id":"0.0-105.0-0.0","task_version":"1.0","jspsych_version":"6.3.1","browser_interactions":0,"missing":false},{"state_1_ids":[1,0],"state_1_key":1,"state_1_choice":0,"state_1_rt":489.30000001192093,"transition":1,"state":0,"state_2_ids":[0,1],"state_2_key":0,"state_2_choice":0,"state_2_rt":493.5,"outcome":0,"rocket_colors":["#955db9","#48a782"],"planet_colors":["#5f6f81","#7f5d5d"],"screen_resolution":[1280,1024],"minimum_resolution":1,"trial":93,"drifts":[0.542,0.268,0.44,0.42],"drift_ix":3,"trial_type":"two-step-trial","trial_index":124,"time_elapsed":917389,"internal_node_id":"0.0-106.0-0.0","task_version":"1.0","jspsych_version":"6.3.1","browser_interactions":0,"missing":false},{"state_1_ids":[0,1],"state_1_key":1,"state_1_choice":1,"state_1_rt":425.80000001192093,"transition":1,"state":1,"state_2_ids":[2,3],"state_2_key":1,"state_2_choice":3,"state_2_rt":686.6000000238419,"outcome":1,"rocket_colors":["#955db9","#48a782"],"planet_colors":["#5f6f81","#7f5d5d"],"screen_resolution":[1280,1024],"minimum_resolution":1,"trial":94,"drifts":[0.539,0.26,0.421,0.438],"drift_ix":3,"trial_type":"two-step-trial","trial_index":125,"time_elapsed":920510,"internal_node_id":"0.0-107.0-0.0","task_version":"1.0","jspsych_version":"6.3.1","browser_interactions":0,"missing":false},{"state_1_ids":[1,0],"state_1_key":1,"state_1_choice":0,"state_1_rt":552.8000000119209,"transition":1,"state":0,"state_2_ids":[0,1],"state_2_key":0,"state_2_choice":0,"state_2_rt":669.3000000119209,"outcome":0,"rocket_colors":["#955db9","#48a782"],"planet_colors":["#5f6f81","#7f5d5d"],"screen_resolution":[1280,1024],"minimum_resolution":1,"trial":95,"drifts":[0.583,0.272,0.407,0.449],"drift_ix":3,"trial_type":"two-step-trial","trial_index":126,"time_elapsed":923742,"internal_node_id":"0.0-108.0-0.0","task_version":"1.0","jspsych_version":"6.3.1","browser_interactions":0,"missing":false},{"state_1_ids":[0,1],"state_1_key":1,"state_1_choice":1,"state_1_rt":377.10000002384186,"transition":1,"state":1,"state_2_ids":[2,3],"state_2_key":1,"state_2_choice":3,"state_2_rt":638.1000000238419,"outcome":1,"rocket_colors":["#955db9","#48a782"],"planet_colors":["#5f6f81","#7f5d5d"],"screen_resolution":[1280,1024],"minimum_resolution":1,"trial":96,"drifts":[0.596,0.257,0.37,0.508],"drift_ix":3,"trial_type":"two-step-trial","trial_index":127,"time_elapsed":926766,"internal_node_id":"0.0-109.0-0.0","task_version":"1.0","jspsych_version":"6.3.1","browser_interactions":0,"missing":false},{"state_1_ids":[1,0],"state_1_key":0,"state_1_choice":1,"state_1_rt":705.4000000357628,"transition":1,"state":1,"state_2_ids":[2,3],"state_2_key":1,"state_2_choice":3,"state_2_rt":739.8999999761581,"outcome":0,"rocket_colors":["#955db9","#48a782"],"planet_colors":["#5f6f81","#7f5d5d"],"screen_resolution":[1280,1024],"minimum_resolution":1,"trial":97,"drifts":[0.6,0.317,0.384,0.526],"drift_ix":3,"trial_type":"two-step-trial","trial_index":128,"time_elapsed":930222,"internal_node_id":"0.0-110.0-0.0","task_version":"1.0","jspsych_version":"6.3.1","browser_interactions":0,"missing":false},{"state_1_ids":[1,0],"state_1_key":0,"state_1_choice":1,"state_1_rt":617,"transition":1,"state":1,"state_2_ids":[2,3],"state_2_key":1,"state_2_choice":3,"state_2_rt":661.0999999642372,"outcome":1,"rocket_colors":["#955db9","#48a782"],"planet_colors":["#5f6f81","#7f5d5d"],"screen_resolution":[1280,1024],"minimum_resolution":1,"trial":98,"drifts":[0.573,0.304,0.387,0.504],"drift_ix":3,"trial_type":"two-step-trial","trial_index":129,"time_elapsed":933509,"internal_node_id":"0.0-111.0-0.0","task_version":"1.0","jspsych_version":"6.3.1","browser_interactions":0,"missing":false},{"state_1_ids":[0,1],"state_1_key":0,"state_1_choice":0,"state_1_rt":522.1000000238419,"transition":0,"state":1,"state_2_ids":[2,3],"state_2_key":1,"state_2_choice":3,"state_2_rt":494.80000001192093,"outcome":1,"rocket_colors":["#955db9","#48a782"],"planet_colors":["#5f6f81","#7f5d5d"],"screen_resolution":[1280,1024],"minimum_resolution":1,"trial":99,"drifts":[0.567,0.288,0.405,0.531],"drift_ix":3,"trial_type":"two-step-trial","trial_index":130,"time_elapsed":936534,"internal_node_id":"0.0-112.0-0.0","task_version":"1.0","jspsych_version":"6.3.1","browser_interactions":0,"missing":false},{"state_1_ids":[0,1],"state_1_key":0,"state_1_choice":0,"state_1_rt":512,"transition":0,"state":1,"state_2_ids":[2,3],"state_2_key":1,"state_2_choice":3,"state_2_rt":604.8999999761581,"outcome":0,"rocket_colors":["#955db9","#48a782"],"planet_colors":["#5f6f81","#7f5d5d"],"screen_resolution":[1280,1024],"minimum_resolution":1,"trial":100,"drifts":[0.535,0.255,0.402,0.526],"drift_ix":3,"trial_type":"two-step-trial","trial_index":131,"time_elapsed":939662,"internal_node_id":"0.0-113.0-0.0","task_version":"1.0","jspsych_version":"6.3.1","browser_interactions":0,"missing":false},{"view_history":"[{\"page_index\":0,\"viewing_time\":4763.700000047684},{\"page_index\":1,\"viewing_time\":5321.299999952316}]","rt":10086,"trial_type":"two-step-instructions","trial_index":132,"time_elapsed":949753,"internal_node_id":"0.0-114.0","task_version":"1.0","jspsych_version":"6.3.1"},{"state_1_ids":[1,0],"state_1_key":1,"state_1_choice":0,"state_1_rt":1519.4000000357628,"transition":1,"state":0,"state_2_ids":[0,1],"state_2_key":0,"state_2_choice":0,"state_2_rt":1130.199999988079,"outcome":1,"rocket_colors":["#955db9","#48a782"],"planet_colors":["#5f6f81","#7f5d5d"],"screen_resolution":[1280,1024],"minimum_resolution":1,"trial":101,"drifts":[0.52,0.27,0.348,0.507],"drift_ix":3,"trial_type":"two-step-trial","trial_index":133,"time_elapsed":954422,"internal_node_id":"0.0-115.0-0.0","task_version":"1.0","jspsych_version":"6.3.1","browser_interactions":0,"missing":false},{"state_1_ids":[0,1],"state_1_key":0,"state_1_choice":0,"state_1_rt":737.3000000119209,"transition":1,"state":0,"state_2_ids":[0,1],"state_2_key":0,"state_2_choice":0,"state_2_rt":606,"outcome":1,"rocket_colors":["#955db9","#48a782"],"planet_colors":["#5f6f81","#7f5d5d"],"screen_resolution":[1280,1024],"minimum_resolution":1,"trial":102,"drifts":[0.518,0.277,0.374,0.503],"drift_ix":3,"trial_type":"two-step-trial","trial_index":134,"time_elapsed":957774,"internal_node_id":"0.0-116.0-0.0","task_version":"1.0","jspsych_version":"6.3.1","browser_interactions":0,"missing":false},{"state_1_ids":[1,0],"state_1_key":1,"state_1_choice":0,"state_1_rt":865.3000000119209,"transition":1,"state":0,"state_2_ids":[0,1],"state_2_key":0,"state_2_choice":0,"state_2_rt":564.8000000119209,"outcome":1,"rocket_colors":["#955db9","#48a782"],"planet_colors":["#5f6f81","#7f5d5d"],"screen_resolution":[1280,1024],"minimum_resolution":1,"trial":103,"drifts":[0.492,0.318,0.345,0.483],"drift_ix":3,"trial_type":"two-step-trial","trial_index":135,"time_elapsed":961214,"internal_node_id":"0.0-117.0-0.0","task_version":"1.0","jspsych_version":"6.3.1","browser_interactions":0,"missing":false},{"state_1_ids":[1,0],"state_1_key":1,"state_1_choice":0,"state_1_rt":481.5,"transition":0,"state":1,"state_2_ids":[2,3],"state_2_key":1,"state_2_choice":3,"state_2_rt":949.5,"outcome":1,"rocket_colors":["#955db9","#48a782"],"planet_colors":["#5f6f81","#7f5d5d"],"screen_resolution":[1280,1024],"minimum_resolution":1,"trial":104,"drifts":[0.494,0.305,0.344,0.485],"drift_ix":3,"trial_type":"two-step-trial","trial_index":136,"time_elapsed":964654,"internal_node_id":"0.0-118.0-0.0","task_version":"1.0","jspsych_version":"6.3.1","browser_interactions":0,"missing":false},{"state_1_ids":[0,1],"state_1_key":0,"state_1_choice":0,"state_1_rt":1130.300000011921,"transition":0,"state":1,"state_2_ids":[2,3],"state_2_key":1,"state_2_choice":3,"state_2_rt":1093.5999999642372,"outcome":1,"rocket_colors":["#955db9","#48a782"],"planet_colors":["#5f6f81","#7f5d5d"],"screen_resolution":[1280,1024],"minimum_resolution":1,"trial":105,"drifts":[0.496,0.279,0.36,0.503],"drift_ix":3,"trial_type":"two-step-trial","trial_index":137,"time_elapsed":968886,"internal_node_id":"0.0-119.0-0.0","task_version":"1.0","jspsych_version":"6.3.1","browser_interactions":0,"missing":false},{"state_1_ids":[1,0],"state_1_key":1,"state_1_choice":0,"state_1_rt":744.9000000357628,"transition":1,"state":0,"state_2_ids":[0,1],"state_2_key":0,"state_2_choice":0,"state_2_rt":540.8999999761581,"outcome":1,"rocket_colors":["#955db9","#48a782"],"planet_colors":["#5f6f81","#7f5d5d"],"screen_resolution":[1280,1024],"minimum_resolution":1,"trial":106,"drifts":[0.522,0.291,0.358,0.537],"drift_ix":3,"trial_type":"two-step-trial","trial_index":138,"time_elapsed":972181,"internal_node_id":"0.0-120.0-0.0","task_version":"1.0","jspsych_version":"6.3.1","browser_interactions":0,"missing":false},{"state_1_ids":[0,1],"state_1_key":1,"state_1_choice":1,"state_1_rt":618.2000000476837,"transition":0,"state":0,"state_2_ids":[0,1],"state_2_key":0,"state_2_choice":0,"state_2_rt":1071.3999999761581,"outcome":1,"rocket_colors":["#955db9","#48a782"],"planet_colors":["#5f6f81","#7f5d5d"],"screen_resolution":[1280,1024],"minimum_resolution":1,"trial":107,"drifts":[0.481,0.324,0.357,0.499],"drift_ix":3,"trial_type":"two-step-trial","trial_index":139,"time_elapsed":975880,"internal_node_id":"0.0-121.0-0.0","task_version":"1.0","jspsych_version":"6.3.1","browser_interactions":0,"missing":false},{"state_1_ids":[1,0],"state_1_key":1,"state_1_choice":0,"state_1_rt":911.5,"transition":0,"state":1,"state_2_ids":[2,3],"state_2_key":1,"state_2_choice":3,"state_2_rt":997.1999999880791,"outcome":1,"rocket_colors":["#955db9","#48a782"],"planet_colors":["#5f6f81","#7f5d5d"],"screen_resolution":[1280,1024],"minimum_resolution":1,"trial":108,"drifts":[0.504,0.334,0.327,0.481],"drift_ix":3,"trial_type":"two-step-trial","trial_index":140,"time_elapsed":979798,"internal_node_id":"0.0-122.0-0.0","task_version":"1.0","jspsych_version":"6.3.1","browser_interactions":0,"missing":false},{"state_1_ids":[0,1],"state_1_key":0,"state_1_choice":0,"state_1_rt":681.3999999761581,"transition":1,"state":0,"state_2_ids":[0,1],"state_2_key":0,"state_2_choice":0,"state_2_rt":908.8000000119209,"outcome":0,"rocket_colors":["#955db9","#48a782"],"planet_colors":["#5f6f81","#7f5d5d"],"screen_resolution":[1280,1024],"minimum_resolution":1,"trial":109,"drifts":[0.526,0.339,0.308,0.485],"drift_ix":3,"trial_type":"two-step-trial","trial_index":141,"time_elapsed":983398,"internal_node_id":"0.0-123.0-0.0","task_version":"1.0","jspsych_version":"6.3.1","browser_interactions":0,"missing":false},{"state_1_ids":[1,0],"state_1_key":1,"state_1_choice":0,"state_1_rt":616.7000000476837,"transition":1,"state":0,"state_2_ids":[0,1],"state_2_key":1,"state_2_choice":1,"state_2_rt":924.3000000119209,"outcome":0,"rocket_colors":["#955db9","#48a782"],"planet_colors":["#5f6f81","#7f5d5d"],"screen_resolution":[1280,1024],"minimum_resolution":1,"trial":110,"drifts":[0.551,0.358,0.295,0.444],"drift_ix":3,"trial_type":"two-step-trial","trial_index":142,"time_elapsed":986950,"internal_node_id":"0.0-124.0-0.0","task_version":"1.0","jspsych_version":"6.3.1","browser_interactions":0,"missing":false},{"state_1_ids":[1,0],"state_1_key":1,"state_1_choice":0,"state_1_rt":857.1999999880791,"transition":1,"state":0,"state_2_ids":[0,1],"state_2_key":0,"state_2_choice":0,"state_2_rt":549.6999999880791,"outcome":1,"rocket_colors":["#955db9","#48a782"],"planet_colors":["#5f6f81","#7f5d5d"],"screen_resolution":[1280,1024],"minimum_resolution":1,"trial":111,"drifts":[0.517,0.359,0.323,0.417],"drift_ix":3,"trial_type":"two-step-trial","trial_index":143,"time_elapsed":990366,"internal_node_id":"0.0-125.0-0.0","task_version":"1.0","jspsych_version":"6.3.1","browser_interactions":0,"missing":false},{"state_1_ids":[1,0],"state_1_key":1,"state_1_choice":0,"state_1_rt":608.6999999880791,"transition":1,"state":0,"state_2_ids":[0,1],"state_2_key":0,"state_2_choice":0,"state_2_rt":910,"outcome":1,"rocket_colors":["#955db9","#48a782"],"planet_colors":["#5f6f81","#7f5d5d"],"screen_resolution":[1280,1024],"minimum_resolution":1,"trial":112,"drifts":[0.506,0.34,0.322,0.412],"drift_ix":3,"trial_type":"two-step-trial","trial_index":144,"time_elapsed":993895,"internal_node_id":"0.0-126.0-0.0","task_version":"1.0","jspsych_version":"6.3.1","browser_interactions":0,"missing":false},{"state_1_ids":[1,0],"state_1_key":0,"state_1_choice":1,"state_1_rt":590.1999999880791,"transition":0,"state":0,"state_2_ids":[0,1],"state_2_key":0,"state_2_choice":0,"state_2_rt":1341.300000011921,"outcome":1,"rocket_colors":["#955db9","#48a782"],"planet_colors":["#5f6f81","#7f5d5d"],"screen_resolution":[1280,1024],"minimum_resolution":1,"trial":113,"drifts":[0.467,0.28,0.348,0.413],"drift_ix":3,"trial_type":"two-step-trial","trial_index":145,"time_elapsed":997838,"internal_node_id":"0.0-127.0-0.0","task_version":"1.0","jspsych_version":"6.3.1","browser_interactions":0,"missing":false},{"state_1_ids":[0,1],"state_1_key":0,"state_1_choice":0,"state_1_rt":544.6999999880791,"transition":0,"state":1,"state_2_ids":[2,3],"state_2_key":1,"state_2_choice":3,"state_2_rt":948.6000000238419,"outcome":0,"rocket_colors":["#955db9","#48a782"],"planet_colors":["#5f6f81","#7f5d5d"],"screen_resolution":[1280,1024],"minimum_resolution":1,"trial":114,"drifts":[0.494,0.276,0.373,0.43],"drift_ix":3,"trial_type":"two-step-trial","trial_index":146,"time_elapsed":1001341,"internal_node_id":"0.0-128.0-0.0","task_version":"1.0","jspsych_version":"6.3.1","browser_interactions":0,"missing":false},{"state_1_ids":[0,1],"state_1_key":1,"state_1_choice":1,"state_1_rt":809.5999999642372,"transition":1,"state":1,"state_2_ids":[2,3],"state_2_key":1,"state_2_choice":3,"state_2_rt":678.3000000119209,"outcome":0,"rocket_colors":["#955db9","#48a782"],"planet_colors":["#5f6f81","#7f5d5d"],"screen_resolution":[1280,1024],"minimum_resolution":1,"trial":115,"drifts":[0.493,0.258,0.428,0.412],"drift_ix":3,"trial_type":"two-step-trial","trial_index":147,"time_elapsed":1004838,"internal_node_id":"0.0-129.0-0.0","task_version":"1.0","jspsych_version":"6.3.1","browser_interactions":0,"missing":false},{"state_1_ids":[1,0],"state_1_key":1,"state_1_choice":0,"state_1_rt":625,"transition":1,"state":0,"state_2_ids":[0,1],"state_2_key":1,"state_2_choice":1,"state_2_rt":565.8000000119209,"outcome":0,"rocket_colors":["#955db9","#48a782"],"planet_colors":["#5f6f81","#7f5d5d"],"screen_resolution":[1280,1024],"minimum_resolution":1,"trial":116,"drifts":[0.492,0.266,0.447,0.466],"drift_ix":3,"trial_type":"two-step-trial","trial_index":148,"time_elapsed":1008045,"internal_node_id":"0.0-130.0-0.0","task_version":"1.0","jspsych_version":"6.3.1","browser_interactions":0,"missing":false},{"state_1_ids":[1,0],"state_1_key":1,"state_1_choice":0,"state_1_rt":633.3000000119209,"transition":1,"state":0,"state_2_ids":[0,1],"state_2_key":0,"state_2_choice":0,"state_2_rt":556.9000000357628,"outcome":0,"rocket_colors":["#955db9","#48a782"],"planet_colors":["#5f6f81","#7f5d5d"],"screen_resolution":[1280,1024],"minimum_resolution":1,"trial":117,"drifts":[0.512,0.269,0.457,0.471],"drift_ix":3,"trial_type":"two-step-trial","trial_index":149,"time_elapsed":1011245,"internal_node_id":"0.0-131.0-0.0","task_version":"1.0","jspsych_version":"6.3.1","browser_interactions":0,"missing":false},{"state_1_ids":[0,1],"state_1_key":1,"state_1_choice":1,"state_1_rt":569.2999999523163,"transition":1,"state":1,"state_2_ids":[2,3],"state_2_key":1,"state_2_choice":3,"state_2_rt":637.3999999761581,"outcome":1,"rocket_colors":["#955db9","#48a782"],"planet_colors":["#5f6f81","#7f5d5d"],"screen_resolution":[1280,1024],"minimum_resolution":1,"trial":118,"drifts":[0.551,0.283,0.506,0.484],"drift_ix":3,"trial_type":"two-step-trial","trial_index":150,"time_elapsed":1014461,"internal_node_id":"0.0-132.0-0.0","task_version":"1.0","jspsych_version":"6.3.1","browser_interactions":0,"missing":false},{"state_1_ids":[1,0],"state_1_key":0,"state_1_choice":1,"state_1_rt":1072.8999999761581,"transition":1,"state":1,"state_2_ids":[2,3],"state_2_key":1,"state_2_choice":3,"state_2_rt":532.5999999642372,"outcome":1,"rocket_colors":["#955db9","#48a782"],"planet_colors":["#5f6f81","#7f5d5d"],"screen_resolution":[1280,1024],"minimum_resolution":1,"trial":119,"drifts":[0.537,0.273,0.462,0.473],"drift_ix":3,"trial_type":"two-step-trial","trial_index":151,"time_elapsed":1018076,"internal_node_id":"0.0-133.0-0.0","task_version":"1.0","jspsych_version":"6.3.1","browser_interactions":0,"missing":false},{"state_1_ids":[0,1],"state_1_key":0,"state_1_choice":0,"state_1_rt":482.5,"transition":1,"state":0,"state_2_ids":[0,1],"state_2_key":0,"state_2_choice":0,"state_2_rt":795.5,"outcome":0,"rocket_colors":["#955db9","#48a782"],"planet_colors":["#5f6f81","#7f5d5d"],"screen_resolution":[1280,1024],"minimum_resolution":1,"trial":120,"drifts":[0.49,0.26,0.46,0.477],"drift_ix":3,"trial_type":"two-step-trial","trial_index":152,"time_elapsed":1021364,"internal_node_id":"0.0-134.0-0.0","task_version":"1.0","jspsych_version":"6.3.1","browser_interactions":0,"missing":false},{"state_1_ids":[1,0],"state_1_key":0,"state_1_choice":1,"state_1_rt":961.7000000476837,"transition":0,"state":0,"state_2_ids":[0,1],"state_2_key":1,"state_2_choice":1,"state_2_rt":1223.199999988079,"outcome":1,"rocket_colors":["#955db9","#48a782"],"planet_colors":["#5f6f81","#7f5d5d"],"screen_resolution":[1280,1024],"minimum_resolution":1,"trial":121,"drifts":[0.547,0.275,0.457,0.431],"drift_ix":3,"trial_type":"two-step-trial","trial_index":153,"time_elapsed":1025573,"internal_node_id":"0.0-135.0-0.0","task_version":"1.0","jspsych_version":"6.3.1","browser_interactions":0,"missing":false},{"state_1_ids":[0,1],"state_1_key":0,"state_1_choice":0,"state_1_rt":930.5,"transition":0,"state":1,"state_2_ids":[2,3],"state_2_key":1,"state_2_choice":3,"state_2_rt":1436.300000011921,"outcome":1,"rocket_colors":["#955db9","#48a782"],"planet_colors":["#5f6f81","#7f5d5d"],"screen_resolution":[1280,1024],"minimum_resolution":1,"trial":122,"drifts":[0.578,0.269,0.386,0.411],"drift_ix":3,"trial_type":"two-step-trial","trial_index":154,"time_elapsed":1029949,"internal_node_id":"0.0-136.0-0.0","task_version":"1.0","jspsych_version":"6.3.1","browser_interactions":0,"missing":false},{"state_1_ids":[1,0],"state_1_key":1,"state_1_choice":0,"state_1_rt":969.9000000357628,"transition":0,"state":1,"state_2_ids":[2,3],"state_2_key":1,"state_2_choice":3,"state_2_rt":770.8000000119209,"outcome":0,"rocket_colors":["#955db9","#48a782"],"planet_colors":["#5f6f81","#7f5d5d"],"screen_resolution":[1280,1024],"minimum_resolution":1,"trial":123,"drifts":[0.639,0.269,0.384,0.429],"drift_ix":3,"trial_type":"two-step-trial","trial_index":155,"time_elapsed":1033701,"internal_node_id":"0.0-137.0-0.0","task_version":"1.0","jspsych_version":"6.3.1","browser_interactions":0,"missing":false},{"state_1_ids":[0,1],"state_1_key":1,"state_1_choice":1,"state_1_rt":652.8000000119209,"transition":1,"state":1,"state_2_ids":[2,3],"state_2_key":1,"state_2_choice":3,"state_2_rt":710.7999999523163,"outcome":0,"rocket_colors":["#955db9","#48a782"],"planet_colors":["#5f6f81","#7f5d5d"],"screen_resolution":[1280,1024],"minimum_resolution":1,"trial":124,"drifts":[0.636,0.254,0.416,0.449],"drift_ix":3,"trial_type":"two-step-trial","trial_index":156,"time_elapsed":1037090,"internal_node_id":"0.0-138.0-0.0","task_version":"1.0","jspsych_version":"6.3.1","browser_interactions":0,"missing":false},{"state_1_ids":[0,1],"state_1_key":1,"state_1_choice":1,"state_1_rt":484.5,"transition":0,"state":0,"state_2_ids":[0,1],"state_2_key":1,"state_2_choice":1,"state_2_rt":595.8999999761581,"outcome":1,"rocket_colors":["#955db9","#48a782"],"planet_colors":["#5f6f81","#7f5d5d"],"screen_resolution":[1280,1024],"minimum_resolution":1,"trial":125,"drifts":[0.665,0.257,0.44,0.433],"drift_ix":3,"trial_type":"two-step-trial","trial_index":157,"time_elapsed":1040180,"internal_node_id":"0.0-139.0-0.0","task_version":"1.0","jspsych_version":"6.3.1","browser_interactions":0,"missing":false},{"state_1_ids":[1,0],"state_1_key":1,"state_1_choice":0,"state_1_rt":610,"transition":0,"state":1,"state_2_ids":[2,3],"state_2_key":1,"state_2_choice":3,"state_2_rt":846.1000000238419,"outcome":0,"rocket_colors":["#955db9","#48a782"],"planet_colors":["#5f6f81","#7f5d5d"],"screen_resolution":[1280,1024],"minimum_resolution":1,"trial":126,"drifts":[0.694,0.25,0.453,0.414],"drift_ix":3,"trial_type":"two-step-trial","trial_index":158,"time_elapsed":1043645,"internal_node_id":"0.0-140.0-0.0","task_version":"1.0","jspsych_version":"6.3.1","browser_interactions":0,"missing":false},{"state_1_ids":[1,0],"state_1_key":1,"state_1_choice":0,"state_1_rt":472.89999997615814,"transition":1,"state":0,"state_2_ids":[0,1],"state_2_key":1,"state_2_choice":1,"state_2_rt":630.0999999642372,"outcome":0,"rocket_colors":["#955db9","#48a782"],"planet_colors":["#5f6f81","#7f5d5d"],"screen_resolution":[1280,1024],"minimum_resolution":1,"trial":127,"drifts":[0.666,0.266,0.449,0.399],"drift_ix":3,"trial_type":"two-step-trial","trial_index":159,"time_elapsed":1046756,"internal_node_id":"0.0-141.0-0.0","task_version":"1.0","jspsych_version":"6.3.1","browser_interactions":0,"missing":false},{"state_1_ids":[1,0],"state_1_key":1,"state_1_choice":0,"state_1_rt":673.3999999761581,"transition":1,"state":0,"state_2_ids":[0,1],"state_2_key":0,"state_2_choice":0,"state_2_rt":684,"outcome":1,"rocket_colors":["#955db9","#48a782"],"planet_colors":["#5f6f81","#7f5d5d"],"screen_resolution":[1280,1024],"minimum_resolution":1,"trial":128,"drifts":[0.66,0.272,0.461,0.39],"drift_ix":3,"trial_type":"two-step-trial","trial_index":160,"time_elapsed":1050124,"internal_node_id":"0.0-142.0-0.0","task_version":"1.0","jspsych_version":"6.3.1","browser_interactions":0,"missing":false},{"state_1_ids":[1,0],"state_1_key":1,"state_1_choice":0,"state_1_rt":642.1000000238419,"transition":1,"state":0,"state_2_ids":[0,1],"state_2_key":0,"state_2_choice":0,"state_2_rt":684.4000000357628,"outcome":0,"rocket_colors":["#955db9","#48a782"],"planet_colors":["#5f6f81","#7f5d5d"],"screen_resolution":[1280,1024],"minimum_resolution":1,"trial":129,"drifts":[0.677,0.288,0.452,0.388],"drift_ix":3,"trial_type":"two-step-trial","trial_index":161,"time_elapsed":1053460,"internal_node_id":"0.0-143.0-0.0","task_version":"1.0","jspsych_version":"6.3.1","browser_interactions":0,"missing":false},{"state_1_ids":[0,1],"state_1_key":1,"state_1_choice":1,"state_1_rt":609.6999999880791,"transition":1,"state":1,"state_2_ids":[2,3],"state_2_key":0,"state_2_choice":2,"state_2_rt":678.6000000238419,"outcome":0,"rocket_colors":["#955db9","#48a782"],"planet_colors":["#5f6f81","#7f5d5d"],"screen_resolution":[1280,1024],"minimum_resolution":1,"trial":130,"drifts":[0.654,0.252,0.415,0.434],"drift_ix":3,"trial_type":"two-step-trial","trial_index":162,"time_elapsed":1056772,"internal_node_id":"0.0-144.0-0.0","task_version":"1.0","jspsych_version":"6.3.1","browser_interactions":0,"missing":false},{"state_1_ids":[1,0],"state_1_key":1,"state_1_choice":0,"state_1_rt":465.5999999642372,"transition":0,"state":1,"state_2_ids":[2,3],"state_2_key":1,"state_2_choice":3,"state_2_rt":701.9000000357628,"outcome":0,"rocket_colors":["#955db9","#48a782"],"planet_colors":["#5f6f81","#7f5d5d"],"screen_resolution":[1280,1024],"minimum_resolution":1,"trial":131,"drifts":[0.662,0.271,0.398,0.411],"drift_ix":3,"trial_type":"two-step-trial","trial_index":163,"time_elapsed":1059951,"internal_node_id":"0.0-145.0-0.0","task_version":"1.0","jspsych_version":"6.3.1","browser_interactions":0,"missing":false},{"state_1_ids":[0,1],"state_1_key":1,"state_1_choice":1,"state_1_rt":438,"transition":1,"state":1,"state_2_ids":[2,3],"state_2_key":1,"state_2_choice":3,"state_2_rt":662.1000000238419,"outcome":1,"rocket_colors":["#955db9","#48a782"],"planet_colors":["#5f6f81","#7f5d5d"],"screen_resolution":[1280,1024],"minimum_resolution":1,"trial":132,"drifts":[0.661,0.29,0.402,0.435],"drift_ix":3,"trial_type":"two-step-trial","trial_index":164,"time_elapsed":1063061,"internal_node_id":"0.0-146.0-0.0","task_version":"1.0","jspsych_version":"6.3.1","browser_interactions":0,"missing":false},{"state_1_ids":[1,0],"state_1_key":1,"state_1_choice":0,"state_1_rt":497.5,"transition":1,"state":0,"state_2_ids":[0,1],"state_2_key":1,"state_2_choice":1,"state_2_rt":739.6999999880791,"outcome":0,"rocket_colors":["#955db9","#48a782"],"planet_colors":["#5f6f81","#7f5d5d"],"screen_resolution":[1280,1024],"minimum_resolution":1,"trial":133,"drifts":[0.665,0.307,0.385,0.395],"drift_ix":3,"trial_type":"two-step-trial","trial_index":165,"time_elapsed":1066307,"internal_node_id":"0.0-147.0-0.0","task_version":"1.0","jspsych_version":"6.3.1","browser_interactions":0,"missing":false},{"state_1_ids":[0,1],"state_1_key":1,"state_1_choice":1,"state_1_rt":490.2999999523163,"transition":1,"state":1,"state_2_ids":[2,3],"state_2_key":1,"state_2_choice":3,"state_2_rt":1596.9000000357628,"outcome":1,"rocket_colors":["#955db9","#48a782"],"planet_colors":["#5f6f81","#7f5d5d"],"screen_resolution":[1280,1024],"minimum_resolution":1,"trial":134,"drifts":[0.696,0.308,0.332,0.425],"drift_ix":3,"trial_type":"two-step-trial","trial_index":166,"time_elapsed":1070404,"internal_node_id":"0.0-148.0-0.0","task_version":"1.0","jspsych_version":"6.3.1","browser_interactions":0,"missing":false},{"state_1_ids":[1,0],"state_1_key":1,"state_1_choice":0,"state_1_rt":538,"transition":1,"state":0,"state_2_ids":[0,1],"state_2_key":0,"state_2_choice":0,"state_2_rt":1253.4000000357628,"outcome":1,"rocket_colors":["#955db9","#48a782"],"planet_colors":["#5f6f81","#7f5d5d"],"screen_resolution":[1280,1024],"minimum_resolution":1,"trial":135,"drifts":[0.68,0.339,0.346,0.425],"drift_ix":3,"trial_type":"two-step-trial","trial_index":167,"time_elapsed":1074204,"internal_node_id":"0.0-149.0-0.0","task_version":"1.0","jspsych_version":"6.3.1","browser_interactions":0,"missing":false},{"state_1_ids":[1,0],"state_1_key":1,"state_1_choice":0,"state_1_rt":626.1999999880791,"transition":0,"state":1,"state_2_ids":[2,3],"state_2_key":0,"state_2_choice":2,"state_2_rt":728.5999999642372,"outcome":1,"rocket_colors":["#955db9","#48a782"],"planet_colors":["#5f6f81","#7f5d5d"],"screen_resolution":[1280,1024],"minimum_resolution":1,"trial":136,"drifts":[0.674,0.33,0.342,0.403],"drift_ix":3,"trial_type":"two-step-trial","trial_index":168,"time_elapsed":1077568,"internal_node_id":"0.0-150.0-0.0","task_version":"1.0","jspsych_version":"6.3.1","browser_interactions":0,"missing":false},{"state_1_ids":[0,1],"state_1_key":1,"state_1_choice":1,"state_1_rt":430.10000002384186,"transition":1,"state":1,"state_2_ids":[2,3],"state_2_key":1,"state_2_choice":3,"state_2_rt":702.3999999761581,"outcome":1,"rocket_colors":["#955db9","#48a782"],"planet_colors":["#5f6f81","#7f5d5d"],"screen_resolution":[1280,1024],"minimum_resolution":1,"trial":137,"drifts":[0.699,0.293,0.329,0.403],"drift_ix":3,"trial_type":"two-step-trial","trial_index":169,"time_elapsed":1080709,"internal_node_id":"0.0-151.0-0.0","task_version":"1.0","jspsych_version":"6.3.1","browser_interactions":0,"missing":false},{"state_1_ids":[0,1],"state_1_key":1,"state_1_choice":1,"state_1_rt":577.3999999761581,"transition":1,"state":1,"state_2_ids":[2,3],"state_2_key":1,"state_2_choice":3,"state_2_rt":692.7000000476837,"outcome":0,"rocket_colors":["#955db9","#48a782"],"planet_colors":["#5f6f81","#7f5d5d"],"screen_resolution":[1280,1024],"minimum_resolution":1,"trial":138,"drifts":[0.734,0.332,0.387,0.413],"drift_ix":3,"trial_type":"two-step-trial","trial_index":170,"time_elapsed":1083989,"internal_node_id":"0.0-152.0-0.0","task_version":"1.0","jspsych_version":"6.3.1","browser_interactions":0,"missing":false},{"state_1_ids":[0,1],"state_1_key":1,"state_1_choice":1,"state_1_rt":593,"transition":1,"state":1,"state_2_ids":[2,3],"state_2_key":1,"state_2_choice":3,"state_2_rt":987.3000000119209,"outcome":0,"rocket_colors":["#955db9","#48a782"],"planet_colors":["#5f6f81","#7f5d5d"],"screen_resolution":[1280,1024],"minimum_resolution":1,"trial":139,"drifts":[0.692,0.301,0.41,0.413],"drift_ix":3,"trial_type":"two-step-trial","trial_index":171,"time_elapsed":1087581,"internal_node_id":"0.0-153.0-0.0","task_version":"1.0","jspsych_version":"6.3.1","browser_interactions":0,"missing":false},{"state_1_ids":[0,1],"state_1_key":1,"state_1_choice":1,"state_1_rt":617.2000000476837,"transition":1,"state":1,"state_2_ids":[2,3],"state_2_key":1,"state_2_choice":3,"state_2_rt":554.6000000238419,"outcome":1,"rocket_colors":["#955db9","#48a782"],"planet_colors":["#5f6f81","#7f5d5d"],"screen_resolution":[1280,1024],"minimum_resolution":1,"trial":140,"drifts":[0.722,0.286,0.408,0.406],"drift_ix":3,"trial_type":"two-step-trial","trial_index":172,"time_elapsed":1090765,"internal_node_id":"0.0-154.0-0.0","task_version":"1.0","jspsych_version":"6.3.1","browser_interactions":0,"missing":false},{"state_1_ids":[1,0],"state_1_key":1,"state_1_choice":0,"state_1_rt":1073,"transition":1,"state":0,"state_2_ids":[0,1],"state_2_key":0,"state_2_choice":0,"state_2_rt":1341.3999999761581,"outcome":1,"rocket_colors":["#955db9","#48a782"],"planet_colors":["#5f6f81","#7f5d5d"],"screen_resolution":[1280,1024],"minimum_resolution":1,"trial":141,"drifts":[0.748,0.253,0.428,0.403],"drift_ix":3,"trial_type":"two-step-trial","trial_index":173,"time_elapsed":1095188,"internal_node_id":"0.0-155.0-0.0","task_version":"1.0","jspsych_version":"6.3.1","browser_interactions":0,"missing":false},{"state_1_ids":[1,0],"state_1_key":1,"state_1_choice":0,"state_1_rt":426.39999997615814,"transition":1,"state":0,"state_2_ids":[0,1],"state_2_key":0,"state_2_choice":0,"state_2_rt":811.6999999880791,"outcome":0,"rocket_colors":["#955db9","#48a782"],"planet_colors":["#5f6f81","#7f5d5d"],"screen_resolution":[1280,1024],"minimum_resolution":1,"trial":142,"drifts":[0.73,0.307,0.452,0.407],"drift_ix":3,"trial_type":"two-step-trial","trial_index":174,"time_elapsed":1098438,"internal_node_id":"0.0-156.0-0.0","task_version":"1.0","jspsych_version":"6.3.1","browser_interactions":0,"missing":false},{"state_1_ids":[0,1],"state_1_key":1,"state_1_choice":1,"state_1_rt":455.80000001192093,"transition":0,"state":0,"state_2_ids":[0,1],"state_2_key":0,"state_2_choice":0,"state_2_rt":596,"outcome":1,"rocket_colors":["#955db9","#48a782"],"planet_colors":["#5f6f81","#7f5d5d"],"screen_resolution":[1280,1024],"minimum_resolution":1,"trial":143,"drifts":[0.722,0.322,0.426,0.388],"drift_ix":3,"trial_type":"two-step-trial","trial_index":175,"time_elapsed":1101500,"internal_node_id":"0.0-157.0-0.0","task_version":"1.0","jspsych_version":"6.3.1","browser_interactions":0,"missing":false},{"state_1_ids":[0,1],"state_1_key":1,"state_1_choice":1,"state_1_rt":458,"transition":1,"state":1,"state_2_ids":[2,3],"state_2_key":0,"state_2_choice":2,"state_2_rt":652.8999999761581,"outcome":1,"rocket_colors":["#955db9","#48a782"],"planet_colors":["#5f6f81","#7f5d5d"],"screen_resolution":[1280,1024],"minimum_resolution":1,"trial":144,"drifts":[0.741,0.323,0.436,0.398],"drift_ix":3,"trial_type":"two-step-trial","trial_index":176,"time_elapsed":1104620,"internal_node_id":"0.0-158.0-0.0","task_version":"1.0","jspsych_version":"6.3.1","browser_interactions":0,"missing":false},{"state_1_ids":[1,0],"state_1_key":1,"state_1_choice":0,"state_1_rt":498.0999999642372,"transition":0,"state":1,"state_2_ids":[2,3],"state_2_key":1,"state_2_choice":3,"state_2_rt":581.1999999880791,"outcome":0,"rocket_colors":["#955db9","#48a782"],"planet_colors":["#5f6f81","#7f5d5d"],"screen_resolution":[1280,1024],"minimum_resolution":1,"trial":145,"drifts":[0.741,0.294,0.454,0.41],"drift_ix":3,"trial_type":"two-step-trial","trial_index":177,"time_elapsed":1107709,"internal_node_id":"0.0-159.0-0.0","task_version":"1.0","jspsych_version":