[{"success":true,"timeout":false,"failed_images":[],"failed_audio":[],"failed_video":[],"trial_type":"preload","trial_index":0,"time_elapsed":429,"internal_node_id":"0.0-0.0","task_version":"1.0","jspsych_version":"6.3.1"},{"success":true,"trial_type":"fullscreen","trial_index":1,"time_elapsed":3934,"internal_node_id":"0.0-1.0","task_version":"1.0","jspsych_version":"6.3.1"},{"view_history":[{"page_index":0,"viewing_time":3494.2000000178814}],"rt":3495.2000000178814,"trial_type":"instructions","trial_index":2,"time_elapsed":7432,"internal_node_id":"0.0-2.0","task_version":"1.0","jspsych_version":"6.3.1"},{"responses":{"Q06":"2","Q02":"2","Q01":"3","Q08":"0","Q03":"1","Q05":"2","Q04":"3","Q07":"3"},"rt":35462.30000001192,"item_order":[5,1,0,7,2,4,3,6],"radio_events":[16061,17942.90000000596,20134.90000000596,23196.70000001788,27766.70000001788,30394.59999999404,32860.59999999404,34480.70000001788],"key_events":[],"mouse_events":[0.20000001788139343,15072.90000000596,16061,17942.90000000596,20134.90000000596,23196.70000001788,27766.70000001788,30394.59999999404,32860.59999999404,34480.70000001788,35456.70000001788],"straightlining":0.375,"zigzagging":0.7142857142857143,"honeypot":0,"survey":"anxiety","trial_type":"survey-template","trial_index":3,"time_elapsed":42904,"internal_node_id":"0.0-3.0","task_version":"1.0","jspsych_version":"6.3.1"},{"responses":{"Q06":"1","Q02":"2","Q08":"0","Q03":"1","Q05":"1","Q01":"1","Q07":"0","Q04":"2"},"rt":66760.59999999404,"item_order":[5,1,7,2,4,0,6,3],"radio_events":[11932.40000000596,17904.80000001192,26590.90000000596,34014.80000001192,42846.30000001192,55180.59999999404,59396.5,66106.69999998808],"key_events":[],"mouse_events":[11932.40000000596,16804.69999998808,17904.80000001192,26590.90000000596,34014.80000001192,42846.30000001192,55180.59999999404,59396.5,66106.69999998808,66758.69999998808],"straightlining":0.5,"zigzagging":0.42857142857142855,"honeypot":0,"survey":"depression","trial_type":"survey-template","trial_index":4,"time_elapsed":109671,"internal_node_id":"0.0-4.0","task_version":"1.0","jspsych_version":"6.3.1"},{"responses":{"Q04":"3","Q03":"5","Q07":"3","Q06":"2","Q01":"5","Q05":"4","Q02":"3"},"rt":21704.90000000596,"item_order":[3,2,6,5,0,4,1],"radio_events":[4028,6473.700000017881,7625.800000011921,9920.09999999404,13021.59999999404,16761.59999999404,20299.5,21017.70000001788],"key_events":[],"mouse_events":[4028,6473.700000017881,7625.800000011921,9920.09999999404,13021.59999999404,15987.800000011921,16761.59999999404,20299.5,21017.70000001788,21701.80000001192],"straightlining":0.42857142857142855,"zigzagging":0.5,"honeypot":0,"survey":"artistic","trial_type":"survey-template","trial_index":5,"time_elapsed":131384,"internal_node_id":"0.0-5.0","task_version":"1.0","jspsych_version":"6.3.1"},{"responses":{"Q01":"2","Q04":"1","Q07":"6","Q05":"1","Q06":"1","Q02":"0","Q03":"0"},"rt":28254.09999999404,"item_order":[0,3,6,4,5,1,2],"radio_events":[6230.5,10844.40000000596,12802.299999982119,19898.19999998808,23054.09999999404,26004.40000000596,27220.29999998212],"key_events":[],"mouse_events":[6230.5,10844.40000000596,12802.299999982119,19898.19999998808,22736.29999998212,23054.09999999404,26004.40000000596,27220.29999998212,28251.79999998212],"straightlining":0.42857142857142855,"zigzagging":0.3333333333333333,"honeypot":0,"survey":"greed","trial_type":"survey-template","trial_index":6,"time_elapsed":159645,"internal_node_id":"0.0-6.0","task_version":"1.0","jspsych_version":"6.3.1"},{"responses":{"Q03":"1","Q08":"3","Q02":"1","Q01":"1","Q05":"1","Q07":"2","Q04":"1","Q06":"0"},"rt":78300.60000002384,"item_order":[2,7,1,0,4,6,3,5],"radio_events":[11910.700000017881,16816.40000000596,28846.5,40806.80000001192,41600.70000001788,50722.60000002384,57750.60000002384,68750.5,76908.60000002384],"key_events":[],"mouse_events":[11910.700000017881,16816.40000000596,28146.90000000596,28846.5,40806.80000001192,41600.70000001788,50722.60000002384,57750.60000002384,67702.5,68750.5,76908.60000002384,78294.60000002384],"straightlining":0.625,"zigzagging":0.42857142857142855,"honeypot":0,"survey":"mania","trial_type":"survey-template","trial_index":7,"time_elapsed":237953,"internal_node_id":"0.0-7.0","task_version":"1.0","jspsych_version":"6.3.1"},{"view_history":"[{\"page_index\":0,\"viewing_time\":6756.0999999940395},{\"page_index\":1,\"viewing_time\":6181.4000000059605},{\"page_index\":2,\"viewing_time\":2845.4000000059605},{\"page_index\":3,\"viewing_time\":10040.899999976158},{\"page_index\":4,\"viewing_time\":4511.600000023842},{\"page_index\":5,\"viewing_time\":1983.7999999821186},{\"page_index\":6,\"viewing_time\":1696.2000000178814},{\"page_index\":7,\"viewing_time\":4303.699999988079},{\"page_index\":8,\"viewing_time\":5408.5999999940395},{\"page_index\":9,\"viewing_time\":6600},{\"page_index\":10,\"viewing_time\":3431.7000000178814}]","rt":53759.90000000596,"trial_type":"two-step-instructions","trial_index":8,"time_elapsed":291724,"internal_node_id":"0.0-8.0-1.0","task_version":"1.0","jspsych_version":"6.3.1"},{"responses":["left/right arrow keys","True","True"],"num_errors":0,"rt":15487.899999976158,"quiz":1,"trial_type":"two-step-comprehension","trial_index":9,"time_elapsed":307220,"internal_node_id":"0.0-8.0-2.0","task_version":"1.0","jspsych_version":"6.3.1"},{"view_history":"[{\"page_index\":0,\"viewing_time\":15020.5}]","rt":15021.200000017881,"phase":"instructions_1b","trial_type":"two-step-instructions","trial_index":10,"time_elapsed":322254,"internal_node_id":"0.0-9.0-0.0-0.0","task_version":"1.0","jspsych_version":"6.3.1"},{"state_2_ids":[0,1],"state_2_key":1,"state_2_choice":1,"state_2_rt":4115.5,"outcome":1,"screen_resolution":[1280,800],"minimum_resolution":1,"trial_type":"alien-practice","trial_index":11,"time_elapsed":328584,"internal_node_id":"0.0-9.0-1.0-0.0","task_version":"1.0","jspsych_version":"6.3.1"},{"state_2_ids":[0,1],"state_2_key":1,"state_2_choice":1,"state_2_rt":1482.9000000059605,"outcome":0,"screen_resolution":[1280,800],"minimum_resolution":1,"trial_type":"alien-practice","trial_index":12,"time_elapsed":332275,"internal_node_id":"0.0-9.0-2.0-0.0","task_version":"1.0","jspsych_version":"6.3.1"},{"state_2_ids":[0,1],"state_2_key":1,"state_2_choice":1,"state_2_rt":927.2999999821186,"outcome":1,"screen_resolution":[1280,800],"minimum_resolution":1,"trial_type":"alien-practice","trial_index":13,"time_elapsed":335414,"internal_node_id":"0.0-9.0-3.0-0.0","task_version":"1.0","jspsych_version":"6.3.1"},{"state_2_ids":[0,1],"state_2_key":0,"state_2_choice":0,"state_2_rt":466.80000001192093,"outcome":0,"screen_resolution":[1280,800],"minimum_resolution":1,"trial_type":"alien-practice","trial_index":14,"time_elapsed":338095,"internal_node_id":"0.0-9.0-4.0-0.0","task_version":"1.0","jspsych_version":"6.3.1"},{"state_2_ids":[0,1],"state_2_key":0,"state_2_choice":0,"state_2_rt":920.7000000178814,"outcome":0,"screen_resolution":[1280,800],"minimum_resolution":1,"trial_type":"alien-practice","trial_index":15,"time_elapsed":341230,"internal_node_id":"0.0-9.0-5.0-0.0","task_version":"1.0","jspsych_version":"6.3.1"},{"state_2_ids":[0,1],"state_2_key":1,"state_2_choice":1,"state_2_rt":874.7000000178814,"outcome":1,"screen_resolution":[1280,800],"minimum_resolution":1,"trial_type":"alien-practice","trial_index":16,"time_elapsed":344318,"internal_node_id":"0.0-9.0-6.0-0.0","task_version":"1.0","jspsych_version":"6.3.1"},{"state_2_ids":[0,1],"state_2_key":1,"state_2_choice":1,"state_2_rt":1026.1000000238419,"outcome":1,"screen_resolution":[1280,800],"minimum_resolution":1,"trial_type":"alien-practice","trial_index":17,"time_elapsed":347557,"internal_node_id":"0.0-9.0-7.0-0.0","task_version":"1.0","jspsych_version":"6.3.1"},{"state_2_ids":[0,1],"state_2_key":1,"state_2_choice":1,"state_2_rt":803.1999999880791,"outcome":0,"screen_resolution":[1280,800],"minimum_resolution":1,"trial_type":"alien-practice","trial_index":18,"time_elapsed":350574,"internal_node_id":"0.0-9.0-8.0-0.0","task_version":"1.0","jspsych_version":"6.3.1"},{"view_history":"[{\"page_index\":0,\"viewing_time\":5369.9000000059605},{\"page_index\":1,\"viewing_time\":3209.800000011921},{\"page_index\":2,\"viewing_time\":5247.5999999940395},{\"page_index\":3,\"viewing_time\":6432.5999999940395},{\"page_index\":4,\"viewing_time\":4119.800000011921},{\"page_index\":5,\"viewing_time\":4984}]","rt":29364.09999999404,"trial_type":"two-step-instructions","trial_index":19,"time_elapsed":379945,"internal_node_id":"0.0-10.0-1.0","task_version":"1.0","jspsych_version":"6.3.1"},{"responses":["left/right arrow keys","True","True"],"num_errors":1,"rt":11176.699999988079,"quiz":2,"trial_type":"two-step-comprehension","trial_index":20,"time_elapsed":391129,"internal_node_id":"0.0-10.0-2.0","task_version":"1.0","jspsych_version":"6.3.1"},{"view_history":"[{\"page_index\":0,\"viewing_time\":3195.5999999940395}]","rt":3196.199999988079,"trial_type":"two-step-instructions","trial_index":21,"time_elapsed":394334,"internal_node_id":"0.0-10.1-0.1-0.1","task_version":"1.0","jspsych_version":"6.3.1"},{"view_history":"[{\"page_index\":0,\"viewing_time\":1855.9000000059605},{\"page_index\":1,\"viewing_time\":2533.800000011921},{\"page_index\":2,\"viewing_time\":6032.5999999940395},{\"page_index\":3,\"viewing_time\":2397.699999988079},{\"page_index\":4,\"viewing_time\":1034.2000000178814}]","rt":13854.90000000596,"trial_type":"two-step-instructions","trial_index":22,"time_elapsed":408197,"internal_node_id":"0.0-10.1-1.1","task_version":"1.0","jspsych_version":"6.3.1"},{"responses":["left/right arrow keys","False","True"],"num_errors":0,"rt":5479.699999988079,"quiz":2,"trial_type":"two-step-comprehension","trial_index":23,"time_elapsed":413684,"internal_node_id":"0.0-10.1-2.1","task_version":"1.0","jspsych_version":"6.3.1"},{"view_history":"[{\"page_index\":0,\"viewing_time\":13265.600000023842},{\"page_index\":1,\"viewing_time\":4323.799999982119},{\"page_index\":2,\"viewing_time\":8366.5}]","rt":25956.80000001192,"trial_type":"two-step-instructions","trial_index":24,"time_elapsed":439649,"internal_node_id":"0.0-11.0-0.0","task_version":"1.0","jspsych_version":"6.3.1"},{"state_1_ids":[1,0],"state_1_key":0,"state_1_choice":1,"state_1_rt":3603.9000000059605,"transition":1,"state":1,"state_2_ids":[2,3],"state_2_key":0,"state_2_choice":2,"state_2_rt":4595.699999988079,"outcome":0,"rocket_colors":["#a75248","#486ea7"],"planet_colors":["#5b7c65","#706081"],"screen_resolution":[1280,800],"minimum_resolution":1,"trial":0,"trial_type":"two-step-trial","trial_index":25,"time_elapsed":449867,"internal_node_id":"0.0-11.0-1.0-0.0","task_version":"1.0","jspsych_version":"6.3.1","missing":false},{"state_1_ids":[1,0],"state_1_key":0,"state_1_choice":1,"state_1_rt":1572.9000000059605,"transition":0,"state":0,"state_2_ids":[0,1],"state_2_key":1,"state_2_choice":1,"state_2_rt":1340.199999988079,"outcome":1,"rocket_colors":["#a75248","#486ea7"],"planet_colors":["#5b7c65","#706081"],"screen_resolution":[1280,800],"minimum_resolution":1,"trial":0,"trial_type":"two-step-trial","trial_index":26,"time_elapsed":454797,"internal_node_id":"0.0-11.0-1.0-0.1","task_version":"1.0","jspsych_version":"6.3.1","missing":false},{"state_1_ids":[0,1],"state_1_key":1,"state_1_choice":1,"state_1_rt":1292,"transition":1,"state":1,"state_2_ids":[2,3],"state_2_key":1,"state_2_choice":3,"state_2_rt":2245.399999976158,"outcome":0,"rocket_colors":["#a75248","#486ea7"],"planet_colors":["#5b7c65","#706081"],"screen_resolution":[1280,800],"minimum_resolution":1,"trial":0,"trial_type":"two-step-trial","trial_index":27,"time_elapsed":460345,"internal_node_id":"0.0-11.0-1.0-0.2","task_version":"1.0","jspsych_version":"6.3.1","missing":false},{"state_1_ids":[1,0],"state_1_key":0,"state_1_choice":1,"state_1_rt":1216.0999999940395,"transition":1,"state":1,"state_2_ids":[2,3],"state_2_key":0,"state_2_choice":2,"state_2_rt":2084.699999988079,"outcome":0,"rocket_colors":["#a75248","#486ea7"],"planet_colors":["#5b7c65","#706081"],"screen_resolution":[1280,800],"minimum_resolution":1,"trial":0,"trial_type":"two-step-trial","trial_index":28,"time_elapsed":465656,"internal_node_id":"0.0-11.0-1.0-0.3","task_version":"1.0","jspsych_version":"6.3.1","missing":false},{"state_1_ids":[1,0],"state_1_key":0,"state_1_choice":1,"state_1_rt":1232.5999999940395,"transition":1,"state":1,"state_2_ids":[2,3],"state_2_key":0,"state_2_choice":2,"state_2_rt":3412.2999999821186,"outcome":0,"rocket_colors":["#a75248","#486ea7"],"planet_colors":["#5b7c65","#706081"],"screen_resolution":[1280,800],"minimum_resolution":1,"trial":0,"trial_type":"two-step-trial","trial_index":29,"time_elapsed":472314,"internal_node_id":"0.0-11.0-1.0-0.4","task_version":"1.0","jspsych_version":"6.3.1","missing":false},{"state_1_ids":[0,1],"state_1_key":1,"state_1_choice":1,"state_1_rt":942.0999999940395,"transition":0,"state":0,"state_2_ids":[0,1],"state_2_key":1,"state_2_choice":1,"state_2_rt":996.4000000059605,"outcome":0,"rocket_colors":["#a75248","#486ea7"],"planet_colors":["#5b7c65","#706081"],"screen_resolution":[1280,800],"minimum_resolution":1,"trial":0,"trial_type":"two-step-trial","trial_index":30,"time_elapsed":476267,"internal_node_id":"0.0-11.0-1.0-0.5","task_version":"1.0","jspsych_version":"6.3.1","missing":false},{"state_1_ids":[0,1],"state_1_key":1,"state_1_choice":1,"state_1_rt":620.2999999821186,"transition":1,"state":1,"state_2_ids":[2,3],"state_2_key":1,"state_2_choice":3,"state_2_rt":1063,"outcome":1,"rocket_colors":["#a75248","#486ea7"],"planet_colors":["#5b7c65","#706081"],"screen_resolution":[1280,800],"minimum_resolution":1,"trial":0,"trial_type":"two-step-trial","trial_index":31,"time_elapsed":479959,"internal_node_id":"0.0-11.0-1.0-0.6","task_version":"1.0","jspsych_version":"6.3.1","missing":false},{"state_1_ids":[0,1],"state_1_key":1,"state_1_choice":1,"state_1_rt":761.4000000059605,"transition":1,"state":1,"state_2_ids":[2,3],"state_2_key":1,"state_2_choice":3,"state_2_rt":643.5999999940395,"outcome":0,"rocket_colors":["#a75248","#486ea7"],"planet_colors":["#5b7c65","#706081"],"screen_resolution":[1280,800],"minimum_resolution":1,"trial":0,"trial_type":"two-step-trial","trial_index":32,"time_elapsed":483376,"internal_node_id":"0.0-11.0-1.0-0.7","task_version":"1.0","jspsych_version":"6.3.1","missing":false},{"state_1_ids":[0,1],"state_1_key":1,"state_1_choice":1,"state_1_rt":583.8000000119209,"transition":0,"state":0,"state_2_ids":[0,1],"state_2_key":1,"state_2_choice":1,"state_2_rt":884.4000000059605,"outcome":0,"rocket_colors":["#a75248","#486ea7"],"planet_colors":["#5b7c65","#706081"],"screen_resolution":[1280,800],"minimum_resolution":1,"trial":0,"trial_type":"two-step-trial","trial_index":33,"time_elapsed":486855,"internal_node_id":"0.0-11.0-1.0-0.8","task_version":"1.0","jspsych_version":"6.3.1","missing":false},{"state_1_ids":[1,0],"state_1_key":0,"state_1_choice":1,"state_1_rt":992.5,"transition":1,"state":1,"state_2_ids":[2,3],"state_2_key":1,"state_2_choice":3,"state_2_rt":1222.5,"outcome":1,"rocket_colors":["#a75248","#486ea7"],"planet_colors":["#5b7c65","#706081"],"screen_resolution":[1280,800],"minimum_resolution":1,"trial":0,"trial_type":"two-step-trial","trial_index":34,"time_elapsed":491081,"internal_node_id":"0.0-11.0-1.0-0.9","task_version":"1.0","jspsych_version":"6.3.1","missing":false},{"view_history":"[{\"page_index\":0,\"viewing_time\":3482.7999999821186},{\"page_index\":1,\"viewing_time\":4794.300000011921},{\"page_index\":2,\"viewing_time\":3135.7999999821186},{\"page_index\":3,\"viewing_time\":5958},{\"page_index\":4,\"viewing_time\":14056.300000011921},{\"page_index\":5,\"viewing_time\":27460.69999998808},{\"page_index\":6,\"viewing_time\":6293.300000011921}]","rt":65182,"trial_type":"two-step-instructions","trial_index":35,"time_elapsed":556269,"internal_node_id":"0.0-12.0-1.0","task_version":"1.0","jspsych_version":"6.3.1"},{"responses":["True","False","True"],"num_errors":0,"rt":15596.600000023842,"quiz":3,"trial_type":"two-step-comprehension","trial_index":36,"time_elapsed":571873,"internal_node_id":"0.0-12.0-2.0","task_version":"1.0","jspsych_version":"6.3.1"},{"view_history":"[{\"page_index\":0,\"viewing_time\":2021},{\"page_index\":1,\"viewing_time\":6206.300000011921},{\"page_index\":2,\"viewing_time\":3653.5999999940395}]","rt":11881.300000011921,"trial_type":"two-step-instructions","trial_index":37,"time_elapsed":583763,"internal_node_id":"0.0-13.0","task_version":"1.0","jspsych_version":"6.3.1"},{"state_1_ids":[0,1],"state_1_key":1,"state_1_choice":1,"state_1_rt":1271.0999999940395,"transition":1,"state":1,"state_2_ids":[2,3],"state_2_key":0,"state_2_choice":2,"state_2_rt":1589.300000011921,"outcome":1,"rocket_colors":["#48a782","#955db9"],"planet_colors":["#7f5d5d","#5f6f81"],"screen_resolution":[1280,800],"minimum_resolution":1,"trial":1,"drifts":[0.412,0.317,0.453,0.743],"drift_ix":2,"trial_type":"two-step-trial","trial_index":38,"time_elapsed":588637,"internal_node_id":"0.0-14.0-0.0","task_version":"1.0","jspsych_version":"6.3.1","browser_interactions":0,"missing":false},{"state_1_ids":[0,1],"state_1_key":1,"state_1_choice":1,"state_1_rt":655,"transition":0,"state":0,"state_2_ids":[0,1],"state_2_key":0,"state_2_choice":0,"state_2_rt":1406.5,"outcome":0,"rocket_colors":["#48a782","#955db9"],"planet_colors":["#7f5d5d","#5f6f81"],"screen_resolution":[1280,800],"minimum_resolution":1,"trial":2,"drifts":[0.402,0.305,0.461,0.702],"drift_ix":2,"trial_type":"two-step-trial","trial_index":39,"time_elapsed":592712,"internal_node_id":"0.0-15.0-0.0","task_version":"1.0","jspsych_version":"6.3.1","browser_interactions":0,"missing":false},{"state_1_ids":[0,1],"state_1_key":1,"state_1_choice":1,"state_1_rt":1437,"transition":1,"state":1,"state_2_ids":[2,3],"state_2_key":0,"state_2_choice":2,"state_2_rt":814.7999999821186,"outcome":1,"rocket_colors":["#48a782","#955db9"],"planet_colors":["#7f5d5d","#5f6f81"],"screen_resolution":[1280,800],"minimum_resolution":1,"trial":3,"drifts":[0.373,0.327,0.445,0.732],"drift_ix":2,"trial_type":"two-step-trial","trial_index":40,"time_elapsed":596972,"internal_node_id":"0.0-16.0-0.0","task_version":"1.0","jspsych_version":"6.3.1","browser_interactions":0,"missing":false},{"state_1_ids":[1,0],"state_1_key":1,"state_1_choice":0,"state_1_rt":1039.800000011921,"transition":0,"state":1,"state_2_ids":[2,3],"state_2_key":0,"state_2_choice":2,"state_2_rt":1534.9000000059605,"outcome":0,"rocket_colors":["#48a782","#955db9"],"planet_colors":["#7f5d5d","#5f6f81"],"screen_resolution":[1280,800],"minimum_resolution":1,"trial":4,"drifts":[0.381,0.303,0.418,0.736],"drift_ix":2,"trial_type":"two-step-trial","trial_index":41,"time_elapsed":601558,"internal_node_id":"0.0-17.0-0.0","task_version":"1.0","jspsych_version":"6.3.1","browser_interactions":0,"missing":false},{"state_1_ids":[1,0],"state_1_key":1,"state_1_choice":0,"state_1_rt":870.2000000178814,"transition":1,"state":0,"state_2_ids":[0,1],"state_2_key":1,"state_2_choice":1,"state_2_rt":2917.7999999821186,"outcome":0,"rocket_colors":["#48a782","#955db9"],"planet_colors":["#7f5d5d","#5f6f81"],"screen_resolution":[1280,800],"minimum_resolution":1,"trial":5,"drifts":[0.366,0.363,0.401,0.709],"drift_ix":2,"trial_type":"two-step-trial","trial_index":42,"time_elapsed":607357,"internal_node_id":"0.0-18.0-0.0","task_version":"1.0","jspsych_version":"6.3.1","browser_interactions":0,"missing":false},{"state_1_ids":[0,1],"state_1_key":0,"state_1_choice":0,"state_1_rt":758.6999999880791,"transition":0,"state":1,"state_2_ids":[2,3],"state_2_key":0,"state_2_choice":2,"state_2_rt":1452.6000000238419,"outcome":0,"rocket_colors":["#48a782","#955db9"],"planet_colors":["#7f5d5d","#5f6f81"],"screen_resolution":[1280,800],"minimum_resolution":1,"trial":6,"drifts":[0.393,0.368,0.383,0.711],"drift_ix":2,"trial_type":"two-step-trial","trial_index":43,"time_elapsed":611583,"internal_node_id":"0.0-19.0-0.0","task_version":"1.0","jspsych_version":"6.3.1","browser_interactions":0,"missing":false},{"state_1_ids":[0,1],"state_1_key":1,"state_1_choice":1,"state_1_rt":2652.7999999821186,"transition":1,"state":1,"state_2_ids":[2,3],"state_2_key":0,"state_2_choice":2,"state_2_rt":798.0999999940395,"outcome":1,"rocket_colors":["#48a782","#955db9"],"planet_colors":["#7f5d5d","#5f6f81"],"screen_resolution":[1280,800],"minimum_resolution":1,"trial":7,"drifts":[0.4,0.405,0.425,0.678],"drift_ix":2,"trial_type":"two-step-trial","trial_index":44,"time_elapsed":617045,"internal_node_id":"0.0-20.0-0.0","task_version":"1.0","jspsych_version":"6.3.1","browser_interactions":0,"missing":false},{"state_1_ids":[0,1],"state_1_key":1,"state_1_choice":1,"state_1_rt":854.7999999821186,"transition":1,"state":1,"state_2_ids":[2,3],"state_2_key":0,"state_2_choice":2,"state_2_rt":590.6999999880791,"outcome":0,"rocket_colors":["#48a782","#955db9"],"planet_colors":["#7f5d5d","#5f6f81"],"screen_resolution":[1280,800],"minimum_resolution":1,"trial":8,"drifts":[0.383,0.388,0.415,0.699],"drift_ix":2,"trial_type":"two-step-trial","trial_index":45,"time_elapsed":620500,"internal_node_id":"0.0-21.0-0.0","task_version":"1.0","jspsych_version":"6.3.1","browser_interactions":0,"missing":false},{"state_1_ids":[0,1],"state_1_key":1,"state_1_choice":1,"state_1_rt":495.59999999403954,"transition":1,"state":1,"state_2_ids":[2,3],"state_2_key":0,"state_2_choice":2,"state_2_rt":589.3000000119209,"outcome":0,"rocket_colors":["#48a782","#955db9"],"planet_colors":["#7f5d5d","#5f6f81"],"screen_resolution":[1280,800],"minimum_resolution":1,"trial":9,"drifts":[0.347,0.439,0.405,0.713],"drift_ix":2,"trial_type":"two-step-trial","trial_index":46,"time_elapsed":623596,"internal_node_id":"0.0-22.0-0.0","task_version":"1.0","jspsych_version":"6.3.1","browser_interactions":0,"missing":false},{"state_1_ids":[1,0],"state_1_key":1,"state_1_choice":0,"state_1_rt":440,"transition":1,"state":0,"state_2_ids":[0,1],"state_2_key":1,"state_2_choice":1,"state_2_rt":960.5999999940395,"outcome":1,"rocket_colors":["#48a782","#955db9"],"planet_colors":["#7f5d5d","#5f6f81"],"screen_resolution":[1280,800],"minimum_resolution":1,"trial":10,"drifts":[0.367,0.459,0.46,0.731],"drift_ix":2,"trial_type":"two-step-trial","trial_index":47,"time_elapsed":627006,"internal_node_id":"0.0-23.0-0.0","task_version":"1.0","jspsych_version":"6.3.1","browser_interactions":0,"missing":false},{"state_1_ids":[1,0],"state_1_key":1,"state_1_choice":0,"state_1_rt":813.2999999821186,"transition":1,"state":0,"state_2_ids":[0,1],"state_2_key":1,"state_2_choice":1,"state_2_rt":700.3000000119209,"outcome":1,"rocket_colors":["#48a782","#955db9"],"planet_colors":["#7f5d5d","#5f6f81"],"screen_resolution":[1280,800],"minimum_resolution":1,"trial":11,"drifts":[0.397,0.451,0.461,0.701],"drift_ix":2,"trial_type":"two-step-trial","trial_index":48,"time_elapsed":630530,"internal_node_id":"0.0-24.0-0.0","task_version":"1.0","jspsych_version":"6.3.1","browser_interactions":0,"missing":false},{"state_1_ids":[1,0],"state_1_key":1,"state_1_choice":0,"state_1_rt":513.5,"transition":1,"state":0,"state_2_ids":[0,1],"state_2_key":1,"state_2_choice":1,"state_2_rt":644.0999999940395,"outcome":1,"rocket_colors":["#48a782","#955db9"],"planet_colors":["#7f5d5d","#5f6f81"],"screen_resolution":[1280,800],"minimum_resolution":1,"trial":12,"drifts":[0.357,0.426,0.459,0.707],"drift_ix":2,"trial_type":"two-step-trial","trial_index":49,"time_elapsed":633699,"internal_node_id":"0.0-25.0-0.0","task_version":"1.0","jspsych_version":"6.3.1","browser_interactions":0,"missing":false},{"state_1_ids":[0,1],"state_1_key":1,"state_1_choice":1,"state_1_rt":495.7999999821186,"transition":0,"state":0,"state_2_ids":[0,1],"state_2_key":0,"state_2_choice":0,"state_2_rt":1974.3999999761581,"outcome":0,"rocket_colors":["#48a782","#955db9"],"planet_colors":["#7f5d5d","#5f6f81"],"screen_resolution":[1280,800],"minimum_resolution":1,"trial":13,"drifts":[0.337,0.398,0.428,0.721],"drift_ix":2,"trial_type":"two-step-trial","trial_index":50,"time_elapsed":638181,"internal_node_id":"0.0-26.0-0.0","task_version":"1.0","jspsych_version":"6.3.1","browser_interactions":0,"missing":false},{"state_1_ids":[1,0],"state_1_key":1,"state_1_choice":0,"state_1_rt":1543.2000000178814,"transition":1,"state":0,"state_2_ids":[0,1],"state_2_key":1,"state_2_choice":1,"state_2_rt":628.6999999880791,"outcome":0,"rocket_colors":["#48a782","#955db9"],"planet_colors":["#7f5d5d","#5f6f81"],"screen_resolution":[1280,800],"minimum_resolution":1,"trial":14,"drifts":[0.283,0.408,0.384,0.719],"drift_ix":2,"trial_type":"two-step-trial","trial_index":51,"time_elapsed":642365,"internal_node_id":"0.0-27.0-0.0","task_version":"1.0","jspsych_version":"6.3.1","browser_interactions":0,"missing":false},{"state_1_ids":[0,1],"state_1_key":0,"state_1_choice":0,"state_1_rt":549.9000000059605,"transition":1,"state":0,"state_2_ids":[0,1],"state_2_key":1,"state_2_choice":1,"state_2_rt":582.5999999940395,"outcome":1,"rocket_colors":["#48a782","#955db9"],"planet_colors":["#7f5d5d","#5f6f81"],"screen_resolution":[1280,800],"minimum_resolution":1,"trial":15,"drifts":[0.295,0.37,0.375,0.738],"drift_ix":2,"trial_type":"two-step-trial","trial_index":52,"time_elapsed":645506,"internal_node_id":"0.0-28.0-0.0","task_version":"1.0","jspsych_version":"6.3.1","browser_interactions":0,"missing":false},{"state_1_ids":[0,1],"state_1_key":0,"state_1_choice":0,"state_1_rt":897,"transition":1,"state":0,"state_2_ids":[0,1],"state_2_key":1,"state_2_choice":1,"state_2_rt":1003.1999999880791,"outcome":1,"rocket_colors":["#48a782","#955db9"],"planet_colors":["#7f5d5d","#5f6f81"],"screen_resolution":[1280,800],"minimum_resolution":1,"trial":16,"drifts":[0.305,0.343,0.325,0.713],"drift_ix":2,"trial_type":"two-step-trial","trial_index":53,"time_elapsed":649419,"internal_node_id":"0.0-29.0-0.0","task_version":"1.0","jspsych_version":"6.3.1","browser_interactions":0,"missing":false},{"state_1_ids":[1,0],"state_1_key":1,"state_1_choice":0,"state_1_rt":997,"transition":1,"state":0,"state_2_ids":[0,1],"state_2_key":1,"state_2_choice":1,"state_2_rt":710.5,"outcome":0,"rocket_colors":["#48a782","#955db9"],"planet_colors":["#7f5d5d","#5f6f81"],"screen_resolution":[1280,800],"minimum_resolution":1,"trial":17,"drifts":[0.305,0.313,0.334,0.705],"drift_ix":2,"trial_type":"two-step-trial","trial_index":54,"time_elapsed":653140,"internal_node_id":"0.0-30.0-0.0","task_version":"1.0","jspsych_version":"6.3.1","browser_interactions":0,"missing":false},{"state_1_ids":[0,1],"state_1_key":0,"state_1_choice":0,"state_1_rt":934.0999999940395,"transition":1,"state":0,"state_2_ids":[0,1],"state_2_key":1,"state_2_choice":1,"state_2_rt":492.7999999821186,"outcome":0,"rocket_colors":["#48a782","#955db9"],"planet_colors":["#7f5d5d","#5f6f81"],"screen_resolution":[1280,800],"minimum_resolution":1,"trial":18,"drifts":[0.316,0.314,0.353,0.728],"drift_ix":2,"trial_type":"two-step-trial","trial_index":55,"time_elapsed":656582,"internal_node_id":"0.0-31.0-0.0","task_version":"1.0","jspsych_version":"6.3.1","browser_interactions":0,"missing":false},{"state_1_ids":[1,0],"state_1_key":1,"state_1_choice":0,"state_1_rt":741.4000000059605,"transition":0,"state":1,"state_2_ids":[2,3],"state_2_key":0,"state_2_choice":2,"state_2_rt":1743.1000000238419,"outcome":0,"rocket_colors":["#48a782","#955db9"],"planet_colors":["#7f5d5d","#5f6f81"],"screen_resolution":[1280,800],"minimum_resolution":1,"trial":19,"drifts":[0.317,0.335,0.368,0.745],"drift_ix":2,"trial_type":"two-step-trial","trial_index":56,"time_elapsed":661075,"internal_node_id":"0.0-32.0-0.0","task_version":"1.0","jspsych_version":"6.3.1","browser_interactions":0,"missing":false},{"state_1_ids":[0,1],"state_1_key":1,"state_1_choice":1,"state_1_rt":903.3000000119209,"transition":1,"state":1,"state_2_ids":[2,3],"state_2_key":0,"state_2_choice":2,"state_2_rt":878.4000000059605,"outcome":0,"rocket_colors":["#48a782","#955db9"],"planet_colors":["#7f5d5d","#5f6f81"],"screen_resolution":[1280,800],"minimum_resolution":1,"trial":20,"drifts":[0.307,0.313,0.421,0.737],"drift_ix":2,"trial_type":"two-step-trial","trial_index":57,"time_elapsed":664865,"internal_node_id":"0.0-33.0-0.0","task_version":"1.0","jspsych_version":"6.3.1","browser_interactions":0,"missing":false},{"state_1_ids":[0,1],"state_1_key":1,"state_1_choice":1,"state_1_rt":665.3000000119209,"transition":0,"state":0,"state_2_ids":[0,1],"state_2_key":1,"state_2_choice":1,"state_2_rt":1116.300000011921,"outcome":0,"rocket_colors":["#48a782","#955db9"],"planet_colors":["#7f5d5d","#5f6f81"],"screen_resolution":[1280,800],"minimum_resolution":1,"trial":21,"drifts":[0.31,0.305,0.401,0.745],"drift_ix":2,"trial_type":"two-step-trial","trial_index":58,"time_elapsed":668661,"internal_node_id":"0.0-34.0-0.0","task_version":"1.0","jspsych_version":"6.3.1","browser_interactions":0,"missing":false},{"state_1_ids":[1,0],"state_1_key":0,"state_1_choice":1,"state_1_rt":1036,"transition":1,"state":1,"state_2_ids":[2,3],"state_2_key":1,"state_2_choice":3,"state_2_rt":975.5999999940395,"outcome":0,"rocket_colors":["#48a782","#955db9"],"planet_colors":["#7f5d5d","#5f6f81"],"screen_resolution":[1280,800],"minimum_resolution":1,"trial":22,"drifts":[0.326,0.31,0.391,0.735],"drift_ix":2,"trial_type":"two-step-trial","trial_index":59,"time_elapsed":672684,"internal_node_id":"0.0-35.0-0.0","task_version":"1.0","jspsych_version":"6.3.1","browser_interactions":0,"missing":false},{"state_1_ids":[0,1],"state_1_key":1,"state_1_choice":1,"state_1_rt":559.7999999821186,"transition":0,"state":0,"state_2_ids":[0,1],"state_2_key":1,"state_2_choice":1,"state_2_rt":1049,"outcome":0,"rocket_colors":["#48a782","#955db9"],"planet_colors":["#7f5d5d","#5f6f81"],"screen_resolution":[1280,800],"minimum_resolution":1,"trial":23,"drifts":[0.331,0.302,0.379,0.741],"drift_ix":2,"trial_type":"two-step-trial","trial_index":60,"time_elapsed":676306,"internal_node_id":"0.0-36.0-0.0","task_version":"1.0","jspsych_version":"6.3.1","browser_interactions":0,"missing":false},{"state_1_ids":[0,1],"state_1_key":0,"state_1_choice":0,"state_1_rt":967.3000000119209,"transition":1,"state":0,"state_2_ids":[0,1],"state_2_key":1,"state_2_choice":1,"state_2_rt":639.0999999940395,"outcome":0,"rocket_colors":["#48a782","#955db9"],"planet_colors":["#7f5d5d","#5f6f81"],"screen_resolution":[1280,800],"minimum_resolution":1,"trial":24,"drifts":[0.358,0.323,0.393,0.738],"drift_ix":2,"trial_type":"two-step-trial","trial_index":61,"time_elapsed":679923,"internal_node_id":"0.0-37.0-0.0","task_version":"1.0","jspsych_version":"6.3.1","browser_interactions":0,"missing":false},{"state_1_ids":[1,0],"state_1_key":1,"state_1_choice":0,"state_1_rt":575.3999999761581,"transition":1,"state":0,"state_2_ids":[0,1],"state_2_key":1,"state_2_choice":1,"state_2_rt":462.60000002384186,"outcome":0,"rocket_colors":["#48a782","#955db9"],"planet_colors":["#7f5d5d","#5f6f81"],"screen_resolution":[1280,800],"minimum_resolution":1,"trial":25,"drifts":[0.342,0.299,0.368,0.724],"drift_ix":2,"trial_type":"two-step-trial","trial_index":62,"time_elapsed":682970,"internal_node_id":"0.0-38.0-0.0","task_version":"1.0","jspsych_version":"6.3.1","browser_interactions":0,"missing":false},{"state_1_ids":[0,1],"state_1_key":1,"state_1_choice":1,"state_1_rt":927.8000000119209,"transition":1,"state":1,"state_2_ids":[2,3],"state_2_key":1,"state_2_choice":3,"state_2_rt":1531.1000000238419,"outcome":1,"rocket_colors":["#48a782","#955db9"],"planet_colors":["#7f5d5d","#5f6f81"],"screen_resolution":[1280,800],"minimum_resolution":1,"trial":26,"drifts":[0.362,0.294,0.373,0.738],"drift_ix":2,"trial_type":"two-step-trial","trial_index":63,"time_elapsed":687447,"internal_node_id":"0.0-39.0-0.0","task_version":"1.0","jspsych_version":"6.3.1","browser_interactions":0,"missing":false},{"state_1_ids":[0,1],"state_1_key":1,"state_1_choice":1,"state_1_rt":630.5999999940395,"transition":1,"state":1,"state_2_ids":[2,3],"state_2_key":1,"state_2_choice":3,"state_2_rt":423.09999999403954,"outcome":1,"rocket_colors":["#48a782","#955db9"],"planet_colors":["#7f5d5d","#5f6f81"],"screen_resolution":[1280,800],"minimum_resolution":1,"trial":27,"drifts":[0.332,0.286,0.389,0.683],"drift_ix":2,"trial_type":"two-step-trial","trial_index":64,"time_elapsed":690517,"internal_node_id":"0.0-40.0-0.0","task_version":"1.0","jspsych_version":"6.3.1","browser_interactions":0,"missing":false},{"state_1_ids":[0,1],"state_1_key":1,"state_1_choice":1,"state_1_rt":516.7999999821186,"transition":1,"state":1,"state_2_ids":[2,3],"state_2_key":1,"state_2_choice":3,"state_2_rt":390.5,"outcome":0,"rocket_colors":["#48a782","#955db9"],"planet_colors":["#7f5d5d","#5f6f81"],"screen_resolution":[1280,800],"minimum_resolution":1,"trial":28,"drifts":[0.34,0.303,0.383,0.689],"drift_ix":2,"trial_type":"two-step-trial","trial_index":65,"time_elapsed":693436,"internal_node_id":"0.0-41.0-0.0","task_version":"1.0","jspsych_version":"6.3.1","browser_interactions":0,"missing":false},{"state_1_ids":[0,1],"state_1_key":1,"state_1_choice":1,"state_1_rt":550.4000000059605,"transition":1,"state":1,"state_2_ids":[2,3],"state_2_key":0,"state_2_choice":2,"state_2_rt":1132.5999999940395,"outcome":0,"rocket_colors":["#48a782","#955db9"],"planet_colors":["#7f5d5d","#5f6f81"],"screen_resolution":[1280,800],"minimum_resolution":1,"trial":29,"drifts":[0.317,0.302,0.385,0.679],"drift_ix":2,"trial_type":"two-step-trial","trial_index":66,"time_elapsed":697128,"internal_node_id":"0.0-42.0-0.0","task_version":"1.0","jspsych_version":"6.3.1","browser_interactions":0,"missing":false},{"state_1_ids":[0,1],"state_1_key":1,"state_1_choice":1,"state_1_rt":385.30000001192093,"transition":1,"state":1,"state_2_ids":[2,3],"state_2_key":1,"state_2_choice":3,"state_2_rt":453.59999999403954,"outcome":1,"rocket_colors":["#48a782","#955db9"],"planet_colors":["#7f5d5d","#5f6f81"],"screen_resolution":[1280,800],"minimum_resolution":1,"trial":30,"drifts":[0.353,0.346,0.414,0.681],"drift_ix":2,"trial_type":"two-step-trial","trial_index":67,"time_elapsed":699979,"internal_node_id":"0.0-43.0-0.0","task_version":"1.0","jspsych_version":"6.3.1","browser_interactions":0,"missing":false},{"state_1_ids":[1,0],"state_1_key":0,"state_1_choice":1,"state_1_rt":823.2000000178814,"transition":0,"state":0,"state_2_ids":[0,1],"state_2_key":1,"state_2_choice":1,"state_2_rt":1031.2999999821186,"outcome":1,"rocket_colors":["#48a782","#955db9"],"planet_colors":["#7f5d5d","#5f6f81"],"screen_resolution":[1280,800],"minimum_resolution":1,"trial":31,"drifts":[0.325,0.331,0.414,0.647],"drift_ix":2,"trial_type":"two-step-trial","trial_index":68,"time_elapsed":703845,"internal_node_id":"0.0-44.0-0.0","task_version":"1.0","jspsych_version":"6.3.1","browser_interactions":0,"missing":false},{"state_1_ids":[0,1],"state_1_key":1,"state_1_choice":1,"state_1_rt":3220.9000000059605,"transition":1,"state":1,"state_2_ids":[2,3],"state_2_key":1,"state_2_choice":3,"state_2_rt":1037.2999999821186,"outcome":0,"rocket_colors":["#48a782","#955db9"],"planet_colors":["#7f5d5d","#5f6f81"],"screen_resolution":[1280,800],"minimum_resolution":1,"trial":32,"drifts":[0.328,0.33,0.383,0.663],"drift_ix":2,"trial_type":"two-step-trial","trial_index":69,"time_elapsed":710114,"internal_node_id":"0.0-45.0-0.0","task_version":"1.0","jspsych_version":"6.3.1","browser_interactions":0,"missing":false},{"state_1_ids":[0,1],"state_1_key":1,"state_1_choice":1,"state_1_rt":358.90000000596046,"transition":1,"state":1,"state_2_ids":[2,3],"state_2_key":1,"state_2_choice":3,"state_2_rt":428.90000000596046,"outcome":1,"rocket_colors":["#48a782","#955db9"],"planet_colors":["#7f5d5d","#5f6f81"],"screen_resolution":[1280,800],"minimum_resolution":1,"trial":33,"drifts":[0.322,0.332,0.362,0.633],"drift_ix":2,"trial_type":"two-step-trial","trial_index":70,"time_elapsed":712911,"internal_node_id":"0.0-46.0-0.0","task_version":"1.0","jspsych_version":"6.3.1","browser_interactions":0,"missing":false},{"state_1_ids":[0,1],"state_1_key":1,"state_1_choice":1,"state_1_rt":554.6999999880791,"transition":1,"state":1,"state_2_ids":[2,3],"state_2_key":1,"state_2_choice":3,"state_2_rt":625.7000000178814,"outcome":0,"rocket_colors":["#48a782","#955db9"],"planet_colors":["#7f5d5d","#5f6f81"],"screen_resolution":[1280,800],"minimum_resolution":1,"trial":34,"drifts":[0.322,0.307,0.363,0.617],"drift_ix":2,"trial_type":"two-step-trial","trial_index":71,"time_elapsed":716099,"internal_node_id":"0.0-47.0-0.0","task_version":"1.0","jspsych_version":"6.3.1","browser_interactions":0,"missing":false},{"state_1_ids":[1,0],"state_1_key":1,"state_1_choice":0,"state_1_rt":510.39999997615814,"transition":1,"state":0,"state_2_ids":[0,1],"state_2_key":1,"state_2_choice":1,"state_2_rt":398.5,"outcome":0,"rocket_colors":["#48a782","#955db9"],"planet_colors":["#7f5d5d","#5f6f81"],"screen_resolution":[1280,800],"minimum_resolution":1,"trial":35,"drifts":[0.297,0.336,0.333,0.65],"drift_ix":2,"trial_type":"two-step-trial","trial_index":72,"time_elapsed":719018,"internal_node_id":"0.0-48.0-0.0","task_version":"1.0","jspsych_version":"6.3.1","browser_interactions":0,"missing":false},{"state_1_ids":[0,1],"state_1_key":0,"state_1_choice":0,"state_1_rt":518.7000000178814,"transition":1,"state":0,"state_2_ids":[0,1],"state_2_key":1,"state_2_choice":1,"state_2_rt":518,"outcome":0,"rocket_colors":["#48a782","#955db9"],"planet_colors":["#7f5d5d","#5f6f81"],"screen_resolution":[1280,800],"minimum_resolution":1,"trial":36,"drifts":[0.326,0.343,0.331,0.633],"drift_ix":2,"trial_type":"two-step-trial","trial_index":73,"time_elapsed":722066,"internal_node_id":"0.0-49.0-0.0","task_version":"1.0","jspsych_version":"6.3.1","browser_interactions":0,"missing":false},{"state_1_ids":[0,1],"state_1_key":0,"state_1_choice":0,"state_1_rt":790.5,"transition":1,"state":0,"state_2_ids":[0,1],"state_2_key":0,"state_2_choice":0,"state_2_rt":765.9000000059605,"outcome":1,"rocket_colors":["#48a782","#955db9"],"planet_colors":["#7f5d5d","#5f6f81"],"screen_resolution":[1280,800],"minimum_resolution":1,"trial":37,"drifts":[0.318,0.324,0.327,0.612],"drift_ix":2,"trial_type":"two-step-trial","trial_index":74,"time_elapsed":725636,"internal_node_id":"0.0-50.0-0.0","task_version":"1.0","jspsych_version":"6.3.1","browser_interactions":0,"missing":false},{"state_1_ids":[1,0],"state_1_key":1,"state_1_choice":0,"state_1_rt":708.2999999821186,"transition":1,"state":0,"state_2_ids":[0,1],"state_2_key":0,"state_2_choice":0,"state_2_rt":647.3000000119209,"outcome":1,"rocket_colors":["#48a782","#955db9"],"planet_colors":["#7f5d5d","#5f6f81"],"screen_resolution":[1280,800],"minimum_resolution":1,"trial":38,"drifts":[0.304,0.324,0.319,0.591],"drift_ix":2,"trial_type":"two-step-trial","trial_index":75,"time_elapsed":729003,"internal_node_id":"0.0-51.0-0.0","task_version":"1.0","jspsych_version":"6.3.1","browser_interactions":0,"missing":false},{"state_1_ids":[1,0],"state_1_key":1,"state_1_choice":0,"state_1_rt":918.5999999940395,"transition":1,"state":0,"state_2_ids":[0,1],"state_2_key":0,"state_2_choice":0,"state_2_rt":550,"outcome":1,"rocket_colors":["#48a782","#955db9"],"planet_colors":["#7f5d5d","#5f6f81"],"screen_resolution":[1280,800],"minimum_resolution":1,"trial":39,"drifts":[0.283,0.362,0.351,0.561],"drift_ix":2,"trial_type":"two-step-trial","trial_index":76,"time_elapsed":732480,"internal_node_id":"0.0-52.0-0.0","task_version":"1.0","jspsych_version":"6.3.1","browser_interactions":0,"missing":false},{"state_1_ids":[1,0],"state_1_key":1,"state_1_choice":0,"state_1_rt":400.39999997615814,"transition":1,"state":0,"state_2_ids":[0,1],"state_2_key":0,"state_2_choice":0,"state_2_rt":502.09999999403954,"outcome":0,"rocket_colors":["#48a782","#955db9"],"planet_colors":["#7f5d5d","#5f6f81"],"screen_resolution":[1280,800],"minimum_resolution":1,"trial":40,"drifts":[0.295,0.387,0.331,0.546],"drift_ix":2,"trial_type":"two-step-trial","trial_index":77,"time_elapsed":735394,"internal_node_id":"0.0-53.0-0.0","task_version":"1.0","jspsych_version":"6.3.1","browser_interactions":0,"missing":false},{"state_1_ids":[0,1],"state_1_key":1,"state_1_choice":1,"state_1_rt":438.7999999821186,"transition":1,"state":1,"state_2_ids":[2,3],"state_2_key":0,"state_2_choice":2,"state_2_rt":2422.199999988079,"outcome":0,"rocket_colors":["#48a782","#955db9"],"planet_colors":["#7f5d5d","#5f6f81"],"screen_resolution":[1280,800],"minimum_resolution":1,"trial":41,"drifts":[0.293,0.385,0.33,0.584],"drift_ix":2,"trial_type":"two-step-trial","trial_index":78,"time_elapsed":740264,"internal_node_id":"0.0-54.0-0.0","task_version":"1.0","jspsych_version":"6.3.1","browser_interactions":0,"missing":false},{"state_1_ids":[0,1],"state_1_key":1,"state_1_choice":1,"state_1_rt":497.30000001192093,"transition":1,"state":1,"state_2_ids":[2,3],"state_2_key":0,"state_2_choice":2,"state_2_rt":708.2000000178814,"outcome":0,"rocket_colors":["#48a782","#955db9"],"planet_colors":["#7f5d5d","#5f6f81"],"screen_resolution":[1280,800],"minimum_resolution":1,"trial":42,"drifts":[0.304,0.383,0.318,0.562],"drift_ix":2,"trial_type":"two-step-trial","trial_index":79,"time_elapsed":743480,"internal_node_id":"0.0-55.0-0.0","task_version":"1.0","jspsych_version":"6.3.1","browser_interactions":0,"missing":false},{"state_1_ids":[0,1],"state_1_key":1,"state_1_choice":1,"state_1_rt":440.2000000178814,"transition":1,"state":1,"state_2_ids":[2,3],"state_2_key":1,"state_2_choice":3,"state_2_rt":373.90000000596046,"outcome":1,"rocket_colors":["#48a782","#955db9"],"planet_colors":["#7f5d5d","#5f6f81"],"screen_resolution":[1280,800],"minimum_resolution":1,"trial":43,"drifts":[0.318,0.398,0.315,0.576],"drift_ix":2,"trial_type":"two-step-trial","trial_index":80,"time_elapsed":746302,"internal_node_id":"0.0-56.0-0.0","task_version":"1.0","jspsych_version":"6.3.1","browser_interactions":0,"missing":false},{"state_1_ids":[1,0],"state_1_key":0,"state_1_choice":1,"state_1_rt":673.8000000119209,"transition":1,"state":1,"state_2_ids":[2,3],"state_2_key":1,"state_2_choice":3,"state_2_rt":405.59999999403954,"outcome":1,"rocket_colors":["#48a782","#955db9"],"planet_colors":["#7f5d5d","#5f6f81"],"screen_resolution":[1280,800],"minimum_resolution":1,"trial":44,"drifts":[0.321,0.371,0.348,0.616],"drift_ix":2,"trial_type":"two-step-trial","trial_index":81,"time_elapsed":749391,"internal_node_id":"0.0-57.0-0.0","task_version":"1.0","jspsych_version":"6.3.1","browser_interactions":0,"missing":false},{"state_1_ids":[0,1],"state_1_key":1,"state_1_choice":1,"state_1_rt":457.69999998807907,"transition":0,"state":0,"state_2_ids":[0,1],"state_2_key":0,"state_2_choice":0,"state_2_rt":1198.7999999821186,"outcome":0,"rocket_colors":["#48a782","#955db9"],"planet_colors":["#7f5d5d","#5f6f81"],"screen_resolution":[1280,800],"minimum_resolution":1,"trial":45,"drifts":[0.319,0.418,0.367,0.598],"drift_ix":2,"trial_type":"two-step-trial","trial_index":82,"time_elapsed":753057,"internal_node_id":"0.0-58.0-0.0","task_version":"1.0","jspsych_version":"6.3.1","browser_interactions":0,"missing":false},{"state_1_ids":[1,0],"state_1_key":0,"state_1_choice":1,"state_1_rt":966.8999999761581,"transition":1,"state":1,"state_2_ids":[2,3],"state_2_key":1,"state_2_choice":3,"state_2_rt":879.2000000178814,"outcome":0,"rocket_colors":["#48a782","#955db9"],"planet_colors":["#7f5d5d","#5f6f81"],"screen_resolution":[1280,800],"minimum_resolution":1,"trial":46,"drifts":[0.326,0.44,0.366,0.588],"drift_ix":2,"trial_type":"two-step-trial","trial_index":83,"time_elapsed":756912,"internal_node_id":"0.0-59.0-0.0","task_version":"1.0","jspsych_version":"6.3.1","browser_interactions":0,"missing":false},{"state_1_ids":[0,1],"state_1_key":1,"state_1_choice":1,"state_1_rt":486.59999999403954,"transition":1,"state":1,"state_2_ids":[2,3],"state_2_key":1,"state_2_choice":3,"state_2_rt":646.9000000059605,"outcome":1,"rocket_colors":["#48a782","#955db9"],"planet_colors":["#7f5d5d","#5f6f81"],"screen_resolution":[1280,800],"minimum_resolution":1,"trial":47,"drifts":[0.315,0.46,0.378,0.597],"drift_ix":2,"trial_type":"two-step-trial","trial_index":84,"time_elapsed":760058,"internal_node_id":"0.0-60.0-0.0","task_version":"1.0","jspsych_version":"6.3.1","browser_interactions":0,"missing":false},{"state_1_ids":[1,0],"state_1_key":0,"state_1_choice":1,"state_1_rt":982,"transition":1,"state":1,"state_2_ids":[2,3],"state_2_key":1,"state_2_choice":3,"state_2_rt":663.4000000059605,"outcome":1,"rocket_colors":["#48a782","#955db9"],"planet_colors":["#7f5d5d","#5f6f81"],"screen_resolution":[1280,800],"minimum_resolution":1,"trial":48,"drifts":[0.281,0.476,0.36,0.571],"drift_ix":2,"trial_type":"two-step-trial","trial_index":85,"time_elapsed":763710,"internal_node_id":"0.0-61.0-0.0","task_version":"1.0","jspsych_version":"6.3.1","browser_interactions":0,"missing":false},{"state_1_ids":[1,0],"state_1_key":1,"state_1_choice":0,"state_1_rt":1593.0999999940395,"transition":0,"state":1,"state_2_ids":[2,3],"state_2_key":0,"state_2_choice":2,"state_2_rt":1245.5999999940395,"outcome":1,"rocket_colors":["#48a782","#955db9"],"planet_colors":["#7f5d5d","#5f6f81"],"screen_resolution":[1280,800],"minimum_resolution":1,"trial":49,"drifts":[0.254,0.439,0.383,0.579],"drift_ix":2,"trial_type":"two-step-trial","trial_index":86,"time_elapsed":768562,"internal_node_id":"0.0-62.0-0.0","task_version":"1.0","jspsych_version":"6.3.1","browser_interactions":0,"missing":false},{"state_1_ids":[1,0],"state_1_key":1,"state_1_choice":0,"state_1_rt":917.2999999821186,"transition":1,"state":0,"state_2_ids":[0,1],"state_2_key":1,"state_2_choice":1,"state_2_rt":1005.8999999761581,"outcome":1,"rocket_colors":["#48a782","#955db9"],"planet_colors":["#7f5d5d","#5f6f81"],"screen_resolution":[1280,800],"minimum_resolution":1,"trial":50,"drifts":[0.303,0.471,0.392,0.592],"drift_ix":2,"trial_type":"two-step-trial","trial_index":87,"time_elapsed":772498,"internal_node_id":"0.0-63.0-0.0","task_version":"1.0","jspsych_version":"6.3.1","browser_interactions":0,"missing":false},{"state_1_ids":[1,0],"state_1_key":1,"state_1_choice":0,"state_1_rt":1229.199999988079,"transition":1,"state":0,"state_2_ids":[0,1],"state_2_key":1,"state_2_choice":1,"state_2_rt":526.7999999821186,"outcome":0,"rocket_colors":["#48a782","#955db9"],"planet_colors":["#7f5d5d","#5f6f81"],"screen_resolution":[1280,800],"minimum_resolution":1,"trial":51,"drifts":[0.274,0.41,0.377,0.587],"drift_ix":2,"trial_type":"two-step-trial","trial_index":88,"time_elapsed":776265,"internal_node_id":"0.0-64.0-0.0","task_version":"1.0","jspsych_version":"6.3.1","browser_interactions":0,"missing":false},{"state_1_ids":[0,1],"state_1_key":0,"state_1_choice":0,"state_1_rt":669.8000000119209,"transition":0,"state":1,"state_2_ids":[2,3],"state_2_key":0,"state_2_choice":2,"state_2_rt":1646.9000000059605,"outcome":0,"rocket_colors":["#48a782","#955db9"],"planet_colors":["#7f5d5d","#5f6f81"],"screen_resolution":[1280,800],"minimum_resolution":1,"trial":52,"drifts":[0.29,0.413,0.363,0.572],"drift_ix":2,"trial_type":"two-step-trial","trial_index":89,"time_elapsed":780590,"internal_node_id":"0.0-65.0-0.0","task_version":"1.0","jspsych_version":"6.3.1","browser_interactions":0,"missing":false},{"state_1_ids":[0,1],"state_1_key":0,"state_1_choice":0,"state_1_rt":512.8000000119209,"transition":1,"state":0,"state_2_ids":[0,1],"state_2_key":0,"state_2_choice":0,"state_2_rt":965.6999999880791,"outcome":0,"rocket_colors":["#48a782","#955db9"],"planet_colors":["#7f5d5d","#5f6f81"],"screen_resolution":[1280,800],"minimum_resolution":1,"trial":53,"drifts":[0.292,0.425,0.318,0.522],"drift_ix":2,"trial_type":"two-step-trial","trial_index":90,"time_elapsed":784096,"internal_node_id":"0.0-66.0-0.0","task_version":"1.0","jspsych_version":"6.3.1","browser_interactions":0,"missing":false},{"state_1_ids":[0,1],"state_1_key":0,"state_1_choice":0,"state_1_rt":470.89999997615814,"transition":1,"state":0,"state_2_ids":[0,1],"state_2_key":1,"state_2_choice":1,"state_2_rt":478,"outcome":0,"rocket_colors":["#48a782","#955db9"],"planet_colors":["#7f5d5d","#5f6f81"],"screen_resolution":[1280,800],"minimum_resolution":1,"trial":54,"drifts":[0.284,0.449,0.332,0.552],"drift_ix":2,"trial_type":"two-step-trial","trial_index":91,"time_elapsed":787056,"internal_node_id":"0.0-67.0-0.0","task_version":"1.0","jspsych_version":"6.3.1","browser_interactions":0,"missing":false},{"state_1_ids":[1,0],"state_1_key":1,"state_1_choice":0,"state_1_rt":878,"transition":1,"state":0,"state_2_ids":[0,1],"state_2_key":1,"state_2_choice":1,"state_2_rt":619.8000000119209,"outcome":1,"rocket_colors":["#48a782","#955db9"],"planet_colors":["#7f5d5d","#5f6f81"],"screen_resolution":[1280,800],"minimum_resolution":1,"trial":55,"drifts":[0.253,0.41,0.344,0.579],"drift_ix":2,"trial_type":"two-step-trial","trial_index":92,"time_elapsed":790568,"internal_node_id":"0.0-68.0-0.0","task_version":"1.0","jspsych_version":"6.3.1","browser_interactions":0,"missing":false},{"state_1_ids":[1,0],"state_1_key":1,"state_1_choice":0,"state_1_rt":582.2000000178814,"transition":1,"state":0,"state_2_ids":[0,1],"state_2_key":1,"state_2_choice":1,"state_2_rt":469.80000001192093,"outcome":1,"rocket_colors":["#48a782","#955db9"],"planet_colors":["#7f5d5d","#5f6f81"],"screen_resolution":[1280,800],"minimum_resolution":1,"trial":56,"drifts":[0.277,0.408,0.373,0.526],"drift_ix":2,"trial_type":"two-step-trial","trial_index":93,"time_elapsed":793633,"internal_node_id":"0.0-69.0-0.0","task_version":"1.0","jspsych_version":"6.3.1","browser_interactions":0,"missing":false},{"state_1_ids":[1,0],"state_1_key":1,"state_1_choice":0,"state_1_rt":572.9000000059605,"transition":1,"state":0,"state_2_ids":[0,1],"state_2_key":1,"state_2_choice":1,"state_2_rt":412.2000000178814,"outcome":1,"rocket_colors":["#48a782","#955db9"],"planet_colors":["#7f5d5d","#5f6f81"],"screen_resolution":[1280,800],"minimum_resolution":1,"trial":57,"drifts":[0.252,0.418,0.356,0.521],"drift_ix":2,"trial_type":"two-step-trial","trial_index":94,"time_elapsed":796629,"internal_node_id":"0.0-70.0-0.0","task_version":"1.0","jspsych_version":"6.3.1","browser_interactions":0,"missing":false},{"state_1_ids":[0,1],"state_1_key":0,"state_1_choice":0,"state_1_rt":697.4000000059605,"transition":1,"state":0,"state_2_ids":[0,1],"state_2_key":1,"state_2_choice":1,"state_2_rt":597.9000000059605,"outcome":1,"rocket_colors":["#48a782","#955db9"],"planet_colors":["#7f5d5d","#5f6f81"],"screen_resolution":[1280,800],"minimum_resolution":1,"trial":58,"drifts":[0.282,0.462,0.395,0.504],"drift_ix":2,"trial_type":"two-step-trial","trial_index":95,"time_elapsed":799937,"internal_node_id":"0.0-71.0-0.0","task_version":"1.0","jspsych_version":"6.3.1","browser_interactions":0,"missing":false},{"state_1_ids":[0,1],"state_1_key":0,"state_1_choice":0,"state_1_rt":477,"transition":1,"state":0,"state_2_ids":[0,1],"state_2_key":1,"state_2_choice":1,"state_2_rt":574.5999999940395,"outcome":1,"rocket_colors":["#48a782","#955db9"],"planet_colors":["#7f5d5d","#5f6f81"],"screen_resolution":[1280,800],"minimum_resolution":1,"trial":59,"drifts":[0.297,0.475,0.39,0.498],"drift_ix":2,"trial_type":"two-step-trial","trial_index":96,"time_elapsed":802996,"internal_node_id":"0.0-72.0-0.0","task_version":"1.0","jspsych_version":"6.3.1","browser_interactions":0,"missing":false},{"state_1_ids":[0,1],"state_1_key":0,"state_1_choice":0,"state_1_rt":425.59999999403954,"transition":1,"state":0,"state_2_ids":[0,1],"state_2_key":1,"state_2_choice":1,"state_2_rt":575.5999999940395,"outcome":0,"rocket_colors":["#48a782","#955db9"],"planet_colors":["#7f5d5d","#5f6f81"],"screen_resolution":[1280,800],"minimum_resolution":1,"trial":60,"drifts":[0.295,0.463,0.364,0.52],"drift_ix":2,"trial_type":"two-step-trial","trial_index":97,"time_elapsed":806009,"internal_node_id":"0.0-73.0-0.0","task_version":"1.0","jspsych_version":"6.3.1","browser_interactions":0,"missing":false},{"state_1_ids":[0,1],"state_1_key":0,"state_1_choice":0,"state_1_rt":388.90000000596046,"transition":1,"state":0,"state_2_ids":[0,1],"state_2_key":1,"state_2_choice":1,"state_2_rt":694.8999999761581,"outcome":0,"rocket_colors":["#48a782","#955db9"],"planet_colors":["#7f5d5d","#5f6f81"],"screen_resolution":[1280,800],"minimum_resolution":1,"trial":61,"drifts":[0.295,0.433,0.355,0.543],"drift_ix":2,"trial_type":"two-step-trial","trial_index":98,"time_elapsed":809103,"internal_node_id":"0.0-74.0-0.0","task_version":"1.0","jspsych_version":"6.3.1","browser_interactions":0,"missing":false},{"state_1_ids":[1,0],"state_1_key":1,"state_1_choice":0,"state_1_rt":750.5999999940395,"transition":1,"state":0,"state_2_ids":[0,1],"state_2_key":0,"state_2_choice":0,"state_2_rt":445.2999999821186,"outcome":0,"rocket_colors":["#48a782","#955db9"],"planet_colors":["#7f5d5d","#5f6f81"],"screen_resolution":[1280,800],"minimum_resolution":1,"trial":62,"drifts":[0.307,0.43,0.353,0.543],"drift_ix":2,"trial_type":"two-step-trial","trial_index":99,"time_elapsed":812308,"internal_node_id":"0.0-75.0-0.0","task_version":"1.0","jspsych_version":"6.3.1","browser_interactions":0,"missing":false},{"state_1_ids":[0,1],"state_1_key":0,"state_1_choice":0,"state_1_rt":753.9000000059605,"transition":1,"state":0,"state_2_ids":[0,1],"state_2_key":1,"state_2_choice":1,"state_2_rt":485.7999999821186,"outcome":1,"rocket_colors":["#48a782","#955db9"],"planet_colors":["#7f5d5d","#5f6f81"],"screen_resolution":[1280,800],"minimum_resolution":1,"trial":63,"drifts":[0.353,0.426,0.367,0.529],"drift_ix":2,"trial_type":"two-step-trial","trial_index":100,"time_elapsed":815558,"internal_node_id":"0.0-76.0-0.0","task_version":"1.0","jspsych_version":"6.3.1","browser_interactions":0,"missing":false},{"state_1_ids":[1,0],"state_1_key":1,"state_1_choice":0,"state_1_rt":479.19999998807907,"transition":0,"state":1,"state_2_ids":[2,3],"state_2_key":1,"state_2_choice":3,"state_2_rt":1324.2000000178814,"outcome":1,"rocket_colors":["#48a782","#955db9"],"planet_colors":["#7f5d5d","#5f6f81"],"screen_resolution":[1280,800],"minimum_resolution":1,"trial":64,"drifts":[0.37,0.432,0.33,0.47],"drift_ix":2,"trial_type":"two-step-trial","trial_index":101,"time_elapsed":819372,"internal_node_id":"0.0-77.0-0.0","task_version":"1.0","jspsych_version":"6.3.1","browser_interactions":0,"missing":false},{"state_1_ids":[1,0],"state_1_key":1,"state_1_choice":0,"state_1_rt":2066,"transition":1,"state":0,"state_2_ids":[0,1],"state_2_key":1,"state_2_choice":1,"state_2_rt":428.90000000596046,"outcome":0,"rocket_colors":["#48a782","#955db9"],"planet_colors":["#7f5d5d","#5f6f81"],"screen_resolution":[1280,800],"minimum_resolution":1,"trial":65,"drifts":[0.377,0.393,0.348,0.501],"drift_ix":2,"trial_type":"two-step-trial","trial_index":102,"time_elapsed":823876,"internal_node_id":"0.0-78.0-0.0","task_version":"1.0","jspsych_version":"6.3.1","browser_interactions":0,"missing":false},{"state_1_ids":[0,1],"state_1_key":0,"state_1_choice":0,"state_1_rt":521,"transition":0,"state":1,"state_2_ids":[2,3],"state_2_key":1,"state_2_choice":3,"state_2_rt":1398.5,"outcome":1,"rocket_colors":["#48a782","#955db9"],"planet_colors":["#7f5d5d","#5f6f81"],"screen_resolution":[1280,800],"minimum_resolution":1,"trial":66,"drifts":[0.345,0.371,0.258,0.459],"drift_ix":2,"trial_type":"two-step-trial","trial_index":103,"time_elapsed":827806,"internal_node_id":"0.0-79.0-0.0","task_version":"1.0","jspsych_version":"6.3.1","browser_interactions":0,"missing":false},{"state_1_ids":[1,0],"state_1_key":1,"state_1_choice":0,"state_1_rt":742,"transition":0,"state":1,"state_2_ids":[2,3],"state_2_key":1,"state_2_choice":3,"state_2_rt":918.2999999821186,"outcome":0,"rocket_colors":["#48a782","#955db9"],"planet_colors":["#7f5d5d","#5f6f81"],"screen_resolution":[1280,800],"minimum_resolution":1,"trial":67,"drifts":[0.332,0.355,0.256,0.426],"drift_ix":2,"trial_type":"two-step-trial","trial_index":104,"time_elapsed":831478,"internal_node_id":"0.0-80.0-0.0","task_version":"1.0","jspsych_version":"6.3.1","browser_interactions":0,"missing":false},{"state_1_ids":[1,0],"state_1_key":1,"state_1_choice":0,"state_1_rt":534.9000000059605,"transition":1,"state":0,"state_2_ids":[0,1],"state_2_key":1,"state_2_choice":1,"state_2_rt":796.6999999880791,"outcome":1,"rocket_colors":["#48a782","#955db9"],"planet_colors":["#7f5d5d","#5f6f81"],"screen_resolution":[1280,800],"minimum_resolution":1,"trial":68,"drifts":[0.331,0.398,0.311,0.426],"drift_ix":2,"trial_type":"two-step-trial","trial_index":105,"time_elapsed":834824,"internal_node_id":"0.0-81.0-0.0","task_version":"1.0","jspsych_version":"6.3.1","browser_interactions":0,"missing":false},{"state_1_ids":[1,0],"state_1_key":1,"state_1_choice":0,"state_1_rt":741.5,"transition":0,"state":1,"state_2_ids":[2,3],"state_2_key":1,"state_2_choice":3,"state_2_rt":845.5999999940395,"outcome":0,"rocket_colors":["#48a782","#955db9"],"planet_colors":["#7f5d5d","#5f6f81"],"screen_resolution":[1280,800],"minimum_resolution":1,"trial":69,"drifts":[0.325,0.426,0.326,0.384],"drift_ix":2,"trial_type":"two-step-trial","trial_index":106,"time_elapsed":838423,"internal_node_id":"0.0-82.0-0.0","task_version":"1.0","jspsych_version":"6.3.1","browser_interactions":0,"missing":false},{"state_1_ids":[1,0],"state_1_key":1,"state_1_choice":0,"state_1_rt":413.59999999403954,"transition":0,"state":1,"state_2_ids":[2,3],"state_2_key":1,"state_2_choice":3,"state_2_rt":1799.0999999940395,"outcome":0,"rocket_colors":["#48a782","#955db9"],"planet_colors":["#7f5d5d","#5f6f81"],"screen_resolution":[1280,800],"minimum_resolution":1,"trial":70,"drifts":[0.293,0.475,0.305,0.375],"drift_ix":2,"trial_type":"two-step-trial","trial_index":107,"time_elapsed":842643,"internal_node_id":"0.0-83.0-0.0","task_version":"1.0","jspsych_version":"6.3.1","browser_interactions":0,"missing":false},{"state_1_ids":[1,0],"state_1_key":1,"state_1_choice":0,"state_1_rt":401.2000000178814,"transition":1,"state":0,"state_2_ids":[0,1],"state_2_key":1,"state_2_choice":1,"state_2_rt":775.0999999940395,"outcome":1,"rocket_colors":["#48a782","#955db9"],"planet_colors":["#7f5d5d","#5f6f81"],"screen_resolution":[1280,800],"minimum_resolution":1,"trial":71,"drifts":[0.268,0.51,0.303,0.365],"drift_ix":2,"trial_type":"two-step-trial","trial_index":108,"time_elapsed":845830,"internal_node_id":"0.0-84.0-0.0","task_version":"1.0","jspsych_version":"6.3.1","browser_interactions":0,"missing":false},{"state_1_ids":[0,1],"state_1_key":0,"state_1_choice":0,"state_1_rt":678.6999999880791,"transition":1,"state":0,"state_2_ids":[0,1],"state_2_key":1,"state_2_choice":1,"state_2_rt":1413.2999999821186,"outcome":1,"rocket_colors":["#48a782","#955db9"],"planet_colors":["#7f5d5d","#5f6f81"],"screen_resolution":[1280,800],"minimum_resolution":1,"trial":72,"drifts":[0.294,0.507,0.326,0.359],"drift_ix":2,"trial_type":"two-step-trial","trial_index":109,"time_elapsed":849934,"internal_node_id":"0.0-85.0-0.0","task_version":"1.0","jspsych_version":"6.3.1","browser_interactions":0,"missing":false},{"state_1_ids":[1,0],"state_1_key":1,"state_1_choice":0,"state_1_rt":839.5,"transition":0,"state":1,"state_2_ids":[2,3],"state_2_key":0,"state_2_choice":2,"state_2_rt":733.5999999940395,"outcome":0,"rocket_colors":["#48a782","#955db9"],"planet_colors":["#7f5d5d","#5f6f81"],"screen_resolution":[1280,800],"minimum_resolution":1,"trial":73,"drifts":[0.296,0.541,0.313,0.367],"drift_ix":2,"trial_type":"two-step-trial","trial_index":110,"time_elapsed":853516,"internal_node_id":"0.0-86.0-0.0","task_version":"1.0","jspsych_version":"6.3.1","browser_interactions":0,"missing":false},{"state_1_ids":[1,0],"state_1_key":1,"state_1_choice":0,"state_1_rt":584.9000000059605,"transition":0,"state":1,"state_2_ids":[2,3],"state_2_key":1,"state_2_choice":3,"state_2_rt":551.1999999880791,"outcome":1,"rocket_colors":["#48a782","#955db9"],"planet_colors":["#7f5d5d","#5f6f81"],"screen_resolution":[1280,800],"minimum_resolution":1,"trial":74,"drifts":[0.282,0.491,0.339,0.374],"drift_ix":2,"trial_type":"two-step-trial","trial_index":111,"time_elapsed":856662,"internal_node_id":"0.0-87.0-0.0","task_version":"1.0","jspsych_version":"6.3.1","browser_interactions":0,"missing":false},{"state_1_ids":[1,0],"state_1_key":1,"state_1_choice":0,"state_1_rt":606.6999999880791,"transition":1,"state":0,"state_2_ids":[0,1],"state_2_key":1,"state_2_choice":1,"state_2_rt":662,"outcome":0,"rocket_colors":["#48a782","#955db9"],"planet_colors":["#7f5d5d","#5f6f81"],"screen_resolution":[1280,800],"minimum_resolution":1,"trial":75,"drifts":[0.336,0.513,0.333,0.367],"drift_ix":2,"trial_type":"two-step-trial","trial_index":112,"time_elapsed":859942,"internal_node_id":"0.0-88.0-0.0","task_version":"1.0","jspsych_version":"6.3.1","browser_interactions":0,"missing":false},{"state_1_ids":[0,1],"state_1_key":1,"state_1_choice":1,"state_1_rt":358.59999999403954,"transition":1,"state":1,"state_2_ids":[2,3],"state_2_key":1,"state_2_choice":3,"state_2_rt":1774.3999999761581,"outcome":0,"rocket_colors":["#48a782","#955db9"],"planet_colors":["#7f5d5d","#5f6f81"],"screen_resolution":[1280,800],"minimum_resolution":1,"trial":76,"drifts":[0.344,0.538,0.274,0.339],"drift_ix":2,"trial_type":"two-step-trial","trial_index":113,"time_elapsed":864086,"internal_node_id":"0.0-89.0-0.0","task_version":"1.0","jspsych_version":"6.3.1","browser_interactions":0,"missing":false},{"state_1_ids":[0,1],"state_1_key":1,"state_1_choice":1,"state_1_rt":605.4000000059605,"transition":1,"state":1,"state_2_ids":[2,3],"state_2_key":1,"state_2_choice":3,"state_2_rt":1832,"outcome":1,"rocket_colors":["#48a782","#955db9"],"planet_colors":["#7f5d5d","#5f6f81"],"screen_resolution":[1280,800],"minimum_resolution":1,"trial":77,"drifts":[0.322,0.54,0.262,0.343],"drift_ix":2,"trial_type":"two-step-trial","trial_index":114,"time_elapsed":868532,"internal_node_id":"0.0-90.0-0.0","task_version":"1.0","jspsych_version":"6.3.1","browser_interactions":0,"missing":false},{"state_1_ids":[1,0],"state_1_key":0,"state_1_choice":1,"state_1_rt":783.7000000178814,"transition":0,"state":0,"state_2_ids":[0,1],"state_2_key":1,"state_2_choice":1,"state_2_rt":983,"outcome":1,"rocket_colors":["#48a782","#955db9"],"planet_colors":["#7f5d5d","#5f6f81"],"screen_resolution":[1280,800],"minimum_resolution":1,"trial":78,"drifts":[0.351,0.561,0.265,0.342],"drift_ix":2,"trial_type":"two-step-trial","trial_index":115,"time_elapsed":872306,"internal_node_id":"0.0-91.0-0.0","task_version":"1.0","jspsych_version":"6.3.1","browser_interactions":0,"missing":false},{"state_1_ids":[1,0],"state_1_key":0,"state_1_choice":1,"state_1_rt":786.6000000238419,"transition":0,"state":0,"state_2_ids":[0,1],"state_2_key":1,"state_2_choice":1,"state_2_rt":428.90000000596046,"outcome":1,"rocket_colors":["#48a782","#955db9"],"planet_colors":["#7f5d5d","#5f6f81"],"screen_resolution":[1280,800],"minimum_resolution":1,"trial":79,"drifts":[0.335,0.543,0.286,0.35],"drift_ix":2,"trial_type":"two-step-trial","trial_index":116,"time_elapsed":875533,"internal_node_id":"0.0-92.0-0.0","task_version":"1.0","jspsych_version":"6.3.1","browser_interactions":0,"missing":false},{"state_1_ids":[0,1],"state_1_key":1,"state_1_choice":1,"state_1_rt":702.7000000178814,"transition":1,"state":1,"state_2_ids":[2,3],"state_2_key":1,"state_2_choice":3,"state_2_rt":822.5999999940395,"outcome":1,"rocket_colors":["#48a782","#955db9"],"planet_colors":["#7f5d5d","#5f6f81"],"screen_resolution":[1280,800],"minimum_resolution":1,"trial":80,"drifts":[0.328,0.536,0.289,0.405],"drift_ix":2,"trial_type":"two-step-trial","trial_index":117,"time_elapsed":879069,"internal_node_id":"0.0-93.0-0.0","task_version":"1.0","jspsych_version":"6.3.1","browser_interactions":0,"missing":false},{"state_1_ids":[0,1],"state_1_key":1,"state_1_choice":1,"state_1_rt":679.2999999821186,"transition":0,"state":0,"state_2_ids":[0,1],"state_2_key":1,"state_2_choice":1,"state_2_rt":742,"outcome":0,"rocket_colors":["#48a782","#955db9"],"planet_colors":["#7f5d5d","#5f6f81"],"screen_resolution":[1280,800],"minimum_resolution":1,"trial":81,"drifts":[0.286,0.534,0.265,0.391],"drift_ix":2,"trial_type":"two-step-trial","trial_index":118,"time_elapsed":882499,"internal_node_id":"0.0-94.0-0.0","task_version":"1.0","jspsych_version":"6.3.1","browser_interactions":0,"missing":false},{"state_1_ids":[0,1],"state_1_key":1,"state_1_choice":1,"state_1_rt":632.5,"transition":1,"state":1,"state_2_ids":[2,3],"state_2_key":1,"state_2_choice":3,"state_2_rt":798.6999999880791,"outcome":1,"rocket_colors":["#48a782","#955db9"],"planet_colors":["#7f5d5d","#5f6f81"],"screen_resolution":[1280,800],"minimum_resolution":1,"trial":82,"drifts":[0.307,0.553,0.256,0.373],"drift_ix":2,"trial_type":"two-step-trial","trial_index":119,"time_elapsed":885941,"internal_node_id":"0.0-95.0-0.0","task_version":"1.0","jspsych_version":"6.3.1","browser_interactions":0,"missing":false},{"state_1_ids":[1,0],"state_1_key":0,"state_1_choice":1,"state_1_rt":1542,"transition":0,"state":0,"state_2_ids":[0,1],"state_2_key":1,"state_2_choice":1,"state_2_rt":659.9000000059605,"outcome":0,"rocket_colors":["#48a782","#955db9"],"planet_colors":["#7f5d5d","#5f6f81"],"screen_resolution":[1280,800],"minimum_resolution":1,"trial":83,"drifts":[0.306,0.564,0.273,0.38],"drift_ix":2,"trial_type":"two-step-trial","trial_index":120,"time_elapsed":890156,"internal_node_id":"0.0-96.0-0.0","task_version":"1.0","jspsych_version":"6.3.1","browser_interactions":0,"missing":false},{"state_1_ids":[1,0],"state_1_key":0,"state_1_choice":1,"state_1_rt":511.80000001192093,"transition":1,"state":1,"state_2_ids":[2,3],"state_2_key":1,"state_2_choice":3,"state_2_rt":630.9000000059605,"outcome":1,"rocket_colors":["#48a782","#955db9"],"planet_colors":["#7f5d5d","#5f6f81"],"screen_resolution":[1280,800],"minimum_resolution":1,"trial":84,"drifts":[0.263,0.564,0.275,0.397],"drift_ix":2,"trial_type":"two-step-trial","trial_index":121,"time_elapsed":893308,"internal_node_id":"0.0-97.0-0.0","task_version":"1.0","jspsych_version":"6.3.1","browser_interactions":0,"missing":false},{"state_1_ids":[1,0],"state_1_key":0,"state_1_choice":1,"state_1_rt":719.5,"transition":1,"state":1,"state_2_ids":[2,3],"state_2_key":1,"state_2_choice":3,"state_2_rt":1022.0999999940395,"outcome":0,"rocket_colors":["#48a782","#955db9"],"planet_colors":["#7f5d5d","#5f6f81"],"screen_resolution":[1280,800],"minimum_resolution":1,"trial":85,"drifts":[0.295,0.592,0.3,0.406],"drift_ix":2,"trial_type":"two-step-trial","trial_index":122,"time_elapsed":897058,"internal_node_id":"0.0-98.0-0.0","task_version":"1.0","jspsych_version":"6.3.1","browser_interactions":0,"missing":false},{"state_1_ids":[1,0],"state_1_key":0,"state_1_choice":1,"state_1_rt":401.7999999821186,"transition":1,"state":1,"state_2_ids":[2,3],"state_2_key":1,"state_2_choice":3,"state_2_rt":556.9000000059605,"outcome":0,"rocket_colors":["#48a782","#955db9"],"planet_colors":["#7f5d5d","#5f6f81"],"screen_resolution":[1280,800],"minimum_resolution":1,"trial":86,"drifts":[0.266,0.571,0.324,0.417],"drift_ix":2,"trial_type":"two-step-trial","trial_index":123,"time_elapsed":900030,"internal_node_id":"0.0-99.0-0.0","task_version":"1.0","jspsych_version":"6.3.1","browser_interactions":0,"missing":false},{"state_1_ids":[1,0],"state_1_key":0,"state_1_choice":1,"state_1_rt":413.19999998807907,"transition":0,"state":0,"state_2_ids":[0,1],"state_2_key":1,"state_2_choice":1,"state_2_rt":703.5,"outcome":0,"rocket_colors":["#48a782","#955db9"],"planet_colors":["#7f5d5d","#5f6f81"],"screen_resolution":[1280,800],"minimum_resolution":1,"trial":87,"drifts":[0.25,0.532,0.345,0.39],"drift_ix":2,"trial_type":"two-step-trial","trial_index":124,"time_elapsed":903157,"internal_node_id":"0.0-100.0-0.0","task_version":"1.0","jspsych_version":"6.3.1","browser_interactions":0,"missing":false},{"state_1_ids":[1,0],"state_1_key":0,"state_1_choice":1,"state_1_rt":703,"transition":0,"state":0,"state_2_ids":[0,1],"state_2_key":0,"state_2_choice":0,"state_2_rt":1228.4000000059605,"outcome":0,"rocket_colors":["#48a782","#955db9"],"planet_colors":["#7f5d5d","#5f6f81"],"screen_resolution":[1280,800],"minimum_resolution":1,"trial":88,"drifts":[0.258,0.529,0.341,0.378],"drift_ix":2,"trial_type":"two-step-trial","trial_index":125,"time_elapsed":907100,"internal_node_id":"0.0-101.0-0.0","task_version":"1.0","jspsych_version":"6.3.1","browser_interactions":0,"missing":false},{"state_1_ids":[1,0],"state_1_key":0,"state_1_choice":1,"state_1_rt":455.2000000178814,"transition":0,"state":0,"state_2_ids":[0,1],"state_2_key":1,"state_2_choice":1,"state_2_rt":806.4000000059605,"outcome":0,"rocket_colors":["#48a782","#955db9"],"planet_colors":["#7f5d5d","#5f6f81"],"screen_resolution":[1280,800],"minimum_resolution":1,"trial":89,"drifts":[0.266,0.533,0.306,0.41],"drift_ix":2,"trial_type":"two-step-trial","trial_index":126,"time_elapsed":910373,"internal_node_id":"0.0-102.0-0.0","task_version":"1.0","jspsych_version":"6.3.1","browser_interactions":0,"missing":false},{"state_1_ids":[1,0],"state_1_key":0,"state_1_choice":1,"state_1_rt":934,"transition":1,"state":1,"state_2_ids":[2,3],"state_2_key":1,"state_2_choice":3,"state_2_rt":2109.199999988079,"outcome":0,"rocket_colors":["#48a782","#955db9"],"planet_colors":["#7f5d5d","#5f6f81"],"screen_resolution":[1280,800],"minimum_resolution":1,"trial":90,"drifts":[0.254,0.554,0.297,0.382],"drift_ix":2,"trial_type":"two-step-trial","trial_index":127,"time_elapsed":915430,"internal_node_id":"0.0-103.0-0.0","task_version":"1.0","jspsych_version":"6.3.1","browser_interactions":0,"missing":false},{"state_1_ids":[1,0],"state_1_key":1,"state_1_choice":0,"state_1_rt":1069.5999999940395,"transition":1,"state":0,"state_2_ids":[0,1],"state_2_key":1,"state_2_choice":1,"state_2_rt":606,"outcome":1,"rocket_colors":["#48a782","#955db9"],"planet_colors":["#7f5d5d","#5f6f81"],"screen_resolution":[1280,800],"minimum_resolution":1,"trial":91,"drifts":[0.265,0.543,0.313,0.38],"drift_ix":2,"trial_type":"two-step-trial","trial_index":128,"time_elapsed":919116,"internal_node_id":"0.0-104.0-0.0","task_version":"1.0","jspsych_version":"6.3.1","browser_interactions":0,"missing":false},{"state_1_ids":[0,1],"state_1_key":0,"state_1_choice":0,"state_1_rt":1118.199999988079,"transition":1,"state":0,"state_2_ids":[0,1],"state_2_key":1,"state_2_choice":1,"state_2_rt":781.0999999940395,"outcome":1,"rocket_colors":["#48a782","#955db9"],"planet_colors":["#7f5d5d","#5f6f81"],"screen_resolution":[1280,800],"minimum_resolution":1,"trial":92,"drifts":[0.259,0.54,0.279,0.363],"drift_ix":2,"trial_type":"two-step-trial","trial_index":129,"time_elapsed":923028,"internal_node_id":"0.0-105.0-0.0","task_version":"1.0","jspsych_version":"6.3.1","browser_interactions":0,"missing":false},{"state_1_ids":[1,0],"state_1_key":0,"state_1_choice":1,"state_1_rt":1014.1999999880791,"transition":1,"state":1,"state_2_ids":[2,3],"state_2_key":1,"state_2_choice":3,"state_2_rt":798.1000000238419,"outcome":1,"rocket_colors":["#48a782","#955db9"],"planet_colors":["#7f5d5d","#5f6f81"],"screen_resolution":[1280,800],"minimum_resolution":1,"trial":93,"drifts":[0.251,0.565,0.296,0.35],"drift_ix":2,"trial_type":"two-step-trial","trial_index":130,"time_elapsed":926854,"internal_node_id":"0.0-106.0-0.0","task_version":"1.0","jspsych_version":"6.3.1","browser_interactions":0,"missing":false},{"state_1_ids":[1,0],"state_1_key":1,"state_1_choice":0,"state_1_rt":532.8000000119209,"transition":1,"state":0,"state_2_ids":[0,1],"state_2_key":1,"state_2_choice":1,"state_2_rt":493.2999999821186,"outcome":1,"rocket_colors":["#48a782","#955db9"],"planet_colors":["#7f5d5d","#5f6f81"],"screen_resolution":[1280,800],"minimum_resolution":1,"trial":94,"drifts":[0.276,0.543,0.275,0.322],"drift_ix":2,"trial_type":"two-step-trial","trial_index":131,"time_elapsed":929890,"internal_node_id":"0.0-107.0-0.0","task_version":"1.0","jspsych_version":"6.3.1","browser_interactions":0,"missing":false},{"state_1_ids":[0,1],"state_1_key":0,"state_1_choice":0,"state_1_rt":729.1000000238419,"transition":1,"state":0,"state_2_ids":[0,1],"state_2_key":1,"state_2_choice":1,"state_2_rt":518.4000000059605,"outcome":1,"rocket_colors":["#48a782","#955db9"],"planet_colors":["#7f5d5d","#5f6f81"],"screen_resolution":[1280,800],"minimum_resolution":1,"trial":95,"drifts":[0.317,0.539,0.285,0.291],"drift_ix":2,"trial_type":"two-step-trial","trial_index":132,"time_elapsed":933146,"internal_node_id":"0.0-108.0-0.0","task_version":"1.0","jspsych_version":"6.3.1","browser_interactions":0,"missing":false},{"state_1_ids":[0,1],"state_1_key":1,"state_1_choice":1,"state_1_rt":1175.9000000059605,"transition":0,"state":0,"state_2_ids":[0,1],"state_2_key":0,"state_2_choice":0,"state_2_rt":1084.0999999940395,"outcome":0,"rocket_colors":["#48a782","#955db9"],"planet_colors":["#7f5d5d","#5f6f81"],"screen_resolution":[1280,800],"minimum_resolution":1,"trial":96,"drifts":[0.325,0.583,0.251,0.276],"drift_ix":2,"trial_type":"two-step-trial","trial_index":133,"time_elapsed":937421,"internal_node_id":"0.0-109.0-0.0","task_version":"1.0","jspsych_version":"6.3.1","browser_interactions":0,"missing":false},{"state_1_ids":[1,0],"state_1_key":0,"state_1_choice":1,"state_1_rt":1021.5,"transition":1,"state":1,"state_2_ids":[2,3],"state_2_key":1,"state_2_choice":3,"state_2_rt":396.09999999403954,"outcome":0,"rocket_colors":["#48a782","#955db9"],"planet_colors":["#7f5d5d","#5f6f81"],"screen_resolution":[1280,800],"minimum_resolution":1,"trial":97,"drifts":[0.352,0.597,0.278,0.336],"drift_ix":2,"trial_type":"two-step-trial","trial_index":134,"time_elapsed":940849,"internal_node_id":"0.0-110.0-0.0","task_version":"1.0","jspsych_version":"6.3.1","browser_interactions":0,"missing":false},{"state_1_ids":[0,1],"state_1_key":0,"state_1_choice":0,"state_1_rt":609.4000000059605,"transition":1,"state":0,"state_2_ids":[0,1],"state_2_key":1,"state_2_choice":1,"state_2_rt":1159.300000011921,"outcome":1,"rocket_colors":["#48a782","#955db9"],"planet_colors":["#7f5d5d","#5f6f81"],"screen_resolution":[1280,800],"minimum_resolution":1,"trial":98,"drifts":[0.369,0.601,0.316,0.324],"drift_ix":2,"trial_type":"two-step-trial","trial_index":135,"time_elapsed":944628,"internal_node_id":"0.0-111.0-0.0","task_version":"1.0","jspsych_version":"6.3.1","browser_interactions":0,"missing":false},{"state_1_ids":[1,0],"state_1_key":1,"state_1_choice":0,"state_1_rt":461.59999999403954,"transition":1,"state":0,"state_2_ids":[0,1],"state_2_key":1,"state_2_choice":1,"state_2_rt":605.5,"outcome":1,"rocket_colors":["#48a782","#955db9"],"planet_colors":["#7f5d5d","#5f6f81"],"screen_resolution":[1280,800],"minimum_resolution":1,"trial":99,"drifts":[0.338,0.574,0.29,0.307],"drift_ix":2,"trial_type":"two-step-trial","trial_index":136,"time_elapsed":947704,"internal_node_id":"0.0-112.0-0.0","task_version":"1.0","jspsych_version":"6.3.1","browser_interactions":0,"missing":false},{"state_1_ids":[0,1],"state_1_key":0,"state_1_choice":0,"state_1_rt":698.3000000119209,"transition":1,"state":0,"state_2_ids":[0,1],"state_2_key":1,"state_2_choice":1,"state_2_rt":486.2000000178814,"outcome":0,"rocket_colors":["#48a782","#955db9"],"planet_colors":["#7f5d5d","#5f6f81"],"screen_resolution":[1280,800],"minimum_resolution":1,"trial":100,"drifts":[0.348,0.567,0.294,0.264],"drift_ix":2,"trial_type":"two-step-trial","trial_index":137,"time_elapsed":950896,"internal_node_id":"0.0-113.0-0.0","task_version":"1.0","jspsych_version":"6.3.1","browser_interactions":0,"missing":false},{"view_history":"[{\"page_index\":0,\"viewing_time\":54262.59999999404},{\"page_index\":1,\"viewing_time\":1169.5999999940395}]","rt":55432.79999998212,"trial_type":"two-step-instructions","trial_index":138,"time_elapsed":1006334,"internal_node_id":"0.0-114.0","task_version":"1.0","jspsych_version":"6.3.1"},{"state_1_ids":[1,0],"state_1_key":1,"state_1_choice":0,"state_1_rt":1342,"transition":1,"state":0,"state_2_ids":[0,1],"state_2_key":1,"state_2_choice":1,"state_2_rt":550.8000000119209,"outcome":1,"rocket_colors":["#48a782","#955db9"],"planet_colors":["#7f5d5d","#5f6f81"],"screen_resolution":[1280,800],"minimum_resolution":1,"trial":101,"drifts":[0.332,0.536,0.335,0.261],"drift_ix":2,"trial_type":"two-step-trial","trial_index":139,"time_elapsed":1010241,"internal_node_id":"0.0-115.0-0.0","task_version":"1.0","jspsych_version":"6.3.1","browser_interactions":0,"missing":false},{"state_1_ids":[0,1],"state_1_key":0,"state_1_choice":0,"state_1_rt":582.7999999821186,"transition":1,"state":0,"state_2_ids":[0,1],"state_2_key":1,"state_2_choice":1,"state_2_rt":389.09999999403954,"outcome":1,"rocket_colors":["#48a782","#955db9"],"planet_colors":["#7f5d5d","#5f6f81"],"screen_resolution":[1280,800],"minimum_resolution":1,"trial":102,"drifts":[0.331,0.521,0.359,0.268],"drift_ix":2,"trial_type":"two-step-trial","trial_index":140,"time_elapsed":1013223,"internal_node_id":"0.0-116.0-0.0","task_version":"1.0","jspsych_version":"6.3.1","browser_interactions":0,"missing":false},{"state_1_ids":[0,1],"state_1_key":0,"state_1_choice":0,"state_1_rt":712.5999999940395,"transition":1,"state":0,"state_2_ids":[0,1],"state_2_key":1,"state_2_choice":1,"state_2_rt":519,"outcome":1,"rocket_colors":["#48a782","#955db9"],"planet_colors":["#7f5d5d","#5f6f81"],"screen_resolution":[1280,800],"minimum_resolution":1,"trial":103,"drifts":[0.317,0.518,0.371,0.309],"drift_ix":2,"trial_type":"two-step-trial","trial_index":141,"time_elapsed":1016463,"internal_node_id":"0.0-117.0-0.0","task_version":"1.0","jspsych_version":"6.3.1","browser_interactions":0,"missing":false},{"state_1_ids":[1,0],"state_1_key":1,"state_1_choice":0,"state_1_rt":360.7000000178814,"transition":1,"state":0,"state_2_ids":[0,1],"state_2_key":1,"state_2_choice":1,"state_2_rt":438.69999998807907,"outcome":1,"rocket_colors":["#48a782","#955db9"],"planet_colors":["#7f5d5d","#5f6f81"],"screen_resolution":[1280,800],"minimum_resolution":1,"trial":104,"drifts":[0.334,0.493,0.341,0.296],"drift_ix":2,"trial_type":"two-step-trial","trial_index":142,"time_elapsed":1019272,"internal_node_id":"0.0-118.0-0.0","task_version":"1.0","jspsych_version":"6.3.1","browser_interactions":0,"missing":false},{"state_1_ids":[1,0],"state_1_key":1,"state_1_choice":0,"state_1_rt":503.59999999403954,"transition":1,"state":0,"state_2_ids":[0,1],"state_2_key":1,"state_2_choice":1,"state_2_rt":397.30000001192093,"outcome":1,"rocket_colors":["#48a782","#955db9"],"planet_colors":["#7f5d5d","#5f6f81"],"screen_resolution":[1280,800],"minimum_resolution":1,"trial":105,"drifts":[0.349,0.494,0.34,0.27],"drift_ix":2,"trial_type":"two-step-trial","trial_index":143,"time_elapsed":1022186,"internal_node_id":"0.0-119.0-0.0","task_version":"1.0","jspsych_version":"6.3.1","browser_interactions":0,"missing":false},{"state_1_ids":[0,1],"state_1_key":0,"state_1_choice":0,"state_1_rt":541.3000000119209,"transition":1,"state":0,"state_2_ids":[0,1],"state_2_key":1,"state_2_choice":1,"state_2_rt":413,"outcome":0,"rocket_colors":["#48a782","#955db9"],"planet_colors":["#7f5d5d","#5f6f81"],"screen_resolution":[1280,800],"minimum_resolution":1,"trial":106,"drifts":[0.302,0.497,0.307,0.282],"drift_ix":2,"trial_type":"two-step-trial","trial_index":144,"time_elapsed":1025152,"internal_node_id":"0.0-120.0-0.0","task_version":"1.0","jspsych_version":"6.3.1","browser_interactions":0,"missing":false},{"state_1_ids":[0,1],"state_1_key":0,"state_1_choice":0,"state_1_rt":622.9000000059605,"transition":1,"state":0,"state_2_ids":[0,1],"state_2_key":1,"state_2_choice":1,"state_2_rt":390.40000000596046,"outcome":1,"rocket_colors":["#48a782","#955db9"],"planet_colors":["#7f5d5d","#5f6f81"],"screen_resolution":[1280,800],"minimum_resolution":1,"trial":107,"drifts":[0.336,0.523,0.294,0.315],"drift_ix":2,"trial_type":"two-step-trial","trial_index":145,"time_elapsed":1028177,"internal_node_id":"0.0-121.0-0.0","task_version":"1.0","jspsych_version":"6.3.1","browser_interactions":0,"missing":false},{"state_1_ids":[0,1],"state_1_key":0,"state_1_choice":0,"state_1_rt":582.5,"transition":1,"state":0,"state_2_ids":[0,1],"state_2_key":1,"state_2_choice":1,"state_2_rt":396.5,"outcome":0,"rocket_colors":["#48a782","#955db9"],"planet_colors":["#7f5d5d","#5f6f81"],"screen_resolution":[1280,800],"minimum_resolution":1,"trial":108,"drifts":[0.381,0.482,0.317,0.324],"drift_ix":2,"trial_type":"two-step-trial","trial_index":146,"time_elapsed":1031166,"internal_node_id":"0.0-122.0-0.0","task_version":"1.0","jspsych_version":"6.3.1","browser_interactions":0,"missing":false},{"state_1_ids":[0,1],"state_1_key":0,"state_1_choice":0,"state_1_rt":544.8000000119209,"transition":0,"state":1,"state_2_ids":[2,3],"state_2_key":1,"state_2_choice":3,"state_2_rt":2342.0999999940395,"outcome":0,"rocket_colors":["#48a782","#955db9"],"planet_colors":["#7f5d5d","#5f6f81"],"screen_resolution":[1280,800],"minimum_resolution":1,"trial":109,"drifts":[0.342,0.505,0.32,0.33],"drift_ix":2,"trial_type":"two-step-trial","trial_index":147,"time_elapsed":1036065,"internal_node_id":"0.0-123.0-0.0","task_version":"1.0","jspsych_version":"6.3.1","browser_interactions":0,"missing":false},{"state_1_ids":[1,0],"state_1_key":1,"state_1_choice":0,"state_1_rt":390.30000001192093,"transition":1,"state":0,"state_2_ids":[0,1],"state_2_key":1,"state_2_choice":1,"state_2_rt":670.5,"outcome":1,"rocket_colors":["#48a782","#955db9"],"planet_colors":["#7f5d5d","#5f6f81"],"screen_resolution":[1280,800],"minimum_resolution":1,"trial":110,"drifts":[0.337,0.526,0.318,0.349],"drift_ix":2,"trial_type":"two-step-trial","trial_index":148,"time_elapsed":1039136,"internal_node_id":"0.0-124.0-0.0","task_version":"1.0","jspsych_version":"6.3.1","browser_interactions":0,"missing":false},{"state_1_ids":[1,0],"state_1_key":1,"state_1_choice":0,"state_1_rt":470.30000001192093,"transition":1,"state":0,"state_2_ids":[0,1],"state_2_key":1,"state_2_choice":1,"state_2_rt":582.6999999880791,"outcome":0,"rocket_colors":["#48a782","#955db9"],"planet_colors":["#7f5d5d","#5f6f81"],"screen_resolution":[1280,800],"minimum_resolution":1,"trial":111,"drifts":[0.374,0.551,0.269,0.35],"drift_ix":2,"trial_type":"two-step-trial","trial_index":149,"time_elapsed":1042201,"internal_node_id":"0.0-125.0-0.0","task_version":"1.0","jspsych_version":"6.3.1","browser_interactions":0,"missing":false},{"state_1_ids":[1,0],"state_1_key":1,"state_1_choice":0,"state_1_rt":397.40000000596046,"transition":0,"state":1,"state_2_ids":[2,3],"state_2_key":1,"state_2_choice":3,"state_2_rt":2133.9000000059605,"outcome":1,"rocket_colors":["#48a782","#955db9"],"planet_colors":["#7f5d5d","#5f6f81"],"screen_resolution":[1280,800],"minimum_resolution":1,"trial":112,"drifts":[0.355,0.517,0.255,0.331],"drift_ix":2,"trial_type":"two-step-trial","trial_index":150,"time_elapsed":1046740,"internal_node_id":"0.0-126.0-0.0","task_version":"1.0","jspsych_version":"6.3.1","browser_interactions":0,"missing":false},{"state_1_ids":[1,0],"state_1_key":1,"state_1_choice":0,"state_1_rt":497.90000000596046,"transition":1,"state":0,"state_2_ids":[0,1],"state_2_key":1,"state_2_choice":1,"state_2_rt":462.69999998807907,"outcome":1,"rocket_colors":["#48a782","#955db9"],"planet_colors":["#7f5d5d","#5f6f81"],"screen_resolution":[1280,800],"minimum_resolution":1,"trial":113,"drifts":[0.331,0.507,0.283,0.271],"drift_ix":2,"trial_type":"two-step-trial","trial_index":151,"time_elapsed":1049713,"internal_node_id":"0.0-127.0-0.0","task_version":"1.0","jspsych_version":"6.3.1","browser_interactions":0,"missing":false},{"state_1_ids":[1,0],"state_1_key":1,"state_1_choice":0,"state_1_rt":477.80000001192093,"transition":1,"state":0,"state_2_ids":[0,1],"state_2_key":1,"state_2_choice":1,"state_2_rt":622.3999999761581,"outcome":0,"rocket_colors":["#48a782","#955db9"],"planet_colors":["#7f5d5d","#5f6f81"],"screen_resolution":[1280,800],"minimum_resolution":1,"trial":114,"drifts":[0.326,0.467,0.284,0.267],"drift_ix":2,"trial_type":"two-step-trial","trial_index":152,"time_elapsed":1052824,"internal_node_id":"0.0-128.0-0.0","task_version":"1.0","jspsych_version":"6.3.1","browser_interactions":0,"missing":false},{"state_1_ids":[1,0],"state_1_key":1,"state_1_choice":0,"state_1_rt":486,"transition":0,"state":1,"state_2_ids":[2,3],"state_2_key":1,"state_2_choice":3,"state_2_rt":406.39999997615814,"outcome":0,"rocket_colors":["#48a782","#955db9"],"planet_colors":["#7f5d5d","#5f6f81"],"screen_resolution":[1280,800],"minimum_resolution":1,"trial":115,"drifts":[0.313,0.494,0.291,0.251],"drift_ix":2,"trial_type":"two-step-trial","trial_index":153,"time_elapsed":1055726,"internal_node_id":"0.0-129.0-0.0","task_version":"1.0","jspsych_version":"6.3.1","browser_interactions":0,"missing":false},{"state_1_ids":[0,1],"state_1_key":0,"state_1_choice":0,"state_1_rt":565.5999999940395,"transition":1,"state":0,"state_2_ids":[0,1],"state_2_key":1,"state_2_choice":1,"state_2_rt":518.7999999821186,"outcome":1,"rocket_colors":["#48a782","#955db9"],"planet_colors":["#7f5d5d","#5f6f81"],"screen_resolution":[1280,800],"minimum_resolution":1,"trial":116,"drifts":[0.319,0.494,0.296,0.273],"drift_ix":2,"trial_type":"two-step-trial","trial_index":154,"time_elapsed":1058825,"internal_node_id":"0.0-130.0-0.0","task_version":"1.0","jspsych_version":"6.3.1","browser_interactions":0,"missing":false},{"state_1_ids":[0,1],"state_1_key":0,"state_1_choice":0,"state_1_rt":628.2999999821186,"transition":0,"state":1,"state_2_ids":[2,3],"state_2_key":1,"state_2_choice":3,"state_2_rt":1685.1000000238419,"outcome":0,"rocket_colors":["#48a782","#955db9"],"planet_colors":["#7f5d5d","#5f6f81"],"screen_resolution":[1280,800],"minimum_resolution":1,"trial":117,"drifts":[0.297,0.492,0.312,0.277],"drift_ix":2,"trial_type":"two-step-trial","trial_index":155,"time_elapsed":1063151,"internal_node_id":"0.0-131.0-0.0","task_version":"1.0","jspsych_version":"6.3.1","browser_interactions":0,"missing":false},{"state_1_ids":[0,1],"state_1_key":0,"state_1_choice":0,"state_1_rt":856.0999999940395,"transition":0,"state":1,"state_2_ids":[2,3],"state_2_key":1,"state_2_choice":3,"state_2_rt":821.5,"outcome":0,"rocket_colors":["#48a782","#955db9"],"planet_colors":["#7f5d5d","#5f6f81"],"screen_resolution":[1280,800],"minimum_resolution":1,"trial":118,"drifts":[0.288,0.513,0.36,0.275],"drift_ix":2,"trial_type":"two-step-trial","trial_index":156,"time_elapsed":1066837,"internal_node_id":"0.0-132.0-0.0","task_version":"1.0","jspsych_version":"6.3.1","browser_interactions":0,"missing":false},{"state_1_ids":[1,0],"state_1_key":1,"state_1_choice":0,"state_1_rt":585,"transition":1,"state":0,"state_2_ids":[0,1],"state_2_key":1,"state_2_choice":1,"state_2_rt":429.19999998807907,"outcome":0,"rocket_colors":["#48a782","#955db9"],"planet_colors":["#7f5d5d","#5f6f81"],"screen_resolution":[1280,800],"minimum_resolution":1,"trial":119,"drifts":[0.304,0.552,0.392,0.266],"drift_ix":2,"trial_type":"two-step-trial","trial_index":157,"time_elapsed":1069861,"internal_node_id":"0.0-133.0-0.0","task_version":"1.0","jspsych_version":"6.3.1","browser_interactions":0,"missing":false},{"state_1_ids":[1,0],"state_1_key":1,"state_1_choice":0,"state_1_rt":560.4000000059605,"transition":1,"state":0,"state_2_ids":[0,1],"state_2_key":1,"state_2_choice":1,"state_2_rt":527,"outcome":0,"rocket_colors":["#48a782","#955db9"],"planet_colors":["#7f5d5d","#5f6f81"],"screen_resolution":[1280,800],"minimum_resolution":1,"trial":120,"drifts":[0.295,0.538,0.367,0.253],"drift_ix":2,"trial_type":"two-step-trial","trial_index":158,"time_elapsed":1072961,"internal_node_id":"0.0-134.0-0.0","task_version":"1.0","jspsych_version":"6.3.1","browser_interactions":0,"missing":false},{"state_1_ids":[0,1],"state_1_key":1,"state_1_choice":1,"state_1_rt":429.2000000178814,"transition":1,"state":1,"state_2_ids":[2,3],"state_2_key":1,"state_2_choice":3,"state_2_rt":703.2000000178814,"outcome":1,"rocket_colors":["#48a782","#955db9"],"planet_colors":["#7f5d5d","#5f6f81"],"screen_resolution":[1280,800],"minimum_resolution":1,"trial":121,"drifts":[0.268,0.49,0.389,0.267],"drift_ix":2,"trial_type":"two-step-trial","trial_index":159,"time_elapsed":1076101,"internal_node_id":"0.0-135.0-0.0","task_version":"1.0","jspsych_version":"6.3.1","browser_interactions":0,"missing":false},{"state_1_ids":[1,0],"state_1_key":0,"state_1_choice":1,"state_1_rt":601.0999999940395,"transition":1,"state":1,"state_2_ids":[2,3],"state_2_key":1,"state_2_choice":3,"state_2_rt":429.19999998807907,"outcome":0,"rocket_colors":["#48a782","#955db9"],"planet_colors":["#7f5d5d","#5f6f81"],"screen_resolution":[1280,800],"minimum_resolution":1,"trial":122,"drifts":[0.292,0.548,0.366,0.262],"drift_ix":2,"trial_type":"two-step-trial","trial_index":160,"time_elapsed":1079143,"internal_node_id":"0.0-136.0-0.0","task_version":"1.0","jspsych_version":"6.3.1","browser_interactions":0,"missing":false},{"state_1_ids":[0,1],"state_1_key":1,"state_1_choice":1,"state_1_rt":558.5999999940395,"transition":1,"state":1,"state_2_ids":[2,3],"state_2_key":1,"state_2_choice":3,"state_2_rt":421.30000001192093,"outcome":0,"rocket_colors":["#48a782","#955db9"],"planet_colors":["#7f5d5d","#5f6f81"],"screen_resolution":[1280,800],"minimum_resolution":1,"trial":123,"drifts":[0.287,0.579,0.38,0.276],"drift_ix":2,"trial_type":"two-step-trial","trial_index":161,"time_elapsed":1082132,"internal_node_id":"0.0-137.0-0.0","task_version":"1.0","jspsych_version":"6.3.1","browser_interactions":0,"missing":false},{"state_1_ids":[1,0],"state_1_key":0,"state_1_choice":1,"state_1_rt":457.19999998807907,"transition":1,"state":1,"state_2_ids":[2,3],"state_2_key":1,"state_2_choice":3,"state_2_rt":357.90000000596046,"outcome":0,"rocket_colors":["#48a782","#955db9"],"planet_colors":["#7f5d5d","#5f6f81"],"screen_resolution":[1280,800],"minimum_resolution":1,"trial":124,"drifts":[0.296,0.64,0.405,0.262],"drift_ix":2,"trial_type":"two-step-trial","trial_index":162,"time_elapsed":1084959,"internal_node_id":"0.0-138.0-0.0","task_version":"1.0","jspsych_version":"6.3.1","browser_interactions":0,"missing":false},{"state_1_ids":[0,1],"state_1_key":1,"state_1_choice":1,"state_1_rt":421.69999998807907,"transition":0,"state":0,"state_2_ids":[0,1],"state_2_key":1,"state_2_choice":1,"state_2_rt":678.8999999761581,"outcome":1,"rocket_colors":["#48a782","#955db9"],"planet_colors":["#7f5d5d","#5f6f81"],"screen_resolution":[1280,800],"minimum_resolution":1,"trial":125,"drifts":[0.25,0.637,0.448,0.25],"drift_ix":2,"trial_type":"two-step-trial","trial_index":163,"time_elapsed":1088071,"internal_node_id":"0.0-139.0-0.0","task_version":"1.0","jspsych_version":"6.3.1","browser_interactions":0,"missing":false},{"state_1_ids":[0,1],"state_1_key":1,"state_1_choice":1,"state_1_rt":439,"transition":0,"state":0,"state_2_ids":[0,1],"state_2_key":1,"state_2_choice":1,"state_2_rt":646.4000000059605,"outcome":1,"rocket_colors":["#48a782","#955db9"],"planet_colors":["#7f5d5d","#5f6f81"],"screen_resolution":[1280,800],"minimum_resolution":1,"trial":126,"drifts":[0.255,0.666,0.447,0.257],"drift_ix":2,"trial_type":"two-step-trial","trial_index":164,"time_elapsed":1091165,"internal_node_id":"0.0-140.0-0.0","task_version":"1.0","jspsych_version":"6.3.1","browser_interactions":0,"missing":false},{"state_1_ids":[1,0],"state_1_key":0,"state_1_choice":1,"state_1_rt":608,"transition":1,"state":1,"state_2_ids":[2,3],"state_2_key":0,"state_2_choice":2,"state_2_rt":671.2999999821186,"outcome":0,"rocket_colors":["#48a782","#955db9"],"planet_colors":["#7f5d5d","#5f6f81"],"screen_resolution":[1280,800],"minimum_resolution":1,"trial":127,"drifts":[0.281,0.695,0.433,0.272],"drift_ix":2,"trial_type":"two-step-trial","trial_index":165,"time_elapsed":1094456,"internal_node_id":"0.0-141.0-0.0","task_version":"1.0","jspsych_version":"6.3.1","browser_interactions":0,"missing":false},{"state_1_ids":[1,0],"state_1_key":0,"state_1_choice":1,"state_1_rt":893.2000000178814,"transition":1,"state":1,"state_2_ids":[2,3],"state_2_key":0,"state_2_choice":2,"state_2_rt":405.5,"outcome":1,"rocket_colors":["#48a782","#955db9"],"planet_colors":["#7f5d5d","#5f6f81"],"screen_resolution":[1280,800],"minimum_resolution":1,"trial":128,"drifts":[0.277,0.667,0.42,0.278],"drift_ix":2,"trial_type":"two-step-trial","trial_index":166,"time_elapsed":1097764,"internal_node_id":"0.0-142.0-0.0","task_version":"1.0","jspsych_version":"6.3.1","browser_interactions":0,"missing":false},{"state_1_ids":[1,0],"state_1_key":0,"state_1_choice":1,"state_1_rt":480.2999999821186,"transition":1,"state":1,"state_2_ids":[2,3],"state_2_key":0,"state_2_choice":2,"state_2_rt":453,"outcome":0,"rocket_colors":["#48a782","#955db9"],"planet_colors":["#7f5d5d","#5f6f81"],"screen_resolution":[1280,800],"minimum_resolution":1,"trial":129,"drifts":[0.318,0.661,0.46,0.294],"drift_ix":2,"trial_type":"two-step-trial","trial_index":167,"time_elapsed":1100708,"internal_node_id":"0.0-143.0-0.0","task_version":"1.0","jspsych_version":"6.3.1","browser_interactions":0,"missing":false},{"state_1_ids":[0,1],"state_1_key":1,"state_1_choice":1,"state_1_rt":505.09999999403954,"transition":0,"state":0,"state_2_ids":[0,1],"state_2_key":1,"state_2_choice":1,"state_2_rt":702.8000000119209,"outcome":1,"rocket_colors":["#48a782","#955db9"],"planet_colors":["#7f5d5d","#5f6f81"],"screen_resolution":[1280,800],"minimum_resolution":1,"trial":130,"drifts":[0.306,0.677,0.461,0.259],"drift_ix":2,"trial_type":"two-step-trial","trial_index":168,"time_elapsed":1103924,"internal_node_id":"0.0-144.0-0.0","task_version":"1.0","jspsych_version":"6.3.1","browser_interactions":0,"missing":false},{"state_1_ids":[0,1],"state_1_key":1,"state_1_choice":1,"state_1_rt":929.3000000119209,"transition":1,"state":1,"state_2_ids":[2,3],"state_2_key":0,"state_2_choice":2,"state_2_rt":366.2999999821186,"outcome":0,"rocket_colors":["#48a782","#955db9"],"planet_colors":["#7f5d5d","#5f6f81"],"screen_resolution":[1280,800],"minimum_resolution":1,"trial":131,"drifts":[0.35,0.655,0.474,0.278],"drift_ix":2,"trial_type":"two-step-trial","trial_index":169,"time_elapsed":1107226,"internal_node_id":"0.0-145.0-0.0","task_version":"1.0","jspsych_version":"6.3.1","browser_interactions":0,"missing":false},{"state_1_ids":[0,1],"state_1_key":0,"state_1_choice":0,"state_1_rt":1242.699999988079,"transition":1,"state":0,"state_2_ids":[0,1],"state_2_key":1,"state_2_choice":1,"state_2_rt":790,"outcome":1,"rocket_colors":["#48a782","#955db9"],"planet_colors":["#7f5d5d","#5f6f81"],"screen_resolution":[1280,800],"minimum_resolution":1,"trial":132,"drifts":[0.352,0.663,0.445,0.297],"drift_ix":2,"trial_type":"two-step-trial","trial_index":170,"time_elapsed":1111267,"internal_node_id":"0.0-146.0-0.0","task_version":"1.0","jspsych_version":"6.3.1","browser_interactions":0,"missing":false},{"state_1_ids":[0,1],"state_1_key":0,"state_1_choice":0,"state_1_rt":538.1999999880791,"transition":0,"state":1,"state_2_ids":[2,3],"state_2_key":0,"state_2_choice":2,"state_2_rt":894.3000000119209,"outcome":1,"rocket_colors":["#48a782","#955db9"],"planet_colors":["#7f5d5d","#5f6f81"],"screen_resolution":[1280,800],"minimum_resolution":1,"trial":133,"drifts":[0.374,0.662,0.412,0.314],"drift_ix":2,"trial_type":"two-step-trial","trial_index":171,"time_elapsed":1114709,"internal_node_id":"0.0-147.0-0.0","task_version":"1.0","jspsych_version":"6.3.1","browser_interactions":0,"missing":false},{"state_1_ids":[0,1],"state_1_key":0,"state_1_choice":0,"state_1_rt":503.40000000596046,"transition":0,"state":1,"state_2_ids":[2,3],"state_2_key":0,"state_2_choice":2,"state_2_rt":671.5,"outcome":0,"rocket_colors":["#48a782","#955db9"],"planet_colors":["#7f5d5d","#5f6f81"],"screen_resolution":[1280,800],"minimum_resolution":1,"trial":134,"drifts":[0.405,0.666,0.424,0.315],"drift_ix":2,"trial_type":"two-step-trial","trial_index":172,"time_elapsed":1117896,"internal_node_id":"0.0-148.0-0.0","task_version":"1.0","jspsych_version":"6.3.1","browser_interactions":0,"missing":false},{"state_1_ids":[0,1],"state_1_key":0,"state_1_choice":0,"state_1_rt":412.5,"transition":1,"state":0,"state_2_ids":[0,1],"state_2_key":1,"state_2_choice":1,"state_2_rt":382.39999997615814,"outcome":1,"rocket_colors":["#48a782","#955db9"],"planet_colors":["#7f5d5d","#5f6f81"],"screen_resolution":[1280,800],"minimum_resolution":1,"trial":135,"drifts":[0.43,0.696,0.452,0.345],"drift_ix":2,"trial_type":"two-step-trial","trial_index":173,"time_elapsed":1120699,"internal_node_id":"0.0-149.0-0.0","task_version":"1.0","jspsych_version":"6.3.1","browser_interactions":0,"missing":false},{"state_1_ids":[1,0],"state_1_key":1,"state_1_choice":0,"state_1_rt":649.1000000238419,"transition":1,"state":0,"state_2_ids":[0,1],"state_2_key":1,"state_2_choice":1,"state_2_rt":478.7000000178814,"outcome":1,"rocket_colors":["#48a782","#955db9"],"planet_colors":["#7f5d5d","#5f6f81"],"screen_resolution":[1280,800],"minimum_resolution":1,"trial":136,"drifts":[0.426,0.681,0.444,0.337],"drift_ix":2,"trial_type":"two-step-trial","trial_index":174,"time_elapsed":1123834,"internal_node_id":"0.0-150.0-0.0","task_version":"1.0","jspsych_version":"6.3.1","browser_interactions":0,"missing":false},{"state_1_ids":[1,0],"state_1_key":1,"state_1_choice":0,"state_1_rt":409.5,"transition":1,"state":0,"state_2_ids":[0,1],"state_2_key":1,"state_2_choice":1,"state_2_rt":548.5,"outcome":1,"rocket_colors":["#48a782","#955db9"],"planet_colors":["#7f5d5d","#5f6f81"],"screen_resolution":[1280,800],"minimum_resolution":1,"trial":137,"drifts":[0.411,0.674,0.45,0.299],"drift_ix":2,"trial_type":"two-step-trial","trial_index":175,"time_elapsed":1126800,"internal_node_id":"0.0-151.0-0.0","task_version":"1.0","jspsych_version":"6.3.1","browser_interactions":0,"missing":false},{"state_1_ids":[1,0],"state_1_key":1,"state_1_choice":0,"state_1_rt":571.7999999821186,"transition":1,"state":0,"state_2_ids":[0,1],"state_2_key":1,"state_2_choice":1,"state_2_rt":468.19999998807907,"outcome":1,"rocket_colors":["#48a782","#955db9"],"planet_colors":["#7f5d5d","#5f6f81"],"screen_resolution":[1280,800],"minimum_resolution":1,"trial":138,"drifts":[0.414,0.699,0.459,0.339],"drift_ix":2,"trial_type":"two-step-trial","trial_index":176,"time_elapsed":1129854,"internal_node_id":"0.0-152.0-0.0","task_version":"1.0","jspsych_version":"6.3.1","browser_interactions":0,"missing":false},{"state_1_ids":[0,1],"state_1_key":0,"state_1_choice":0,"state_1_rt":534.0999999940395,"transition":1,"state":0,"state_2_ids":[0,1],"state_2_key":1,"state_2_choice":1,"state_2_rt":605.3000000119209,"outcome":1,"rocket_colors":["#48a782","#955db9"],"planet_colors":["#7f5d5d","#5f6f81"],"screen_resolution":[1280,800],"minimum_resolution":1,"trial":139,"drifts":[0.394,0.734,0.462,0.307],"drift_ix":2,"trial_type":"two-step-trial","trial_index":177,"time_elapsed":1133006,"internal_node_id":"0.0-153.0-0.0","task_version":"1.0","jspsych_version":"6.3.1","browser_interactions":0,"missing":false},{"state_1_ids":[0,1],"state_1_key":0,"state_1_choice":0,"state_1_rt":510.59999999403954,"transition":0,"state":1,"state_2_ids":[2,3],"state_2_key":0,"state_2_choice":2,"state_2_rt":766.4000000059605,"outcome":1,"rocket_colors":["#48a782","#955db9"],"planet_colors":["#7f5d5d","#5f6f81"],"screen_resolution":[1280,800],"minimum_resolution":1,"trial":140,"drifts":[0.361,0.693,0.467,0.292],"drift_ix":2,"trial_type":"two-step-trial","trial_index":178,"time_elapsed":1136293,"internal_node_id":"0.0-154.0-0.0","task_version":"1.0","jspsych_version":"6.3.1","browser_interactions":0,"missing":false},{"state_1_ids":[0,1],"state_1_key":0,"state_1_choice":0,"state_1_rt":494.80000001192093,"transition":1,"state":0,"state_2_ids":[0,1],"state_2_key":1,"state_2_choice":1,"state_2_rt":548,"outcome":1,"rocket_colors":["#48a782","#955db9"],"planet_colors":["#7f5d5d","#5f6f81"],"screen_resolution":[1280,800],"minimum_resolution":1,"trial":141,"drifts":[0.354,0.722,0.46,0.26],"drift_ix":2,"trial_type":"two-step-trial","trial_index":179,"time_elapsed":1139350,"internal_node_id":"0.0-155.0-0.0","task_version":"1.0","jspsych_version":"6.3.1","browser_interactions":0,"missing":false},{"state_1_ids":[1,0],"state_1_key":1,"state_1_choice":0,"state_1_rt":925.5,"transition":1,"state":0,"state_2_ids":[0,1],"state_2_key":1,"state_2_choice":1,"state_2_rt":437.09999999403954,"outcome":1,"rocket_colors":["#48a782","#955db9"],"planet_colors":["#7f5d5d","#5f6f81"],"screen_resolution":[1280,800],"minimum_resolution":1,"trial":142,"drifts":[0.353,0.749,0.428,0.301],"drift_ix":2,"trial_type":"two-step