[{"success":true,"timeout":false,"failed_images":[],"failed_audio":[],"failed_video":[],"trial_type":"preload","trial_index":0,"time_elapsed":264,"internal_node_id":"0.0-0.0","task_version":"1.0","jspsych_version":"6.3.1"},{"success":true,"trial_type":"fullscreen","trial_index":1,"time_elapsed":114427,"internal_node_id":"0.0-1.0","task_version":"1.0","jspsych_version":"6.3.1"},{"view_history":[{"page_index":0,"viewing_time":3698.9000000059605}],"rt":3699.300000011921,"trial_type":"instructions","trial_index":2,"time_elapsed":118128,"internal_node_id":"0.0-2.0","task_version":"1.0","jspsych_version":"6.3.1"},{"responses":{"Q03":"6","Q01":"6","Q04":"6","Q05":"6","Q06":"6","Q07":"3","Q02":"6"},"rt":20422.09999999404,"item_order":[2,0,3,4,5,6,1],"radio_events":[3972,6328.29999999702,7904.29999999702,10768.09999999404,15403.20000000298,17641,19742.20000000298],"key_events":[],"mouse_events":[0.09999999403953552,1859.2000000029802,3443,3972,6328.29999999702,7904.29999999702,9144.20000000298,10125.09999999404,10768.09999999404,13250.20000000298,14032.20000000298,15129.20000000298,15403.20000000298,16891.29999999702,17641,19742.20000000298,20421.29999999702],"straightlining":0.42857142857142855,"zigzagging":0.3333333333333333,"honeypot":0,"survey":"artistic","trial_type":"survey-template","trial_index":3,"time_elapsed":138554,"internal_node_id":"0.0-3.0","task_version":"1.0","jspsych_version":"6.3.1"},{"responses":{"Q07":"2","Q05":"2","Q06":"2","Q04":"2","Q02":"2","Q01":"2","Q08":"0","Q03":"2"},"rt":29589.59999999404,"item_order":[6,4,5,3,1,0,7,2],"radio_events":[12403.09999999404,20100.29999999702,20851.29999999702,21500.09999999404,23209.20000000298,24082.09999999404,27571.20000000298,29084.09999999404],"key_events":[],"mouse_events":[10682.09999999404,11795.09999999404,12111.09999999404,12403.09999999404,19646.20000000298,20100.29999999702,20851.29999999702,21500.09999999404,22601.29999999702,23209.20000000298,24082.09999999404,26251.20000000298,26822.20000000298,27219,27571.20000000298,28252,29084.09999999404,29589.20000000298],"straightlining":0.875,"zigzagging":0,"honeypot":0,"survey":"anxiety","trial_type":"survey-template","trial_index":4,"time_elapsed":168145,"internal_node_id":"0.0-4.0","task_version":"1.0","jspsych_version":"6.3.1"},{"responses":{"Q07":"0","Q05":"1","Q01":"0","Q04":"1","Q06":"1","Q08":"0","Q03":"1","Q02":"1"},"rt":75705.70000000298,"item_order":[6,4,0,3,5,7,2,1],"radio_events":[35158.20000000298,41257.09999999404,42380,54070,60704,62733.09999999404,66565.20000000298,69883,72496.89999999106,75020],"key_events":[],"mouse_events":[34338,34769,35158.20000000298,41257.09999999404,41710.89999999106,41993.89999999106,42380,53352,53854.79999999702,54070,58048.20000000298,59032.09999999404,59999,60704,61541,62457.89999999106,62733.09999999404,66565.20000000298,69556.09999999404,69883,72145,72496.89999999106,75020,75705.09999999404],"straightlining":0.625,"zigzagging":0.7142857142857143,"honeypot":0,"survey":"depression","trial_type":"survey-template","trial_index":5,"time_elapsed":243852,"internal_node_id":"0.0-5.0","task_version":"1.0","jspsych_version":"6.3.1"},{"responses":{"Q07":"1","Q01":"1","Q03":"1","Q02":"1","Q06":"0","Q08":"3","Q05":"0","Q04":"0"},"rt":84521.70000000298,"item_order":[6,0,2,1,5,7,4,3],"radio_events":[4318.20000000298,4938.29999999702,8723.20000000298,12741.20000000298,13549.20000000298,18094.20000000298,67789.09999999404,72900.29999999702,79883.29999999702,83773.20000000298],"key_events":[],"mouse_events":[4318.20000000298,4938.29999999702,7465.29999999702,7781.20000000298,8101.20000000298,8398.20000000298,8723.20000000298,12741.20000000298,13337.29999999702,13549.20000000298,15870.29999999702,16015.20000000298,17437.09999999404,18094.20000000298,30434.29999999702,30574.20000000298,31124.09999999404,31273.09999999404,31745.09999999404,31889.20000000298,32631.09999999404,32789.20000000298,33284.40000000596,33434.29999999702,65840.20000000298,67789.09999999404,71786.29999999702,72467.20000000298,72900.29999999702,77758.29999999702,79478.29999999702,79883.29999999702,83318.29999999702,83773.20000000298,84521.20000000298],"straightlining":0.5,"zigzagging":0.42857142857142855,"honeypot":0,"survey":"mania","trial_type":"survey-template","trial_index":6,"time_elapsed":328376,"internal_node_id":"0.0-6.0","task_version":"1.0","jspsych_version":"6.3.1"},{"responses":{"Q06":"1","Q03":"1","Q04":"3","Q05":"3","Q01":"1","Q02":"0","Q07":"6"},"rt":30305.5,"item_order":[5,2,3,4,0,1,6],"radio_events":[3359.7999999970198,5821.899999991059,8615.89999999106,9474.79999999702,10397.89999999106,18551.79999999702,19454,21179.69999998808,22240.89999999106,26822.89999999106,29192.69999998808,29895.79999999702],"key_events":[],"mouse_events":[3359.7999999970198,4734.0999999940395,5567.0999999940395,5821.899999991059,8615.89999999106,9000.89999999106,9474.79999999702,10397.89999999106,18551.79999999702,19454,20517.69999998808,21179.69999998808,22240.89999999106,26822.89999999106,28261.79999999702,28529.79999999702,29192.69999998808,29895.79999999702,30304.89999999106],"straightlining":0.42857142857142855,"zigzagging":0.3333333333333333,"honeypot":0,"survey":"greed","trial_type":"survey-template","trial_index":7,"time_elapsed":358683,"internal_node_id":"0.0-7.0","task_version":"1.0","jspsych_version":"6.3.1"},{"view_history":"[{\"page_index\":0,\"viewing_time\":4428.70000000298},{\"page_index\":1,\"viewing_time\":2861},{\"page_index\":2,\"viewing_time\":4404.9000000059605},{\"page_index\":3,\"viewing_time\":43412.09999999404},{\"page_index\":4,\"viewing_time\":12509.90000000596},{\"page_index\":5,\"viewing_time\":3849.0999999940395},{\"page_index\":6,\"viewing_time\":3511.1000000089407},{\"page_index\":7,\"viewing_time\":4873.79999999702},{\"page_index\":8,\"viewing_time\":4923.0999999940395},{\"page_index\":9,\"viewing_time\":12445.90000000596},{\"page_index\":10,\"viewing_time\":5512.0999999940395}]","rt":102732.30000001192,"trial_type":"two-step-instructions","trial_index":8,"time_elapsed":461419,"internal_node_id":"0.0-8.0-1.0","task_version":"1.0","jspsych_version":"6.3.1"},{"responses":["left/right arrow keys","True","True"],"num_errors":0,"rt":11258.40000000596,"quiz":1,"trial_type":"two-step-comprehension","trial_index":9,"time_elapsed":472679,"internal_node_id":"0.0-8.0-2.0","task_version":"1.0","jspsych_version":"6.3.1"},{"view_history":"[{\"page_index\":0,\"viewing_time\":20263.89999999106}]","rt":20264.19999998808,"phase":"instructions_1b","trial_type":"two-step-instructions","trial_index":10,"time_elapsed":492945,"internal_node_id":"0.0-9.0-0.0-0.0","task_version":"1.0","jspsych_version":"6.3.1"},{"state_2_ids":[0,1],"state_2_key":0,"state_2_choice":0,"state_2_rt":987.6000000089407,"outcome":0,"screen_resolution":[1920,1080],"minimum_resolution":1,"trial_type":"alien-practice","trial_index":11,"time_elapsed":496137,"internal_node_id":"0.0-9.0-1.0-0.0","task_version":"1.0","jspsych_version":"6.3.1"},{"state_2_ids":[0,1],"state_2_key":1,"state_2_choice":1,"state_2_rt":1255.5,"outcome":0,"screen_resolution":[1920,1080],"minimum_resolution":1,"trial_type":"alien-practice","trial_index":12,"time_elapsed":499595,"internal_node_id":"0.0-9.0-2.0-0.0","task_version":"1.0","jspsych_version":"6.3.1"},{"state_2_ids":[0,1],"state_2_key":1,"state_2_choice":1,"state_2_rt":336.29999999701977,"outcome":1,"screen_resolution":[1920,1080],"minimum_resolution":1,"trial_type":"alien-practice","trial_index":13,"time_elapsed":502134,"internal_node_id":"0.0-9.0-3.0-0.0","task_version":"1.0","jspsych_version":"6.3.1"},{"state_2_ids":[0,1],"state_2_key":1,"state_2_choice":1,"state_2_rt":297.79999999701977,"outcome":1,"screen_resolution":[1920,1080],"minimum_resolution":1,"trial_type":"alien-practice","trial_index":14,"time_elapsed":504634,"internal_node_id":"0.0-9.0-4.0-0.0","task_version":"1.0","jspsych_version":"6.3.1"},{"state_2_ids":[0,1],"state_2_key":1,"state_2_choice":1,"state_2_rt":346.1000000089407,"outcome":1,"screen_resolution":[1920,1080],"minimum_resolution":1,"trial_type":"alien-practice","trial_index":15,"time_elapsed":507182,"internal_node_id":"0.0-9.0-5.0-0.0","task_version":"1.0","jspsych_version":"6.3.1"},{"view_history":"[{\"page_index\":0,\"viewing_time\":3219.3999999910593},{\"page_index\":1,\"viewing_time\":1633},{\"page_index\":2,\"viewing_time\":5314.9000000059605},{\"page_index\":3,\"viewing_time\":12293.09999999404},{\"page_index\":4,\"viewing_time\":5005},{\"page_index\":5,\"viewing_time\":1542}]","rt":29007.59999999404,"trial_type":"two-step-instructions","trial_index":16,"time_elapsed":536193,"internal_node_id":"0.0-10.0-1.0","task_version":"1.0","jspsych_version":"6.3.1"},{"responses":["left/right arrow keys","False","True"],"num_errors":0,"rt":8317.70000000298,"quiz":2,"trial_type":"two-step-comprehension","trial_index":17,"time_elapsed":544512,"internal_node_id":"0.0-10.0-2.0","task_version":"1.0","jspsych_version":"6.3.1"},{"view_history":"[{\"page_index\":0,\"viewing_time\":1990.2999999970198},{\"page_index\":1,\"viewing_time\":4560},{\"page_index\":2,\"viewing_time\":9246}]","rt":15796.59999999404,"trial_type":"two-step-instructions","trial_index":18,"time_elapsed":560310,"internal_node_id":"0.0-11.0-0.0","task_version":"1.0","jspsych_version":"6.3.1"},{"state_1_ids":[1,0],"state_1_key":0,"state_1_choice":1,"state_1_rt":2304,"transition":0,"state":0,"state_2_ids":[0,1],"state_2_key":1,"state_2_choice":1,"state_2_rt":2139.1000000089407,"outcome":0,"rocket_colors":["#a75248","#486ea7"],"planet_colors":["#5b7c65","#706081"],"screen_resolution":[1920,1080],"minimum_resolution":1,"trial":0,"trial_type":"two-step-trial","trial_index":19,"time_elapsed":566757,"internal_node_id":"0.0-11.0-1.0-0.0","task_version":"1.0","jspsych_version":"6.3.1","missing":false},{"state_1_ids":[0,1],"state_1_key":1,"state_1_choice":1,"state_1_rt":981.8999999910593,"transition":0,"state":0,"state_2_ids":[0,1],"state_2_key":1,"state_2_choice":1,"state_2_rt":554.2999999970198,"outcome":0,"rocket_colors":["#a75248","#486ea7"],"planet_colors":["#5b7c65","#706081"],"screen_resolution":[1920,1080],"minimum_resolution":1,"trial":0,"trial_type":"two-step-trial","trial_index":20,"time_elapsed":570296,"internal_node_id":"0.0-11.0-1.0-0.1","task_version":"1.0","jspsych_version":"6.3.1","missing":false},{"state_1_ids":[0,1],"state_1_key":1,"state_1_choice":1,"state_1_rt":1058.0999999940395,"transition":1,"state":1,"state_2_ids":[2,3],"state_2_key":1,"state_2_choice":3,"state_2_rt":360.70000000298023,"outcome":1,"rocket_colors":["#a75248","#486ea7"],"planet_colors":["#5b7c65","#706081"],"screen_resolution":[1920,1080],"minimum_resolution":1,"trial":0,"trial_type":"two-step-trial","trial_index":21,"time_elapsed":573717,"internal_node_id":"0.0-11.0-1.0-0.2","task_version":"1.0","jspsych_version":"6.3.1","missing":false},{"state_1_ids":[0,1],"state_1_key":1,"state_1_choice":1,"state_1_rt":884.6000000089407,"transition":1,"state":1,"state_2_ids":[2,3],"state_2_key":1,"state_2_choice":3,"state_2_rt":837,"outcome":1,"rocket_colors":["#a75248","#486ea7"],"planet_colors":["#5b7c65","#706081"],"screen_resolution":[1920,1080],"minimum_resolution":1,"trial":0,"trial_type":"two-step-trial","trial_index":22,"time_elapsed":577442,"internal_node_id":"0.0-11.0-1.0-0.3","task_version":"1.0","jspsych_version":"6.3.1","missing":false},{"state_1_ids":[1,0],"state_1_key":0,"state_1_choice":1,"state_1_rt":448,"transition":1,"state":1,"state_2_ids":[2,3],"state_2_key":1,"state_2_choice":3,"state_2_rt":723.1000000089407,"outcome":1,"rocket_colors":["#a75248","#486ea7"],"planet_colors":["#5b7c65","#706081"],"screen_resolution":[1920,1080],"minimum_resolution":1,"trial":0,"trial_type":"two-step-trial","trial_index":23,"time_elapsed":580616,"internal_node_id":"0.0-11.0-1.0-0.4","task_version":"1.0","jspsych_version":"6.3.1","missing":false},{"state_1_ids":[0,1],"state_1_key":0,"state_1_choice":0,"state_1_rt":450.1000000089407,"transition":1,"state":0,"state_2_ids":[0,1],"state_2_key":0,"state_2_choice":0,"state_2_rt":887.1000000089407,"outcome":1,"rocket_colors":["#a75248","#486ea7"],"planet_colors":["#5b7c65","#706081"],"screen_resolution":[1920,1080],"minimum_resolution":1,"trial":0,"trial_type":"two-step-trial","trial_index":24,"time_elapsed":583956,"internal_node_id":"0.0-11.0-1.0-0.5","task_version":"1.0","jspsych_version":"6.3.1","missing":false},{"state_1_ids":[0,1],"state_1_key":1,"state_1_choice":1,"state_1_rt":460.29999999701977,"transition":1,"state":1,"state_2_ids":[2,3],"state_2_key":1,"state_2_choice":3,"state_2_rt":405,"outcome":0,"rocket_colors":["#a75248","#486ea7"],"planet_colors":["#5b7c65","#706081"],"screen_resolution":[1920,1080],"minimum_resolution":1,"trial":0,"trial_type":"two-step-trial","trial_index":25,"time_elapsed":586824,"internal_node_id":"0.0-11.0-1.0-0.6","task_version":"1.0","jspsych_version":"6.3.1","missing":false},{"state_1_ids":[1,0],"state_1_key":0,"state_1_choice":1,"state_1_rt":456.40000000596046,"transition":1,"state":1,"state_2_ids":[2,3],"state_2_key":1,"state_2_choice":3,"state_2_rt":435.59999999403954,"outcome":1,"rocket_colors":["#a75248","#486ea7"],"planet_colors":["#5b7c65","#706081"],"screen_resolution":[1920,1080],"minimum_resolution":1,"trial":0,"trial_type":"two-step-trial","trial_index":26,"time_elapsed":589718,"internal_node_id":"0.0-11.0-1.0-0.7","task_version":"1.0","jspsych_version":"6.3.1","missing":false},{"state_1_ids":[0,1],"state_1_key":0,"state_1_choice":0,"state_1_rt":349.90000000596046,"transition":1,"state":0,"state_2_ids":[0,1],"state_2_key":0,"state_2_choice":0,"state_2_rt":717.1000000089407,"outcome":1,"rocket_colors":["#a75248","#486ea7"],"planet_colors":["#5b7c65","#706081"],"screen_resolution":[1920,1080],"minimum_resolution":1,"trial":0,"trial_type":"two-step-trial","trial_index":27,"time_elapsed":592788,"internal_node_id":"0.0-11.0-1.0-0.8","task_version":"1.0","jspsych_version":"6.3.1","missing":false},{"state_1_ids":[1,0],"state_1_key":1,"state_1_choice":0,"state_1_rt":367.90000000596046,"transition":1,"state":0,"state_2_ids":[0,1],"state_2_key":1,"state_2_choice":1,"state_2_rt":702.5,"outcome":0,"rocket_colors":["#a75248","#486ea7"],"planet_colors":["#5b7c65","#706081"],"screen_resolution":[1920,1080],"minimum_resolution":1,"trial":0,"trial_type":"two-step-trial","trial_index":28,"time_elapsed":595862,"internal_node_id":"0.0-11.0-1.0-0.9","task_version":"1.0","jspsych_version":"6.3.1","missing":false},{"view_history":"[{\"page_index\":0,\"viewing_time\":2996},{\"page_index\":1,\"viewing_time\":5216.0999999940395},{\"page_index\":2,\"viewing_time\":2838},{\"page_index\":3,\"viewing_time\":45838.90000000596},{\"page_index\":4,\"viewing_time\":25463.09999999404},{\"page_index\":5,\"viewing_time\":15438},{\"page_index\":6,\"viewing_time\":7580}]","rt":105370.39999999106,"trial_type":"two-step-instructions","trial_index":29,"time_elapsed":701234,"internal_node_id":"0.0-12.0-1.0","task_version":"1.0","jspsych_version":"6.3.1"},{"responses":["True","False","True"],"num_errors":0,"rt":11134.90000000596,"quiz":3,"trial_type":"two-step-comprehension","trial_index":30,"time_elapsed":712371,"internal_node_id":"0.0-12.0-2.0","task_version":"1.0","jspsych_version":"6.3.1"},{"view_history":"[{\"page_index\":0,\"viewing_time\":1177.2000000029802},{\"page_index\":1,\"viewing_time\":32709},{\"page_index\":2,\"viewing_time\":28311.09999999404}]","rt":62197.59999999404,"trial_type":"two-step-instructions","trial_index":31,"time_elapsed":774571,"internal_node_id":"0.0-13.0","task_version":"1.0","jspsych_version":"6.3.1"},{"state_1_ids":[1,0],"state_1_key":0,"state_1_choice":1,"state_1_rt":1831.2000000029802,"transition":1,"state":1,"state_2_ids":[2,3],"state_2_key":0,"state_2_choice":2,"state_2_rt":1060,"outcome":0,"rocket_colors":["#48a782","#955db9"],"planet_colors":["#7f5d5d","#5f6f81"],"screen_resolution":[1920,1080],"minimum_resolution":1,"trial":1,"drifts":[0.305,0.438,0.598,0.713],"drift_ix":3,"trial_type":"two-step-trial","trial_index":32,"time_elapsed":779466,"internal_node_id":"0.0-14.0-0.0","task_version":"1.0","jspsych_version":"6.3.1","browser_interactions":0,"missing":false},{"state_1_ids":[0,1],"state_1_key":1,"state_1_choice":1,"state_1_rt":986,"transition":1,"state":1,"state_2_ids":[2,3],"state_2_key":0,"state_2_choice":2,"state_2_rt":853.2000000029802,"outcome":0,"rocket_colors":["#48a782","#955db9"],"planet_colors":["#7f5d5d","#5f6f81"],"screen_resolution":[1920,1080],"minimum_resolution":1,"trial":2,"drifts":[0.326,0.396,0.598,0.702],"drift_ix":3,"trial_type":"two-step-trial","trial_index":33,"time_elapsed":783308,"internal_node_id":"0.0-15.0-0.0","task_version":"1.0","jspsych_version":"6.3.1","browser_interactions":0,"missing":false},{"state_1_ids":[1,0],"state_1_key":0,"state_1_choice":1,"state_1_rt":414.40000000596046,"transition":0,"state":0,"state_2_ids":[0,1],"state_2_key":1,"state_2_choice":1,"state_2_rt":995.4000000059605,"outcome":0,"rocket_colors":["#48a782","#955db9"],"planet_colors":["#7f5d5d","#5f6f81"],"screen_resolution":[1920,1080],"minimum_resolution":1,"trial":3,"drifts":[0.302,0.426,0.576,0.736],"drift_ix":3,"trial_type":"two-step-trial","trial_index":34,"time_elapsed":786720,"internal_node_id":"0.0-16.0-0.0","task_version":"1.0","jspsych_version":"6.3.1","browser_interactions":0,"missing":false},{"state_1_ids":[0,1],"state_1_key":1,"state_1_choice":1,"state_1_rt":658.0999999940395,"transition":1,"state":1,"state_2_ids":[2,3],"state_2_key":1,"state_2_choice":3,"state_2_rt":1397.4000000059605,"outcome":1,"rocket_colors":["#48a782","#955db9"],"planet_colors":["#7f5d5d","#5f6f81"],"screen_resolution":[1920,1080],"minimum_resolution":1,"trial":4,"drifts":[0.362,0.43,0.582,0.702],"drift_ix":3,"trial_type":"two-step-trial","trial_index":35,"time_elapsed":790778,"internal_node_id":"0.0-17.0-0.0","task_version":"1.0","jspsych_version":"6.3.1","browser_interactions":0,"missing":false},{"state_1_ids":[1,0],"state_1_key":0,"state_1_choice":1,"state_1_rt":468.09999999403954,"transition":1,"state":1,"state_2_ids":[2,3],"state_2_key":1,"state_2_choice":3,"state_2_rt":632.7000000029802,"outcome":1,"rocket_colors":["#48a782","#955db9"],"planet_colors":["#7f5d5d","#5f6f81"],"screen_resolution":[1920,1080],"minimum_resolution":1,"trial":5,"drifts":[0.368,0.485,0.615,0.711],"drift_ix":3,"trial_type":"two-step-trial","trial_index":36,"time_elapsed":793882,"internal_node_id":"0.0-18.0-0.0","task_version":"1.0","jspsych_version":"6.3.1","browser_interactions":0,"missing":false},{"state_1_ids":[1,0],"state_1_key":0,"state_1_choice":1,"state_1_rt":508,"transition":1,"state":1,"state_2_ids":[2,3],"state_2_key":1,"state_2_choice":3,"state_2_rt":533.7000000029802,"outcome":0,"rocket_colors":["#48a782","#955db9"],"planet_colors":["#7f5d5d","#5f6f81"],"screen_resolution":[1920,1080],"minimum_resolution":1,"trial":6,"drifts":[0.404,0.486,0.616,0.744],"drift_ix":3,"trial_type":"two-step-trial","trial_index":37,"time_elapsed":796926,"internal_node_id":"0.0-19.0-0.0","task_version":"1.0","jspsych_version":"6.3.1","browser_interactions":0,"missing":false},{"state_1_ids":[1,0],"state_1_key":0,"state_1_choice":1,"state_1_rt":248.29999999701977,"transition":0,"state":0,"state_2_ids":[0,1],"state_2_key":0,"state_2_choice":0,"state_2_rt":967.2999999970198,"outcome":1,"rocket_colors":["#48a782","#955db9"],"planet_colors":["#7f5d5d","#5f6f81"],"screen_resolution":[1920,1080],"minimum_resolution":1,"trial":7,"drifts":[0.387,0.453,0.558,0.725],"drift_ix":3,"trial_type":"two-step-trial","trial_index":38,"time_elapsed":800145,"internal_node_id":"0.0-20.0-0.0","task_version":"1.0","jspsych_version":"6.3.1","browser_interactions":0,"missing":false},{"state_1_ids":[0,1],"state_1_key":1,"state_1_choice":1,"state_1_rt":269.5,"transition":1,"state":1,"state_2_ids":[2,3],"state_2_key":1,"state_2_choice":3,"state_2_rt":577.5,"outcome":0,"rocket_colors":["#48a782","#955db9"],"planet_colors":["#7f5d5d","#5f6f81"],"screen_resolution":[1920,1080],"minimum_resolution":1,"trial":8,"drifts":[0.438,0.474,0.539,0.737],"drift_ix":3,"trial_type":"two-step-trial","trial_index":39,"time_elapsed":802994,"internal_node_id":"0.0-21.0-0.0","task_version":"1.0","jspsych_version":"6.3.1","browser_interactions":0,"missing":false},{"state_1_ids":[0,1],"state_1_key":0,"state_1_choice":0,"state_1_rt":336,"transition":1,"state":0,"state_2_ids":[0,1],"state_2_key":0,"state_2_choice":0,"state_2_rt":979.2999999970198,"outcome":1,"rocket_colors":["#48a782","#955db9"],"planet_colors":["#7f5d5d","#5f6f81"],"screen_resolution":[1920,1080],"minimum_resolution":1,"trial":9,"drifts":[0.459,0.489,0.53,0.714],"drift_ix":3,"trial_type":"two-step-trial","trial_index":40,"time_elapsed":806312,"internal_node_id":"0.0-22.0-0.0","task_version":"1.0","jspsych_version":"6.3.1","browser_interactions":0,"missing":false},{"state_1_ids":[1,0],"state_1_key":1,"state_1_choice":0,"state_1_rt":264.90000000596046,"transition":1,"state":0,"state_2_ids":[0,1],"state_2_key":0,"state_2_choice":0,"state_2_rt":959.2000000029802,"outcome":1,"rocket_colors":["#48a782","#955db9"],"planet_colors":["#7f5d5d","#5f6f81"],"screen_resolution":[1920,1080],"minimum_resolution":1,"trial":10,"drifts":[0.45,0.506,0.534,0.707],"drift_ix":3,"trial_type":"two-step-trial","trial_index":41,"time_elapsed":809538,"internal_node_id":"0.0-23.0-0.0","task_version":"1.0","jspsych_version":"6.3.1","browser_interactions":0,"missing":false},{"state_1_ids":[0,1],"state_1_key":0,"state_1_choice":0,"state_1_rt":350,"transition":1,"state":0,"state_2_ids":[0,1],"state_2_key":0,"state_2_choice":0,"state_2_rt":856.7999999970198,"outcome":1,"rocket_colors":["#48a782","#955db9"],"planet_colors":["#7f5d5d","#5f6f81"],"screen_resolution":[1920,1080],"minimum_resolution":1,"trial":11,"drifts":[0.425,0.476,0.477,0.71],"drift_ix":3,"trial_type":"two-step-trial","trial_index":42,"time_elapsed":812748,"internal_node_id":"0.0-24.0-0.0","task_version":"1.0","jspsych_version":"6.3.1","browser_interactions":0,"missing":false},{"state_1_ids":[1,0],"state_1_key":1,"state_1_choice":0,"state_1_rt":242,"transition":1,"state":0,"state_2_ids":[0,1],"state_2_key":0,"state_2_choice":0,"state_2_rt":655.7000000029802,"outcome":0,"rocket_colors":["#48a782","#955db9"],"planet_colors":["#7f5d5d","#5f6f81"],"screen_resolution":[1920,1080],"minimum_resolution":1,"trial":12,"drifts":[0.397,0.483,0.492,0.681],"drift_ix":3,"trial_type":"two-step-trial","trial_index":43,"time_elapsed":815648,"internal_node_id":"0.0-25.0-0.0","task_version":"1.0","jspsych_version":"6.3.1","browser_interactions":0,"missing":false},{"state_1_ids":[1,0],"state_1_key":0,"state_1_choice":1,"state_1_rt":242.79999999701977,"transition":1,"state":1,"state_2_ids":[2,3],"state_2_key":1,"state_2_choice":3,"state_2_rt":937.7000000029802,"outcome":1,"rocket_colors":["#48a782","#955db9"],"planet_colors":["#7f5d5d","#5f6f81"],"screen_resolution":[1920,1080],"minimum_resolution":1,"trial":13,"drifts":[0.407,0.496,0.476,0.697],"drift_ix":3,"trial_type":"two-step-trial","trial_index":44,"time_elapsed":818830,"internal_node_id":"0.0-26.0-0.0","task_version":"1.0","jspsych_version":"6.3.1","browser_interactions":0,"missing":false},{"state_1_ids":[1,0],"state_1_key":1,"state_1_choice":0,"state_1_rt":466.5,"transition":1,"state":0,"state_2_ids":[0,1],"state_2_key":0,"state_2_choice":0,"state_2_rt":696.7999999970198,"outcome":0,"rocket_colors":["#48a782","#955db9"],"planet_colors":["#7f5d5d","#5f6f81"],"screen_resolution":[1920,1080],"minimum_resolution":1,"trial":14,"drifts":[0.369,0.494,0.493,0.747],"drift_ix":3,"trial_type":"two-step-trial","trial_index":45,"time_elapsed":821996,"internal_node_id":"0.0-27.0-0.0","task_version":"1.0","jspsych_version":"6.3.1","browser_interactions":0,"missing":false},{"state_1_ids":[0,1],"state_1_key":0,"state_1_choice":0,"state_1_rt":364.70000000298023,"transition":1,"state":0,"state_2_ids":[0,1],"state_2_key":0,"state_2_choice":0,"state_2_rt":399.20000000298023,"outcome":0,"rocket_colors":["#48a782","#955db9"],"planet_colors":["#7f5d5d","#5f6f81"],"screen_resolution":[1920,1080],"minimum_resolution":1,"trial":15,"drifts":[0.342,0.537,0.465,0.735],"drift_ix":3,"trial_type":"two-step-trial","trial_index":46,"time_elapsed":824763,"internal_node_id":"0.0-28.0-0.0","task_version":"1.0","jspsych_version":"6.3.1","browser_interactions":0,"missing":false},{"state_1_ids":[1,0],"state_1_key":0,"state_1_choice":1,"state_1_rt":437.3999999910593,"transition":1,"state":1,"state_2_ids":[2,3],"state_2_key":1,"state_2_choice":3,"state_2_rt":991.2000000029802,"outcome":1,"rocket_colors":["#48a782","#955db9"],"planet_colors":["#7f5d5d","#5f6f81"],"screen_resolution":[1920,1080],"minimum_resolution":1,"trial":16,"drifts":[0.313,0.512,0.467,0.743],"drift_ix":3,"trial_type":"two-step-trial","trial_index":47,"time_elapsed":828194,"internal_node_id":"0.0-29.0-0.0","task_version":"1.0","jspsych_version":"6.3.1","browser_interactions":0,"missing":false},{"state_1_ids":[1,0],"state_1_key":0,"state_1_choice":1,"state_1_rt":258.1000000089407,"transition":0,"state":0,"state_2_ids":[0,1],"state_2_key":1,"state_2_choice":1,"state_2_rt":562.8999999910593,"outcome":1,"rocket_colors":["#48a782","#955db9"],"planet_colors":["#7f5d5d","#5f6f81"],"screen_resolution":[1920,1080],"minimum_resolution":1,"trial":17,"drifts":[0.313,0.504,0.486,0.73],"drift_ix":3,"trial_type":"two-step-trial","trial_index":48,"time_elapsed":831018,"internal_node_id":"0.0-30.0-0.0","task_version":"1.0","jspsych_version":"6.3.1","browser_interactions":0,"missing":false},{"state_1_ids":[1,0],"state_1_key":1,"state_1_choice":0,"state_1_rt":356.90000000596046,"transition":0,"state":1,"state_2_ids":[2,3],"state_2_key":1,"state_2_choice":3,"state_2_rt":999.3999999910593,"outcome":0,"rocket_colors":["#48a782","#955db9"],"planet_colors":["#7f5d5d","#5f6f81"],"screen_resolution":[1920,1080],"minimum_resolution":1,"trial":18,"drifts":[0.334,0.526,0.501,0.707],"drift_ix":3,"trial_type":"two-step-trial","trial_index":49,"time_elapsed":834377,"internal_node_id":"0.0-31.0-0.0","task_version":"1.0","jspsych_version":"6.3.1","browser_interactions":0,"missing":false},{"state_1_ids":[0,1],"state_1_key":0,"state_1_choice":0,"state_1_rt":352.20000000298023,"transition":0,"state":1,"state_2_ids":[2,3],"state_2_key":0,"state_2_choice":2,"state_2_rt":555.3999999910593,"outcome":1,"rocket_colors":["#48a782","#955db9"],"planet_colors":["#7f5d5d","#5f6f81"],"screen_resolution":[1920,1080],"minimum_resolution":1,"trial":19,"drifts":[0.312,0.543,0.473,0.695],"drift_ix":3,"trial_type":"two-step-trial","trial_index":50,"time_elapsed":837287,"internal_node_id":"0.0-32.0-0.0","task_version":"1.0","jspsych_version":"6.3.1","browser_interactions":0,"missing":false},{"state_1_ids":[1,0],"state_1_key":0,"state_1_choice":1,"state_1_rt":360.70000000298023,"transition":0,"state":0,"state_2_ids":[0,1],"state_2_key":1,"state_2_choice":1,"state_2_rt":1249.1000000089407,"outcome":0,"rocket_colors":["#48a782","#955db9"],"planet_colors":["#7f5d5d","#5f6f81"],"screen_resolution":[1920,1080],"minimum_resolution":1,"trial":20,"drifts":[0.304,0.536,0.482,0.668],"drift_ix":3,"trial_type":"two-step-trial","trial_index":51,"time_elapsed":840899,"internal_node_id":"0.0-33.0-0.0","task_version":"1.0","jspsych_version":"6.3.1","browser_interactions":0,"missing":false},{"state_1_ids":[0,1],"state_1_key":0,"state_1_choice":0,"state_1_rt":480.09999999403954,"transition":0,"state":1,"state_2_ids":[2,3],"state_2_key":0,"state_2_choice":2,"state_2_rt":864.7999999970198,"outcome":1,"rocket_colors":["#48a782","#955db9"],"planet_colors":["#7f5d5d","#5f6f81"],"screen_resolution":[1920,1080],"minimum_resolution":1,"trial":21,"drifts":[0.309,0.543,0.477,0.682],"drift_ix":3,"trial_type":"two-step-trial","trial_index":52,"time_elapsed":844247,"internal_node_id":"0.0-34.0-0.0","task_version":"1.0","jspsych_version":"6.3.1","browser_interactions":0,"missing":false},{"state_1_ids":[1,0],"state_1_key":1,"state_1_choice":0,"state_1_rt":238.70000000298023,"transition":1,"state":0,"state_2_ids":[0,1],"state_2_key":0,"state_2_choice":0,"state_2_rt":691.5999999940395,"outcome":0,"rocket_colors":["#48a782","#955db9"],"planet_colors":["#7f5d5d","#5f6f81"],"screen_resolution":[1920,1080],"minimum_resolution":1,"trial":22,"drifts":[0.301,0.563,0.45,0.702],"drift_ix":3,"trial_type":"two-step-trial","trial_index":53,"time_elapsed":847179,"internal_node_id":"0.0-35.0-0.0","task_version":"1.0","jspsych_version":"6.3.1","browser_interactions":0,"missing":false},{"state_1_ids":[0,1],"state_1_key":0,"state_1_choice":0,"state_1_rt":276.70000000298023,"transition":0,"state":1,"state_2_ids":[2,3],"state_2_key":0,"state_2_choice":2,"state_2_rt":577,"outcome":0,"rocket_colors":["#48a782","#955db9"],"planet_colors":["#7f5d5d","#5f6f81"],"screen_resolution":[1920,1080],"minimum_resolution":1,"trial":23,"drifts":[0.322,0.569,0.42,0.742],"drift_ix":3,"trial_type":"two-step-trial","trial_index":54,"time_elapsed":850035,"internal_node_id":"0.0-36.0-0.0","task_version":"1.0","jspsych_version":"6.3.1","browser_interactions":0,"missing":false},{"state_1_ids":[0,1],"state_1_key":0,"state_1_choice":0,"state_1_rt":190.80000001192093,"transition":1,"state":0,"state_2_ids":[0,1],"state_2_key":0,"state_2_choice":0,"state_2_rt":703.2000000029802,"outcome":0,"rocket_colors":["#48a782","#955db9"],"planet_colors":["#7f5d5d","#5f6f81"],"screen_resolution":[1920,1080],"minimum_resolution":1,"trial":24,"drifts":[0.298,0.566,0.43,0.74],"drift_ix":3,"trial_type":"two-step-trial","trial_index":55,"time_elapsed":852931,"internal_node_id":"0.0-37.0-0.0","task_version":"1.0","jspsych_version":"6.3.1","browser_interactions":0,"missing":false},{"state_1_ids":[1,0],"state_1_key":0,"state_1_choice":1,"state_1_rt":298.20000000298023,"transition":1,"state":1,"state_2_ids":[2,3],"state_2_key":0,"state_2_choice":2,"state_2_rt":787.5,"outcome":1,"rocket_colors":["#48a782","#955db9"],"planet_colors":["#7f5d5d","#5f6f81"],"screen_resolution":[1920,1080],"minimum_resolution":1,"trial":25,"drifts":[0.293,0.552,0.394,0.669],"drift_ix":3,"trial_type":"two-step-trial","trial_index":56,"time_elapsed":856019,"internal_node_id":"0.0-38.0-0.0","task_version":"1.0","jspsych_version":"6.3.1","browser_interactions":0,"missing":false},{"state_1_ids":[0,1],"state_1_key":1,"state_1_choice":1,"state_1_rt":244,"transition":0,"state":0,"state_2_ids":[0,1],"state_2_key":1,"state_2_choice":1,"state_2_rt":807,"outcome":1,"rocket_colors":["#48a782","#955db9"],"planet_colors":["#7f5d5d","#5f6f81"],"screen_resolution":[1920,1080],"minimum_resolution":1,"trial":26,"drifts":[0.285,0.566,0.393,0.625],"drift_ix":3,"trial_type":"two-step-trial","trial_index":57,"time_elapsed":859073,"internal_node_id":"0.0-39.0-0.0","task_version":"1.0","jspsych_version":"6.3.1","browser_interactions":0,"missing":false},{"state_1_ids":[0,1],"state_1_key":1,"state_1_choice":1,"state_1_rt":258,"transition":0,"state":0,"state_2_ids":[0,1],"state_2_key":1,"state_2_choice":1,"state_2_rt":483.5,"outcome":0,"rocket_colors":["#48a782","#955db9"],"planet_colors":["#7f5d5d","#5f6f81"],"screen_resolution":[1920,1080],"minimum_resolution":1,"trial":27,"drifts":[0.303,0.511,0.422,0.685],"drift_ix":3,"trial_type":"two-step-trial","trial_index":58,"time_elapsed":861817,"internal_node_id":"0.0-40.0-0.0","task_version":"1.0","jspsych_version":"6.3.1","browser_interactions":0,"missing":false},{"state_1_ids":[1,0],"state_1_key":0,"state_1_choice":1,"state_1_rt":158.29999999701977,"transition":0,"state":0,"state_2_ids":[0,1],"state_2_key":1,"state_2_choice":1,"state_2_rt":409,"outcome":1,"rocket_colors":["#48a782","#955db9"],"planet_colors":["#7f5d5d","#5f6f81"],"screen_resolution":[1920,1080],"minimum_resolution":1,"trial":28,"drifts":[0.301,0.517,0.418,0.733],"drift_ix":3,"trial_type":"two-step-trial","trial_index":59,"time_elapsed":864387,"internal_node_id":"0.0-41.0-0.0","task_version":"1.0","jspsych_version":"6.3.1","browser_interactions":0,"missing":false},{"state_1_ids":[0,1],"state_1_key":1,"state_1_choice":1,"state_1_rt":294.5,"transition":1,"state":1,"state_2_ids":[2,3],"state_2_key":0,"state_2_choice":2,"state_2_rt":1023.2000000029802,"outcome":1,"rocket_colors":["#48a782","#955db9"],"planet_colors":["#7f5d5d","#5f6f81"],"screen_resolution":[1920,1080],"minimum_resolution":1,"trial":29,"drifts":[0.345,0.508,0.373,0.733],"drift_ix":3,"trial_type":"two-step-trial","trial_index":60,"time_elapsed":867707,"internal_node_id":"0.0-42.0-0.0","task_version":"1.0","jspsych_version":"6.3.1","browser_interactions":0,"missing":false},{"state_1_ids":[0,1],"state_1_key":0,"state_1_choice":0,"state_1_rt":20.5,"transition":1,"state":0,"state_2_ids":[0,1],"state_2_key":1,"state_2_choice":1,"state_2_rt":427.20000000298023,"outcome":0,"rocket_colors":["#48a782","#955db9"],"planet_colors":["#7f5d5d","#5f6f81"],"screen_resolution":[1920,1080],"minimum_resolution":1,"trial":30,"drifts":[0.33,0.509,0.425,0.737],"drift_ix":3,"trial_type":"two-step-trial","trial_index":61,"time_elapsed":870157,"internal_node_id":"0.0-43.0-0.0","task_version":"1.0","jspsych_version":"6.3.1","browser_interactions":0,"missing":false},{"state_1_ids":[0,1],"state_1_key":0,"state_1_choice":0,"state_1_rt":4.4000000059604645,"transition":0,"state":1,"state_2_ids":[2,3],"state_2_key":0,"state_2_choice":2,"state_2_rt":835.1000000089407,"outcome":0,"rocket_colors":["#48a782","#955db9"],"planet_colors":["#7f5d5d","#5f6f81"],"screen_resolution":[1920,1080],"minimum_resolution":1,"trial":31,"drifts":[0.33,0.475,0.428,0.706],"drift_ix":3,"trial_type":"two-step-trial","trial_index":62,"time_elapsed":872999,"internal_node_id":"0.0-44.0-0.0","task_version":"1.0","jspsych_version":"6.3.1","browser_interactions":0,"missing":false},{"state_1_ids":[0,1],"state_1_key":1,"state_1_choice":1,"state_1_rt":140,"transition":0,"state":0,"state_2_ids":[0,1],"state_2_key":1,"state_2_choice":1,"state_2_rt":683.3999999910593,"outcome":1,"rocket_colors":["#48a782","#955db9"],"planet_colors":["#7f5d5d","#5f6f81"],"screen_resolution":[1920,1080],"minimum_resolution":1,"trial":32,"drifts":[0.332,0.492,0.442,0.701],"drift_ix":3,"trial_type":"two-step-trial","trial_index":63,"time_elapsed":875825,"internal_node_id":"0.0-45.0-0.0","task_version":"1.0","jspsych_version":"6.3.1","browser_interactions":0,"missing":false},{"state_1_ids":[0,1],"state_1_key":0,"state_1_choice":0,"state_1_rt":15.900000005960464,"transition":1,"state":0,"state_2_ids":[0,1],"state_2_key":1,"state_2_choice":1,"state_2_rt":961.6000000089407,"outcome":0,"rocket_colors":["#48a782","#955db9"],"planet_colors":["#7f5d5d","#5f6f81"],"screen_resolution":[1920,1080],"minimum_resolution":1,"trial":33,"drifts":[0.306,0.461,0.388,0.724],"drift_ix":3,"trial_type":"two-step-trial","trial_index":64,"time_elapsed":878805,"internal_node_id":"0.0-46.0-0.0","task_version":"1.0","jspsych_version":"6.3.1","browser_interactions":0,"missing":false},{"state_1_ids":[1,0],"state_1_key":0,"state_1_choice":1,"state_1_rt":58.20000000298023,"transition":1,"state":1,"state_2_ids":[2,3],"state_2_key":0,"state_2_choice":2,"state_2_rt":937.1000000089407,"outcome":1,"rocket_colors":["#48a782","#955db9"],"planet_colors":["#7f5d5d","#5f6f81"],"screen_resolution":[1920,1080],"minimum_resolution":1,"trial":34,"drifts":[0.335,0.445,0.418,0.721],"drift_ix":3,"trial_type":"two-step-trial","trial_index":65,"time_elapsed":881803,"internal_node_id":"0.0-47.0-0.0","task_version":"1.0","jspsych_version":"6.3.1","browser_interactions":0,"missing":false},{"state_1_ids":[1,0],"state_1_key":1,"state_1_choice":0,"state_1_rt":3.8999999910593033,"transition":1,"state":0,"state_2_ids":[0,1],"state_2_key":1,"state_2_choice":1,"state_2_rt":433.5,"outcome":1,"rocket_colors":["#48a782","#955db9"],"planet_colors":["#7f5d5d","#5f6f81"],"screen_resolution":[1920,1080],"minimum_resolution":1,"trial":35,"drifts":[0.342,0.479,0.439,0.713],"drift_ix":3,"trial_type":"two-step-trial","trial_index":66,"time_elapsed":884242,"internal_node_id":"0.0-48.0-0.0","task_version":"1.0","jspsych_version":"6.3.1","browser_interactions":0,"missing":false},{"state_1_ids":[0,1],"state_1_key":0,"state_1_choice":0,"state_1_rt":70.70000000298023,"transition":1,"state":0,"state_2_ids":[0,1],"state_2_key":1,"state_2_choice":1,"state_2_rt":514.8999999910593,"outcome":0,"rocket_colors":["#48a782","#955db9"],"planet_colors":["#7f5d5d","#5f6f81"],"screen_resolution":[1920,1080],"minimum_resolution":1,"trial":36,"drifts":[0.323,0.462,0.51,0.711],"drift_ix":3,"trial_type":"two-step-trial","trial_index":67,"time_elapsed":886831,"internal_node_id":"0.0-49.0-0.0","task_version":"1.0","jspsych_version":"6.3.1","browser_interactions":0,"missing":false},{"state_1_ids":[0,1],"state_1_key":1,"state_1_choice":1,"state_1_rt":512.1000000089407,"transition":1,"state":1,"state_2_ids":[2,3],"state_2_key":0,"state_2_choice":2,"state_2_rt":843.2000000029802,"outcome":1,"rocket_colors":["#48a782","#955db9"],"planet_colors":["#7f5d5d","#5f6f81"],"screen_resolution":[1920,1080],"minimum_resolution":1,"trial":37,"drifts":[0.323,0.441,0.493,0.674],"drift_ix":3,"trial_type":"two-step-trial","trial_index":68,"time_elapsed":890189,"internal_node_id":"0.0-50.0-0.0","task_version":"1.0","jspsych_version":"6.3.1","browser_interactions":0,"missing":false},{"state_1_ids":[1,0],"state_1_key":1,"state_1_choice":0,"state_1_rt":188.20000000298023,"transition":1,"state":0,"state_2_ids":[0,1],"state_2_key":1,"state_2_choice":1,"state_2_rt":453.20000000298023,"outcome":0,"rocket_colors":["#48a782","#955db9"],"planet_colors":["#7f5d5d","#5f6f81"],"screen_resolution":[1920,1080],"minimum_resolution":1,"trial":38,"drifts":[0.361,0.419,0.482,0.648],"drift_ix":3,"trial_type":"two-step-trial","trial_index":69,"time_elapsed":892833,"internal_node_id":"0.0-51.0-0.0","task_version":"1.0","jspsych_version":"6.3.1","browser_interactions":0,"missing":false},{"state_1_ids":[1,0],"state_1_key":0,"state_1_choice":1,"state_1_rt":234.6000000089407,"transition":0,"state":0,"state_2_ids":[0,1],"state_2_key":0,"state_2_choice":0,"state_2_rt":390.90000000596046,"outcome":0,"rocket_colors":["#48a782","#955db9"],"planet_colors":["#7f5d5d","#5f6f81"],"screen_resolution":[1920,1080],"minimum_resolution":1,"trial":39,"drifts":[0.386,0.389,0.441,0.619],"drift_ix":3,"trial_type":"two-step-trial","trial_index":70,"time_elapsed":895461,"internal_node_id":"0.0-52.0-0.0","task_version":"1.0","jspsych_version":"6.3.1","browser_interactions":0,"missing":false},{"state_1_ids":[1,0],"state_1_key":0,"state_1_choice":1,"state_1_rt":116.1000000089407,"transition":0,"state":0,"state_2_ids":[0,1],"state_2_key":0,"state_2_choice":0,"state_2_rt":383.1000000089407,"outcome":1,"rocket_colors":["#48a782","#955db9"],"planet_colors":["#7f5d5d","#5f6f81"],"screen_resolution":[1920,1080],"minimum_resolution":1,"trial":40,"drifts":[0.384,0.374,0.431,0.605],"drift_ix":3,"trial_type":"two-step-trial","trial_index":71,"time_elapsed":897964,"internal_node_id":"0.0-53.0-0.0","task_version":"1.0","jspsych_version":"6.3.1","browser_interactions":0,"missing":false},{"state_1_ids":[1,0],"state_1_key":1,"state_1_choice":0,"state_1_rt":181.5,"transition":0,"state":1,"state_2_ids":[2,3],"state_2_key":0,"state_2_choice":2,"state_2_rt":451.5,"outcome":0,"rocket_colors":["#48a782","#955db9"],"planet_colors":["#7f5d5d","#5f6f81"],"screen_resolution":[1920,1080],"minimum_resolution":1,"trial":41,"drifts":[0.382,0.413,0.442,0.617],"drift_ix":3,"trial_type":"two-step-trial","trial_index":72,"time_elapsed":900599,"internal_node_id":"0.0-54.0-0.0","task_version":"1.0","jspsych_version":"6.3.1","browser_interactions":0,"missing":false},{"state_1_ids":[1,0],"state_1_key":1,"state_1_choice":0,"state_1_rt":128.29999999701977,"transition":1,"state":0,"state_2_ids":[0,1],"state_2_key":0,"state_2_choice":0,"state_2_rt":952.7000000029802,"outcome":0,"rocket_colors":["#48a782","#955db9"],"planet_colors":["#7f5d5d","#5f6f81"],"screen_resolution":[1920,1080],"minimum_resolution":1,"trial":42,"drifts":[0.398,0.39,0.424,0.641],"drift_ix":3,"trial_type":"two-step-trial","trial_index":73,"time_elapsed":903683,"internal_node_id":"0.0-55.0-0.0","task_version":"1.0","jspsych_version":"6.3.1","browser_interactions":0,"missing":false},{"state_1_ids":[0,1],"state_1_key":0,"state_1_choice":0,"state_1_rt":4.5999999940395355,"transition":1,"state":0,"state_2_ids":[0,1],"state_2_key":0,"state_2_choice":0,"state_2_rt":399.20000000298023,"outcome":1,"rocket_colors":["#48a782","#955db9"],"planet_colors":["#7f5d5d","#5f6f81"],"screen_resolution":[1920,1080],"minimum_resolution":1,"trial":43,"drifts":[0.37,0.404,0.412,0.63],"drift_ix":3,"trial_type":"two-step-trial","trial_index":74,"time_elapsed":906089,"internal_node_id":"0.0-56.0-0.0","task_version":"1.0","jspsych_version":"6.3.1","browser_interactions":0,"missing":false},{"state_1_ids":[1,0],"state_1_key":0,"state_1_choice":1,"state_1_rt":212.5,"transition":0,"state":0,"state_2_ids":[0,1],"state_2_key":0,"state_2_choice":0,"state_2_rt":447.40000000596046,"outcome":1,"rocket_colors":["#48a782","#955db9"],"planet_colors":["#7f5d5d","#5f6f81"],"screen_resolution":[1920,1080],"minimum_resolution":1,"trial":44,"drifts":[0.417,0.444,0.403,0.613],"drift_ix":3,"trial_type":"two-step-trial","trial_index":75,"time_elapsed":908751,"internal_node_id":"0.0-57.0-0.0","task_version":"1.0","jspsych_version":"6.3.1","browser_interactions":0,"missing":false},{"state_1_ids":[1,0],"state_1_key":1,"state_1_choice":0,"state_1_rt":188.30000001192093,"transition":1,"state":0,"state_2_ids":[0,1],"state_2_key":0,"state_2_choice":0,"state_2_rt":843.1000000089407,"outcome":0,"rocket_colors":["#48a782","#955db9"],"planet_colors":["#7f5d5d","#5f6f81"],"screen_resolution":[1920,1080],"minimum_resolution":1,"trial":45,"drifts":[0.439,0.427,0.37,0.612],"drift_ix":3,"trial_type":"two-step-trial","trial_index":76,"time_elapsed":911785,"internal_node_id":"0.0-58.0-0.0","task_version":"1.0","jspsych_version":"6.3.1","browser_interactions":0,"missing":false},{"state_1_ids":[1,0],"state_1_key":0,"state_1_choice":1,"state_1_rt":48.5,"transition":1,"state":1,"state_2_ids":[2,3],"state_2_key":1,"state_2_choice":3,"state_2_rt":1025.1000000089407,"outcome":1,"rocket_colors":["#48a782","#955db9"],"planet_colors":["#7f5d5d","#5f6f81"],"screen_resolution":[1920,1080],"minimum_resolution":1,"trial":46,"drifts":[0.459,0.416,0.369,0.621],"drift_ix":3,"trial_type":"two-step-trial","trial_index":77,"time_elapsed":914861,"internal_node_id":"0.0-59.0-0.0","task_version":"1.0","jspsych_version":"6.3.1","browser_interactions":0,"missing":false},{"state_1_ids":[0,1],"state_1_key":0,"state_1_choice":0,"state_1_rt":280,"transition":1,"state":0,"state_2_ids":[0,1],"state_2_key":1,"state_2_choice":1,"state_2_rt":845.5,"outcome":0,"rocket_colors":["#48a782","#955db9"],"planet_colors":["#7f5d5d","#5f6f81"],"screen_resolution":[1920,1080],"minimum_resolution":1,"trial":47,"drifts":[0.475,0.425,0.384,0.6],"drift_ix":3,"trial_type":"two-step-trial","trial_index":78,"time_elapsed":917989,"internal_node_id":"0.0-60.0-0.0","task_version":"1.0","jspsych_version":"6.3.1","browser_interactions":0,"missing":false},{"state_1_ids":[0,1],"state_1_key":1,"state_1_choice":1,"state_1_rt":250.29999999701977,"transition":1,"state":1,"state_2_ids":[2,3],"state_2_key":1,"state_2_choice":3,"state_2_rt":1411.2000000029802,"outcome":1,"rocket_colors":["#48a782","#955db9"],"planet_colors":["#7f5d5d","#5f6f81"],"screen_resolution":[1920,1080],"minimum_resolution":1,"trial":48,"drifts":[0.438,0.4,0.412,0.606],"drift_ix":3,"trial_type":"two-step-trial","trial_index":79,"time_elapsed":921653,"internal_node_id":"0.0-61.0-0.0","task_version":"1.0","jspsych_version":"6.3.1","browser_interactions":0,"missing":false},{"state_1_ids":[0,1],"state_1_key":0,"state_1_choice":0,"state_1_rt":272.09999999403954,"transition":1,"state":0,"state_2_ids":[0,1],"state_2_key":0,"state_2_choice":0,"state_2_rt":1306.9000000059605,"outcome":1,"rocket_colors":["#48a782","#955db9"],"planet_colors":["#7f5d5d","#5f6f81"],"screen_resolution":[1920,1080],"minimum_resolution":1,"trial":49,"drifts":[0.47,0.408,0.421,0.598],"drift_ix":3,"trial_type":"two-step-trial","trial_index":80,"time_elapsed":925235,"internal_node_id":"0.0-62.0-0.0","task_version":"1.0","jspsych_version":"6.3.1","browser_interactions":0,"missing":false},{"state_1_ids":[0,1],"state_1_key":1,"state_1_choice":1,"state_1_rt":682.1000000089407,"transition":1,"state":1,"state_2_ids":[2,3],"state_2_key":1,"state_2_choice":3,"state_2_rt":893.2000000029802,"outcome":1,"rocket_colors":["#48a782","#955db9"],"planet_colors":["#7f5d5d","#5f6f81"],"screen_resolution":[1920,1080],"minimum_resolution":1,"trial":50,"drifts":[0.41,0.42,0.42,0.6],"drift_ix":3,"trial_type":"two-step-trial","trial_index":81,"time_elapsed":928814,"internal_node_id":"0.0-63.0-0.0","task_version":"1.0","jspsych_version":"6.3.1","browser_interactions":0,"missing":false},{"state_1_ids":[0,1],"state_1_key":0,"state_1_choice":0,"state_1_rt":303.5,"transition":1,"state":0,"state_2_ids":[0,1],"state_2_key":0,"state_2_choice":0,"state_2_rt":504.8999999910593,"outcome":0,"rocket_colors":["#48a782","#955db9"],"planet_colors":["#7f5d5d","#5f6f81"],"screen_resolution":[1920,1080],"minimum_resolution":1,"trial":51,"drifts":[0.412,0.415,0.461,0.564],"drift_ix":3,"trial_type":"two-step-trial","trial_index":82,"time_elapsed":931625,"internal_node_id":"0.0-64.0-0.0","task_version":"1.0","jspsych_version":"6.3.1","browser_interactions":0,"missing":false},{"state_1_ids":[0,1],"state_1_key":1,"state_1_choice":1,"state_1_rt":242.09999999403954,"transition":1,"state":1,"state_2_ids":[2,3],"state_2_key":1,"state_2_choice":3,"state_2_rt":996.8999999910593,"outcome":0,"rocket_colors":["#48a782","#955db9"],"planet_colors":["#7f5d5d","#5f6f81"],"screen_resolution":[1920,1080],"minimum_resolution":1,"trial":52,"drifts":[0.424,0.4,0.482,0.568],"drift_ix":3,"trial_type":"two-step-trial","trial_index":83,"time_elapsed":934866,"internal_node_id":"0.0-65.0-0.0","task_version":"1.0","jspsych_version":"6.3.1","browser_interactions":0,"missing":false},{"state_1_ids":[1,0],"state_1_key":0,"state_1_choice":1,"state_1_rt":1.7999999970197678,"transition":1,"state":1,"state_2_ids":[2,3],"state_2_key":1,"state_2_choice":3,"state_2_rt":655.0999999940395,"outcome":1,"rocket_colors":["#48a782","#955db9"],"planet_colors":["#7f5d5d","#5f6f81"],"screen_resolution":[1920,1080],"minimum_resolution":1,"trial":53,"drifts":[0.449,0.35,0.448,0.582],"drift_ix":3,"trial_type":"two-step-trial","trial_index":84,"time_elapsed":937526,"internal_node_id":"0.0-66.0-0.0","task_version":"1.0","jspsych_version":"6.3.1","browser_interactions":0,"missing":false},{"state_1_ids":[0,1],"state_1_key":0,"state_1_choice":0,"state_1_rt":178.5,"transition":1,"state":0,"state_2_ids":[0,1],"state_2_key":0,"state_2_choice":0,"state_2_rt":451.5,"outcome":0,"rocket_colors":["#48a782","#955db9"],"planet_colors":["#7f5d5d","#5f6f81"],"screen_resolution":[1920,1080],"minimum_resolution":1,"trial":54,"drifts":[0.409,0.381,0.436,0.573],"drift_ix":3,"trial_type":"two-step-trial","trial_index":85,"time_elapsed":940157,"internal_node_id":"0.0-67.0-0.0","task_version":"1.0","jspsych_version":"6.3.1","browser_interactions":0,"missing":false},{"state_1_ids":[1,0],"state_1_key":1,"state_1_choice":0,"state_1_rt":228.70000000298023,"transition":0,"state":1,"state_2_ids":[2,3],"state_2_key":1,"state_2_choice":3,"state_2_rt":653.1000000089407,"outcome":0,"rocket_colors":["#48a782","#955db9"],"planet_colors":["#7f5d5d","#5f6f81"],"screen_resolution":[1920,1080],"minimum_resolution":1,"trial":55,"drifts":[0.408,0.407,0.428,0.609],"drift_ix":3,"trial_type":"two-step-trial","trial_index":86,"time_elapsed":943041,"internal_node_id":"0.0-68.0-0.0","task_version":"1.0","jspsych_version":"6.3.1","browser_interactions":0,"missing":false},{"state_1_ids":[1,0],"state_1_key":1,"state_1_choice":0,"state_1_rt":260.79999999701977,"transition":1,"state":0,"state_2_ids":[0,1],"state_2_key":1,"state_2_choice":1,"state_2_rt":697.7000000029802,"outcome":1,"rocket_colors":["#48a782","#955db9"],"planet_colors":["#7f5d5d","#5f6f81"],"screen_resolution":[1920,1080],"minimum_resolution":1,"trial":56,"drifts":[0.417,0.354,0.381,0.598],"drift_ix":3,"trial_type":"two-step-trial","trial_index":87,"time_elapsed":946001,"internal_node_id":"0.0-69.0-0.0","task_version":"1.0","jspsych_version":"6.3.1","browser_interactions":0,"missing":false},{"state_1_ids":[1,0],"state_1_key":0,"state_1_choice":1,"state_1_rt":238.79999999701977,"transition":0,"state":0,"state_2_ids":[0,1],"state_2_key":1,"state_2_choice":1,"state_2_rt":1305.4000000059605,"outcome":0,"rocket_colors":["#48a782","#955db9"],"planet_colors":["#7f5d5d","#5f6f81"],"screen_resolution":[1920,1080],"minimum_resolution":1,"trial":57,"drifts":[0.462,0.35,0.396,0.55],"drift_ix":3,"trial_type":"two-step-trial","trial_index":88,"time_elapsed":949548,"internal_node_id":"0.0-70.0-0.0","task_version":"1.0","jspsych_version":"6.3.1","browser_interactions":0,"missing":false},{"state_1_ids":[1,0],"state_1_key":1,"state_1_choice":0,"state_1_rt":62.20000000298023,"transition":0,"state":1,"state_2_ids":[2,3],"state_2_key":0,"state_2_choice":2,"state_2_rt":885.1000000089407,"outcome":1,"rocket_colors":["#48a782","#955db9"],"planet_colors":["#7f5d5d","#5f6f81"],"screen_resolution":[1920,1080],"minimum_resolution":1,"trial":58,"drifts":[0.474,0.332,0.382,0.55],"drift_ix":3,"trial_type":"two-step-trial","trial_index":89,"time_elapsed":952498,"internal_node_id":"0.0-71.0-0.0","task_version":"1.0","jspsych_version":"6.3.1","browser_interactions":0,"missing":false},{"state_1_ids":[1,0],"state_1_key":1,"state_1_choice":0,"state_1_rt":534.0999999940395,"transition":0,"state":1,"state_2_ids":[2,3],"state_2_key":0,"state_2_choice":2,"state_2_rt":977.4000000059605,"outcome":1,"rocket_colors":["#48a782","#955db9"],"planet_colors":["#7f5d5d","#5f6f81"],"screen_resolution":[1920,1080],"minimum_resolution":1,"trial":59,"drifts":[0.462,0.326,0.376,0.559],"drift_ix":3,"trial_type":"two-step-trial","trial_index":90,"time_elapsed":956012,"internal_node_id":"0.0-72.0-0.0","task_version":"1.0","jspsych_version":"6.3.1","browser_interactions":0,"missing":false},{"state_1_ids":[1,0],"state_1_key":0,"state_1_choice":1,"state_1_rt":262.20000000298023,"transition":0,"state":0,"state_2_ids":[0,1],"state_2_key":1,"state_2_choice":1,"state_2_rt":645,"outcome":1,"rocket_colors":["#48a782","#955db9"],"planet_colors":["#7f5d5d","#5f6f81"],"screen_resolution":[1920,1080],"minimum_resolution":1,"trial":60,"drifts":[0.432,0.348,0.372,0.56],"drift_ix":3,"trial_type":"two-step-trial","trial_index":91,"time_elapsed":958922,"internal_node_id":"0.0-73.0-0.0","task_version":"1.0","jspsych_version":"6.3.1","browser_interactions":0,"missing":false},{"state_1_ids":[1,0],"state_1_key":1,"state_1_choice":0,"state_1_rt":222.20000000298023,"transition":1,"state":0,"state_2_ids":[0,1],"state_2_key":1,"state_2_choice":1,"state_2_rt":623.2000000029802,"outcome":0,"rocket_colors":["#48a782","#955db9"],"planet_colors":["#7f5d5d","#5f6f81"],"screen_resolution":[1920,1080],"minimum_resolution":1,"trial":61,"drifts":[0.43,0.371,0.389,0.587],"drift_ix":3,"trial_type":"two-step-trial","trial_index":92,"time_elapsed":961770,"internal_node_id":"0.0-74.0-0.0","task_version":"1.0","jspsych_version":"6.3.1","browser_interactions":0,"missing":false},{"state_1_ids":[0,1],"state_1_key":0,"state_1_choice":0,"state_1_rt":168.20000000298023,"transition":0,"state":1,"state_2_ids":[2,3],"state_2_key":0,"state_2_choice":2,"state_2_rt":657.0999999940395,"outcome":1,"rocket_colors":["#48a782","#955db9"],"planet_colors":["#7f5d5d","#5f6f81"],"screen_resolution":[1920,1080],"minimum_resolution":1,"trial":62,"drifts":[0.426,0.371,0.382,0.585],"drift_ix":3,"trial_type":"two-step-trial","trial_index":93,"time_elapsed":964598,"internal_node_id":"0.0-75.0-0.0","task_version":"1.0","jspsych_version":"6.3.1","browser_interactions":0,"missing":false},{"state_1_ids":[1,0],"state_1_key":1,"state_1_choice":0,"state_1_rt":448.29999999701977,"transition":1,"state":0,"state_2_ids":[0,1],"state_2_key":1,"state_2_choice":1,"state_2_rt":395.40000000596046,"outcome":0,"rocket_colors":["#48a782","#955db9"],"planet_colors":["#7f5d5d","#5f6f81"],"screen_resolution":[1920,1080],"minimum_resolution":1,"trial":63,"drifts":[0.431,0.358,0.396,0.59],"drift_ix":3,"trial_type":"two-step-trial","trial_index":94,"time_elapsed":967444,"internal_node_id":"0.0-76.0-0.0","task_version":"1.0","jspsych_version":"6.3.1","browser_interactions":0,"missing":false},{"state_1_ids":[1,0],"state_1_key":0,"state_1_choice":1,"state_1_rt":264.3999999910593,"transition":1,"state":1,"state_2_ids":[2,3],"state_2_key":0,"state_2_choice":2,"state_2_rt":909.3000000119209,"outcome":1,"rocket_colors":["#48a782","#955db9"],"planet_colors":["#7f5d5d","#5f6f81"],"screen_resolution":[1920,1080],"minimum_resolution":1,"trial":64,"drifts":[0.392,0.299,0.415,0.581],"drift_ix":3,"trial_type":"two-step-trial","trial_index":95,"time_elapsed":970620,"internal_node_id":"0.0-77.0-0.0","task_version":"1.0","jspsych_version":"6.3.1","browser_interactions":0,"missing":false},{"state_1_ids":[1,0],"state_1_key":1,"state_1_choice":0,"state_1_rt":104.59999999403954,"transition":0,"state":1,"state_2_ids":[2,3],"state_2_key":0,"state_2_choice":2,"state_2_rt":1115.800000011921,"outcome":0,"rocket_colors":["#48a782","#955db9"],"planet_colors":["#7f5d5d","#5f6f81"],"screen_resolution":[1920,1080],"minimum_resolution":1,"trial":65,"drifts":[0.371,0.329,0.405,0.589],"drift_ix":3,"trial_type":"two-step-trial","trial_index":96,"time_elapsed":973842,"internal_node_id":"0.0-78.0-0.0","task_version":"1.0","jspsych_version":"6.3.1","browser_interactions":0,"missing":false},{"state_1_ids":[0,1],"state_1_key":0,"state_1_choice":0,"state_1_rt":258,"transition":1,"state":0,"state_2_ids":[0,1],"state_2_key":0,"state_2_choice":0,"state_2_rt":783.1000000089407,"outcome":0,"rocket_colors":["#48a782","#955db9"],"planet_colors":["#7f5d5d","#5f6f81"],"screen_resolution":[1920,1080],"minimum_resolution":1,"trial":66,"drifts":[0.354,0.287,0.413,0.591],"drift_ix":3,"trial_type":"two-step-trial","trial_index":97,"time_elapsed":976886,"internal_node_id":"0.0-79.0-0.0","task_version":"1.0","jspsych_version":"6.3.1","browser_interactions":0,"missing":false},{"state_1_ids":[1,0],"state_1_key":0,"state_1_choice":1,"state_1_rt":170.6000000089407,"transition":1,"state":1,"state_2_ids":[2,3],"state_2_key":0,"state_2_choice":2,"state_2_rt":679.0999999940395,"outcome":0,"rocket_colors":["#48a782","#955db9"],"planet_colors":["#7f5d5d","#5f6f81"],"screen_resolution":[1920,1080],"minimum_resolution":1,"trial":67,"drifts":[0.398,0.254,0.426,0.603],"drift_ix":3,"trial_type":"two-step-trial","trial_index":98,"time_elapsed":979738,"internal_node_id":"0.0-80.0-0.0","task_version":"1.0","jspsych_version":"6.3.1","browser_interactions":0,"missing":false},{"state_1_ids":[0,1],"state_1_key":0,"state_1_choice":0,"state_1_rt":214.30000001192093,"transition":0,"state":1,"state_2_ids":[2,3],"state_2_key":1,"state_2_choice":3,"state_2_rt":421.20000000298023,"outcome":0,"rocket_colors":["#48a782","#955db9"],"planet_colors":["#7f5d5d","#5f6f81"],"screen_resolution":[1920,1080],"minimum_resolution":1,"trial":68,"drifts":[0.425,0.254,0.441,0.582],"drift_ix":3,"trial_type":"two-step-trial","trial_index":99,"time_elapsed":982377,"internal_node_id":"0.0-81.0-0.0","task_version":"1.0","jspsych_version":"6.3.1","browser_interactions":0,"missing":false},{"state_1_ids":[1,0],"state_1_key":0,"state_1_choice":1,"state_1_rt":231.5,"transition":1,"state":1,"state_2_ids":[2,3],"state_2_key":1,"state_2_choice":3,"state_2_rt":359.3999999910593,"outcome":0,"rocket_colors":["#48a782","#955db9"],"planet_colors":["#7f5d5d","#5f6f81"],"screen_resolution":[1920,1080],"minimum_resolution":1,"trial":69,"drifts":[0.474,0.287,0.392,0.531],"drift_ix":3,"trial_type":"two-step-trial","trial_index":100,"time_elapsed":984970,"internal_node_id":"0.0-82.0-0.0","task_version":"1.0","jspsych_version":"6.3.1","browser_interactions":0,"missing":false},{"state_1_ids":[1,0],"state_1_key":0,"state_1_choice":1,"state_1_rt":192.79999999701977,"transition":1,"state":1,"state_2_ids":[2,3],"state_2_key":0,"state_2_choice":2,"state_2_rt":440.3999999910593,"outcome":0,"rocket_colors":["#48a782","#955db9"],"planet_colors":["#7f5d5d","#5f6f81"],"screen_resolution":[1920,1080],"minimum_resolution":1,"trial":70,"drifts":[0.51,0.279,0.378,0.487],"drift_ix":3,"trial_type":"two-step-trial","trial_index":101,"time_elapsed":987605,"internal_node_id":"0.0-83.0-0.0","task_version":"1.0","jspsych_version":"6.3.1","browser_interactions":0,"missing":false},{"state_1_ids":[0,1],"state_1_key":1,"state_1_choice":1,"state_1_rt":148.09999999403954,"transition":0,"state":0,"state_2_ids":[0,1],"state_2_key":0,"state_2_choice":0,"state_2_rt":1047.3999999910593,"outcome":1,"rocket_colors":["#48a782","#955db9"],"planet_colors":["#7f5d5d","#5f6f81"],"screen_resolution":[1920,1080],"minimum_resolution":1,"trial":71,"drifts":[0.506,0.269,0.381,0.477],"drift_ix":3,"trial_type":"two-step-trial","trial_index":102,"time_elapsed":990803,"internal_node_id":"0.0-84.0-0.0","task_version":"1.0","jspsych_version":"6.3.1","browser_interactions":0,"missing":false},{"state_1_ids":[0,1],"state_1_key":0,"state_1_choice":0,"state_1_rt":278.80000001192093,"transition":1,"state":0,"state_2_ids":[0,1],"state_2_key":0,"state_2_choice":0,"state_2_rt":1125.2000000029802,"outcome":1,"rocket_colors":["#48a782","#955db9"],"planet_colors":["#7f5d5d","#5f6f81"],"screen_resolution":[1920,1080],"minimum_resolution":1,"trial":72,"drifts":[0.541,0.263,0.39,0.466],"drift_ix":3,"trial_type":"two-step-trial","trial_index":103,"time_elapsed":994210,"internal_node_id":"0.0-85.0-0.0","task_version":"1.0","jspsych_version":"6.3.1","browser_interactions":0,"missing":false},{"state_1_ids":[0,1],"state_1_key":0,"state_1_choice":0,"state_1_rt":183.79999999701977,"transition":1,"state":0,"state_2_ids":[0,1],"state_2_key":1,"state_2_choice":1,"state_2_rt":1040.7000000029802,"outcome":0,"rocket_colors":["#48a782","#955db9"],"planet_colors":["#7f5d5d","#5f6f81"],"screen_resolution":[1920,1080],"minimum_resolution":1,"trial":73,"drifts":[0.49,0.271,0.373,0.466],"drift_ix":3,"trial_type":"two-step-trial","trial_index":104,"time_elapsed":997437,"internal_node_id":"0.0-86.0-0.0","task_version":"1.0","jspsych_version":"6.3.1","browser_interactions":0,"missing":false},{"state_1_ids":[1,0],"state_1_key":0,"state_1_choice":1,"state_1_rt":346.59999999403954,"transition":1,"state":1,"state_2_ids":[2,3],"state_2_key":0,"state_2_choice":2,"state_2_rt":682.7999999970198,"outcome":0,"rocket_colors":["#48a782","#955db9"],"planet_colors":["#7f5d5d","#5f6f81"],"screen_resolution":[1920,1080],"minimum_resolution":1,"trial":74,"drifts":[0.512,0.277,0.41,0.457],"drift_ix":3,"trial_type":"two-step-trial","trial_index":105,"time_elapsed":1000469,"internal_node_id":"0.0-87.0-0.0","task_version":"1.0","jspsych_version":"6.3.1","browser_interactions":0,"missing":false},{"state_1_ids":[0,1],"state_1_key":1,"state_1_choice":1,"state_1_rt":182.3999999910593,"transition":1,"state":1,"state_2_ids":[2,3],"state_2_key":0,"state_2_choice":2,"state_2_rt":547.4000000059605,"outcome":1,"rocket_colors":["#48a782","#955db9"],"planet_colors":["#7f5d5d","#5f6f81"],"screen_resolution":[1920,1080],"minimum_resolution":1,"trial":75,"drifts":[0.537,0.271,0.42,0.478],"drift_ix":3,"trial_type":"two-step-trial","trial_index":106,"time_elapsed":1003201,"internal_node_id":"0.0-88.0-0.0","task_version":"1.0","jspsych_version":"6.3.1","browser_interactions":0,"missing":false},{"state_1_ids":[1,0],"state_1_key":0,"state_1_choice":1,"state_1_rt":246.59999999403954,"transition":1,"state":1,"state_2_ids":[2,3],"state_2_key":0,"state_2_choice":2,"state_2_rt":797.5,"outcome":0,"rocket_colors":["#48a782","#955db9"],"planet_colors":["#7f5d5d","#5f6f81"],"screen_resolution":[1920,1080],"minimum_resolution":1,"trial":76,"drifts":[0.539,0.257,0.455,0.448],"drift_ix":3,"trial_type":"two-step-trial","trial_index":107,"time_elapsed":1006247,"internal_node_id":"0.0-89.0-0.0","task_version":"1.0","jspsych_version":"6.3.1","browser_interactions":0,"missing":false},{"state_1_ids":[1,0],"state_1_key":1,"state_1_choice":0,"state_1_rt":176.5,"transition":0,"state":1,"state_2_ids":[2,3],"state_2_key":0,"state_2_choice":2,"state_2_rt":369.3999999910593,"outcome":1,"rocket_colors":["#48a782","#955db9"],"planet_colors":["#7f5d5d","#5f6f81"],"screen_resolution":[1920,1080],"minimum_resolution":1,"trial":77,"drifts":[0.56,0.261,0.459,0.423],"drift_ix":3,"trial_type":"two-step-trial","trial_index":108,"time_elapsed":1008795,"internal_node_id":"0.0-90.0-0.0","task_version":"1.0","jspsych_version":"6.3.1","browser_interactions":0,"missing":false},{"state_1_ids":[0,1],"state_1_key":0,"state_1_choice":0,"state_1_rt":88.20000000298023,"transition":1,"state":0,"state_2_ids":[0,1],"state_2_key":0,"state_2_choice":0,"state_2_rt":1384.7999999970198,"outcome":0,"rocket_colors":["#48a782","#955db9"],"planet_colors":["#7f5d5d","#5f6f81"],"screen_resolution":[1920,1080],"minimum_resolution":1,"trial":78,"drifts":[0.543,0.26,0.436,0.441],"drift_ix":3,"trial_type":"two-step-trial","trial_index":109,"time_elapsed":1012270,"internal_node_id":"0.0-91.0-0.0","task_version":"1.0","jspsych_version":"6.3.1","browser_interactions":0,"missing":false},{"state_1_ids":[1,0],"state_1_key":0,"state_1_choice":1,"state_1_rt":252.8999999910593,"transition":1,"state":1,"state_2_ids":[2,3],"state_2_key":0,"state_2_choice":2,"state_2_rt":446.70000000298023,"outcome":1,"rocket_colors":["#48a782","#955db9"],"planet_colors":["#7f5d5d","#5f6f81"],"screen_resolution":[1920,1080],"minimum_resolution":1,"trial":79,"drifts":[0.536,0.268,0.465,0.475],"drift_ix":3,"trial_type":"two-step-trial","trial_index":110,"time_elapsed":1014973,"internal_node_id":"0.0-92.0-0.0","task_version":"1.0","jspsych_version":"6.3.1","browser_interactions":0,"missing":false},{"state_1_ids":[1,0],"state_1_key":1,"state_1_choice":0,"state_1_rt":220,"transition":1,"state":0,"state_2_ids":[0,1],"state_2_key":0,"state_2_choice":0,"state_2_rt":424.90000000596046,"outcome":0,"rocket_colors":["#48a782","#955db9"],"planet_colors":["#7f5d5d","#5f6f81"],"screen_resolution":[1920,1080],"minimum_resolution":1,"trial":80,"drifts":[0.534,0.324,0.464,0.482],"drift_ix":3,"trial_type":"two-step-trial","trial_index":111,"time_elapsed":1017621,"internal_node_id":"0.0-93.0-0.0","task_version":"1.0","jspsych_version":"6.3.1","browser_interactions":0,"missing":false},{"state_1_ids":[1,0],"state_1_key":0,"state_1_choice":1,"state_1_rt":184.29999999701977,"transition":1,"state":1,"state_2_ids":[2,3],"state_2_key":0,"state_2_choice":2,"state_2_rt":377.20000000298023,"outcome":1,"rocket_colors":["#48a782","#955db9"],"planet_colors":["#7f5d5d","#5f6f81"],"screen_resolution":[1920,1080],"minimum_resolution":1,"trial":81,"drifts":[0.553,0.309,0.445,0.465],"drift_ix":3,"trial_type":"two-step-trial","trial_index":112,"time_elapsed":1020185,"internal_node_id":"0.0-94.0-0.0","task_version":"1.0","jspsych_version":"6.3.1","browser_interactions":0,"missing":false},{"state_1_ids":[1,0],"state_1_key":1,"state_1_choice":0,"state_1_rt":76,"transition":0,"state":1,"state_2_ids":[2,3],"state_2_key":1,"state_2_choice":3,"state_2_rt":255.1000000089407,"outcome":1,"rocket_colors":["#48a782","#955db9"],"planet_colors":["#7f5d5d","#5f6f81"],"screen_resolution":[1920,1080],"minimum_resolution":1,"trial":82,"drifts":[0.563,0.291,0.404,0.437],"drift_ix":3,"trial_type":"two-step-trial","trial_index":113,"time_elapsed":1022519,"internal_node_id":"0.0-95.0-0.0","task_version":"1.0","jspsych_version":"6.3.1","browser_interactions":0,"missing":false},{"state_1_ids":[1,0],"state_1_key":0,"state_1_choice":1,"state_1_rt":238.6000000089407,"transition":0,"state":0,"state_2_ids":[0,1],"state_2_key":1,"state_2_choice":1,"state_2_rt":1289.5,"outcome":0,"rocket_colors":["#48a782","#955db9"],"planet_colors":["#7f5d5d","#5f6f81"],"screen_resolution":[1920,1080],"minimum_resolution":1,"trial":83,"drifts":[0.563,0.298,0.442,0.474],"drift_ix":3,"trial_type":"two-step-trial","trial_index":114,"time_elapsed":1026049,"internal_node_id":"0.0-96.0-0.0","task_version":"1.0","jspsych_version":"6.3.1","browser_interactions":0,"missing":false},{"state_1_ids":[1,0],"state_1_key":0,"state_1_choice":1,"state_1_rt":32.099999994039536,"transition":1,"state":1,"state_2_ids":[2,3],"state_2_key":0,"state_2_choice":2,"state_2_rt":725.1000000089407,"outcome":0,"rocket_colors":["#48a782","#955db9"],"planet_colors":["#7f5d5d","#5f6f81"],"screen_resolution":[1920,1080],"minimum_resolution":1,"trial":84,"drifts":[0.591,0.316,0.454,0.449],"drift_ix":3,"trial_type":"two-step-trial","trial_index":115,"time_elapsed":1028809,"internal_node_id":"0.0-97.0-0.0","task_version":"1.0","jspsych_version":"6.3.1","browser_interactions":0,"missing":false},{"state_1_ids":[0,1],"state_1_key":1,"state_1_choice":1,"state_1_rt":256,"transition":1,"state":1,"state_2_ids":[2,3],"state_2_key":1,"state_2_choice":3,"state_2_rt":461.5,"outcome":0,"rocket_colors":["#48a782","#955db9"],"planet_colors":["#7f5d5d","#5f6f81"],"screen_resolution":[1920,1080],"minimum_resolution":1,"trial":85,"drifts":[0.57,0.324,0.436,0.421],"drift_ix":3,"trial_type":"two-step-trial","trial_index":116,"time_elapsed":1031529,"internal_node_id":"0.0-98.0-0.0","task_version":"1.0","jspsych_version":"6.3.1","browser_interactions":0,"missing":false},{"state_1_ids":[1,0],"state_1_key":1,"state_1_choice":0,"state_1_rt":186.79999999701977,"transition":1,"state":0,"state_2_ids":[0,1],"state_2_key":0,"state_2_choice":0,"state_2_rt":284.70000000298023,"outcome":1,"rocket_colors":["#48a782","#955db9"],"planet_colors":["#7f5d5d","#5f6f81"],"screen_resolution":[1920,1080],"minimum_resolution":1,"trial":86,"drifts":[0.531,0.336,0.408,0.378],"drift_ix":3,"trial_type":"two-step-trial","trial_index":117,"time_elapsed":1034003,"internal_node_id":"0.0-99.0-0.0","task_version":"1.0","jspsych_version":"6.3.1","browser_interactions":0,"missing":false},{"state_1_ids":[1,0],"state_1_key":0,"state_1_choice":1,"state_1_rt":244.70000000298023,"transition":1,"state":1,"state_2_ids":[2,3],"state_2_key":0,"state_2_choice":2,"state_2_rt":743,"outcome":0,"rocket_colors":["#48a782","#955db9"],"planet_colors":["#7f5d5d","#5f6f81"],"screen_resolution":[1920,1080],"minimum_resolution":1,"trial":87,"drifts":[0.529,0.309,0.432,0.403],"drift_ix":3,"trial_type":"two-step-trial","trial_index":118,"time_elapsed":1036993,"internal_node_id":"0.0-100.0-0.0","task_version":"1.0","jspsych_version":"6.3.1","browser_interactions":0,"missing":false},{"state_1_ids":[0,1],"state_1_key":0,"state_1_choice":0,"state_1_rt":282.5,"transition":0,"state":1,"state_2_ids":[2,3],"state_2_key":1,"state_2_choice":3,"state_2_rt":744.5,"outcome":0,"rocket_colors":["#48a782","#955db9"],"planet_colors":["#7f5d5d","#5f6f81"],"screen_resolution":[1920,1080],"minimum_resolution":1,"trial":88,"drifts":[0.532,0.296,0.431,0.406],"drift_ix":3,"trial_type":"two-step-trial","trial_index":119,"time_elapsed":1040022,"internal_node_id":"0.0-101.0-0.0","task_version":"1.0","jspsych_version":"6.3.1","browser_interactions":0,"missing":false},{"state_1_ids":[0,1],"state_1_key":0,"state_1_choice":0,"state_1_rt":81.79999999701977,"transition":1,"state":0,"state_2_ids":[0,1],"state_2_key":0,"state_2_choice":0,"state_2_rt":1110.8999999910593,"outcome":1,"rocket_colors":["#48a782","#955db9"],"planet_colors":["#7f5d5d","#5f6f81"],"screen_resolution":[1920,1080],"minimum_resolution":1,"trial":89,"drifts":[0.553,0.328,0.456,0.411],"drift_ix":3,"trial_type":"two-step-trial","trial_index":120,"time_elapsed":1043218,"internal_node_id":"0.0-102.0-0.0","task_version":"1.0","jspsych_version":"6.3.1","browser_interactions":0,"missing":false},{"state_1_ids":[1,0],"state_1_key":1,"state_1_choice":0,"state_1_rt":27.599999994039536,"transition":0,"state":1,"state_2_ids":[2,3],"state_2_key":1,"state_2_choice":3,"state_2_rt":924.9000000059605,"outcome":0,"rocket_colors":["#48a782","#955db9"],"planet_colors":["#7f5d5d","#5f6f81"],"screen_resolution":[1920,1080],"minimum_resolution":1,"trial":90,"drifts":[0.542,0.3,0.493,0.409],"drift_ix":3,"trial_type":"two-step-trial","trial_index":121,"time_elapsed":1046173,"internal_node_id":"0.0-103.0-0.0","task_version":"1.0","jspsych_version":"6.3.1","browser_interactions":0,"missing":false},{"state_1_ids":[1,0],"state_1_key":0,"state_1_choice":1,"state_1_rt":422.20000000298023,"transition":0,"state":0,"state_2_ids":[0,1],"state_2_key":0,"state_2_choice":0,"state_2_rt":1293,"outcome":1,"rocket_colors":["#48a782","#955db9"],"planet_colors":["#7f5d5d","#5f6f81"],"screen_resolution":[1920,1080],"minimum_resolution":1,"trial":91,"drifts":[0.54,0.298,0.512,0.437],"drift_ix":3,"trial_type":"two-step-trial","trial_index":122,"time_elapsed":1049891,"internal_node_id":"0.0-104.0-0.0","task_version":"1.0","jspsych_version":"6.3.1","browser_interactions":0,"missing":false},{"state_1_ids":[1,0],"state_1_key":1,"state_1_choice":0,"state_1_rt":44.3999999910593,"transition":1,"state":0,"state_2_ids":[0,1],"state_2_key":0,"state_2_choice":0,"state_2_rt":375.1000000089407,"outcome":1,"rocket_colors":["#48a782","#955db9"],"planet_colors":["#7f5d5d","#5f6f81"],"screen_resolution":[1920,1080],"minimum_resolution":1,"trial":92,"drifts":[0.564,0.281,0.499,0.45],"drift_ix":3,"trial_type":"two-step-trial","trial_index":123,"time_elapsed":1052313,"internal_node_id":"0.0-105.0-0.0","task_version":"1.0","jspsych_version":"6.3.1","browser_interactions":0,"missing":false},{"state_1_ids":[0,1],"state_1_key":0,"state_1_choice":0,"state_1_rt":129.79999999701977,"transition":1,"state":0,"state_2_ids":[0,1],"state_2_key":0,"state_2_choice":0,"state_2_rt":618.9000000059605,"outcome":1,"rocket_colors":["#48a782","#955db9"],"planet_colors":["#7f5d5d","#5f6f81"],"screen_resolution":[1920,1080],"minimum_resolution":1,"trial":93,"drifts":[0.542,0.268,0.44,0.42],"drift_ix":3,"trial_type":"two-step-trial","trial_index":124,"time_elapsed":1055065,"internal_node_id":"0.0-106.0-0.0","task_version":"1.0","jspsych_version":"6.3.1","browser_interactions":0,"missing":false},{"state_1_ids":[1,0],"state_1_key":1,"state_1_choice":0,"state_1_rt":184.5,"transition":1,"state":0,"state_2_ids":[0,1],"state_2_key":0,"state_2_choice":0,"state_2_rt":615.1000000089407,"outcome":1,"rocket_colors":["#48a782","#955db9"],"planet_colors":["#7f5d5d","#5f6f81"],"screen_resolution":[1920,1080],"minimum_resolution":1,"trial":94,"drifts":[0.539,0.26,0.421,0.438],"drift_ix":3,"trial_type":"two-step-trial","trial_index":125,"time_elapsed":1057868,"internal_node_id":"0.0-107.0-0.0","task_version":"1.0","jspsych_version":"6.3.1","browser_interactions":0,"missing":false},{"state_1_ids":[0,1],"state_1_key":0,"state_1_choice":0,"state_1_rt":63.599999994039536,"transition":1,"state":0,"state_2_ids":[0,1],"state_2_key":0,"state_2_choice":0,"state_2_rt":373.70000000298023,"outcome":0,"rocket_colors":["#48a782","#955db9"],"planet_colors":["#7f5d5d","#5f6f81"],"screen_resolution":[1920,1080],"minimum_resolution":1,"trial":95,"drifts":[0.583,0.272,0.407,0.449],"drift_ix":3,"trial_type":"two-step-trial","trial_index":126,"time_elapsed":1060307,"internal_node_id":"0.0-108.0-0.0","task_version":"1.0","jspsych_version":"6.3.1","browser_interactions":0,"missing":false},{"state_1_ids":[0,1],"state_1_key":0,"state_1_choice":0,"state_1_rt":209.8999999910593,"transition":1,"state":0,"state_2_ids":[0,1],"state_2_key":0,"state_2_choice":0,"state_2_rt":243.3999999910593,"outcome":1,"rocket_colors":["#48a782","#955db9"],"planet_colors":["#7f5d5d","#5f6f81"],"screen_resolution":[1920,1080],"minimum_resolution":1,"trial":96,"drifts":[0.596,0.257,0.37,0.508],"drift_ix":3,"trial_type":"two-step-trial","trial_index":127,"time_elapsed":1062763,"internal_node_id":"0.0-109.0-0.0","task_version":"1.0","jspsych_version":"6.3.1","browser_interactions":0,"missing":false},{"state_1_ids":[0,1],"state_1_key":1,"state_1_choice":1,"state_1_rt":164.29999999701977,"transition":1,"state":1,"state_2_ids":[2,3],"state_2_key":0,"state_2_choice":2,"state_2_rt":1559.5,"outcome":1,"rocket_colors":["#48a782","#955db9"],"planet_colors":["#7f5d5d","#5f6f81"],"screen_resolution":[1920,1080],"minimum_resolution":1,"trial":97,"drifts":[0.6,0.317,0.384,0.526],"drift_ix":3,"trial_type":"two-step-trial","trial_index":128,"time_elapsed":1066490,"internal_node_id":"0.0-110.0-0.0","task_version":"1.0","jspsych_version":"6.3.1","browser_interactions":0,"missing":false},{"state_1_ids":[0,1],"state_1_key":0,"state_1_choice":0,"state_1_rt":253.5,"transition":1,"state":0,"state_2_ids":[0,1],"state_2_key":0,"state_2_choice":0,"state_2_rt":343.5,"outcome":1,"rocket_colors":["#48a782","#955db9"],"planet_colors":["#7f5d5d","#5f6f81"],"screen_resolution":[1920,1080],"minimum_resolution":1,"trial":98,"drifts":[0.573,0.304,0.387,0.504],"drift_ix":3,"trial_type":"two-step-trial","trial_index":129,"time_elapsed":1069089,"internal_node_id":"0.0-111.0-0.0","task_version":"1.0","jspsych_version":"6.3.1","browser_interactions":0,"missing":false},{"state_1_ids":[0,1],"state_1_key":1,"state_1_choice":1,"state_1_rt":224,"transition":0,"state":0,"state_2_ids":[0,1],"state_2_key":0,"state_2_choice":0,"state_2_rt":565.4000000059605,"outcome":0,"rocket_colors":["#48a782","#955db9"],"planet_colors":["#7f5d5d","#5f6f81"],"screen_resolution":[1920,1080],"minimum_resolution":1,"trial":99,"drifts":[0.567,0.288,0.405,0.531],"drift_ix":3,"trial_type":"two-step-trial","trial_index":130,"time_elapsed":1071881,"internal_node_id":"0.0-112.0-0.0","task_version":"1.0","jspsych_version":"6.3.1","browser_interactions":0,"missing":false},{"state_1_ids":[0,1],"state_1_key":1,"state_1_choice":1,"state_1_rt":62.099999994039536,"transition":1,"state":1,"state_2_ids":[2,3],"state_2_key":0,"state_2_choice":2,"state_2_rt":841.5999999940395,"outcome":0,"rocket_colors":["#48a782","#955db9"],"planet_colors":["#7f5d5d","#5f6f81"],"screen_resolution":[1920,1080],"minimum_resolution":1,"trial":100,"drifts":[0.535,0.255,0.402,0.526],"drift_ix":3,"trial_type":"two-step-trial","trial_index":131,"time_elapsed":1074787,"internal_node_id":"0.0-113.0-0.0","task_version":"1.0","jspsych_version":"6.3.1","browser_interactions":0,"missing":false},{"view_history":"[{\"page_index\":0,\"viewing_time\":764819.099999994},{\"page_index\":1,\"viewing_time\":9096}]","rt":773915.400000006,"trial_type":"two-step-instructions","trial_index":132,"time_elapsed":1848704,"internal_node_id":"0.0-114.0","task_version":"1.0","jspsych_version":"6.3.1"},{"state_1_ids":[1,0],"state_1_key":1,"state_1_choice":0,"state_1_rt":2535.0999999940395,"transition":0,"state":1,"state_2_ids":[2,3],"state_2_key":0,"state_2_choice":2,"state_2_rt":912.9000000059605,"outcome":0,"rocket_colors":["#48a782","#955db9"],"planet_colors":["#7f5d5d","#5f6f81"],"screen_resolution":[1920,1080],"minimum_resolution":1,"trial":101,"drifts":[0.52,0.27,0.348,0.507],"drift_ix":3,"trial_type":"two-step-trial","trial_index":133,"time_elapsed":1854156,"internal_node_id":"0.0-115.0-0.0","task_version":"1.0","jspsych_version":"6.3.1","browser_interactions":0,"missing":false},{"state_1_ids":[1,0],"state_1_key":1,"state_1_choice":0,"state_1_rt":244.40000000596046,"transition":1,"state":0,"state_2_ids":[0,1],"state_2_key":0,"state_2_choice":0,"state_2_rt":929.4000000059605,"outcome":1,"rocket_colors":["#48a782","#955db9"],"planet_colors":["#7f5d5d","#5f6f81"],"screen_resolution":[1920,1080],"minimum_resolution":1,"trial":102,"drifts":[0.518,0.277,0.374,0.503],"drift_ix":3,"trial_type":"two-step-trial","trial_index":134,"time_elapsed":1857332,"internal_node_id":"0.0-116.0-0.0","task_version":"1.0","jspsych_version":"6.3.1","browser_interactions":0,"missing":false},{"state_1_ids":[0,1],"state_1_key":0,"state_1_choice":0,"state_1_rt":1244.3999999910593,"transition":1,"state":0,"state_2_ids":[0,1],"state_2_key":0,"state_2_choice":0,"state_2_rt":826.7999999970198,"outcome":1,"rocket_colors":["#48a782","#955db9"],"planet_colors":["#7f5d5d","#5f6f81"],"screen_resolution":[1920,1080],"minimum_resolution":1,"trial":103,"drifts":[0.492,0.318,0.345,0.483],"drift_ix":3,"trial_type":"two-step-trial","trial_index":135,"time_elapsed":1861406,"internal_node_id":"0.0-117.0-0.0","task_version":"1.0","jspsych_version":"6.3.1","browser_interactions":0,"missing":false},{"state_1_ids":[1,0],"state_1_key":1,"state_1_choice":0,"state_1_rt":736.2999999970198,"transition":1,"state":0,"state_2_ids":[0,1],"state_2_key":0,"state_2_choice":0,"state_2_rt":867.0999999940395,"outcome":1,"rocket_colors":["#48a782","#955db9"],"planet_colors":["#7f5d5d","#5f6f81"],"screen_resolution":[1920,1080],"minimum_resolution":1,"trial":104,"drifts":[0.494,0.305,0.344,0.485],"drift_ix":3,"trial_type":"two-step-trial","trial_index":136,"time_elapsed":1865012,"internal_node_id":"0.0-118.0-0.0","task_version":"1.0","jspsych_version":"6.3.1","browser_interactions":0,"missing":false},{"state_1_ids":[1,0],"state_1_key":0,"state_1_choice":1,"state_1_rt":100.5,"transition":0,"state":0,"state_2_ids":[0,1],"state_2_key":0,"state_2_choice":0,"state_2_rt":661.0999999940395,"outcome":0,"rocket_colors":["#48a782","#955db9"],"planet_colors":["#7f5d5d","#5f6f81"],"screen_resolution":[1920,1080],"minimum_resolution":1,"trial":105,"drifts":[0.496,0.279,0.36,0.503],"drift_ix":3,"trial_type":"two-step-trial","trial_index":137,"time_elapsed":1867776,"internal_node_id":"0.0-119.0-0.0","task_version":"1.0","jspsych_version":"6.3.1","browser_interactions":0,"missing":false},{"state_1_ids":[1,0],"state_1_key":1,"state_1_choice":0,"state_1_rt":109.29999999701977,"transition":1,"state":0,"state_2_ids":[0,1],"state_2_key":0,"state_2_choice":0,"state_2_rt":372.70000000298023,"outcome":0,"rocket_colors":["#48a782","#955db9"],"planet_colors":["#7f5d5d","#5f6f81"],"screen_resolution":[1920,1080],"minimum_resolution":1,"trial":106,"drifts":[0.522,0.291,0.358,0.537],"drift_ix":3,"trial_type":"two-step-trial","trial_index":138,"time_elapsed":1870262,"internal_node_id":"0.0-120.0-0.0","task_version":"1.0","jspsych_version":"6.3.1","browser_interactions":0,"missing":false},{"state_1_ids":[1,0],"state_1_key":0,"state_1_choice":1,"state_1_rt":78,"transition":1,"state":1,"state_2_ids":[2,3],"state_2_key":1,"state_2_choice":3,"state_2_rt":1361.0999999940395,"outcome":1,"rocket_colors":["#48a782","#955db9"],"planet_colors":["#7f5d5d","#5f6f81"],"screen_resolution":[1920,1080],"minimum_resolution":1,"trial":107,"drifts":[0.481,0.324,0.357,0.499],"drift_ix":3,"trial_type":"two-step-trial","trial_index":139,"time_elapsed":1873703,"internal_node_id":"0.0-121.0-0.0","task_version":"1.0","jspsych_version":"6.3.1","browser_interactions":0,"missing":false},{"state_1_ids":[0,1],"state_1_key":0,"state_1_choice":0,"state_1_rt":234.59999999403954,"transition":0,"state":1,"state_2_ids":[2,3],"state_2_key":1,"state_2_choice":3,"state_2_rt":417,"outcome":0,"rocket_colors":["#48a782","#955db9"],"planet_colors":["#7f5d5d","#5f6f81"],"screen_resolution":[1920,1080],"minimum_resolution":1,"trial":108,"drifts":[0.504,0.334,0.327,0.481],"drift_ix":3,"trial_type":"two-step-trial","trial_index":140,"time_elapsed":1876357,"internal_node_id":"0.0-122.0-0.0","task_version":"1.0","jspsych_version":"6.3.1","browser_interactions":0,"missing":false},{"state_1_ids":[1,0],"state_1_key":0,"state_1_choice":1,"state_1_rt":436.29999999701977,"transition":1,"state":1,"state_2_ids":[2,3],"state_2_key":1,"state_2_choice":3,"state_2_rt":369.09999999403954,"outcome":0,"rocket_colors":["#48a782","#955db9"],"planet_colors":["#7f5d5d","#5f6f81"],"screen_resolution":[1920,1080],"minimum_resolution":1,"trial":109,"drifts":[0.526,0.339,0.308,0.485],"drift_ix":3,"trial_type":"two-step-trial","trial_index":141,"time_elapsed":1879166,"internal_node_id":"0.0-123.0-0.0","task_version":"1.0","jspsych_version":"6.3.1","browser_interactions":0,"missing":false},{"state_1_ids":[1,0],"state_1_key":1,"state_1_choice":0,"state_1_rt":295.90000000596046,"transition":0,"state":1,"state_2_ids":[2,3],"state_2_key":0,"state_2_choice":2,"state_2_rt":631.2999999970198,"outcome":0,"rocket_colors":["#48a782","#955db9"],"planet_colors":["#7f5d5d","#5f6f81"],"screen_resolution":[1920,1080],"minimum_resolution":1,"trial":110,"drifts":[0.551,0.358,0.295,0.444],"drift_ix":3,"trial_type":"two-step-trial","trial_index":142,"time_elapsed":1882096,"internal_node_id":"0.0-124.0-0.0","task_version":"1.0","jspsych_version":"6.3.1","browser_interactions":0,"missing":false},{"state_1_ids":[0,1],"state_1_key":1,"state_1_choice":1,"state_1_rt":0.10000000894069672,"transition":1,"state":1,"state_2_ids":[2,3],"state_2_key":0,"state_2_choice":2,"state_2_rt":519,"outcome":0,"rocket_colors":["#48a782","#955db9"],"planet_colors":["#7f5d5d","#5f6f81"],"screen_resolution":[1920,1080],"minimum_resolution":1,"trial":111,"drifts":[0.517,0.359,0.323,0.417],"drift_ix":3,"trial_type":"two-step-trial","trial_index":143,"time_elapsed":1884617,"internal_node_id":"0.0-125.0-0.0","task_version":"1.0","jspsych_version":"6.3.1","browser_interactions":0,"missing":false},{"state_1_ids":[1,0],"state_1_key":1,"state_1_choice":0,"state_1_rt":172.3999999910593,"transition":0,"state":1,"state_2_ids":[2,3],"state_2_key":1,"state_2_choice":3,"state_2_rt":394.79999999701977,"outcome":0,"rocket_colors":["#48a782","#955db9"],"planet_colors":["#7f5d5d","#5f6f81"],"screen_resolution":[1920,1080],"minimum_resolution":1,"trial":112,"drifts":[0.506,0.34,0.322,0.412],"drift_ix":3,"trial_type":"two-step-trial","trial_index":144,"time_elapsed":1887188,"internal_node_id":"0.0-126.0-0.0","task_version":"1.0","jspsych_version":"6.3.1","browser_interactions":0,"missing":false},{"state_1_ids":[1,0],"state_1_key":0,"state_1_choice":1,"state_1_rt":151.80000001192093,"transition":1,"state":1,"state_2_ids":[2,3],"state_2_key":0,"state_2_choice":2,"state_2_rt":417.09999999403954,"outcome":0,"rocket_colors":["#48a782","#955db9"],"planet_colors":["#7f5d5d","#5f6f81"],"screen_resolution":[1920,1080],"minimum_resolution":1,"trial":113,"drifts":[0.467,0.28,0.348,0.413],"drift_ix":3,"trial_type":"two-step-trial","trial_index":145,"time_elapsed":1889759,"internal_node_id":"0.0-127.0-0.0","task_version":"1.0","jspsych_version":"6.3.1","browser_interactions":0,"missing":false},{"state_1_ids":[1,0],"state_1_key":0,"state_1_choice":1,"state_1_rt":146.29999999701977,"transition":1,"state":1,"state_2_ids":[2,3],"state_2_key":0,"state_2_choice":2,"state_2_rt":367.40000000596046,"outcome":1,"rocket_colors":["#48a782","#955db9"],"planet_colors":["#7f5d5d","#5f6f81"],"screen_resolution":[1920,1080],"minimum_resolution":1,"trial":114,"drifts":[0.494,0.276,0.373,0.43],"drift_ix":3,"trial_type":"two-step-trial","trial_index":146,"time_elapsed":1892275,"internal_node_id":"0.0-128.0-0.0","task_version":"1.0","jspsych_version":"6.3.1","browser_interactions":0,"missing":false},{"state_1_ids":[1,0],"state_1_key":0,"state_1_choice":1,"state_1_rt":255,"transition":1,"state":1,"state_2_ids":[2,3],"state_2_key":0,"state_2_choice":2,"state_2_rt":367.70000000298023,"outcome":1,"rocket_colors":["#48a782","#955db9"],"planet_colors":["#7f5d5d","#5f6f81"],"screen_resolution":[1920,1080],"minimum_resolution":1,"trial":115,"drifts":[0.493,0.258,0.428,0.412],"drift_ix":3,"trial_type":"two-step-trial","trial_index":147,"time_elapsed":1894901,"internal_node_id":"0.0-129.0-0.0","task_version":"1.0","jspsych_version":"6.3.1","browser_interactions":0,"missing":false},{"state_1_ids":[1,0],"state_1_key":1,"state_1_choice":0,"state_1_rt":186.29999999701977,"transition":1,"state":0,"state_2_ids":[0,1],"state_2_key":0,"state_2_choice":0,"state_2_rt":350.8999999910593,"outcome":1,"rocket_colors":["#48a782","#955db9"],"planet_colors":["#7f5d5d","#5f6f81"],"screen_resolution":[1920,1080],"minimum_resolution":1,"trial":116,"drifts":[0.492,0.266,0.447,0.466],"drift_ix":3,"trial_type":"two-step-trial","trial_index":148,"time_elapsed":1897441,"internal_node_id":"0.0-130.0-0.0","task_version":"1.0","jspsych_version":"6.3.1","browser_interactions":0,"missing":false},{"state_1_ids":[0,1],"state_1_key":0,"state_1_choice":0,"state_1_rt":50.19999998807907,"transition":1,"state":0,"state_2_ids":[0,1],"state_2_key":0,"state_2_choice":0,"state_2_rt":88.70000000298023,"outcome":0,"rocket_colors":["#48a782","#955db9"],"planet_colors":["#7f5d5d","#5f6f81"],"screen_resolution":[1920,1080],"minimum_resolution":1,"trial":117,"drifts":[0.512,0.269,0.457,0.471],"drift_ix":3,"trial_type":"two-step-trial","trial_index":149,"time_elapsed":1899584,"internal_node_id":"0.0-131.0-0.0","task_version":"1.0","jspsych_version":"6.3.1","browser_interactions":0,"missing":false},{"state_1_ids":[0,1],"state_1_key":1,"state_1_choice":1,"state_1_rt":135.8999999910593,"transition":0,"state":0,"state_2_ids":[0,1],"state_2_key":0,"state_2_choice":0,"state_2_rt":865.5,"outcome":0,"rocket_colors":["#48a782","#955db9"],"planet_colors":["#7f5d5d","#5f6f81"],"screen_resolution":[1920,1080],"minimum_resolution":1,"trial":118,"drifts":[0.551,0.283,0.506,0.484],"drift_ix":3,"trial_type":"two-step-trial","trial_index":150,"time_elapsed":1902587,"internal_node_id":"0.0-132.0-0.0","task_version":"1.0","jspsych_version":"6.3.1","browser_interactions":0,"missing":false},{"state_1_ids":[1,0],"state_1_key":0,"state_1_choice":1,"state_1_rt":192.3999999910593,"transition":1,"state":1,"state_2_ids":[2,3],"state_2_key":0,"state_2_choice":2,"state_2_rt":631.0999999940395,"outcome":1,"rocket_colors":["#48a782","#955db9"],"planet_colors":["#7f5d5d","#5f6f81"],"screen_resolution":[1920,1080],"minimum_resolution":1,"trial":119,"drifts":[0.537,0.273,0.462,0.473],"drift_ix":3,"trial_type":"two-step-trial","trial_index":151,"time_elapsed":1905412,"internal_node_id":"0.0-133.0-0.0","task_version":"1.0","jspsych_version":"6.3.1","browser_interactions":0,"missing":false},{"state_1_ids":[1,0],"state_1_key":1,"state_1_choice":0,"state_1_rt":406.79999999701977,"transition":1,"state":0,"state_2_ids":[0,1],"state_2_key":0,"state_2_choice":0,"state_2_rt":949.5,"outcome":0,"rocket_colors":["#48a782","#955db9"],"planet_colors":["#7f5d5d","#5f6f81"],"screen_resolution":[1920,1080],"minimum_resolution":1,"trial":120,"drifts":[0.49,0.26,0.46,0.477],"drift_ix":3,"trial_type":"two-step-trial","trial_index":152,"time_elapsed":1908771,"internal_node_id":"0.0-134.0-0.0","task_version":"1.0","jspsych_version":"6.3.1","browser_interactions":0,"missing":false},{"state_1_ids":[1,0],"state_1_key":1,"state_1_choice":0,"state_1_rt":859.9000000059605,"transition":0,"state":1,"state_2_ids":[2,3],"state_2_key":0,"state_2_choice":2,"state_2_rt":1029.5,"outcome":0,"rocket_colors":["#48a782","#955db9"],"planet_colors":["#7f5d5d","#5f6f81"],"screen_resolution":[1920,1080],"minimum_resolution":1,"trial":121,"drifts":[0.547,0.275,0.457,0.431],"drift_ix":3,"trial_type":"two-step-trial","trial_index":153,"time_elapsed":1912663,"internal_node_id":"0.0-135.0-0.0","task_version":"1.0","jspsych_version":"6.3.1","browser_interactions":0,"missing":false},{"state_1_ids":[0,1],"state_1_key":1,"state_1_choice":1,"state_1_rt":688.5999999940395,"transition":1,"state":1,"state_2_ids":[2,3],"state_2_key":1,"state_2_choice":3,"state_2_rt":505.09999999403954,"outcome":0,"rocket_colors":["#48a782","#955db9"],"planet_colors":["#7f5d5d","#5f6f81"],"screen_resolution":[1920,1080],"minimum_resolution":1,"trial":122,"drifts":[0.578,0.269,0.386,0.411],"drift_ix":3,"trial_type":"two-step-trial","trial_index":154,"time_elapsed":1915859,"internal_node_id":"0.0-136.0-0.0","task_version":"1.0","jspsych_version":"6.3.1","browser_interactions":0,"missing":false},{"state_1_ids":[1,0],"state_1_key":1,"state_1_choice":0,"state_1_rt":230.20000000298023,"transition":1,"state":0,"state_2_ids":[0,1],"state_2_key":1,"state_2_choice":1,"state_2_rt":372.90000000596046,"outcome":1,"rocket_colors":["#48a782","#955db9"],"planet_colors":["#7f5d5d","#5f6f81"],"screen_resolution":[1920,1080],"minimum_resolution":1,"trial":123,"drifts":[0.639,0.269,0.384,0.429],"drift_ix":3,"trial_type":"two-step-trial","trial_index":155,"time_elapsed":1918465,"internal_node_id":"0.0-137.0-0.0","task_version":"1.0","jspsych_version":"6.3.1","browser_interactions":0,"missing":false},{"state_1_ids":[0,1],"state_1_key":0,"state_1_choice":0,"state_1_rt":228.09999999403954,"transition":1,"state":0,"state_2_ids":[0,1],"state_2_key":1,"state_2_choice":1,"state_2_rt":426.5,"outcome":1,"rocket_colors":["#48a782","#955db9"],"planet_colors":["#7f5d5d","#5f6f81"],"screen_resolution":[1920,1080],"minimum_resolution":1,"trial":124,"drifts":[0.636,0.254,0.416,0.449],"drift_ix":3,"trial_type":"two-step-trial","trial_index":156,"time_elapsed":1921122,"internal_node_id":"0.0-138.0-0.0","task_version":"1.0","jspsych_version":"6.3.1","browser_interactions":0,"missing":false},{"state_1_ids":[1,0],"state_1_key":0,"state_1_choice":1,"state_1_rt":382.6000000089407,"transition":0,"state":0,"state_2_ids":[0,1],"state_2_key":1,"state_2_choice":1,"state_2_rt":865.0999999940395,"outcome":0,"rocket_colors":["#48a782","#955db9"],"planet_colors":["#7f5d5d","#5f6f81"],"screen_resolution":[1920,1080],"minimum_resolution":1,"trial":125,"drifts":[0.665,0.257,0.44,0.433],"drift_ix":3,"trial_type":"two-step-trial","trial_index":157,"time_elapsed":1924372,"internal_node_id":"0.0-139.0-0.0","task_version":"1.0","jspsych_version":"6.3.1","browser_interactions":0,"missing":false},{"state_1_ids":[1,0],"state_1_key":1,"state_1_choice":0,"state_1_rt":350.19999998807907,"transition":0,"state":1,"state_2_ids":[2,3],"state_2_key":1,"state_2_choice":3,"state_2_rt":279.3999999910593,"outcome":1,"rocket_colors":["#48a782","#955db9"],"planet_colors":["#7f5d5d","#5f6f81"],"screen_resolution":[1920,1080],"minimum_resolution":1,"trial":126,"drifts":[0.694,0.25,0.453,0.414],"drift_ix":3,"trial_type":"two-step-trial","trial_index":158,"time_elapsed":1927003,"internal_node_id":"0.0-140.0-0.0","task_version":"1.0","jspsych_version":"6.3.1","browser_interactions":0,"missing":false},{"state_1_ids":[1,0],"state_1_key":0,"state_1_choice":1,"state_1_rt":656.7999999970198,"transition":1,"state":1,"state_2_ids":[2,3],"state_2_key":1,"state_2_choice":3,"state_2_rt":755.1000000089407,"outcome":1,"rocket_colors":["#48a782","#955db9"],"planet_colors":["#7f5d5d","#5f6f81"],"screen_resolution":[1920,1080],"minimum_resolution":1,"trial":127,"drifts":[0.666,0.266,0.449,0.399],"drift_ix":3,"trial_type":"two-step-trial","trial_index":159,"time_elapsed":1930418,"internal_node_id":"0.0-141.0-0.0","task_version":"1.0","jspsych_version":"6.3.1","browser_interactions":0,"missing":false},{"state_1_ids":[1,0],"state_1_key":1,"state_1_choice":0,"state_1_rt":240.59999999403954,"transition":0,"state":1,"state_2_ids":[2,3],"state_2_key":1,"state_2_choice":3,"state_2_rt":649.2999999970198,"outcome":1,"rocket_colors":["#48a782","#955db9"],"planet_colors":["#7f5d5d","#5f6f81"],"screen_resolution":[1920,1080],"minimum_resolution":1,"trial":128,"drifts":[0.66,0.272,0.461,0.39],"drift_ix":3,"trial_type":"two-step-trial","trial_index":160,"time_elapsed":1933310,"internal_node_id":"0.0-142.0-0.0","task_version":"1.0","jspsych_version":"6.3.1","browser_interactions":0,"missing":false},{"state_1_ids":[1,0],"state_1_key":0,"state_1_choice":1,"state_1_rt":285.90000000596046,"transition":0,"state":0,"state_2_ids":[0,1],"state_2_key":0,"state_2_choice":0,"state_2_rt":942.7999999970198,"outcome":0,"rocket_colors":["#48a782","#955db9"],"planet_colors":["#7f5d5d","#5f6f81"],"screen_resolution":[1920,1080],"minimum_resolution":1,"trial":129,"drifts":[0.677,0.288,0.452,0.388],"drift_ix":3,"trial_type":"two-step-trial","trial_index":161,"time_elapsed":1936542,"internal_node_id":"0.0-143.0-0.0","task_version":"1.0","jspsych_version":"6.3.1","browser_interactions":0,"missing":false},{"state_1_ids":[1,0],"state_1_key":1,"state_1_choice":0,"state_1_rt":130.29999999701977,"transition":1,"state":0,"state_2_ids":[0,1],"state_2_key":1,"state_2_choice":1,"state_2_rt":1233.199999988079,"outcome":0,"rocket_colors":["#48a782","#955db9"],"planet_colors":["#7f5d5d","#5f6f81"],"screen_resolution":[1920,1080],"minimum_resolution":1,"trial":130,"drifts":[0.654,0.252,0.415,0.434],"drift_ix":3,"trial_type":"two-step-trial","trial_index":162,"time_elapsed":1939908,"internal_node_id":"0.0-144.0-0.0","task_version":"1.0","jspsych_version":"6.3.1","browser_interactions":0,"missing":false},{"state_1_ids":[0,1],"state_1_key":0,"state_1_choice":0,"state_1_rt":228.3999999910593,"transition":1,"state":0,"state_2_ids":[0,1],"state_2_key":1,"state_2_choice":1,"state_2_rt":333.69999998807907,"outcome":1,"rocket_colors":["#48a782","#955db9"],"planet_colors":["#7f5d5d","#5f6f81"],"screen_resolution":[1920,1080],"minimum_resolution":1,"trial":131,"drifts":[0.662,0.271,0.398,0.411],"drift_ix":3,"trial_type":"two-step-trial","trial_index":163,"time_elapsed":1942473,"internal_node_id":"0.0-145.0-0.0","task_version":"1.0","jspsych_version":"6.3.1","browser_interactions":0,"missing":false},{"state_1_ids":[1,0],"state_1_key":0,"state_1_choice":1,"state_1_rt":255.79999999701977,"transition":1,"state":1,"state_2_ids":[2,3],"state_2_key":1,"state_2_choice":3,"state_2_rt":429.3999999910593,"outcome":1,"rocket_colors":["#48a782","#955db9"],"planet_colors":["#7f5d5d","#5f6f81"],"screen_resolution":[1920,1080],"minimum_resolution":1,"trial":132,"drifts":[0.661,0.29,0.402,0.435],"drift_ix":3,"trial_type":"two-step-trial","trial_index":164,"time_elapsed":1945160,"internal_node_id":"0.0-146.0-0.0","task_version":"1.0","jspsych_version":"6.3.1","browser_interactions":0,"missing":false},{"state_1_ids":[0,1],"state_1_key":1,"state_1_choice":1,"state_1_rt":64.29999999701977,"transition":1,"state":1,"state_2_ids":[2,3],"state_2_key":1,"state_2_choice":3,"state_2_rt":339.20000000298023,"outcome":0,"rocket_colors":["#48a782","#955db9"],"planet_colors":["#7f5d5d","#5f6f81"],"screen_resolution":[1920,1080],"minimum_resolution":1,"trial":133,"drifts":[0.665,0.307,0.385,0.395],"drift_ix":3,"trial_type":"two-step-trial","trial_index":165,"time_elapsed":1947566,"internal_node_id":"0.0-147.0-0.0","task_version":"1.0","jspsych_version":"6.3.1","browser_interactions":0,"missing":false},{"state_1_ids":[0,1],"state_1_key":0,"state_1_choice":0,"state_1_rt":244.29999999701977,"transition":1,"state":0,"state_2_ids":[0,1],"state_2_key":1,"state_2_choice":1,"state_2_rt":585.0999999940395,"outcome":0,"rocket_colors":["#48a782","#955db9"],"planet_colors":["#7f5d5d","#5f6f81"],"screen_resolution":[1920,1080],"minimum_resolution":1,"trial":134,"drifts":[0.696,0.308,0.332,0.425],"drift_ix":3,"trial_type":"two-step-trial","trial_index":166,"time_elapsed":1950398,"internal_node_id":"0.0-148.0-0.0","task_version":"1.0","jspsych_version":"6.3.1","browser_interactions":0,"missing":false},{"state_1_ids":[1,0],"state_1_key":0,"state_1_choice":1,"state_1_rt":80.19999998807907,"transition":1,"state":1,"state_2_ids":[2,3],"state_2_key":1,"state_2_choice":3,"state_2_rt":297.20000000298023,"outcome":1,"rocket_colors":["#48a782","#955db9"],"planet_colors":["#7f5d5d","#5f6f81"],"screen_resolution":[1920,1080],"minimum_resolution":1,"trial":135,"drifts":[0.68,0.339,0.346,0.425],"drift_ix":3,"trial_type":"two-step-trial","trial_index":167,"time_elapsed":1952778,"internal_node_id":"0.0-149.0-0.0","task_version":"1.0","jspsych_version":"6.3.1","browser_interactions":0,"missing":false},{"state_1_ids":[0,1],"state_1_key":0,"state_1_choice":0,"state_1_rt":126.59999999403954,"transition":1,"state":0,"state_2_ids":[0,1],"state_2_key":1,"state_2_choice":1,"state_2_rt":365.20000000298023,"outcome":0,"rocket_colors":["#48a782","#955db9"],"planet_colors":["#7f5d5d","#5f6f81"],"screen_resolution":[1920,1080],"minimum_resolution":1,"trial":136,"drifts":[0.674,0.33,0.342,0.403],"drift_ix":3,"trial_type":"two-step-trial","trial_index":168,"time_elapsed":1955272,"internal_node_id":"0.0-150.0-0.0","task_version":"1.0","jspsych_version":"6.3.1","browser_interactions":0,"missing":false},{"state_1_ids":[1,0],"state_1_key":0,"state_1_choice":1,"state_1_rt":234.40000000596046,"transition":1,"state":1,"state_2_ids":[2,3],"state_2_key":1,"state_2_choice":3,"state_2_rt":357,"outcome":0,"rocket_colors":["#48a782","#955db9"],"planet_colors":["#7f5d5d","#5f6f81"],"screen_resolution":[1920,1080],"minimum_resolution":1,"trial":137,"drifts":[0.699,0.293,0.329,0.403],"drift_ix":3,"trial_type":"two-step-trial","trial_index":169,"time_elapsed":1957866,"internal_node_id":"0.0-151.0-0.0","task_version":"1.0","jspsych_version":"6.3.1","browser_interactions":0,"missing":false},{"state_1_ids":[1,0],"state_1_key":0,"state_1_choice":1,"state_1_rt":186.5,"transition":1,"state":1,"state_2_ids":[2,3],"state_2_key":1,"state_2_choice":3,"state_2_rt":230.79999999701977,"outcome":1,"rocket_colors":["#48a782","#955db9"],"planet_colors":["#7f5d5d","#5f6f81"],"screen_resolution":[1920,1080],"minimum_resolution":1,"trial":138,"drifts":[0.734,0.332,0.387,0.413],"drift_ix":3,"trial_type":"two-step-trial","trial_index":170,"time_elapsed":1960286,"internal_node_id":"0.0-152.0-0.0","task_version":"1.0","jspsych_version":"6.3.1","browser_interactions":0,"missing":false},{"state_1_ids":[0,1],"state_1_key":1,"state_1_choice":1,"state_1_rt":118.79999999701977,"transition":0,"state":0,"state_2_ids":[0,1],"state_2_key":1,"state_2_choice":1,"state_2_rt":319.79999999701977,"outcome":0,"rocket_colors":["#48a782","#955db9"],"planet_colors":["#7f5d5d","#5f6f81"],"screen_resolution":[1920,1080],"minimum_resolution":1,"trial":139,"drifts":[0.692,0.301,0.41,0.413],"drift_ix":3,"trial_type":"two-step-trial","trial_index":171,"time_elapsed":1962726,"internal_node_id":"0.0-153.0-0.0","task_version":"1.0","jspsych_version":"6.3.1","browser_interactions":0,"missing":false},{"state_1_ids":[1,0],"state_1_key":1,"state_1_choice":0,"state_1_rt":184.19999998807907,"transition":0,"state":1,"state_2_ids":[2,3],"state_2_key":1,"state_2_choice":3,"state_2_rt":725.0999999940395,"outcome":0,"rocket_colors":["#48a782","#955db9"],"planet_colors":["#7f5d5d","#5f6f81"],"screen_resolution":[1920,1080],"minimum_resolution":1,"trial":140,"drifts":[0.722,0.286,0.408,0.406],"drift_ix":3,"trial_type":"two-step-trial","trial_index":172,"time_elapsed":1965638,"internal_node_id":"0.0-154.0-0.0","task_version":"1.0","jspsych_version":"6.3.1","browser_interactions":0,"missing":false},{"state_1_ids":[1,0],"state_1_key":1,"state_1_choice":0,"state_1_rt":382.09999999403954,"transition":1,"state":0,"state_2_ids":[0,1],"state_2_key":1,"state_2_choice":1,"state_2_rt":727.4000000059605,"outcome":1,"rocket_colors":["#48a782","#955db9"],"planet_colors":["#7f5d5d","#5f6f81"],"screen_resolution":[1920,1080],"minimum_resolution":1,"trial":141,"drifts":[0.748,0.253,0.428,0.403],"drift_ix":3,"trial_type":"two-step-trial","trial_index":173,"time_elapsed":1968750,"internal_node_id":"0.0-155.0-0.0","task_version":"1.0","jspsych_version":"6.3.1","browser_interactions":0,"missing":false},{"state_1_ids":[0,1],"state_1_key":1,"state_1_choice":1,"state_1_rt":146.6000000089407,"transition":1,"state":1,"state_2_ids":[2,3],"state_2_key":1,"state_2_choice":3,"state_2_rt":349.5,"outcome":1,"rocket_colors":["#48a782","#955db9"],"planet_colors":["#7f5d5d","#5f6f81"],"screen_resolution":[1920,1080],"minimum_resolution":1,"trial":142,"drifts":[0.73,0.307,0.452,0.407],"drift_ix":3,"trial_type":"two-step-trial","trial_index":174,"time_elapsed":1971249,"internal_node_id":"0.0-156.0-0.0","task_version":"1.0","jspsych_version":"6.3.1","browser_interactions":0,"missing":false},{"state_1_ids":[0,1],"state_1_key":1,"state_1_choice":1,"state_1_rt":228.79999999701977,"transition":0,"state":0,"state_2_ids":[0,1],"state_2_key":0,"state_2_choice":0,"state_2_rt":321.40000000596046,"outcome":0,"rocket_colors":["#48a782","#955db9"],"planet_colors":["#7f5d5d","#5f6f81"],"screen_resolution":[1920,1080],"minimum_resolution":1,"trial":143,"drifts":[0.722,0.322,0.426,0.388],"drift_ix":3,"trial_type":"two-step-trial","trial_index":175,"time_elapsed":1973801,"internal_node_id":"0.0-157.0-0.0","task_version":"1.0","jspsych_version":"6.3.1","browser_interactions":0,"missing":false