[{"success":true,"timeout":false,"failed_images":[],"failed_audio":[],"failed_video":[],"trial_type":"preload","trial_index":0,"time_elapsed":717,"internal_node_id":"0.0-0.0","task_version":"1.0","jspsych_version":"6.3.1"},{"success":true,"trial_type":"fullscreen","trial_index":1,"time_elapsed":2961,"internal_node_id":"0.0-1.0","task_version":"1.0","jspsych_version":"6.3.1"},{"view_history":[{"page_index":0,"viewing_time":6441.899999976158}],"rt":6442.399999976158,"trial_type":"instructions","trial_index":2,"time_elapsed":9406,"internal_node_id":"0.0-2.0","task_version":"1.0","jspsych_version":"6.3.1"},{"responses":{"Q01":"4","Q07":"6","Q04":"4","Q06":"4","Q03":"3","Q05":"2","Q02":"1"},"rt":25477,"item_order":[0,6,3,5,2,4,1],"radio_events":[5659,7562,10022.800000011921,12208.90000000596,14194,21047.80000001192,24636.90000000596],"key_events":[],"mouse_events":[0.20000001788139343,5659,7562,10022.800000011921,12208.90000000596,14194,19618.90000000596,21047.80000001192,21863,24636.90000000596,25475.90000000596],"straightlining":0.42857142857142855,"zigzagging":0.5,"honeypot":0,"survey":"greed","trial_type":"survey-template","trial_index":3,"time_elapsed":34889,"internal_node_id":"0.0-3.0","task_version":"1.0","jspsych_version":"6.3.1"},{"responses":{"Q06":"3","Q01":"3","Q02":"3","Q07":"3","Q04":"3","Q03":"3","Q08":"0","Q05":"3"},"rt":20230.79999998212,"item_order":[5,0,1,6,3,2,7,4],"radio_events":[3901.2999999821186,4842.299999982119,7440.199999988079,8625.199999988079,10672.299999982119,11389.299999982119,15228.299999982119,18310.09999999404],"key_events":[],"mouse_events":[3901.2999999821186,4842.299999982119,7440.199999988079,8625.199999988079,9173.299999982119,10035.299999982119,10672.299999982119,11389.299999982119,15228.299999982119,17777.29999998212,18310.09999999404,20230.29999998212],"straightlining":0.875,"zigzagging":0.2857142857142857,"honeypot":0,"survey":"anxiety","trial_type":"survey-template","trial_index":4,"time_elapsed":55122,"internal_node_id":"0.0-4.0","task_version":"1.0","jspsych_version":"6.3.1"},{"responses":{"Q06":"5","Q01":"6","Q03":"6","Q05":"4","Q07":"3","Q04":"4","Q02":"6"},"rt":17049.30000001192,"item_order":[5,0,2,4,6,3,1],"radio_events":[3037.800000011921,6157.5,7976.600000023842,9437.200000017881,11976.5,15088.5,16395.30000001192],"key_events":[],"mouse_events":[3037.800000011921,6157.5,7976.600000023842,9437.200000017881,11460.5,11976.5,14193.600000023842,15088.5,16395.30000001192,17048.600000023842],"straightlining":0.2857142857142857,"zigzagging":0.5,"honeypot":0,"survey":"artistic","trial_type":"survey-template","trial_index":5,"time_elapsed":72173,"internal_node_id":"0.0-5.0","task_version":"1.0","jspsych_version":"6.3.1"},{"responses":{"Q07":"1","Q01":"1","Q04":"0","Q08":"3","Q05":"0","Q02":"1","Q06":"0","Q03":"2"},"rt":67092.90000000596,"item_order":[6,0,3,7,4,1,5,2],"radio_events":[11391.800000011921,20651.69999998808,27810.09999999404,33820.19999998808,46127.19999998808,53527.09999999404,59522.80000001192,65478.19999998808],"key_events":[],"mouse_events":[11391.800000011921,20651.69999998808,26567.19999998808,27810.09999999404,33820.19999998808,46127.19999998808,53527.09999999404,57803.19999998808,59038.19999998808,59522.80000001192,65478.19999998808,67092.30000001192],"straightlining":0.375,"zigzagging":0.7142857142857143,"honeypot":0,"survey":"mania","trial_type":"survey-template","trial_index":6,"time_elapsed":139267,"internal_node_id":"0.0-6.0","task_version":"1.0","jspsych_version":"6.3.1"},{"responses":{"Q04":"2","Q06":"2","Q08":"0","Q02":"2","Q05":"2","Q03":"2","Q07":"1","Q01":"2"},"rt":85321.19999998808,"item_order":[3,5,7,1,4,2,6,0],"radio_events":[8026.5999999940395,11383.5,51006.69999998808,55782.5,74779.69999998808,75537.5,80020.59999999404,84069.59999999404],"key_events":[],"mouse_events":[6468.399999976158,8026.5999999940395,11383.5,15717.5,51006.69999998808,54554.29999998212,55782.5,74779.69999998808,75537.5,79495.39999997616,80020.59999999404,84069.59999999404,85320.59999999404],"straightlining":0.75,"zigzagging":0.2857142857142857,"honeypot":0,"survey":"depression","trial_type":"survey-template","trial_index":7,"time_elapsed":224591,"internal_node_id":"0.0-7.0","task_version":"1.0","jspsych_version":"6.3.1"},{"view_history":"[{\"page_index\":0,\"viewing_time\":6117.5},{\"page_index\":1,\"viewing_time\":4506.9000000059605},{\"page_index\":2,\"viewing_time\":2572.9000000059605},{\"page_index\":3,\"viewing_time\":7186},{\"page_index\":4,\"viewing_time\":5315.0999999940395},{\"page_index\":5,\"viewing_time\":2136.9000000059605},{\"page_index\":6,\"viewing_time\":1565.0999999940395},{\"page_index\":7,\"viewing_time\":6863.199999988079},{\"page_index\":8,\"viewing_time\":3762.7000000178814},{\"page_index\":7,\"viewing_time\":8.299999982118607},{\"page_index\":8,\"viewing_time\":935.7000000178814},{\"page_index\":9,\"viewing_time\":4744},{\"page_index\":10,\"viewing_time\":5713.399999976158}]","rt":51428.69999998808,"trial_type":"two-step-instructions","trial_index":8,"time_elapsed":276023,"internal_node_id":"0.0-8.0-1.0","task_version":"1.0","jspsych_version":"6.3.1"},{"responses":["left/right arrow keys","True","True"],"num_errors":0,"rt":11849.899999976158,"quiz":1,"trial_type":"two-step-comprehension","trial_index":9,"time_elapsed":287878,"internal_node_id":"0.0-8.0-2.0","task_version":"1.0","jspsych_version":"6.3.1"},{"view_history":"[{\"page_index\":0,\"viewing_time\":7356.5999999940395}]","rt":7357,"phase":"instructions_1b","trial_type":"two-step-instructions","trial_index":10,"time_elapsed":295238,"internal_node_id":"0.0-9.0-0.0-0.0","task_version":"1.0","jspsych_version":"6.3.1"},{"state_2_ids":[0,1],"state_2_key":1,"state_2_choice":1,"state_2_rt":1201.5999999940395,"outcome":1,"screen_resolution":[1280,657],"minimum_resolution":1,"trial_type":"alien-practice","trial_index":11,"time_elapsed":298647,"internal_node_id":"0.0-9.0-1.0-0.0","task_version":"1.0","jspsych_version":"6.3.1"},{"state_2_ids":[0,1],"state_2_key":1,"state_2_choice":1,"state_2_rt":861,"outcome":0,"screen_resolution":[1280,657],"minimum_resolution":1,"trial_type":"alien-practice","trial_index":12,"time_elapsed":301712,"internal_node_id":"0.0-9.0-2.0-0.0","task_version":"1.0","jspsych_version":"6.3.1"},{"state_2_ids":[0,1],"state_2_key":0,"state_2_choice":0,"state_2_rt":828.0999999940395,"outcome":0,"screen_resolution":[1280,657],"minimum_resolution":1,"trial_type":"alien-practice","trial_index":13,"time_elapsed":304744,"internal_node_id":"0.0-9.0-3.0-0.0","task_version":"1.0","jspsych_version":"6.3.1"},{"state_2_ids":[0,1],"state_2_key":0,"state_2_choice":0,"state_2_rt":1018.5999999940395,"outcome":0,"screen_resolution":[1280,657],"minimum_resolution":1,"trial_type":"alien-practice","trial_index":14,"time_elapsed":307968,"internal_node_id":"0.0-9.0-4.0-0.0","task_version":"1.0","jspsych_version":"6.3.1"},{"state_2_ids":[0,1],"state_2_key":1,"state_2_choice":1,"state_2_rt":273.40000000596046,"outcome":1,"screen_resolution":[1280,657],"minimum_resolution":1,"trial_type":"alien-practice","trial_index":15,"time_elapsed":310447,"internal_node_id":"0.0-9.0-5.0-0.0","task_version":"1.0","jspsych_version":"6.3.1"},{"state_2_ids":[0,1],"state_2_key":1,"state_2_choice":1,"state_2_rt":499.09999999403954,"outcome":1,"screen_resolution":[1280,657],"minimum_resolution":1,"trial_type":"alien-practice","trial_index":16,"time_elapsed":313151,"internal_node_id":"0.0-9.0-6.0-0.0","task_version":"1.0","jspsych_version":"6.3.1"},{"state_2_ids":[0,1],"state_2_key":1,"state_2_choice":1,"state_2_rt":460.19999998807907,"outcome":1,"screen_resolution":[1280,657],"minimum_resolution":1,"trial_type":"alien-practice","trial_index":17,"time_elapsed":315816,"internal_node_id":"0.0-9.0-7.0-0.0","task_version":"1.0","jspsych_version":"6.3.1"},{"view_history":"[{\"page_index\":0,\"viewing_time\":4494.4000000059605},{\"page_index\":1,\"viewing_time\":1848.5999999940395},{\"page_index\":2,\"viewing_time\":4677.300000011921},{\"page_index\":3,\"viewing_time\":4604},{\"page_index\":4,\"viewing_time\":1905},{\"page_index\":5,\"viewing_time\":1308.0999999940395}]","rt":18837.70000001788,"trial_type":"two-step-instructions","trial_index":18,"time_elapsed":334660,"internal_node_id":"0.0-10.0-1.0","task_version":"1.0","jspsych_version":"6.3.1"},{"responses":["left/right arrow keys","True","True"],"num_errors":1,"rt":27491.79999998212,"quiz":2,"trial_type":"two-step-comprehension","trial_index":19,"time_elapsed":362153,"internal_node_id":"0.0-10.0-2.0","task_version":"1.0","jspsych_version":"6.3.1"},{"view_history":"[{\"page_index\":0,\"viewing_time\":1987.5999999940395}]","rt":1987.9000000059605,"trial_type":"two-step-instructions","trial_index":20,"time_elapsed":364144,"internal_node_id":"0.0-10.1-0.1-0.1","task_version":"1.0","jspsych_version":"6.3.1"},{"view_history":"[{\"page_index\":0,\"viewing_time\":829},{\"page_index\":1,\"viewing_time\":1668.9000000059605},{\"page_index\":2,\"viewing_time\":7574.9000000059605},{\"page_index\":3,\"viewing_time\":1759.7999999821186},{\"page_index\":4,\"viewing_time\":1065.300000011921}]","rt":12898.300000011921,"trial_type":"two-step-instructions","trial_index":21,"time_elapsed":377044,"internal_node_id":"0.0-10.1-1.1","task_version":"1.0","jspsych_version":"6.3.1"},{"responses":["left/right arrow keys","False","True"],"num_errors":0,"rt":5342.4000000059605,"quiz":2,"trial_type":"two-step-comprehension","trial_index":22,"time_elapsed":382388,"internal_node_id":"0.0-10.1-2.1","task_version":"1.0","jspsych_version":"6.3.1"},{"view_history":"[{\"page_index\":0,\"viewing_time\":9904.09999999404},{\"page_index\":1,\"viewing_time\":2760.0999999940395},{\"page_index\":2,\"viewing_time\":7277.800000011921}]","rt":19942.29999998212,"trial_type":"two-step-instructions","trial_index":23,"time_elapsed":402333,"internal_node_id":"0.0-11.0-0.0","task_version":"1.0","jspsych_version":"6.3.1"},{"state_1_ids":[1,0],"state_1_key":1,"state_1_choice":0,"state_1_rt":1543.5,"transition":1,"state":0,"state_2_ids":[0,1],"state_2_key":1,"state_2_choice":1,"state_2_rt":1204.2999999821186,"outcome":0,"rocket_colors":["#486ea7","#a75248"],"planet_colors":["#5b7c65","#706081"],"screen_resolution":[1280,657],"minimum_resolution":1,"trial":0,"trial_type":"two-step-trial","trial_index":24,"time_elapsed":407088,"internal_node_id":"0.0-11.0-1.0-0.0","task_version":"1.0","jspsych_version":"6.3.1","missing":false},{"state_1_ids":[0,1],"state_1_key":0,"state_1_choice":0,"state_1_rt":1273.3999999761581,"transition":1,"state":0,"state_2_ids":[0,1],"state_2_key":1,"state_2_choice":1,"state_2_rt":1119.800000011921,"outcome":0,"rocket_colors":["#486ea7","#a75248"],"planet_colors":["#5b7c65","#706081"],"screen_resolution":[1280,657],"minimum_resolution":1,"trial":0,"trial_type":"two-step-trial","trial_index":25,"time_elapsed":411495,"internal_node_id":"0.0-11.0-1.0-0.1","task_version":"1.0","jspsych_version":"6.3.1","missing":false},{"state_1_ids":[0,1],"state_1_key":1,"state_1_choice":1,"state_1_rt":1221.800000011921,"transition":0,"state":0,"state_2_ids":[0,1],"state_2_key":0,"state_2_choice":0,"state_2_rt":1652.1000000238419,"outcome":1,"rocket_colors":["#486ea7","#a75248"],"planet_colors":["#5b7c65","#706081"],"screen_resolution":[1280,657],"minimum_resolution":1,"trial":0,"trial_type":"two-step-trial","trial_index":26,"time_elapsed":416375,"internal_node_id":"0.0-11.0-1.0-0.2","task_version":"1.0","jspsych_version":"6.3.1","missing":false},{"state_1_ids":[0,1],"state_1_key":1,"state_1_choice":1,"state_1_rt":1236.4000000059605,"transition":0,"state":0,"state_2_ids":[0,1],"state_2_key":0,"state_2_choice":0,"state_2_rt":694.0999999940395,"outcome":1,"rocket_colors":["#486ea7","#a75248"],"planet_colors":["#5b7c65","#706081"],"screen_resolution":[1280,657],"minimum_resolution":1,"trial":0,"trial_type":"two-step-trial","trial_index":27,"time_elapsed":420311,"internal_node_id":"0.0-11.0-1.0-0.3","task_version":"1.0","jspsych_version":"6.3.1","missing":false},{"state_1_ids":[1,0],"state_1_key":0,"state_1_choice":1,"state_1_rt":8357.5,"transition":1,"state":1,"state_2_ids":[2,3],"state_2_key":0,"state_2_choice":2,"state_2_rt":1701.3999999761581,"outcome":0,"rocket_colors":["#486ea7","#a75248"],"planet_colors":["#5b7c65","#706081"],"screen_resolution":[1280,657],"minimum_resolution":1,"trial":0,"trial_type":"two-step-trial","trial_index":28,"time_elapsed":432376,"internal_node_id":"0.0-11.0-1.0-0.4","task_version":"1.0","jspsych_version":"6.3.1","missing":false},{"state_1_ids":[1,0],"state_1_key":0,"state_1_choice":1,"state_1_rt":925.5,"transition":1,"state":1,"state_2_ids":[2,3],"state_2_key":1,"state_2_choice":3,"state_2_rt":1236.7999999821186,"outcome":1,"rocket_colors":["#486ea7","#a75248"],"planet_colors":["#5b7c65","#706081"],"screen_resolution":[1280,657],"minimum_resolution":1,"trial":0,"trial_type":"two-step-trial","trial_index":29,"time_elapsed":436544,"internal_node_id":"0.0-11.0-1.0-0.5","task_version":"1.0","jspsych_version":"6.3.1","missing":false},{"state_1_ids":[1,0],"state_1_key":0,"state_1_choice":1,"state_1_rt":980.2000000178814,"transition":1,"state":1,"state_2_ids":[2,3],"state_2_key":1,"state_2_choice":3,"state_2_rt":512.7999999821186,"outcome":1,"rocket_colors":["#486ea7","#a75248"],"planet_colors":["#5b7c65","#706081"],"screen_resolution":[1280,657],"minimum_resolution":1,"trial":0,"trial_type":"two-step-trial","trial_index":30,"time_elapsed":440047,"internal_node_id":"0.0-11.0-1.0-0.6","task_version":"1.0","jspsych_version":"6.3.1","missing":false},{"state_1_ids":[1,0],"state_1_key":1,"state_1_choice":0,"state_1_rt":972.6999999880791,"transition":1,"state":0,"state_2_ids":[0,1],"state_2_key":1,"state_2_choice":1,"state_2_rt":1055,"outcome":0,"rocket_colors":["#486ea7","#a75248"],"planet_colors":["#5b7c65","#706081"],"screen_resolution":[1280,657],"minimum_resolution":1,"trial":0,"trial_type":"two-step-trial","trial_index":31,"time_elapsed":444079,"internal_node_id":"0.0-11.0-1.0-0.7","task_version":"1.0","jspsych_version":"6.3.1","missing":false},{"state_1_ids":[0,1],"state_1_key":1,"state_1_choice":1,"state_1_rt":1260.300000011921,"transition":1,"state":1,"state_2_ids":[2,3],"state_2_key":1,"state_2_choice":3,"state_2_rt":1838.7000000178814,"outcome":1,"rocket_colors":["#486ea7","#a75248"],"planet_colors":["#5b7c65","#706081"],"screen_resolution":[1280,657],"minimum_resolution":1,"trial":0,"trial_type":"two-step-trial","trial_index":32,"time_elapsed":449184,"internal_node_id":"0.0-11.0-1.0-0.8","task_version":"1.0","jspsych_version":"6.3.1","missing":false},{"state_1_ids":[1,0],"state_1_key":0,"state_1_choice":1,"state_1_rt":683.7000000178814,"transition":0,"state":0,"state_2_ids":[0,1],"state_2_key":0,"state_2_choice":0,"state_2_rt":1638.1000000238419,"outcome":1,"rocket_colors":["#486ea7","#a75248"],"planet_colors":["#5b7c65","#706081"],"screen_resolution":[1280,657],"minimum_resolution":1,"trial":0,"trial_type":"two-step-trial","trial_index":33,"time_elapsed":453511,"internal_node_id":"0.0-11.0-1.0-0.9","task_version":"1.0","jspsych_version":"6.3.1","missing":false},{"view_history":"[{\"page_index\":0,\"viewing_time\":3024.600000023842},{\"page_index\":1,\"viewing_time\":2201.899999976158},{\"page_index\":2,\"viewing_time\":1273.9000000059605},{\"page_index\":3,\"viewing_time\":3838.300000011921},{\"page_index\":4,\"viewing_time\":9016.299999982119},{\"page_index\":5,\"viewing_time\":19064.100000023842},{\"page_index\":6,\"viewing_time\":4263.5}]","rt":42683,"trial_type":"two-step-instructions","trial_index":34,"time_elapsed":496198,"internal_node_id":"0.0-12.0-1.0","task_version":"1.0","jspsych_version":"6.3.1"},{"responses":["True","False","True"],"num_errors":0,"rt":8342,"quiz":3,"trial_type":"two-step-comprehension","trial_index":35,"time_elapsed":504545,"internal_node_id":"0.0-12.0-2.0","task_version":"1.0","jspsych_version":"6.3.1"},{"view_history":"[{\"page_index\":0,\"viewing_time\":1539.5},{\"page_index\":1,\"viewing_time\":7678.899999976158},{\"page_index\":2,\"viewing_time\":4420.800000011921}]","rt":13639.5,"trial_type":"two-step-instructions","trial_index":36,"time_elapsed":518186,"internal_node_id":"0.0-13.0","task_version":"1.0","jspsych_version":"6.3.1"},{"state_1_ids":[1,0],"state_1_key":1,"state_1_choice":0,"state_1_rt":1188.0999999940395,"transition":1,"state":0,"state_2_ids":[0,1],"state_2_key":1,"state_2_choice":1,"state_2_rt":1357.0999999940395,"outcome":1,"rocket_colors":["#48a782","#955db9"],"planet_colors":["#5f6f81","#7f5d5d"],"screen_resolution":[1280,657],"minimum_resolution":1,"trial":1,"drifts":[0.412,0.317,0.453,0.743],"drift_ix":2,"trial_type":"two-step-trial","trial_index":37,"time_elapsed":522735,"internal_node_id":"0.0-14.0-0.0","task_version":"1.0","jspsych_version":"6.3.1","browser_interactions":0,"missing":false},{"state_1_ids":[0,1],"state_1_key":0,"state_1_choice":0,"state_1_rt":1429,"transition":1,"state":0,"state_2_ids":[0,1],"state_2_key":1,"state_2_choice":1,"state_2_rt":910.6000000238419,"outcome":1,"rocket_colors":["#48a782","#955db9"],"planet_colors":["#5f6f81","#7f5d5d"],"screen_resolution":[1280,657],"minimum_resolution":1,"trial":2,"drifts":[0.402,0.305,0.461,0.702],"drift_ix":2,"trial_type":"two-step-trial","trial_index":38,"time_elapsed":527079,"internal_node_id":"0.0-15.0-0.0","task_version":"1.0","jspsych_version":"6.3.1","browser_interactions":0,"missing":false},{"state_1_ids":[1,0],"state_1_key":1,"state_1_choice":0,"state_1_rt":947.7999999821186,"transition":1,"state":0,"state_2_ids":[0,1],"state_2_key":1,"state_2_choice":1,"state_2_rt":2070.2000000178814,"outcome":0,"rocket_colors":["#48a782","#955db9"],"planet_colors":["#5f6f81","#7f5d5d"],"screen_resolution":[1280,657],"minimum_resolution":1,"trial":3,"drifts":[0.373,0.327,0.445,0.732],"drift_ix":2,"trial_type":"two-step-trial","trial_index":39,"time_elapsed":532103,"internal_node_id":"0.0-16.0-0.0","task_version":"1.0","jspsych_version":"6.3.1","browser_interactions":0,"missing":false},{"state_1_ids":[0,1],"state_1_key":0,"state_1_choice":0,"state_1_rt":1597.5,"transition":1,"state":0,"state_2_ids":[0,1],"state_2_key":1,"state_2_choice":1,"state_2_rt":536.6999999880791,"outcome":1,"rocket_colors":["#48a782","#955db9"],"planet_colors":["#5f6f81","#7f5d5d"],"screen_resolution":[1280,657],"minimum_resolution":1,"trial":4,"drifts":[0.381,0.303,0.418,0.736],"drift_ix":2,"trial_type":"two-step-trial","trial_index":40,"time_elapsed":536247,"internal_node_id":"0.0-17.0-0.0","task_version":"1.0","jspsych_version":"6.3.1","browser_interactions":0,"missing":false},{"state_1_ids":[1,0],"state_1_key":0,"state_1_choice":1,"state_1_rt":948.7000000178814,"transition":1,"state":1,"state_2_ids":[2,3],"state_2_key":0,"state_2_choice":2,"state_2_rt":1182,"outcome":1,"rocket_colors":["#48a782","#955db9"],"planet_colors":["#5f6f81","#7f5d5d"],"screen_resolution":[1280,657],"minimum_resolution":1,"trial":5,"drifts":[0.366,0.363,0.401,0.709],"drift_ix":2,"trial_type":"two-step-trial","trial_index":41,"time_elapsed":540383,"internal_node_id":"0.0-18.0-0.0","task_version":"1.0","jspsych_version":"6.3.1","browser_interactions":0,"missing":false},{"state_1_ids":[0,1],"state_1_key":1,"state_1_choice":1,"state_1_rt":1051.300000011921,"transition":0,"state":0,"state_2_ids":[0,1],"state_2_key":1,"state_2_choice":1,"state_2_rt":1095.5,"outcome":1,"rocket_colors":["#48a782","#955db9"],"planet_colors":["#5f6f81","#7f5d5d"],"screen_resolution":[1280,657],"minimum_resolution":1,"trial":6,"drifts":[0.393,0.368,0.383,0.711],"drift_ix":2,"trial_type":"two-step-trial","trial_index":42,"time_elapsed":544535,"internal_node_id":"0.0-19.0-0.0","task_version":"1.0","jspsych_version":"6.3.1","browser_interactions":0,"missing":false},{"state_1_ids":[1,0],"state_1_key":0,"state_1_choice":1,"state_1_rt":692.5999999940395,"transition":1,"state":1,"state_2_ids":[2,3],"state_2_key":0,"state_2_choice":2,"state_2_rt":582.5,"outcome":0,"rocket_colors":["#48a782","#955db9"],"planet_colors":["#5f6f81","#7f5d5d"],"screen_resolution":[1280,657],"minimum_resolution":1,"trial":7,"drifts":[0.4,0.405,0.425,0.678],"drift_ix":2,"trial_type":"two-step-trial","trial_index":43,"time_elapsed":547815,"internal_node_id":"0.0-20.0-0.0","task_version":"1.0","jspsych_version":"6.3.1","browser_interactions":0,"missing":false},{"state_1_ids":[1,0],"state_1_key":0,"state_1_choice":1,"state_1_rt":939.4000000059605,"transition":0,"state":0,"state_2_ids":[0,1],"state_2_key":1,"state_2_choice":1,"state_2_rt":797.7999999821186,"outcome":1,"rocket_colors":["#48a782","#955db9"],"planet_colors":["#5f6f81","#7f5d5d"],"screen_resolution":[1280,657],"minimum_resolution":1,"trial":8,"drifts":[0.383,0.388,0.415,0.699],"drift_ix":2,"trial_type":"two-step-trial","trial_index":44,"time_elapsed":551558,"internal_node_id":"0.0-21.0-0.0","task_version":"1.0","jspsych_version":"6.3.1","browser_interactions":0,"missing":false},{"state_1_ids":[0,1],"state_1_key":1,"state_1_choice":1,"state_1_rt":830.5,"transition":1,"state":1,"state_2_ids":[2,3],"state_2_key":0,"state_2_choice":2,"state_2_rt":800.9000000059605,"outcome":0,"rocket_colors":["#48a782","#955db9"],"planet_colors":["#5f6f81","#7f5d5d"],"screen_resolution":[1280,657],"minimum_resolution":1,"trial":9,"drifts":[0.347,0.439,0.405,0.713],"drift_ix":2,"trial_type":"two-step-trial","trial_index":45,"time_elapsed":555194,"internal_node_id":"0.0-22.0-0.0","task_version":"1.0","jspsych_version":"6.3.1","browser_interactions":0,"missing":false},{"state_1_ids":[0,1],"state_1_key":1,"state_1_choice":1,"state_1_rt":756,"transition":1,"state":1,"state_2_ids":[2,3],"state_2_key":1,"state_2_choice":3,"state_2_rt":460.7000000178814,"outcome":1,"rocket_colors":["#48a782","#955db9"],"planet_colors":["#5f6f81","#7f5d5d"],"screen_resolution":[1280,657],"minimum_resolution":1,"trial":10,"drifts":[0.367,0.459,0.46,0.731],"drift_ix":2,"trial_type":"two-step-trial","trial_index":46,"time_elapsed":558415,"internal_node_id":"0.0-23.0-0.0","task_version":"1.0","jspsych_version":"6.3.1","browser_interactions":0,"missing":false},{"state_1_ids":[1,0],"state_1_key":0,"state_1_choice":1,"state_1_rt":756,"transition":1,"state":1,"state_2_ids":[2,3],"state_2_key":1,"state_2_choice":3,"state_2_rt":597.7000000178814,"outcome":1,"rocket_colors":["#48a782","#955db9"],"planet_colors":["#5f6f81","#7f5d5d"],"screen_resolution":[1280,657],"minimum_resolution":1,"trial":11,"drifts":[0.397,0.451,0.461,0.701],"drift_ix":2,"trial_type":"two-step-trial","trial_index":47,"time_elapsed":561776,"internal_node_id":"0.0-24.0-0.0","task_version":"1.0","jspsych_version":"6.3.1","browser_interactions":0,"missing":false},{"state_1_ids":[0,1],"state_1_key":0,"state_1_choice":0,"state_1_rt":884,"transition":1,"state":0,"state_2_ids":[0,1],"state_2_key":1,"state_2_choice":1,"state_2_rt":445.80000001192093,"outcome":0,"rocket_colors":["#48a782","#955db9"],"planet_colors":["#5f6f81","#7f5d5d"],"screen_resolution":[1280,657],"minimum_resolution":1,"trial":12,"drifts":[0.357,0.426,0.459,0.707],"drift_ix":2,"trial_type":"two-step-trial","trial_index":48,"time_elapsed":565111,"internal_node_id":"0.0-25.0-0.0","task_version":"1.0","jspsych_version":"6.3.1","browser_interactions":0,"missing":false},{"state_1_ids":[1,0],"state_1_key":0,"state_1_choice":1,"state_1_rt":668.5,"transition":1,"state":1,"state_2_ids":[2,3],"state_2_key":1,"state_2_choice":3,"state_2_rt":647,"outcome":1,"rocket_colors":["#48a782","#955db9"],"planet_colors":["#5f6f81","#7f5d5d"],"screen_resolution":[1280,657],"minimum_resolution":1,"trial":13,"drifts":[0.337,0.398,0.428,0.721],"drift_ix":2,"trial_type":"two-step-trial","trial_index":49,"time_elapsed":568431,"internal_node_id":"0.0-26.0-0.0","task_version":"1.0","jspsych_version":"6.3.1","browser_interactions":0,"missing":false},{"state_1_ids":[0,1],"state_1_key":1,"state_1_choice":1,"state_1_rt":595.6999999880791,"transition":0,"state":0,"state_2_ids":[0,1],"state_2_key":1,"state_2_choice":1,"state_2_rt":775.3000000119209,"outcome":1,"rocket_colors":["#48a782","#955db9"],"planet_colors":["#5f6f81","#7f5d5d"],"screen_resolution":[1280,657],"minimum_resolution":1,"trial":14,"drifts":[0.283,0.408,0.384,0.719],"drift_ix":2,"trial_type":"two-step-trial","trial_index":50,"time_elapsed":571807,"internal_node_id":"0.0-27.0-0.0","task_version":"1.0","jspsych_version":"6.3.1","browser_interactions":0,"missing":false},{"state_1_ids":[0,1],"state_1_key":1,"state_1_choice":1,"state_1_rt":1012.0999999940395,"transition":1,"state":1,"state_2_ids":[2,3],"state_2_key":1,"state_2_choice":3,"state_2_rt":430.30000001192093,"outcome":1,"rocket_colors":["#48a782","#955db9"],"planet_colors":["#5f6f81","#7f5d5d"],"screen_resolution":[1280,657],"minimum_resolution":1,"trial":15,"drifts":[0.295,0.37,0.375,0.738],"drift_ix":2,"trial_type":"two-step-trial","trial_index":51,"time_elapsed":575256,"internal_node_id":"0.0-28.0-0.0","task_version":"1.0","jspsych_version":"6.3.1","browser_interactions":0,"missing":false},{"state_1_ids":[1,0],"state_1_key":1,"state_1_choice":0,"state_1_rt":660.1000000238419,"transition":1,"state":0,"state_2_ids":[0,1],"state_2_key":1,"state_2_choice":1,"state_2_rt":494.5,"outcome":0,"rocket_colors":["#48a782","#955db9"],"planet_colors":["#5f6f81","#7f5d5d"],"screen_resolution":[1280,657],"minimum_resolution":1,"trial":16,"drifts":[0.305,0.343,0.325,0.713],"drift_ix":2,"trial_type":"two-step-trial","trial_index":52,"time_elapsed":578416,"internal_node_id":"0.0-29.0-0.0","task_version":"1.0","jspsych_version":"6.3.1","browser_interactions":0,"missing":false},{"state_1_ids":[1,0],"state_1_key":0,"state_1_choice":1,"state_1_rt":948.8000000119209,"transition":1,"state":1,"state_2_ids":[2,3],"state_2_key":1,"state_2_choice":3,"state_2_rt":646.5999999940395,"outcome":0,"rocket_colors":["#48a782","#955db9"],"planet_colors":["#5f6f81","#7f5d5d"],"screen_resolution":[1280,657],"minimum_resolution":1,"trial":17,"drifts":[0.305,0.313,0.334,0.705],"drift_ix":2,"trial_type":"two-step-trial","trial_index":53,"time_elapsed":582014,"internal_node_id":"0.0-30.0-0.0","task_version":"1.0","jspsych_version":"6.3.1","browser_interactions":0,"missing":false},{"state_1_ids":[0,1],"state_1_key":1,"state_1_choice":1,"state_1_rt":484.2999999821186,"transition":0,"state":0,"state_2_ids":[0,1],"state_2_key":1,"state_2_choice":1,"state_2_rt":566.8000000119209,"outcome":1,"rocket_colors":["#48a782","#955db9"],"planet_colors":["#5f6f81","#7f5d5d"],"screen_resolution":[1280,657],"minimum_resolution":1,"trial":18,"drifts":[0.316,0.314,0.353,0.728],"drift_ix":2,"trial_type":"two-step-trial","trial_index":54,"time_elapsed":585071,"internal_node_id":"0.0-31.0-0.0","task_version":"1.0","jspsych_version":"6.3.1","browser_interactions":0,"missing":false},{"state_1_ids":[0,1],"state_1_key":1,"state_1_choice":1,"state_1_rt":1508.9000000059605,"transition":1,"state":1,"state_2_ids":[2,3],"state_2_key":1,"state_2_choice":3,"state_2_rt":478.5,"outcome":1,"rocket_colors":["#48a782","#955db9"],"planet_colors":["#5f6f81","#7f5d5d"],"screen_resolution":[1280,657],"minimum_resolution":1,"trial":19,"drifts":[0.317,0.335,0.368,0.745],"drift_ix":2,"trial_type":"two-step-trial","trial_index":55,"time_elapsed":589063,"internal_node_id":"0.0-32.0-0.0","task_version":"1.0","jspsych_version":"6.3.1","browser_interactions":0,"missing":false},{"state_1_ids":[0,1],"state_1_key":0,"state_1_choice":0,"state_1_rt":460.19999998807907,"transition":1,"state":0,"state_2_ids":[0,1],"state_2_key":1,"state_2_choice":1,"state_2_rt":383.2000000178814,"outcome":0,"rocket_colors":["#48a782","#955db9"],"planet_colors":["#5f6f81","#7f5d5d"],"screen_resolution":[1280,657],"minimum_resolution":1,"trial":20,"drifts":[0.307,0.313,0.421,0.737],"drift_ix":2,"trial_type":"two-step-trial","trial_index":56,"time_elapsed":591911,"internal_node_id":"0.0-33.0-0.0","task_version":"1.0","jspsych_version":"6.3.1","browser_interactions":0,"missing":false},{"state_1_ids":[0,1],"state_1_key":1,"state_1_choice":1,"state_1_rt":668.2999999821186,"transition":1,"state":1,"state_2_ids":[2,3],"state_2_key":1,"state_2_choice":3,"state_2_rt":309.89999997615814,"outcome":1,"rocket_colors":["#48a782","#955db9"],"planet_colors":["#5f6f81","#7f5d5d"],"screen_resolution":[1280,657],"minimum_resolution":1,"trial":21,"drifts":[0.31,0.305,0.401,0.745],"drift_ix":2,"trial_type":"two-step-trial","trial_index":57,"time_elapsed":594894,"internal_node_id":"0.0-34.0-0.0","task_version":"1.0","jspsych_version":"6.3.1","browser_interactions":0,"missing":false},{"state_1_ids":[0,1],"state_1_key":1,"state_1_choice":1,"state_1_rt":461.2000000178814,"transition":0,"state":0,"state_2_ids":[0,1],"state_2_key":1,"state_2_choice":1,"state_2_rt":702.0999999940395,"outcome":0,"rocket_colors":["#48a782","#955db9"],"planet_colors":["#5f6f81","#7f5d5d"],"screen_resolution":[1280,657],"minimum_resolution":1,"trial":22,"drifts":[0.326,0.31,0.391,0.735],"drift_ix":2,"trial_type":"two-step-trial","trial_index":58,"time_elapsed":598063,"internal_node_id":"0.0-35.0-0.0","task_version":"1.0","jspsych_version":"6.3.1","browser_interactions":0,"missing":false},{"state_1_ids":[0,1],"state_1_key":1,"state_1_choice":1,"state_1_rt":845,"transition":0,"state":0,"state_2_ids":[0,1],"state_2_key":1,"state_2_choice":1,"state_2_rt":727.2999999821186,"outcome":0,"rocket_colors":["#48a782","#955db9"],"planet_colors":["#5f6f81","#7f5d5d"],"screen_resolution":[1280,657],"minimum_resolution":1,"trial":23,"drifts":[0.331,0.302,0.379,0.741],"drift_ix":2,"trial_type":"two-step-trial","trial_index":59,"time_elapsed":601639,"internal_node_id":"0.0-36.0-0.0","task_version":"1.0","jspsych_version":"6.3.1","browser_interactions":0,"missing":false},{"state_1_ids":[1,0],"state_1_key":0,"state_1_choice":1,"state_1_rt":651.6999999880791,"transition":1,"state":1,"state_2_ids":[2,3],"state_2_key":1,"state_2_choice":3,"state_2_rt":470,"outcome":1,"rocket_colors":["#48a782","#955db9"],"planet_colors":["#5f6f81","#7f5d5d"],"screen_resolution":[1280,657],"minimum_resolution":1,"trial":24,"drifts":[0.358,0.323,0.393,0.738],"drift_ix":2,"trial_type":"two-step-trial","trial_index":60,"time_elapsed":604767,"internal_node_id":"0.0-37.0-0.0","task_version":"1.0","jspsych_version":"6.3.1","browser_interactions":0,"missing":false},{"state_1_ids":[1,0],"state_1_key":1,"state_1_choice":0,"state_1_rt":500.40000000596046,"transition":1,"state":0,"state_2_ids":[0,1],"state_2_key":0,"state_2_choice":0,"state_2_rt":470.5,"outcome":1,"rocket_colors":["#48a782","#955db9"],"planet_colors":["#5f6f81","#7f5d5d"],"screen_resolution":[1280,657],"minimum_resolution":1,"trial":25,"drifts":[0.342,0.299,0.368,0.724],"drift_ix":2,"trial_type":"two-step-trial","trial_index":61,"time_elapsed":607743,"internal_node_id":"0.0-38.0-0.0","task_version":"1.0","jspsych_version":"6.3.1","browser_interactions":0,"missing":false},{"state_1_ids":[1,0],"state_1_key":1,"state_1_choice":0,"state_1_rt":636.9000000059605,"transition":1,"state":0,"state_2_ids":[0,1],"state_2_key":0,"state_2_choice":0,"state_2_rt":429.5,"outcome":0,"rocket_colors":["#48a782","#955db9"],"planet_colors":["#5f6f81","#7f5d5d"],"screen_resolution":[1280,657],"minimum_resolution":1,"trial":26,"drifts":[0.362,0.294,0.373,0.738],"drift_ix":2,"trial_type":"two-step-trial","trial_index":62,"time_elapsed":610814,"internal_node_id":"0.0-39.0-0.0","task_version":"1.0","jspsych_version":"6.3.1","browser_interactions":0,"missing":false},{"state_1_ids":[0,1],"state_1_key":1,"state_1_choice":1,"state_1_rt":358,"transition":0,"state":0,"state_2_ids":[0,1],"state_2_key":0,"state_2_choice":0,"state_2_rt":1127.0999999940395,"outcome":0,"rocket_colors":["#48a782","#955db9"],"planet_colors":["#5f6f81","#7f5d5d"],"screen_resolution":[1280,657],"minimum_resolution":1,"trial":27,"drifts":[0.332,0.286,0.389,0.683],"drift_ix":2,"trial_type":"two-step-trial","trial_index":63,"time_elapsed":614303,"internal_node_id":"0.0-40.0-0.0","task_version":"1.0","jspsych_version":"6.3.1","browser_interactions":0,"missing":false},{"state_1_ids":[0,1],"state_1_key":1,"state_1_choice":1,"state_1_rt":556.1999999880791,"transition":0,"state":0,"state_2_ids":[0,1],"state_2_key":1,"state_2_choice":1,"state_2_rt":566.3000000119209,"outcome":0,"rocket_colors":["#48a782","#955db9"],"planet_colors":["#5f6f81","#7f5d5d"],"screen_resolution":[1280,657],"minimum_resolution":1,"trial":28,"drifts":[0.34,0.303,0.383,0.689],"drift_ix":2,"trial_type":"two-step-trial","trial_index":64,"time_elapsed":617431,"internal_node_id":"0.0-41.0-0.0","task_version":"1.0","jspsych_version":"6.3.1","browser_interactions":0,"missing":false},{"state_1_ids":[1,0],"state_1_key":0,"state_1_choice":1,"state_1_rt":554.7999999821186,"transition":0,"state":0,"state_2_ids":[0,1],"state_2_key":1,"state_2_choice":1,"state_2_rt":798.5,"outcome":0,"rocket_colors":["#48a782","#955db9"],"planet_colors":["#5f6f81","#7f5d5d"],"screen_resolution":[1280,657],"minimum_resolution":1,"trial":29,"drifts":[0.317,0.302,0.385,0.679],"drift_ix":2,"trial_type":"two-step-trial","trial_index":65,"time_elapsed":620791,"internal_node_id":"0.0-42.0-0.0","task_version":"1.0","jspsych_version":"6.3.1","browser_interactions":0,"missing":false},{"state_1_ids":[1,0],"state_1_key":1,"state_1_choice":0,"state_1_rt":1324.9000000059605,"transition":1,"state":0,"state_2_ids":[0,1],"state_2_key":0,"state_2_choice":0,"state_2_rt":645.3000000119209,"outcome":1,"rocket_colors":["#48a782","#955db9"],"planet_colors":["#5f6f81","#7f5d5d"],"screen_resolution":[1280,657],"minimum_resolution":1,"trial":30,"drifts":[0.353,0.346,0.414,0.681],"drift_ix":2,"trial_type":"two-step-trial","trial_index":66,"time_elapsed":624767,"internal_node_id":"0.0-43.0-0.0","task_version":"1.0","jspsych_version":"6.3.1","browser_interactions":0,"missing":false},{"state_1_ids":[0,1],"state_1_key":0,"state_1_choice":0,"state_1_rt":1291.7999999821186,"transition":1,"state":0,"state_2_ids":[0,1],"state_2_key":0,"state_2_choice":0,"state_2_rt":589.2000000178814,"outcome":1,"rocket_colors":["#48a782","#955db9"],"planet_colors":["#5f6f81","#7f5d5d"],"screen_resolution":[1280,657],"minimum_resolution":1,"trial":31,"drifts":[0.325,0.331,0.414,0.647],"drift_ix":2,"trial_type":"two-step-trial","trial_index":67,"time_elapsed":628655,"internal_node_id":"0.0-44.0-0.0","task_version":"1.0","jspsych_version":"6.3.1","browser_interactions":0,"missing":false},{"state_1_ids":[0,1],"state_1_key":0,"state_1_choice":0,"state_1_rt":644.1999999880791,"transition":0,"state":1,"state_2_ids":[2,3],"state_2_key":1,"state_2_choice":3,"state_2_rt":710.5,"outcome":1,"rocket_colors":["#48a782","#955db9"],"planet_colors":["#5f6f81","#7f5d5d"],"screen_resolution":[1280,657],"minimum_resolution":1,"trial":32,"drifts":[0.328,0.33,0.383,0.663],"drift_ix":2,"trial_type":"two-step-trial","trial_index":68,"time_elapsed":632014,"internal_node_id":"0.0-45.0-0.0","task_version":"1.0","jspsych_version":"6.3.1","browser_interactions":0,"missing":false},{"state_1_ids":[0,1],"state_1_key":0,"state_1_choice":0,"state_1_rt":686.6999999880791,"transition":0,"state":1,"state_2_ids":[2,3],"state_2_key":1,"state_2_choice":3,"state_2_rt":573.8000000119209,"outcome":1,"rocket_colors":["#48a782","#955db9"],"planet_colors":["#5f6f81","#7f5d5d"],"screen_resolution":[1280,657],"minimum_resolution":1,"trial":33,"drifts":[0.322,0.332,0.362,0.633],"drift_ix":2,"trial_type":"two-step-trial","trial_index":69,"time_elapsed":635279,"internal_node_id":"0.0-46.0-0.0","task_version":"1.0","jspsych_version":"6.3.1","browser_interactions":0,"missing":false},{"state_1_ids":[1,0],"state_1_key":0,"state_1_choice":1,"state_1_rt":397.40000000596046,"transition":0,"state":0,"state_2_ids":[0,1],"state_2_key":0,"state_2_choice":0,"state_2_rt":854.8000000119209,"outcome":0,"rocket_colors":["#48a782","#955db9"],"planet_colors":["#5f6f81","#7f5d5d"],"screen_resolution":[1280,657],"minimum_resolution":1,"trial":34,"drifts":[0.322,0.307,0.363,0.617],"drift_ix":2,"trial_type":"two-step-trial","trial_index":70,"time_elapsed":638535,"internal_node_id":"0.0-47.0-0.0","task_version":"1.0","jspsych_version":"6.3.1","browser_interactions":0,"missing":false},{"state_1_ids":[0,1],"state_1_key":0,"state_1_choice":0,"state_1_rt":1499.1000000238419,"transition":1,"state":0,"state_2_ids":[0,1],"state_2_key":0,"state_2_choice":0,"state_2_rt":815,"outcome":0,"rocket_colors":["#48a782","#955db9"],"planet_colors":["#5f6f81","#7f5d5d"],"screen_resolution":[1280,657],"minimum_resolution":1,"trial":35,"drifts":[0.297,0.336,0.333,0.65],"drift_ix":2,"trial_type":"two-step-trial","trial_index":71,"time_elapsed":642855,"internal_node_id":"0.0-48.0-0.0","task_version":"1.0","jspsych_version":"6.3.1","browser_interactions":0,"missing":false},{"state_1_ids":[0,1],"state_1_key":1,"state_1_choice":1,"state_1_rt":1182.2999999821186,"transition":1,"state":1,"state_2_ids":[2,3],"state_2_key":1,"state_2_choice":3,"state_2_rt":606.5999999940395,"outcome":1,"rocket_colors":["#48a782","#955db9"],"planet_colors":["#5f6f81","#7f5d5d"],"screen_resolution":[1280,657],"minimum_resolution":1,"trial":36,"drifts":[0.326,0.343,0.331,0.633],"drift_ix":2,"trial_type":"two-step-trial","trial_index":72,"time_elapsed":646647,"internal_node_id":"0.0-49.0-0.0","task_version":"1.0","jspsych_version":"6.3.1","browser_interactions":0,"missing":false},{"state_1_ids":[1,0],"state_1_key":0,"state_1_choice":1,"state_1_rt":955.5,"transition":1,"state":1,"state_2_ids":[2,3],"state_2_key":1,"state_2_choice":3,"state_2_rt":510.40000000596046,"outcome":1,"rocket_colors":["#48a782","#955db9"],"planet_colors":["#5f6f81","#7f5d5d"],"screen_resolution":[1280,657],"minimum_resolution":1,"trial":37,"drifts":[0.318,0.324,0.327,0.612],"drift_ix":2,"trial_type":"two-step-trial","trial_index":73,"time_elapsed":650118,"internal_node_id":"0.0-50.0-0.0","task_version":"1.0","jspsych_version":"6.3.1","browser_interactions":0,"missing":false},{"state_1_ids":[0,1],"state_1_key":0,"state_1_choice":0,"state_1_rt":524.4000000059605,"transition":1,"state":0,"state_2_ids":[0,1],"state_2_key":0,"state_2_choice":0,"state_2_rt":870.2000000178814,"outcome":0,"rocket_colors":["#48a782","#955db9"],"planet_colors":["#5f6f81","#7f5d5d"],"screen_resolution":[1280,657],"minimum_resolution":1,"trial":38,"drifts":[0.304,0.324,0.319,0.591],"drift_ix":2,"trial_type":"two-step-trial","trial_index":74,"time_elapsed":653533,"internal_node_id":"0.0-51.0-0.0","task_version":"1.0","jspsych_version":"6.3.1","browser_interactions":0,"missing":false},{"state_1_ids":[1,0],"state_1_key":0,"state_1_choice":1,"state_1_rt":496,"transition":1,"state":1,"state_2_ids":[2,3],"state_2_key":1,"state_2_choice":3,"state_2_rt":478.80000001192093,"outcome":1,"rocket_colors":["#48a782","#955db9"],"planet_colors":["#5f6f81","#7f5d5d"],"screen_resolution":[1280,657],"minimum_resolution":1,"trial":39,"drifts":[0.283,0.362,0.351,0.561],"drift_ix":2,"trial_type":"two-step-trial","trial_index":75,"time_elapsed":656514,"internal_node_id":"0.0-52.0-0.0","task_version":"1.0","jspsych_version":"6.3.1","browser_interactions":0,"missing":false},{"state_1_ids":[0,1],"state_1_key":1,"state_1_choice":1,"state_1_rt":817.1999999880791,"transition":1,"state":1,"state_2_ids":[2,3],"state_2_key":1,"state_2_choice":3,"state_2_rt":445.30000001192093,"outcome":1,"rocket_colors":["#48a782","#955db9"],"planet_colors":["#5f6f81","#7f5d5d"],"screen_resolution":[1280,657],"minimum_resolution":1,"trial":40,"drifts":[0.295,0.387,0.331,0.546],"drift_ix":2,"trial_type":"two-step-trial","trial_index":76,"time_elapsed":659782,"internal_node_id":"0.0-53.0-0.0","task_version":"1.0","jspsych_version":"6.3.1","browser_interactions":0,"missing":false},{"state_1_ids":[0,1],"state_1_key":1,"state_1_choice":1,"state_1_rt":652.6999999880791,"transition":1,"state":1,"state_2_ids":[2,3],"state_2_key":1,"state_2_choice":3,"state_2_rt":861.8999999761581,"outcome":1,"rocket_colors":["#48a782","#955db9"],"planet_colors":["#5f6f81","#7f5d5d"],"screen_resolution":[1280,657],"minimum_resolution":1,"trial":41,"drifts":[0.293,0.385,0.33,0.584],"drift_ix":2,"trial_type":"two-step-trial","trial_index":77,"time_elapsed":663302,"internal_node_id":"0.0-54.0-0.0","task_version":"1.0","jspsych_version":"6.3.1","browser_interactions":0,"missing":false},{"state_1_ids":[1,0],"state_1_key":0,"state_1_choice":1,"state_1_rt":764.5999999940395,"transition":0,"state":0,"state_2_ids":[0,1],"state_2_key":1,"state_2_choice":1,"state_2_rt":839.6999999880791,"outcome":1,"rocket_colors":["#48a782","#955db9"],"planet_colors":["#5f6f81","#7f5d5d"],"screen_resolution":[1280,657],"minimum_resolution":1,"trial":42,"drifts":[0.304,0.383,0.318,0.562],"drift_ix":2,"trial_type":"two-step-trial","trial_index":78,"time_elapsed":666911,"internal_node_id":"0.0-55.0-0.0","task_version":"1.0","jspsych_version":"6.3.1","browser_interactions":0,"missing":false},{"state_1_ids":[1,0],"state_1_key":0,"state_1_choice":1,"state_1_rt":595.5999999940395,"transition":1,"state":1,"state_2_ids":[2,3],"state_2_key":1,"state_2_choice":3,"state_2_rt":485.80000001192093,"outcome":1,"rocket_colors":["#48a782","#955db9"],"planet_colors":["#5f6f81","#7f5d5d"],"screen_resolution":[1280,657],"minimum_resolution":1,"trial":43,"drifts":[0.318,0.398,0.315,0.576],"drift_ix":2,"trial_type":"two-step-trial","trial_index":79,"time_elapsed":669999,"internal_node_id":"0.0-56.0-0.0","task_version":"1.0","jspsych_version":"6.3.1","browser_interactions":0,"missing":false},{"state_1_ids":[1,0],"state_1_key":0,"state_1_choice":1,"state_1_rt":693.9000000059605,"transition":1,"state":1,"state_2_ids":[2,3],"state_2_key":1,"state_2_choice":3,"state_2_rt":430.59999999403954,"outcome":1,"rocket_colors":["#48a782","#955db9"],"planet_colors":["#5f6f81","#7f5d5d"],"screen_resolution":[1280,657],"minimum_resolution":1,"trial":44,"drifts":[0.321,0.371,0.348,0.616],"drift_ix":2,"trial_type":"two-step-trial","trial_index":80,"time_elapsed":673133,"internal_node_id":"0.0-57.0-0.0","task_version":"1.0","jspsych_version":"6.3.1","browser_interactions":0,"missing":false},{"state_1_ids":[1,0],"state_1_key":0,"state_1_choice":1,"state_1_rt":382.19999998807907,"transition":0,"state":0,"state_2_ids":[0,1],"state_2_key":0,"state_2_choice":0,"state_2_rt":726.4000000059605,"outcome":0,"rocket_colors":["#48a782","#955db9"],"planet_colors":["#5f6f81","#7f5d5d"],"screen_resolution":[1280,657],"minimum_resolution":1,"trial":45,"drifts":[0.319,0.418,0.367,0.598],"drift_ix":2,"trial_type":"two-step-trial","trial_index":81,"time_elapsed":676247,"internal_node_id":"0.0-58.0-0.0","task_version":"1.0","jspsych_version":"6.3.1","browser_interactions":0,"missing":false},{"state_1_ids":[0,1],"state_1_key":1,"state_1_choice":1,"state_1_rt":1044.7000000178814,"transition":1,"state":1,"state_2_ids":[2,3],"state_2_key":1,"state_2_choice":3,"state_2_rt":398.59999999403954,"outcome":1,"rocket_colors":["#48a782","#955db9"],"planet_colors":["#5f6f81","#7f5d5d"],"screen_resolution":[1280,657],"minimum_resolution":1,"trial":46,"drifts":[0.326,0.44,0.366,0.588],"drift_ix":2,"trial_type":"two-step-trial","trial_index":82,"time_elapsed":679694,"internal_node_id":"0.0-59.0-0.0","task_version":"1.0","jspsych_version":"6.3.1","browser_interactions":0,"missing":false},{"state_1_ids":[1,0],"state_1_key":0,"state_1_choice":1,"state_1_rt":540.5,"transition":1,"state":1,"state_2_ids":[2,3],"state_2_key":1,"state_2_choice":3,"state_2_rt":518.8000000119209,"outcome":0,"rocket_colors":["#48a782","#955db9"],"planet_colors":["#5f6f81","#7f5d5d"],"screen_resolution":[1280,657],"minimum_resolution":1,"trial":47,"drifts":[0.315,0.46,0.378,0.597],"drift_ix":2,"trial_type":"two-step-trial","trial_index":83,"time_elapsed":682760,"internal_node_id":"0.0-60.0-0.0","task_version":"1.0","jspsych_version":"6.3.1","browser_interactions":0,"missing":false},{"state_1_ids":[0,1],"state_1_key":0,"state_1_choice":0,"state_1_rt":443.5,"transition":0,"state":1,"state_2_ids":[2,3],"state_2_key":1,"state_2_choice":3,"state_2_rt":454.10000002384186,"outcome":1,"rocket_colors":["#48a782","#955db9"],"planet_colors":["#5f6f81","#7f5d5d"],"screen_resolution":[1280,657],"minimum_resolution":1,"trial":48,"drifts":[0.281,0.476,0.36,0.571],"drift_ix":2,"trial_type":"two-step-trial","trial_index":84,"time_elapsed":685663,"internal_node_id":"0.0-61.0-0.0","task_version":"1.0","jspsych_version":"6.3.1","browser_interactions":0,"missing":false},{"state_1_ids":[0,1],"state_1_key":1,"state_1_choice":1,"state_1_rt":557.5,"transition":1,"state":1,"state_2_ids":[2,3],"state_2_key":1,"state_2_choice":3,"state_2_rt":511.7000000178814,"outcome":0,"rocket_colors":["#48a782","#955db9"],"planet_colors":["#5f6f81","#7f5d5d"],"screen_resolution":[1280,657],"minimum_resolution":1,"trial":49,"drifts":[0.254,0.439,0.383,0.579],"drift_ix":2,"trial_type":"two-step-trial","trial_index":85,"time_elapsed":688735,"internal_node_id":"0.0-62.0-0.0","task_version":"1.0","jspsych_version":"6.3.1","browser_interactions":0,"missing":false},{"state_1_ids":[0,1],"state_1_key":1,"state_1_choice":1,"state_1_rt":876.1999999880791,"transition":0,"state":0,"state_2_ids":[0,1],"state_2_key":1,"state_2_choice":1,"state_2_rt":830,"outcome":1,"rocket_colors":["#48a782","#955db9"],"planet_colors":["#5f6f81","#7f5d5d"],"screen_resolution":[1280,657],"minimum_resolution":1,"trial":50,"drifts":[0.303,0.471,0.392,0.592],"drift_ix":2,"trial_type":"two-step-trial","trial_index":86,"time_elapsed":692447,"internal_node_id":"0.0-63.0-0.0","task_version":"1.0","jspsych_version":"6.3.1","browser_interactions":0,"missing":false},{"state_1_ids":[1,0],"state_1_key":0,"state_1_choice":1,"state_1_rt":860.5999999940395,"transition":0,"state":0,"state_2_ids":[0,1],"state_2_key":1,"state_2_choice":1,"state_2_rt":509.90000000596046,"outcome":1,"rocket_colors":["#48a782","#955db9"],"planet_colors":["#5f6f81","#7f5d5d"],"screen_resolution":[1280,657],"minimum_resolution":1,"trial":51,"drifts":[0.274,0.41,0.377,0.587],"drift_ix":2,"trial_type":"two-step-trial","trial_index":87,"time_elapsed":695823,"internal_node_id":"0.0-64.0-0.0","task_version":"1.0","jspsych_version":"6.3.1","browser_interactions":0,"missing":false},{"state_1_ids":[1,0],"state_1_key":0,"state_1_choice":1,"state_1_rt":419.90000000596046,"transition":1,"state":1,"state_2_ids":[2,3],"state_2_key":1,"state_2_choice":3,"state_2_rt":542.5,"outcome":1,"rocket_colors":["#48a782","#955db9"],"planet_colors":["#5f6f81","#7f5d5d"],"screen_resolution":[1280,657],"minimum_resolution":1,"trial":52,"drifts":[0.29,0.413,0.363,0.572],"drift_ix":2,"trial_type":"two-step-trial","trial_index":88,"time_elapsed":698791,"internal_node_id":"0.0-65.0-0.0","task_version":"1.0","jspsych_version":"6.3.1","browser_interactions":0,"missing":false},{"state_1_ids":[0,1],"state_1_key":0,"state_1_choice":0,"state_1_rt":380.2000000178814,"transition":1,"state":0,"state_2_ids":[0,1],"state_2_key":1,"state_2_choice":1,"state_2_rt":445.40000000596046,"outcome":0,"rocket_colors":["#48a782","#955db9"],"planet_colors":["#5f6f81","#7f5d5d"],"screen_resolution":[1280,657],"minimum_resolution":1,"trial":53,"drifts":[0.292,0.425,0.318,0.522],"drift_ix":2,"trial_type":"two-step-trial","trial_index":89,"time_elapsed":701623,"internal_node_id":"0.0-66.0-0.0","task_version":"1.0","jspsych_version":"6.3.1","browser_interactions":0,"missing":false},{"state_1_ids":[0,1],"state_1_key":1,"state_1_choice":1,"state_1_rt":467.80000001192093,"transition":1,"state":1,"state_2_ids":[2,3],"state_2_key":1,"state_2_choice":3,"state_2_rt":543.1999999880791,"outcome":0,"rocket_colors":["#48a782","#955db9"],"planet_colors":["#5f6f81","#7f5d5d"],"screen_resolution":[1280,657],"minimum_resolution":1,"trial":54,"drifts":[0.284,0.449,0.332,0.552],"drift_ix":2,"trial_type":"two-step-trial","trial_index":90,"time_elapsed":704639,"internal_node_id":"0.0-67.0-0.0","task_version":"1.0","jspsych_version":"6.3.1","browser_interactions":0,"missing":false},{"state_1_ids":[1,0],"state_1_key":0,"state_1_choice":1,"state_1_rt":443.2000000178814,"transition":0,"state":0,"state_2_ids":[0,1],"state_2_key":1,"state_2_choice":1,"state_2_rt":687.5999999940395,"outcome":0,"rocket_colors":["#48a782","#955db9"],"planet_colors":["#5f6f81","#7f5d5d"],"screen_resolution":[1280,657],"minimum_resolution":1,"trial":55,"drifts":[0.253,0.41,0.344,0.579],"drift_ix":2,"trial_type":"two-step-trial","trial_index":91,"time_elapsed":707775,"internal_node_id":"0.0-68.0-0.0","task_version":"1.0","jspsych_version":"6.3.1","browser_interactions":0,"missing":false},{"state_1_ids":[0,1],"state_1_key":1,"state_1_choice":1,"state_1_rt":452.5,"transition":1,"state":1,"state_2_ids":[2,3],"state_2_key":1,"state_2_choice":3,"state_2_rt":389.80000001192093,"outcome":0,"rocket_colors":["#48a782","#955db9"],"planet_colors":["#5f6f81","#7f5d5d"],"screen_resolution":[1280,657],"minimum_resolution":1,"trial":56,"drifts":[0.277,0.408,0.373,0.526],"drift_ix":2,"trial_type":"two-step-trial","trial_index":92,"time_elapsed":710623,"internal_node_id":"0.0-69.0-0.0","task_version":"1.0","jspsych_version":"6.3.1","browser_interactions":0,"missing":false},{"state_1_ids":[0,1],"state_1_key":1,"state_1_choice":1,"state_1_rt":563.5,"transition":0,"state":0,"state_2_ids":[0,1],"state_2_key":1,"state_2_choice":1,"state_2_rt":511.5,"outcome":0,"rocket_colors":["#48a782","#955db9"],"planet_colors":["#5f6f81","#7f5d5d"],"screen_resolution":[1280,657],"minimum_resolution":1,"trial":57,"drifts":[0.252,0.418,0.356,0.521],"drift_ix":2,"trial_type":"two-step-trial","trial_index":93,"time_elapsed":713703,"internal_node_id":"0.0-70.0-0.0","task_version":"1.0","jspsych_version":"6.3.1","browser_interactions":0,"missing":false},{"state_1_ids":[0,1],"state_1_key":1,"state_1_choice":1,"state_1_rt":1302.2000000178814,"transition":0,"state":0,"state_2_ids":[0,1],"state_2_key":0,"state_2_choice":0,"state_2_rt":733.0999999940395,"outcome":0,"rocket_colors":["#48a782","#955db9"],"planet_colors":["#5f6f81","#7f5d5d"],"screen_resolution":[1280,657],"minimum_resolution":1,"trial":58,"drifts":[0.282,0.462,0.395,0.504],"drift_ix":2,"trial_type":"two-step-trial","trial_index":94,"time_elapsed":717742,"internal_node_id":"0.0-71.0-0.0","task_version":"1.0","jspsych_version":"6.3.1","browser_interactions":0,"missing":false},{"state_1_ids":[0,1],"state_1_key":1,"state_1_choice":1,"state_1_rt":506.80000001192093,"transition":1,"state":1,"state_2_ids":[2,3],"state_2_key":1,"state_2_choice":3,"state_2_rt":613.7999999821186,"outcome":1,"rocket_colors":["#48a782","#955db9"],"planet_colors":["#5f6f81","#7f5d5d"],"screen_resolution":[1280,657],"minimum_resolution":1,"trial":59,"drifts":[0.297,0.475,0.39,0.498],"drift_ix":2,"trial_type":"two-step-trial","trial_index":95,"time_elapsed":720870,"internal_node_id":"0.0-72.0-0.0","task_version":"1.0","jspsych_version":"6.3.1","browser_interactions":0,"missing":false},{"state_1_ids":[0,1],"state_1_key":1,"state_1_choice":1,"state_1_rt":709,"transition":0,"state":0,"state_2_ids":[0,1],"state_2_key":0,"state_2_choice":0,"state_2_rt":782.1000000238419,"outcome":1,"rocket_colors":["#48a782","#955db9"],"planet_colors":["#5f6f81","#7f5d5d"],"screen_resolution":[1280,657],"minimum_resolution":1,"trial":60,"drifts":[0.295,0.463,0.364,0.52],"drift_ix":2,"trial_type":"two-step-trial","trial_index":96,"time_elapsed":724366,"internal_node_id":"0.0-73.0-0.0","task_version":"1.0","jspsych_version":"6.3.1","browser_interactions":0,"missing":false},{"state_1_ids":[0,1],"state_1_key":1,"state_1_choice":1,"state_1_rt":548.5,"transition":0,"state":0,"state_2_ids":[0,1],"state_2_key":0,"state_2_choice":0,"state_2_rt":461.90000000596046,"outcome":0,"rocket_colors":["#48a782","#955db9"],"planet_colors":["#5f6f81","#7f5d5d"],"screen_resolution":[1280,657],"minimum_resolution":1,"trial":61,"drifts":[0.295,0.433,0.355,0.543],"drift_ix":2,"trial_type":"two-step-trial","trial_index":97,"time_elapsed":727383,"internal_node_id":"0.0-74.0-0.0","task_version":"1.0","jspsych_version":"6.3.1","browser_interactions":0,"missing":false},{"state_1_ids":[1,0],"state_1_key":1,"state_1_choice":0,"state_1_rt":318,"transition":0,"state":1,"state_2_ids":[2,3],"state_2_key":1,"state_2_choice":3,"state_2_rt":686.5,"outcome":0,"rocket_colors":["#48a782","#955db9"],"planet_colors":["#5f6f81","#7f5d5d"],"screen_resolution":[1280,657],"minimum_resolution":1,"trial":62,"drifts":[0.307,0.43,0.353,0.543],"drift_ix":2,"trial_type":"two-step-trial","trial_index":98,"time_elapsed":730391,"internal_node_id":"0.0-75.0-0.0","task_version":"1.0","jspsych_version":"6.3.1","browser_interactions":0,"missing":false},{"state_1_ids":[1,0],"state_1_key":1,"state_1_choice":0,"state_1_rt":731.7000000178814,"transition":1,"state":0,"state_2_ids":[0,1],"state_2_key":0,"state_2_choice":0,"state_2_rt":605.5,"outcome":1,"rocket_colors":["#48a782","#955db9"],"planet_colors":["#5f6f81","#7f5d5d"],"screen_resolution":[1280,657],"minimum_resolution":1,"trial":63,"drifts":[0.353,0.426,0.367,0.529],"drift_ix":2,"trial_type":"two-step-trial","trial_index":99,"time_elapsed":733734,"internal_node_id":"0.0-76.0-0.0","task_version":"1.0","jspsych_version":"6.3.1","browser_interactions":0,"missing":false},{"state_1_ids":[1,0],"state_1_key":0,"state_1_choice":1,"state_1_rt":468.90000000596046,"transition":1,"state":1,"state_2_ids":[2,3],"state_2_key":1,"state_2_choice":3,"state_2_rt":399.09999999403954,"outcome":0,"rocket_colors":["#48a782","#955db9"],"planet_colors":["#5f6f81","#7f5d5d"],"screen_resolution":[1280,657],"minimum_resolution":1,"trial":64,"drifts":[0.37,0.432,0.33,0.47],"drift_ix":2,"trial_type":"two-step-trial","trial_index":100,"time_elapsed":736607,"internal_node_id":"0.0-77.0-0.0","task_version":"1.0","jspsych_version":"6.3.1","browser_interactions":0,"missing":false},{"state_1_ids":[1,0],"state_1_key":0,"state_1_choice":1,"state_1_rt":979.5,"transition":0,"state":0,"state_2_ids":[0,1],"state_2_key":0,"state_2_choice":0,"state_2_rt":736.1999999880791,"outcome":0,"rocket_colors":["#48a782","#955db9"],"planet_colors":["#5f6f81","#7f5d5d"],"screen_resolution":[1280,657],"minimum_resolution":1,"trial":65,"drifts":[0.377,0.393,0.348,0.501],"drift_ix":2,"trial_type":"two-step-trial","trial_index":101,"time_elapsed":740327,"internal_node_id":"0.0-78.0-0.0","task_version":"1.0","jspsych_version":"6.3.1","browser_interactions":0,"missing":false},{"state_1_ids":[0,1],"state_1_key":1,"state_1_choice":1,"state_1_rt":685.0999999940395,"transition":1,"state":1,"state_2_ids":[2,3],"state_2_key":0,"state_2_choice":2,"state_2_rt":381.59999999403954,"outcome":0,"rocket_colors":["#48a782","#955db9"],"planet_colors":["#5f6f81","#7f5d5d"],"screen_resolution":[1280,657],"minimum_resolution":1,"trial":66,"drifts":[0.345,0.371,0.258,0.459],"drift_ix":2,"trial_type":"two-step-trial","trial_index":102,"time_elapsed":743398,"internal_node_id":"0.0-79.0-0.0","task_version":"1.0","jspsych_version":"6.3.1","browser_interactions":0,"missing":false},{"state_1_ids":[0,1],"state_1_key":0,"state_1_choice":0,"state_1_rt":701.2999999821186,"transition":1,"state":0,"state_2_ids":[0,1],"state_2_key":0,"state_2_choice":0,"state_2_rt":782,"outcome":0,"rocket_colors":["#48a782","#955db9"],"planet_colors":["#5f6f81","#7f5d5d"],"screen_resolution":[1280,657],"minimum_resolution":1,"trial":67,"drifts":[0.332,0.355,0.256,0.426],"drift_ix":2,"trial_type":"two-step-trial","trial_index":103,"time_elapsed":746886,"internal_node_id":"0.0-80.0-0.0","task_version":"1.0","jspsych_version":"6.3.1","browser_interactions":0,"missing":false},{"state_1_ids":[0,1],"state_1_key":0,"state_1_choice":0,"state_1_rt":711.8000000119209,"transition":0,"state":1,"state_2_ids":[2,3],"state_2_key":1,"state_2_choice":3,"state_2_rt":557.9000000059605,"outcome":1,"rocket_colors":["#48a782","#955db9"],"planet_colors":["#5f6f81","#7f5d5d"],"screen_resolution":[1280,657],"minimum_resolution":1,"trial":68,"drifts":[0.331,0.398,0.311,0.426],"drift_ix":2,"trial_type":"two-step-trial","trial_index":104,"time_elapsed":750160,"internal_node_id":"0.0-81.0-0.0","task_version":"1.0","jspsych_version":"6.3.1","browser_interactions":0,"missing":false},{"state_1_ids":[1,0],"state_1_key":1,"state_1_choice":0,"state_1_rt":731.0999999940395,"transition":1,"state":0,"state_2_ids":[0,1],"state_2_key":1,"state_2_choice":1,"state_2_rt":558.9000000059605,"outcome":0,"rocket_colors":["#48a782","#955db9"],"planet_colors":["#5f6f81","#7f5d5d"],"screen_resolution":[1280,657],"minimum_resolution":1,"trial":69,"drifts":[0.325,0.426,0.326,0.384],"drift_ix":2,"trial_type":"two-step-trial","trial_index":105,"time_elapsed":753455,"internal_node_id":"0.0-82.0-0.0","task_version":"1.0","jspsych_version":"6.3.1","browser_interactions":0,"missing":false},{"state_1_ids":[0,1],"state_1_key":0,"state_1_choice":0,"state_1_rt":638.0999999940395,"transition":1,"state":0,"state_2_ids":[0,1],"state_2_key":0,"state_2_choice":0,"state_2_rt":424.69999998807907,"outcome":0,"rocket_colors":["#48a782","#955db9"],"planet_colors":["#5f6f81","#7f5d5d"],"screen_resolution":[1280,657],"minimum_resolution":1,"trial":70,"drifts":[0.293,0.475,0.305,0.375],"drift_ix":2,"trial_type":"two-step-trial","trial_index":106,"time_elapsed":756521,"internal_node_id":"0.0-83.0-0.0","task_version":"1.0","jspsych_version":"6.3.1","browser_interactions":0,"missing":false},{"state_1_ids":[1,0],"state_1_key":1,"state_1_choice":0,"state_1_rt":402.2999999821186,"transition":1,"state":0,"state_2_ids":[0,1],"state_2_key":1,"state_2_choice":1,"state_2_rt":421.59999999403954,"outcome":1,"rocket_colors":["#48a782","#955db9"],"planet_colors":["#5f6f81","#7f5d5d"],"screen_resolution":[1280,657],"minimum_resolution":1,"trial":71,"drifts":[0.268,0.51,0.303,0.365],"drift_ix":2,"trial_type":"two-step-trial","trial_index":107,"time_elapsed":759350,"internal_node_id":"0.0-84.0-0.0","task_version":"1.0","jspsych_version":"6.3.1","browser_interactions":0,"missing":false},{"state_1_ids":[0,1],"state_1_key":1,"state_1_choice":1,"state_1_rt":839,"transition":1,"state":1,"state_2_ids":[2,3],"state_2_key":1,"state_2_choice":3,"state_2_rt":358.69999998807907,"outcome":0,"rocket_colors":["#48a782","#955db9"],"planet_colors":["#5f6f81","#7f5d5d"],"screen_resolution":[1280,657],"minimum_resolution":1,"trial":72,"drifts":[0.294,0.507,0.326,0.359],"drift_ix":2,"trial_type":"two-step-trial","trial_index":108,"time_elapsed":762551,"internal_node_id":"0.0-85.0-0.0","task_version":"1.0","jspsych_version":"6.3.1","browser_interactions":0,"missing":false},{"state_1_ids":[1,0],"state_1_key":0,"state_1_choice":1,"state_1_rt":790.2000000178814,"transition":1,"state":1,"state_2_ids":[2,3],"state_2_key":1,"state_2_choice":3,"state_2_rt":638.7999999821186,"outcome":1,"rocket_colors":["#48a782","#955db9"],"planet_colors":["#5f6f81","#7f5d5d"],"screen_resolution":[1280,657],"minimum_resolution":1,"trial":73,"drifts":[0.296,0.541,0.313,0.367],"drift_ix":2,"trial_type":"two-step-trial","trial_index":109,"time_elapsed":765983,"internal_node_id":"0.0-86.0-0.0","task_version":"1.0","jspsych_version":"6.3.1","browser_interactions":0,"missing":false},{"state_1_ids":[1,0],"state_1_key":0,"state_1_choice":1,"state_1_rt":988.0999999940395,"transition":0,"state":0,"state_2_ids":[0,1],"state_2_key":1,"state_2_choice":1,"state_2_rt":1046.4000000059605,"outcome":1,"rocket_colors":["#48a782","#955db9"],"planet_colors":["#5f6f81","#7f5d5d"],"screen_resolution":[1280,657],"minimum_resolution":1,"trial":74,"drifts":[0.282,0.491,0.339,0.374],"drift_ix":2,"trial_type":"two-step-trial","trial_index":110,"time_elapsed":770023,"internal_node_id":"0.0-87.0-0.0","task_version":"1.0","jspsych_version":"6.3.1","browser_interactions":0,"missing":false},{"state_1_ids":[0,1],"state_1_key":1,"state_1_choice":1,"state_1_rt":1156.2999999821186,"transition":0,"state":0,"state_2_ids":[0,1],"state_2_key":1,"state_2_choice":1,"state_2_rt":1014.8000000119209,"outcome":1,"rocket_colors":["#48a782","#955db9"],"planet_colors":["#5f6f81","#7f5d5d"],"screen_resolution":[1280,657],"minimum_resolution":1,"trial":75,"drifts":[0.336,0.513,0.333,0.367],"drift_ix":2,"trial_type":"two-step-trial","trial_index":111,"time_elapsed":774200,"internal_node_id":"0.0-88.0-0.0","task_version":"1.0","jspsych_version":"6.3.1","browser_interactions":0,"missing":false},{"state_1_ids":[1,0],"state_1_key":1,"state_1_choice":0,"state_1_rt":1123.9000000059605,"transition":1,"state":0,"state_2_ids":[0,1],"state_2_key":1,"state_2_choice":1,"state_2_rt":582.3999999761581,"outcome":1,"rocket_colors":["#48a782","#955db9"],"planet_colors":["#5f6f81","#7f5d5d"],"screen_resolution":[1280,657],"minimum_resolution":1,"trial":76,"drifts":[0.344,0.538,0.274,0.339],"drift_ix":2,"trial_type":"two-step-trial","trial_index":112,"time_elapsed":777911,"internal_node_id":"0.0-89.0-0.0","task_version":"1.0","jspsych_version":"6.3.1","browser_interactions":0,"missing":false},{"state_1_ids":[0,1],"state_1_key":1,"state_1_choice":1,"state_1_rt":847.4000000059605,"transition":1,"state":1,"state_2_ids":[2,3],"state_2_key":0,"state_2_choice":2,"state_2_rt":1252.7000000178814,"outcome":1,"rocket_colors":["#48a782","#955db9"],"planet_colors":["#5f6f81","#7f5d5d"],"screen_resolution":[1280,657],"minimum_resolution":1,"trial":77,"drifts":[0.322,0.54,0.262,0.343],"drift_ix":2,"trial_type":"two-step-trial","trial_index":113,"time_elapsed":782015,"internal_node_id":"0.0-90.0-0.0","task_version":"1.0","jspsych_version":"6.3.1","browser_interactions":0,"missing":false},{"state_1_ids":[1,0],"state_1_key":0,"state_1_choice":1,"state_1_rt":948.5999999940395,"transition":1,"state":1,"state_2_ids":[2,3],"state_2_key":0,"state_2_choice":2,"state_2_rt":318.19999998807907,"outcome":0,"rocket_colors":["#48a782","#955db9"],"planet_colors":["#5f6f81","#7f5d5d"],"screen_resolution":[1280,657],"minimum_resolution":1,"trial":78,"drifts":[0.351,0.561,0.265,0.342],"drift_ix":2,"trial_type":"two-step-trial","trial_index":114,"time_elapsed":785287,"internal_node_id":"0.0-91.0-0.0","task_version":"1.0","jspsych_version":"6.3.1","browser_interactions":0,"missing":false},{"state_1_ids":[1,0],"state_1_key":0,"state_1_choice":1,"state_1_rt":427.59999999403954,"transition":1,"state":1,"state_2_ids":[2,3],"state_2_key":0,"state_2_choice":2,"state_2_rt":391,"outcome":0,"rocket_colors":["#48a782","#955db9"],"planet_colors":["#5f6f81","#7f5d5d"],"screen_resolution":[1280,657],"minimum_resolution":1,"trial":79,"drifts":[0.335,0.543,0.286,0.35],"drift_ix":2,"trial_type":"two-step-trial","trial_index":115,"time_elapsed":788110,"internal_node_id":"0.0-92.0-0.0","task_version":"1.0","jspsych_version":"6.3.1","browser_interactions":0,"missing":false},{"state_1_ids":[0,1],"state_1_key":0,"state_1_choice":0,"state_1_rt":333.09999999403954,"transition":1,"state":0,"state_2_ids":[0,1],"state_2_key":1,"state_2_choice":1,"state_2_rt":893.5,"outcome":1,"rocket_colors":["#48a782","#955db9"],"planet_colors":["#5f6f81","#7f5d5d"],"screen_resolution":[1280,657],"minimum_resolution":1,"trial":80,"drifts":[0.328,0.536,0.289,0.405],"drift_ix":2,"trial_type":"two-step-trial","trial_index":116,"time_elapsed":791342,"internal_node_id":"0.0-93.0-0.0","task_version":"1.0","jspsych_version":"6.3.1","browser_interactions":0,"missing":false},{"state_1_ids":[0,1],"state_1_key":1,"state_1_choice":1,"state_1_rt":613,"transition":1,"state":1,"state_2_ids":[2,3],"state_2_key":1,"state_2_choice":3,"state_2_rt":326.89999997615814,"outcome":0,"rocket_colors":["#48a782","#955db9"],"planet_colors":["#5f6f81","#7f5d5d"],"screen_resolution":[1280,657],"minimum_resolution":1,"trial":81,"drifts":[0.286,0.534,0.265,0.391],"drift_ix":2,"trial_type":"two-step-trial","trial_index":117,"time_elapsed":794287,"internal_node_id":"0.0-94.0-0.0","task_version":"1.0","jspsych_version":"6.3.1","browser_interactions":0,"missing":false},{"state_1_ids":[0,1],"state_1_key":0,"state_1_choice":0,"state_1_rt":436.19999998807907,"transition":1,"state":0,"state_2_ids":[0,1],"state_2_key":1,"state_2_choice":1,"state_2_rt":390.5,"outcome":1,"rocket_colors":["#48a782","#955db9"],"planet_colors":["#5f6f81","#7f5d5d"],"screen_resolution":[1280,657],"minimum_resolution":1,"trial":82,"drifts":[0.307,0.553,0.256,0.373],"drift_ix":2,"trial_type":"two-step-trial","trial_index":118,"time_elapsed":797119,"internal_node_id":"0.0-95.0-0.0","task_version":"1.0","jspsych_version":"6.3.1","browser_interactions":0,"missing":false},{"state_1_ids":[1,0],"state_1_key":1,"state_1_choice":0,"state_1_rt":932.6000000238419,"transition":1,"state":0,"state_2_ids":[0,1],"state_2_key":1,"state_2_choice":1,"state_2_rt":718.5999999940395,"outcome":1,"rocket_colors":["#48a782","#955db9"],"planet_colors":["#5f6f81","#7f5d5d"],"screen_resolution":[1280,657],"minimum_resolution":1,"trial":83,"drifts":[0.306,0.564,0.273,0.38],"drift_ix":2,"trial_type":"two-step-trial","trial_index":119,"time_elapsed":800775,"internal_node_id":"0.0-96.0-0.0","task_version":"1.0","jspsych_version":"6.3.1","browser_interactions":0,"missing":false},{"state_1_ids":[1,0],"state_1_key":1,"state_1_choice":0,"state_1_rt":1678.0999999940395,"transition":1,"state":0,"state_2_ids":[0,1],"state_2_key":1,"state_2_choice":1,"state_2_rt":495.59999999403954,"outcome":0,"rocket_colors":["#48a782","#955db9"],"planet_colors":["#5f6f81","#7f5d5d"],"screen_resolution":[1280,657],"minimum_resolution":1,"trial":84,"drifts":[0.263,0.564,0.275,0.397],"drift_ix":2,"trial_type":"two-step-trial","trial_index":120,"time_elapsed":804952,"internal_node_id":"0.0-97.0-0.0","task_version":"1.0","jspsych_version":"6.3.1","browser_interactions":0,"missing":false},{"state_1_ids":[1,0],"state_1_key":1,"state_1_choice":0,"state_1_rt":572.4000000059605,"transition":1,"state":0,"state_2_ids":[0,1],"state_2_key":1,"state_2_choice":1,"state_2_rt":431.09999999403954,"outcome":0,"rocket_colors":["#48a782","#955db9"],"planet_colors":["#5f6f81","#7f5d5d"],"screen_resolution":[1280,657],"minimum_resolution":1,"trial":85,"drifts":[0.295,0.592,0.3,0.406],"drift_ix":2,"trial_type":"two-step-trial","trial_index":121,"time_elapsed":807961,"internal_node_id":"0.0-98.0-0.0","task_version":"1.0","jspsych_version":"6.3.1","browser_interactions":0,"missing":false},{"state_1_ids":[1,0],"state_1_key":0,"state_1_choice":1,"state_1_rt":2059,"transition":1,"state":1,"state_2_ids":[2,3],"state_2_key":1,"state_2_choice":3,"state_2_rt":806.9000000059605,"outcome":0,"rocket_colors":["#48a782","#955db9"],"planet_colors":["#5f6f81","#7f5d5d"],"screen_resolution":[1280,657],"minimum_resolution":1,"trial":86,"drifts":[0.266,0.571,0.324,0.417],"drift_ix":2,"trial_type":"two-step-trial","trial_index":122,"time_elapsed":812831,"internal_node_id":"0.0-99.0-0.0","task_version":"1.0","jspsych_version":"6.3.1","browser_interactions":0,"missing":false},{"state_1_ids":[0,1],"state_1_key":1,"state_1_choice":1,"state_1_rt":827.4000000059605,"transition":0,"state":0,"state_2_ids":[0,1],"state_2_key":1,"state_2_choice":1,"state_2_rt":886.2999999821186,"outcome":1,"rocket_colors":["#48a782","#955db9"],"planet_colors":["#5f6f81","#7f5d5d"],"screen_resolution":[1280,657],"minimum_resolution":1,"trial":87,"drifts":[0.25,0.532,0.345,0.39],"drift_ix":2,"trial_type":"two-step-trial","trial_index":123,"time_elapsed":816551,"internal_node_id":"0.0-100.0-0.0","task_version":"1.0","jspsych_version":"6.3.1","browser_interactions":0,"missing":false},{"state_1_ids":[1,0],"state_1_key":1,"state_1_choice":0,"state_1_rt":430.09999999403954,"transition":0,"state":1,"state_2_ids":[2,3],"state_2_key":1,"state_2_choice":3,"state_2_rt":582.5,"outcome":1,"rocket_colors":["#48a782","#955db9"],"planet_colors":["#5f6f81","#7f5d5d"],"screen_resolution":[1280,657],"minimum_resolution":1,"trial":88,"drifts":[0.258,0.529,0.341,0.378],"drift_ix":2,"trial_type":"two-step-trial","trial_index":124,"time_elapsed":819568,"internal_node_id":"0.0-101.0-0.0","task_version":"1.0","jspsych_version":"6.3.1","browser_interactions":0,"missing":false},{"state_1_ids":[1,0],"state_1_key":1,"state_1_choice":0,"state_1_rt":572.8999999761581,"transition":0,"state":1,"state_2_ids":[2,3],"state_2_key":1,"state_2_choice":3,"state_2_rt":406.30000001192093,"outcome":1,"rocket_colors":["#48a782","#955db9"],"planet_colors":["#5f6f81","#7f5d5d"],"screen_resolution":[1280,657],"minimum_resolution":1,"trial":89,"drifts":[0.266,0.533,0.306,0.41],"drift_ix":2,"trial_type":"two-step-trial","trial_index":125,"time_elapsed":822551,"internal_node_id":"0.0-102.0-0.0","task_version":"1.0","jspsych_version":"6.3.1","browser_interactions":0,"missing":false},{"state_1_ids":[0,1],"state_1_key":1,"state_1_choice":1,"state_1_rt":422,"transition":1,"state":1,"state_2_ids":[2,3],"state_2_key":1,"state_2_choice":3,"state_2_rt":334.59999999403954,"outcome":1,"rocket_colors":["#48a782","#955db9"],"planet_colors":["#5f6f81","#7f5d5d"],"screen_resolution":[1280,657],"minimum_resolution":1,"trial":90,"drifts":[0.254,0.554,0.297,0.382],"drift_ix":2,"trial_type":"two-step-trial","trial_index":126,"time_elapsed":825311,"internal_node_id":"0.0-103.0-0.0","task_version":"1.0","jspsych_version":"6.3.1","browser_interactions":0,"missing":false},{"state_1_ids":[1,0],"state_1_key":1,"state_1_choice":0,"state_1_rt":452.19999998807907,"transition":1,"state":0,"state_2_ids":[0,1],"state_2_key":1,"state_2_choice":1,"state_2_rt":358.69999998807907,"outcome":0,"rocket_colors":["#48a782","#955db9"],"planet_colors":["#5f6f81","#7f5d5d"],"screen_resolution":[1280,657],"minimum_resolution":1,"trial":91,"drifts":[0.265,0.543,0.313,0.38],"drift_ix":2,"trial_type":"two-step-trial","trial_index":127,"time_elapsed":828128,"internal_node_id":"0.0-104.0-0.0","task_version":"1.0","jspsych_version":"6.3.1","browser_interactions":0,"missing":false},{"state_1_ids":[0,1],"state_1_key":1,"state_1_choice":1,"state_1_rt":594.3000000119209,"transition":0,"state":0,"state_2_ids":[0,1],"state_2_key":1,"state_2_choice":1,"state_2_rt":687.1999999880791,"outcome":1,"rocket_colors":["#48a782","#955db9"],"planet_colors":["#5f6f81","#7f5d5d"],"screen_resolution":[1280,657],"minimum_resolution":1,"trial":92,"drifts":[0.259,0.54,0.279,0.363],"drift_ix":2,"trial_type":"two-step-trial","trial_index":128,"time_elapsed":831415,"internal_node_id":"0.0-105.0-0.0","task_version":"1.0","jspsych_version":"6.3.1","browser_interactions":0,"missing":false},{"state_1_ids":[1,0],"state_1_key":0,"state_1_choice":1,"state_1_rt":1028.0999999940395,"transition":1,"state":1,"state_2_ids":[2,3],"state_2_key":1,"state_2_choice":3,"state_2_rt":486.09999999403954,"outcome":1,"rocket_colors":["#48a782","#955db9"],"planet_colors":["#5f6f81","#7f5d5d"],"screen_resolution":[1280,657],"minimum_resolution":1,"trial":93,"drifts":[0.251,0.565,0.296,0.35],"drift_ix":2,"trial_type":"two-step-trial","trial_index":129,"time_elapsed":834934,"internal_node_id":"0.0-106.0-0.0","task_version":"1.0","jspsych_version":"6.3.1","browser_interactions":0,"missing":false},{"state_1_ids":[0,1],"state_1_key":1,"state_1_choice":1,"state_1_rt":364.69999998807907,"transition":1,"state":1,"state_2_ids":[2,3],"state_2_key":1,"state_2_choice":3,"state_2_rt":438.7999999821186,"outcome":0,"rocket_colors":["#48a782","#955db9"],"planet_colors":["#5f6f81","#7f5d5d"],"screen_resolution":[1280,657],"minimum_resolution":1,"trial":94,"drifts":[0.276,0.543,0.275,0.322],"drift_ix":2,"trial_type":"two-step-trial","trial_index":130,"time_elapsed":837743,"internal_node_id":"0.0-107.0-0.0","task_version":"1.0","jspsych_version":"6.3.1","browser_interactions":0,"missing":false},{"state_1_ids":[0,1],"state_1_key":1,"state_1_choice":1,"state_1_rt":428.2999999821186,"transition":1,"state":1,"state_2_ids":[2,3],"state_2_key":1,"state_2_choice":3,"state_2_rt":391.30000001192093,"outcome":0,"rocket_colors":["#48a782","#955db9"],"planet_colors":["#5f6f81","#7f5d5d"],"screen_resolution":[1280,657],"minimum_resolution":1,"trial":95,"drifts":[0.317,0.539,0.285,0.291],"drift_ix":2,"trial_type":"two-step-trial","trial_index":131,"time_elapsed":840567,"internal_node_id":"0.0-108.0-0.0","task_version":"1.0","jspsych_version":"6.3.1","browser_interactions":0,"missing":false},{"state_1_ids":[1,0],"state_1_key":0,"state_1_choice":1,"state_1_rt":749.2999999821186,"transition":0,"state":0,"state_2_ids":[0,1],"state_2_key":1,"state_2_choice":1,"state_2_rt":654.7999999821186,"outcome":0,"rocket_colors":["#48a782","#955db9"],"planet_colors":["#5f6f81","#7f5d5d"],"screen_resolution":[1280,657],"minimum_resolution":1,"trial":96,"drifts":[0.325,0.583,0.251,0.276],"drift_ix":2,"trial_type":"two-step-trial","trial_index":132,"time_elapsed":843975,"internal_node_id":"0.0-109.0-0.0","task_version":"1.0","jspsych_version":"6.3.1","browser_interactions":0,"missing":false},{"state_1_ids":[0,1],"state_1_key":1,"state_1_choice":1,"state_1_rt":812.1999999880791,"transition":0,"state":0,"state_2_ids":[0,1],"state_2_key":1,"state_2_choice":1,"state_2_rt":374.40000000596046,"outcome":1,"rocket_colors":["#48a782","#955db9"],"planet_colors":["#5f6f81","#7f5d5d"],"screen_resolution":[1280,657],"minimum_resolution":1,"trial":97,"drifts":[0.352,0.597,0.278,0.336],"drift_ix":2,"trial_type":"two-step-trial","trial_index":133,"time_elapsed":847167,"internal_node_id":"0.0-110.0-0.0","task_version":"1.0","jspsych_version":"6.3.1","browser_interactions":0,"missing":false},{"state_1_ids":[1,0],"state_1_key":1,"state_1_choice":0,"state_1_rt":531.9000000059605,"transition":1,"state":0,"state_2_ids":[0,1],"state_2_key":1,"state_2_choice":1,"state_2_rt":487.09999999403954,"outcome":0,"rocket_colors":["#48a782","#955db9"],"planet_colors":["#5f6f81","#7f5d5d"],"screen_resolution":[1280,657],"minimum_resolution":1,"trial":98,"drifts":[0.369,0.601,0.316,0.324],"drift_ix":2,"trial_type":"two-step-trial","trial_index":134,"time_elapsed":850191,"internal_node_id":"0.0-111.0-0.0","task_version":"1.0","jspsych_version":"6.3.1","browser_interactions":0,"missing":false},{"state_1_ids":[0,1],"state_1_key":0,"state_1_choice":0,"state_1_rt":756.3000000119209,"transition":1,"state":0,"state_2_ids":[0,1],"state_2_key":1,"state_2_choice":1,"state_2_rt":526.2000000178814,"outcome":0,"rocket_colors":["#48a782","#955db9"],"planet_colors":["#5f6f81","#7f5d5d"],"screen_resolution":[1280,657],"minimum_resolution":1,"trial":99,"drifts":[0.338,0.574,0.29,0.307],"drift_ix":2,"trial_type":"two-step-trial","trial_index":135,"time_elapsed":853478,"internal_node_id":"0.0-112.0-0.0","task_version":"1.0","jspsych_version":"6.3.1","browser_interactions":0,"missing":false},{"state_1_ids":[0,1],"state_1_key":1,"state_1_choice":1,"state_1_rt":2022.7000000178814,"transition":1,"state":1,"state_2_ids":[2,3],"state_2_key":1,"state_2_choice":3,"state_2_rt":654.8999999761581,"outcome":0,"rocket_colors":["#48a782","#955db9"],"planet_colors":["#5f6f81","#7f5d5d"],"screen_resolution":[1280,657],"minimum_resolution":1,"trial":100,"drifts":[0.348,0.567,0.294,0.264],"drift_ix":2,"trial_type":"two-step-trial","trial_index":136,"time_elapsed":858160,"internal_node_id":"0.0-113.0-0.0","task_version":"1.0","jspsych_version":"6.3.1","browser_interactions":0,"missing":false},{"view_history":"[{\"page_index\":0,\"viewing_time\":46979.19999998808},{\"page_index\":1,\"viewing_time\":2832.800000011921}]","rt":49812.39999997616,"trial_type":"two-step-instructions","trial_index":137,"time_elapsed":907974,"internal_node_id":"0.0-114.0","task_version":"1.0","jspsych_version":"6.3.1"},{"state_1_ids":[1,0],"state_1_key":0,"state_1_choice":1,"state_1_rt":1178.199999988079,"transition":1,"state":1,"state_2_ids":[2,3],"state_2_key":1,"state_2_choice":3,"state_2_rt":636.6000000238419,"outcome":0,"rocket_colors":["#48a782","#955db9"],"planet_colors":["#5f6f81","#7f5d5d"],"screen_resolution":[1280,657],"minimum_resolution":1,"trial":101,"drifts":[0.332,0.536,0.335,0.261],"drift_ix":2,"trial_type":"two-step-trial","trial_index":138,"time_elapsed":911799,"internal_node_id":"0.0-115.0-0.0","task_version":"1.0","jspsych_version":"6.3.1","browser_interactions":0,"missing":false},{"state_1_ids":[1,0],"state_1_key":1,"state_1_choice":0,"state_1_rt":452.59999999403954,"transition":1,"state":0,"state_2_ids":[0,1],"state_2_key":0,"state_2_choice":0,"state_2_rt":407.2999999821186,"outcome":1,"rocket_colors":["#48a782","#955db9"],"planet_colors":["#5f6f81","#7f5d5d"],"screen_resolution":[1280,657],"minimum_resolution":1,"trial":102,"drifts":[0.331,0.521,0.359,0.268],"drift_ix":2,"trial_type":"two-step-trial","trial_index":139,"time_elapsed":914663,"internal_node_id":"0.0-116.0-0.0","task_version":"1.0","jspsych_version":"6.3.1","browser_interactions":0,"missing":false},{"state_1_ids":[1,0],"state_1_key":1,"state_1_choice":0,"state_1_rt":485.19999998807907,"transition":1,"state":0,"state_2_ids":[0,1],"state_2_key":0,"state_2_choice":0,"state_2_rt":461.89999997615814,"outcome":1,"rocket_colors":["#48a782","#955db9"],"planet_colors":["#5f6f81","#7f5d5d"],"screen_resolution":[1280,657],"minimum_resolution":1,"trial":103,"drifts":[0.317,0.518,0.371,0.309],"drift_ix":2,"trial_type":"two-step-trial","trial_index":140,"time_elapsed":917616,"internal_node_id":"0.0-117.0-0.0","task_version":"1.0","jspsych_version":"6.3.1","browser_interactions":0,"missing":false},{"state_1_ids":[0,1],"state_1_key":0,"state_1_choice":0,"state_1_rt":429,"transition":1,"state":0,"state_2_ids":[0,1],"state_2_key":0,"state_2_choice":0,"state_2_rt":453.39999997615814,"outcome":0,"rocket_colors":["#48a782","#955db9"],"planet_colors":["#5f6f81","#7f5d5d"],"screen_resolution":[1280,657],"minimum_resolution":1,"trial":104,"drifts":[0.334,0.493,0.341,0.296],"drift_ix":2,"trial_type":"two-step-trial","trial_index":141,"time_elapsed":920505,"internal_node_id":"0.0-118.0-0.0","task_version":"1.0","jspsych_version":"6.3.1","browser_interactions":0,"missing":false},{"state_1_ids":[0,1],"state_1_key":0,"state_1_choice":0,"state_1_rt":435.39999997615814,"transition":1,"state":0,"state_2_ids":[0,1],"state_2_key":0,"state_2_choice":0,"state_2_rt":445.40000000596046,"outcome":0,"rocket_colors":["#48a782","#955db9"],"planet_colors":["#5f6f81","#7f5d5d"],"screen_resolution":[1280,657],"minimum_resolution":1,"trial":105,"drifts":[0.349,0.494,0.34,0.27],"drift_ix":2,"trial_type":"two-step-trial","trial_index":142,"time_elapsed":923392,"internal_node_id":"0.0-119.0-0.0","task_version":"1.0","jspsych_version":"6.3.1","browser_interactions":0,"missing":false},{"state_1_ids":[1,0],"state_1_key":1,"state_1_choice":0,"state_1_rt":331.90000000596046,"transition":1,"state":0,"state_2_ids":[0,1],"state_2_key":0,"state_2_choice":0,"state_2_rt":463,"outcome":1,"rocket_colors":["#48a782","#955db9"],"planet_colors":["#5f6f81","#7f5d5d"],"screen_resolution":[1280,657],"minimum_resolution":1,"trial":106,"drifts":[0.302,0.497,0.307,0.282],"drift_ix":2,"trial_type":"two-step-trial","trial_index":143,"time_elapsed":926192,"internal_node_id":"0.0-120.0-0.0","task_version":"1.0","jspsych_version":"6.3.1","browser_interactions":0,"missing":false},{"state_1_ids":[1,0],"state_1_key":1,"state_1_choice":0,"state_1_rt":581.3000000119209,"transition":1,"state":0,"state_2_ids":[0,1],"state_2_key":0,"state_2_choice":0,"state_2_rt":438.2000000178814,"outcome":1,"rocket_colors":["#48a782","#955db9"],"planet_colors":["#5f6f81","#7f5d5d"],"screen_resolution":[1280,657],"minimum_resolution":1,"trial":107,"drifts":[0.336,0.523,0.294,0.315],"drift_ix":2,"trial_type":"two-step-trial","trial_index":144,"time_elapsed":929216,"internal_node_id":"0.0-121.0-0.0","task_version":"1.0","jspsych_version":"6.3.1","browser_interactions":0,"missing":false},{"state_1_ids":[0,1],"state_1_key":0,"state_1_choice":0,"state_1_rt":508.5,"transition":0,"state":1,"state_2_ids":[2,3],"state_2_key":0,"state_2_choice":2,"state_2_rt":1190.5,"outcome":1,"rocket_colors":["#48a782","#955db9"],"planet_colors":["#5f6f81","#7f5d5d"],"screen_resolution":[1280,657],"minimum_resolution":1,"trial":108,"drifts":[0.381,0.482,0.317,0.324],"drift_ix":2,"trial_type":"two-step-trial","trial_index":145,"time_elapsed":932920,"internal_node_id":"0.0-122.0-0.0","task_version":"1.0","jspsych_version":"6.3.1","browser_interactions":0,"missing":false},{"state_1_ids":[0,1],"state_1_key":0,"state_1_choice":0,"state_1_rt":907.8000000119209,"transition":1,"state":0,"state_2_ids":[0,1],"state_2_key":0,"state_2_choice":0,"state_2_rt":366.09999999403954,"outcome":0,"rocket_colors":["#48a782","#955db9"],"planet_colors":["#5f6f81","#7f5d5d"],"screen_resolution":[1280,657],"minimum_resolution":1,"trial":109,"drifts":[0.342,0.505,0.32,0.33],"drift_ix":2,"trial_type":"two-step-trial","trial_index":146,"time_elapsed":936199,"internal_node_id":"0.0-123.0-0.0","task_version":"1.0","jspsych_version":"6.3.1","browser_interactions":0,"missing":false},{"state_1_ids":[1,0],"state_1_key":1,"state_1_choice":0,"state_1_rt":420.80000001192093,"transition":0,"state":1,"state_2_ids":[2,3],"state_2_key":0,"state_2_choice":2,"state_2_rt":630.5999999940395,"outcome":0,"rocket_colors":["#48a782","#955db9"],"planet_colors":["#5f6f81","#7f5d5d"],"screen_resolution":[1280,657],"minimum_resolution":1,"trial":110,"drifts":[0.337,0.526,0.318,0.349],"drift_ix":2,"trial_type":"two-step-trial","trial_index":147,"time_elapsed":939257,"internal_node_id":"0.0-124.0-0.0","task_version":"1.0","jspsych_version":"6.3.1","browser_interactions":0,"missing":false},{"state_1_ids":[1,0],"state_1_key":1,"state_1_choice":0,"state_1_rt":594.5,"transition":0,"state":1,"state_2_ids":[2,3],"state_2_key":0,"state_2_choice":2,"state_2_rt":486.7000000178814,"outcome":0,"rocket_colors":["#48a782","#955db9"],"planet_colors":["#5f6f81","#7f5d5d"],"screen_resolution":[1280,657],"minimum_resolution":1,"trial":111,"drifts":[0.374,0.551,0.269,0.35],"drift_ix":2,"trial_type":"two-step-trial","trial_index":148,"time_elapsed":942344,"internal_node_id":"0.0-125.0-0.0","task_version":"1.0","jspsych_version":"6.3.1","browser_interactions":0,"missing":false},{"state_1_ids":[0,1],"state_1_key":0,"state_1_choice":0,"state_1_rt":692.6999999880791,"transition":0,"state":1,"state_2_ids":[2,3],"state_2_key":1,"state_2_choice":3,"state_2_rt":460.89999997615814,"outcome":0,"rocket_colors":["#48a782","#955db9"],"planet_colors":["#5f6f81","#7f5d5d"],"screen_resolution":[1280,657],"minimum_resolution":1,"trial":112,"drifts":[0.355,0.517,0.255,0.331],"drift_ix":2,"trial_type":"two-step-trial","trial_index":149,"time_elapsed":945504,"internal_node_id":"0.0-126.0-0.0","task_version":"1.0","jspsych_version":"6.3.1","browser_interactions":0,"missing":false},{"state_1_ids":[0,1],"state_1_key":1,"state_1_choice":1,"state_1_rt":803.6999999880791,"transition":1,"state":1,"state_2_ids":[2,3],"state_2_key":0,"state_2_choice":2,"state_2_rt":631.2000000178814,"outcome":1,"rocket_colors":["#48a782","#955db9"],"planet_colors":["#5f6f81","#7f5d5d"],"screen_resolution":[1280,657],"minimum_resolution":1,"trial":113,"drifts":[0.331,0.507,0.283,0.271],"drift_ix":2,"trial_type":"two-step-trial","trial_index":150,"time_elapsed":948944,"internal_node_id":"0.0-127.0-0.0","task_version":"1.0","jspsych_version":"6.3.1","browser_interactions":0,"missing":false},{"state_1_ids":[1,0],"state_1_key":1,"state_1_choice":0,"state_1_rt":508.39999997615814,"transition":0,"state":1,"state_2_ids":[2,3],"state_2_key":1,"state_2_choice":3,"state_2_rt":965.7000000178814,"outcome":0,"rocket_colors":["#48a782","#955db9"],"planet_colors":["#5f6f81","#7f5d5d"],"screen_resolution":[1280,657],"minimum_resolution":1,"trial":114,"drifts":[0.326,0.467,0.284,0.267],"drift_ix":2,"trial_type":"two-step-trial","trial_index":151,"time_elapsed":952423,"internal_node_id":"0.0-128.0-0.0","task_version":"1.0","jspsych_version":"6.3.1","browser_interactions":0,"missing":false},{"state_1_ids":[0,1],"state_1_key":0,"state_1_choice":0,"state_1_rt":836.8000000119209,"transition":1,"state":0,"state_2_ids":[0,1],"state_2_key":0,"state_2_choice":0,"state_2_rt":582.5999999940395,"outcome":0,"rocket_colors":["#48a782","#955db9"],"planet_colors":["#5f6f81","#7f5d5d"],"screen_resolution":[1280,657],"minimum_resolution":1,"trial":115,"drifts":[0.313,0.494,0.291,0.251],"drift_ix":2,"trial_type":"two-step-trial","trial_index":152,"time_elapsed":955848,"internal_node_id":"0.0-129.0-0.0","task_version":"1.0","jspsych_version":"6.3.1","browser_interactions":0,"missing":false},{"state_1_ids":[0,1],"state_1_key":0,"state_1_choice":0,"state_1_rt":516.0999999940395,"transition":0,"state":1,"state_2_ids":[2,3],"state_2_key":0,"state_2_choice":2,"state_2_rt":574.1000000238419,"outcome":0,"rocket_colors":["#48a782","#955db9"],"planet_colors":["#5f6f81","#7f5d5d"],"screen_resolution":[1280,657],"minimum_resolution":1,"trial":116,"drifts":[0.319,0.494,0.296,0.273],"drift_ix":2,"trial_type":"two-step-trial","trial_index":153,"time_elapsed":958944,"internal_node_id":"0.0-130.0-0.0","task_version":"1.0","jspsych_version":"6.3.1","browser_interactions":0,"missing":false},{"state_1_ids":[1,0],"state_1_key":1,"state_1_choice":0,"state_1_rt":555.9000000059605,"transition":1,"state":0,"state_2_ids":[0,1],"state_2_key":0,"state_2_choice":0,"state_2_rt":366.60000002384186,"outcome":0,"rocket_colors":["#48a782","#955db9"],"planet_colors":["#5f6f81","#7f5d5d"],"screen_resolution":[1280,657],"minimum_resolution":1,"trial":117,"drifts":[0.297,0.492,0.312,0.277],"drift_ix":2,"trial_type":"two-step-trial","trial_index":154,"time_elapsed":961871,"internal_node_id":"0.0-131.0-0.0","task_version":"1.0","jspsych_version":"6.3.1","browser_interactions":0,"missing":false},{"state_1_ids":[0,1],"state_1_key":0,"state_1_choice":0,"state_1_rt":556.1000000238419,"transition":0,"state":1,"state_2_ids":[2,3],"state_2_key":0,"state_2_choice":2,"state_2_rt":743,"outcome":0,"rocket_colors":["#48a782","#955db9"],"planet_colors":["#5f6f81","#7f5d5d"],"screen_resolution":[1280,657],"minimum_resolution":1,"trial":118,"drifts":[0.288,0.513,0.36,0.275],"drift_ix":2,"trial_type":"two-step-trial","trial_index":155,"time_elapsed":965177,"internal_node_id":"0.0-132.0-0.0","task_version":"1.0","jspsych_version":"6.3.1","browser_interactions":0,"missing":false},{"state_1_ids":[1,0],"state_1_key":0,"state_1_choice":1,"state_1_rt":396.10000002384186,"transition":1,"state":1,"state_2_ids":[2,3],"state_2_key":1,"state_2_choice":3,"state_2_rt":487,"outcome":0,"rocket_colors":["#48a782","#955db9"],"planet_colors":["#5f6f81","#7f5d5d"],"screen_resolution":[1280,657],"minimum_resolution":1,"trial":119,"drifts":[0.304,0.552,0.392,0.266],"drift_ix":2,"trial_type":"two-step-trial","trial_index":156,"time_elapsed":968064,"internal_node_id":"0.0-133.0-0.0","task_version":"1.0","jspsych_version":"6.3.1","browser_interactions":0,"missing":false},{"state_1_ids":[1,0],"state_1_key":0,"state_1_choice":1,"state_1_rt":292.10000002384186,"transition":0,"state":0,"state_2_ids":[0,1],"state_2_key":0,"state_2_choice":0,"state_2_rt":269.30000001192093,"outcome":0,"rocket_colors":["#48a782","#955db9"],"planet_colors":["#5f6f81","#7f5d5d"],"screen_resolution":[1280,657],"minimum_resolution":1,"trial":120,"drifts":[0.295,0.538,0.367,0.253],"drift_ix":2,"trial_type":"two-step-trial","trial_index":157,"time_elapsed":970631,"internal_node_id":"0.0-134.0-0.0","task_version":"1.0","jspsych_version":"6.3.1","browser_interactions":0,"missing":false},{"state_1_ids":[0,1],"state_1_key":1,"state_1_choice":1,"state_1_rt":509,"transition":1,"state":1,"state_2_ids":[2,3],"state_2_key":1,"state_2_choice":3,"state_2_rt":302.5,"outcome":1,"rocket_colors":["#48a782","#955db9"],"planet_colors":["#5f6f81","#7f5d5d"],"screen_resolution":[1280,657],"minimum_resolution":1,"trial":121,"drifts":[0.268,0.49,0.389,0.267],"drift_ix":2,"trial_type":"two-step-trial","trial_index":158,"time_elapsed":973449,"internal_node_id":"0.0-135.0-0.0","task_version":"1.0","jspsych_version":"6.3.1","browser_interactions":0,"missing":false},{"state_1_ids":[1,0],"state_1_key":1,"state_1_choice":0,"state_1_rt":475.7999999821186,"transition":0,"state":1,"state_2_ids":[2,3],"state_2_key":1,"state_2_choice":3,"state_2_rt":533.5,"outcome":1,"rocket_colors":["#48a782","#955db9"],"planet_colors":["#5f6f81","#7f5d5d"],"screen_resolution":[1280,657],"minimum_resolution":1,"trial":122,"drifts":[0.292,0.548,0.366,0.262],"drift_ix":2,"trial_type":"two-step-trial","trial_index":159,"time_elapsed":976464,"internal_node_id":"0.0-136.0-0.0","task_version":"1.0","jspsych_version":"6.3.1","browser_interactions":0,"missing":false},{"state_1_ids":[0,1],"state_1_key":1,"state_1_choice":1,"state_1_rt":315.5,"transition":0,"state":0,"state_2_ids":[0,1],"state_2_key":1,"state_2_choice":1,"state_2_rt":686.9000000059605,"outcome":1,"rocket_colors":["#48a782","#955db9"],"planet_colors":["#5f6f81","#7f5d5d"],"screen_resolution":[1280,657],"minimum_resolution":1,"trial":123,"drifts":[0.287,0.579,0.38,0.276],"drift_ix":2,"trial_type":"two-step-trial","trial_index":160,"time_elapsed":979471,"internal_node_id":"0.0-137.0-0.0","task_version":"1.0","jspsych_version":"6.3.1","browser_interactions":0,"missing":false},{"state_1_ids":[1,0],"state_1_key":1,"state_1_choice":0,"state_1_rt":468.90000000596046,"transition":1,"state":0,"state_2_ids":[0,1],"state_2_key":1,"state_2_choice":1,"state_2_rt":791.0999999940395,"outcome":0,"rocket_colors":["#48a782","#955db9"],"planet_colors":["#5f6f81","#7f5d5d"],"screen_resolution":[1280,657],"minimum_resolution":1,"trial":124,"drifts":[0.296,0.64,0.405,0.262],"drift_ix":2,"trial_type":"two-step-trial","trial_index":161,"time_elapsed":982736,"internal_node_id":"0.0-138.0-0.0","task_version":"1.0","jspsych_version":"6.3.1","browser_interactions":0,"missing":false},{"state_1_ids":[0,1],"state_1_key":1,"state_1_choice":1,"state_1_rt":922.3999999761581,"transition":1,"state":1,"state_2_ids":[2,3],"state_2_key":1,"state_2_choice":3,"state_2_rt":471.40000000596046,"outcome":0,"rocket_colors":["#48a782","#955db9"],"planet_colors":["#5f6f81","#7f5d5d"],"screen_resolution":[1280,657],"minimum_resolution":1,"trial":125,"drifts":[0.25,0.637,0.448,0.25],"drift_ix":2,"trial_type":"two-step-trial","trial_index":162,"time_elapsed":986135,"internal_node_id":"0.0-139.0-0.0","task_version":"1.0","jspsych_version":"6.3.1","browser_interactions":0,"missing":false},{"state_1_ids":[0,1],"state_1_key":0,"state_1_choice":0,"state_1_rt":387.90000000596046,"transition":1,"state":0,"state_2_ids":[0,1],"state_2_key":1,"state_2_choice":1,"state_2_rt":486.60000002384186,"outcome":1,"rocket_colors":["#48a782","#955db9"],"planet_colors":["#5f6f81","#7f5d5d"],"screen_resolution":[1280,657],"minimum_resolution":1,"trial":126,"drifts":[0.255,0.666,0.447,0.257],"drift_ix":2,"trial_type":"two-step-trial","trial_index":163,"time_elapsed":989016,"internal_node_id":"0.0-140.0-0.0","task_version":"1.0","jspsych_version":"6.3.1","browser_interactions":0,"missing":false},{"state_1_ids":[0,1],"state_1_key":0,"state_1_choice":0,"state_1_rt":259.69999998807907,"transition":1,"state":0,"state_2_ids":[0,1],"state_2_key":1,"state_2_choice":1,"state_2_rt":382.59999999403954,"outcome":0,"rocket_colors":["#48a782","#955db9"],"planet_colors":["#5f6f81","#7f5d5d"],"screen_resolution":[1280,657],"minimum_resolution":1,"trial":127,"drifts":[0.281,0.695,0.433,0.272],"drift_ix":2,"trial_type":"two-step-trial","trial_index":164,"time_elapsed":991663,"internal_node_id":"0.0-141.0-0.0","task_version":"1.0","jspsych_version":"6.3.1","browser_interactions":0,"missing":false},{"state_1_ids":[1,0],"state_1_key":1,"state_1_choice":0,"state_1_rt":284.5,"transition":1,"state":0,"state_2_ids":[0,1],"state_2_key":1,"state_2_choice":1,"state_2_rt":396.5,"outcome":1,"rocket_colors":["#48a782","#955db9"],"planet_colors":["#5f6f81","#7f5d5d"],"screen_resolution":[1280,657],"minimum_resolution":1,"trial":128,"drifts":[0.277,0.667,0.42,0.278],"drift_ix":2,"trial_type":"two-step-trial","trial_index":165,"time_elapsed":994351,"internal_node_id":"0.0-142.0-0.0","task_version":"1.0","jspsych_version":"6.3.1","browser_interactions":0,"missing":false},{"state_1_ids":[1,0],"state_1_key":1,"state_1_choice":0,"state_1_rt":397.10000002384186,"transition":1,"state":0,"state_2_ids":[0,1],"state_2_key":1,"state_2_choice":1,"state_2_rt":366.80000001192093,"outcome":0,"rocket_colors":["#48a782","#955db9"],"planet_colors":["#5f6f81","#7f5d5d"],"screen_resolution":[1280,657],"minimum_resolution":1,"trial":129,"drifts":[0.318,0.661,0.46,0.294],"drift_ix":2,"trial_type":"two-step-trial","trial_index":166,"time_elapsed":997121,"internal_node_id":"0.0-143.0-0.0","task_version":"1.0","jspsych_version":"6.3.1","browser_interactions":0,"missing":false},{"state_1_ids":[1,0],"state_1_key":1,"state_1_choice":0,"state_1_rt":331.90000000596046,"transition":0,"state":1,"state_2_ids":[2,3],"state_2_key":1,"state_2_choice":3,"state_2_rt":540.2999999821186,"outcome":0,"rocket_colors":["#48a782","#955db9"],"planet_colors":["#5f6f81","#7f5d5d"],"screen_resolution":[1280,657],"minimum_resolution":1,"trial":130,"drifts":[0.306,0.677,0.461,0.259],"drift_ix":2,"trial_type":"two-step-trial","trial_index":167,"time_elapsed":999999,"internal_node_id":"0.0-144.0-0.0","task_version":"1.0","jspsych_version":"6.3.1","browser_interactions":0,"missing":false},{"state_1_ids":[1,0],"state_1_key":1,"state_1_choice":0,"state_1_rt":140.90000000596046,"transition":1,"state":0,"state_2_ids":[0,1],"state_2_key":1,"state_2_choice":1,"state_2_rt":407,"outcome":1,"rocket_colors":["#48a782","#955db9"],"planet_colors":["#5f6f81","#7f5d5d"],"screen_resolution":[1280,657],"minimum_resolution":1,"trial":131,"drifts":[0.35,0.655,0.474,0.278],"drift_ix":2,"trial_type":"two-step-trial","trial_index":168,"time_elapsed":1002551,"internal_node_id":"0.0-145.0-0.0","task_version":"1.0","jspsych_version":"6.3.1","browser_interactions":0,"missing":false},{"state_1_ids":[0,1],"state_1_key":0,"state_1_choice":0,"state_1_rt":373,"transition":1,"state":0,"state_2_ids":[0,1],"state_2_key":1,"state_2_choice":1,"state_2_rt":399.5,"outcome":1,"rocket_colors":["#48a782","#955db9"],"planet_colors":["#5f6f81","#7f5d5d"],"screen_resolution":[1280,657],"minimum_resolution":1,"trial":132,"drifts":[0.352,0.663,0.445,0.297],"drift_ix":2,"trial_type":"two-step-trial","trial_index":169,"time_elapsed":1005327,"internal_node_id":"0.0-146.0-0.0","task_version":"1.0","jspsych_version":"6.3.1","browser_interactions":0,"missing":false},{"state_1_ids":[0,1],"state_1_key":0,"state_1_choice":0,"state_1_rt":260.40000000596046,"transition":0,"state":1,"state_2_ids":[2,3],"state_2_key":1,"state_2_choice":3,"state_2_rt":326.10000002384186,"outcome":0,"rocket_colors":["#48a782","#955db9"],"planet_colors":["#5f6f81","#7f5d5d"],"screen_resolution":[1280,657],"minimum_resolution":1,"trial":133,"drifts":[0.374,0.662,0.412,0.314],"drift_ix":2,"trial_type":"two-step-trial","trial_index":170,"time_elapsed":1007919,"internal_node_id":"0.0-147.0-0.0","task_version":"1.0","jspsych_version":"6.3.1","browser_interactions":0,"missing":false},{"state_1_ids":[0,1],"state_1_key":0,"state_1_choice":0,"state_1_rt":333.90000000596046,"transition":0,"state":1,"state_2_ids":[2,3],"state_2_key":0,"state_2_choice":2,"state_2_rt":750.8000000119209,"outcome":1,"rocket_colors":["#48a782","#955db9"],"planet_colors":["#5f6f81","#7f5d5d"],"screen_resolution":[1280,657],"minimum_resolution":1,"trial":134,"drifts":[0.405,0.666,0.424,0.315],"drift_ix":2,"trial_type":"two-step-trial","trial_index":171,"time_elapsed":1011008,"internal_node_id":"0.0-148.0-0.0","task_version":"1.0","jspsych_version":"6.3.1","browser_interactions":0,"missing":false},{"state_1_ids":[1,0],"state_1_key":0,"state_1_choice":1,"state_1_rt":253.5,"transition":1,"state":1,"state_2_ids":[2,3],"state_2_key":0,"state_2_choice":2,"state_2_rt":365.2000000178814,"outcome":0,"rocket_colors":["#48a782","#955db9"],"planet_colors":["#5f6f81","#7f5d5d"],"screen_resolution":[1280,657],"minimum_resolution":1,"trial":135,"drifts":[0.43,0.696,0.452,0.345],"drift_ix":2,"trial_type":"two-step-trial","trial_index":172,"time_elapsed":1013631,"internal_node_id":"0.0-149.0-0.0","task_version":"1.0","jspsych_version":"6.3.1","browser_interactions":0,"missing":false},{"state_1_ids":[0,1],"state_1_key":0,"state_1_choice":0,"state_1_rt":469,"transition":1,"state":0,"state_2_ids":[0,1],"state_2_key":1,"state_2_choice":1,"state_2_rt":415,"outcome":1,"rocket_colors":["#48a782","#955db9"],"planet_colors":["#5f6f81","#7f5d5d"],"screen_resolution":[1280,657],"minimum_resolution":1,"trial":136,"drifts":[0.426,0.681,0.444,0.337],"drift_ix":2,"trial_type":"two-step-trial","trial_index":173,"time_elapsed":1016520,"internal_node_id":"0.0-150.0-0.0","task_version":"1.0","jspsych_version":"6.3.1","browser_interactions":0,"missing":false},{"state_1_ids":[0,1],"state_1_key":0,"state_1_choice":0,"state_1_rt":370.5,"transition":1,"state":0,"state_2_ids":[0,1],"state_2_key":1,"state_2_choice":1,"state_2_rt":439.10000002384186,"outcome":1,"rocket_colors":["#48a782","#955db9"],"planet_colors":["#5f6f81","#7f5d5d"],"screen_resolution":[1280,657],"minimum_resolution":1,"trial":137,"drifts":[0.411,0.674,0.45,0.299],"drift_ix":2,"trial_type":"two-step-trial","trial_index":174,"time_elapsed":1019334,"internal_node_id":"0.0-151.0-0.0","task_version":"1.0","jspsych_version":"6.3.1","browser_interactions":0,"missing":false},{"state_1_ids":[0,1],"state_1_key":0,"state_1_choice":0,"state_1_rt":286.40000000596046,"transition":0,"state":1,"state_2_ids":[2,3],"state_2_key":0,"state_2_choice":2,"state_2_rt":1054.0999999940395,"outcome":1,"rocket_colors":["#48a782","#955db9"],"planet_colors":["#5f6f81","#7f5d5d"],"screen_resolution":[1280,657],"minimum_resolution":1,"trial":138,"drifts":[0.414,0.699,0.459,0.339],"drift_ix":2,"trial_type":"two-step-trial","trial_index":175,"time_elapsed":1022679,"internal_node_id":"0.0-152.0-0.0","task_version":"1.0","jspsych_version":"6.3.1","browser_interactions":0,"missing":false},{"state_1_ids":[1,0],"state_1_key":1,"state_1_choice":0,"state_1_rt":802.5,"transition":1,"state":0,"state_2_ids":[0,1],"state_2_key":1,"state_2_choice":1,"state_2_rt":566.6999999880791,"outcome":1,"rocket_colors":["#48a782","#955db9"],"planet_colors":["#5f6f81","#7f5d5d"],"screen_resolution":[1280,657],"minimum_resolution":1,"trial":139,"drifts":[0.394,0.734,0.462,0.307],"drift_ix":2,"trial_type":"two-step-trial","trial_index":176,"time_elapsed":1026055,"internal_node_id":"0.0-153.0-0.0","task_version":"1.0","jspsych_version":"6.3.1","browser_interactions":0,"missing":false},{"state_1_ids":[0,1],"state_1_key":0,"state_1_choice":0,"state_1_rt":349.60000002384186,"transition":1,"state":0,"state_2_ids":[0,1],"state_2_key":1,"state_2_choice":1,"state_2_rt":373.60000002384186,"outcome":0,"rocket_colors":["#48a782","#955db9"],"planet_colors":["#5f6f81","#7f5d5d"],"screen_resolution":[1280,657],"minimum_resolution":1,"trial":140,"drifts":[0.361,0.693,0.467,0.292],"drift_ix":2,"trial_type":"two-step-trial","trial_index":177,"time_elapsed":1028783,"internal_node_id":"0.0-154.0-0.0","task_version":"1.0","jspsych_version":"6.3.1","browser_interactions":0,"missing":false},{"state_1_ids":[1,0],"state_1_key":1,"state_1_choice":0,"state_1_rt":542.0999999940395,"transition":1,"state":0,"state_2_ids":[0,1],"state_2_key":1,"state_2_choice":1,"state_2_rt":342.90000000596046,"outcome":1,"rocket_colors":["#48a782","#955db9"],"planet_colors":["#5f6f81","#7f5d5d"],"screen_resolution":[1280,657],"minimum_resolution":1,"trial":141,"drifts":[0.354,0.722,0.46,0.26],"drift_ix":2,"trial_type":"two-step-trial","trial_index":178,"time_elapsed":1031671,"internal_node_id":"0.0-155.0-0.0","task_version":"1.0","jspsych_version":"6.3.1","browser_interactions":0,"missing":false},{"state_1_ids":[1,0],"state_1_key":0,"state_1_choice":1,"state_1_rt":364.09999999403954,"transition":0,"state":0,"state_2_ids":[0,1],"state_2_key":1,"state_2_choice":1,"state_2_rt":582.9000000059605,"outcome":0,"rocket_colors":["#48a782","#955db9"],"planet_colors":["#5f6f81","#7f5d5d"],"screen_resolution":[1280,657],"minimum_resolution":1,"trial":142,"drifts":[0.353,0.749,0.428,0.301],"drift_ix":2,"trial_type":"two-step-trial","trial_index":179,"time_elapsed":1034623,"internal_node_id":"0.0-156.0-0.0","task_version":"1.0","jspsych_version":"6.3.1","browser_interactions":0,"missing":false},{"state_1_ids":[0,1],"state_1_key":1,"state_1_choice":1,"state_1_rt":341,"transition":0,"state":0,"state_2_ids":[0,1],"state_2_key":1,"state_2_choice":1,"state_2_rt":478.5,"outcome":0,"rocket_colors":["#48a782",