[{"success":true,"timeout":false,"failed_images":[],"failed_audio":[],"failed_video":[],"trial_type":"preload","trial_index":0,"time_elapsed":879,"internal_node_id":"0.0-0.0","task_version":"1.0","jspsych_version":"6.3.1"},{"success":true,"trial_type":"fullscreen","trial_index":1,"time_elapsed":4781,"internal_node_id":"0.0-1.0","task_version":"1.0","jspsych_version":"6.3.1"},{"view_history":[{"page_index":0,"viewing_time":4093.0999999996275}],"rt":4096,"trial_type":"instructions","trial_index":2,"time_elapsed":8891,"internal_node_id":"0.0-2.0","task_version":"1.0","jspsych_version":"6.3.1"},{"responses":{"Q02":"2","Q01":"1","Q08":"0","Q07":"1","Q04":"1","Q05":"1","Q06":"2","Q03":"2"},"rt":45848.299999999814,"item_order":[1,0,7,6,3,4,5,2],"radio_events":[6358.899999999441,11810.699999999255,19044.299999999814,23256.39999999944,27963.199999999255,32639.699999999255,39298.09999999963,44941.799999999814],"key_events":[],"mouse_events":[0.5,6358.899999999441,11024.299999999814,11810.699999999255,19044.299999999814,23256.39999999944,27254.39999999944,27963.199999999255,32639.699999999255,39298.09999999963,44941.799999999814,45838.39999999944],"straightlining":0.5,"zigzagging":0.5714285714285714,"honeypot":0,"survey":"depression","trial_type":"survey-template","trial_index":3,"time_elapsed":54775,"internal_node_id":"0.0-3.0","task_version":"1.0","jspsych_version":"6.3.1"},{"responses":{"Q04":"2","Q01":"2","Q05":"1","Q06":"1","Q02":"1","Q08":"0","Q07":"1","Q03":"1"},"rt":25886.299999999814,"item_order":[3,0,4,5,1,7,6,2],"radio_events":[4440.899999999441,5865.5999999996275,7885.700000000186,10909.700000000186,12160.399999999441,14838.099999999627,19723.89999999944,20126.39999999944],"key_events":[],"mouse_events":[4440.899999999441,5865.5999999996275,7885.700000000186,9091.799999999814,10909.700000000186,12160.399999999441,14838.099999999627,17220.099999999627,19149.200000000186,19723.89999999944,20126.39999999944,25873.5],"straightlining":0.625,"zigzagging":0.42857142857142855,"honeypot":0,"survey":"anxiety","trial_type":"survey-template","trial_index":4,"time_elapsed":80679,"internal_node_id":"0.0-4.0","task_version":"1.0","jspsych_version":"6.3.1"},{"responses":{"Q05":"0","Q01":"2","Q07":"6","Q03":"0","Q02":"0","Q06":"3","Q04":"0"},"rt":29657.700000000186,"item_order":[4,0,6,2,1,5,3],"radio_events":[10542.399999999441,12352.399999999441,14980.700000000186,18269.89999999944,19284.700000000186,23448.5,26691.700000000186,27951.89999999944],"key_events":[],"mouse_events":[8582.899999999441,9936.5,10542.399999999441,12352.399999999441,14980.700000000186,17592.89999999944,18269.89999999944,19284.700000000186,23448.5,26691.700000000186,27951.89999999944,29644],"straightlining":0.5714285714285714,"zigzagging":0.16666666666666666,"honeypot":0,"survey":"greed","trial_type":"survey-template","trial_index":5,"time_elapsed":110376,"internal_node_id":"0.0-5.0","task_version":"1.0","jspsych_version":"6.3.1"},{"responses":{"Q05":"0","Q07":"0","Q06":"0","Q02":"0","Q01":"0","Q08":"3","Q03":"0","Q04":"0"},"rt":58259.299999999814,"item_order":[4,6,5,1,0,7,2,3],"radio_events":[6450.600000000559,11511.200000000186,16744.799999999814,24869.200000000186,30410.10000000056,46058,52065.299999999814,56867.799999999814],"key_events":[],"mouse_events":[6450.600000000559,9433.900000000373,10928.600000000559,11511.200000000186,16744.799999999814,24214.900000000373,24869.200000000186,29387.400000000373,30410.10000000056,44627,46058,52065.299999999814,56867.799999999814,58252.700000000186],"straightlining":0.875,"zigzagging":0.2857142857142857,"honeypot":0,"survey":"mania","trial_type":"survey-template","trial_index":6,"time_elapsed":168653,"internal_node_id":"0.0-6.0","task_version":"1.0","jspsych_version":"6.3.1"},{"responses":{"Q01":"6","Q02":"4","Q06":"6","Q07":"3","Q04":"5","Q05":"6","Q03":"6"},"rt":29896.700000000186,"item_order":[0,1,5,6,3,4,2],"radio_events":[5911.300000000745,12106.800000000745,15067.100000000559,20930.10000000056,25281.10000000056,27918.900000000373,28822.800000000745],"key_events":[],"mouse_events":[5911.300000000745,8273.100000000559,10476.100000000559,12106.800000000745,13997.300000000745,15067.100000000559,19088.400000000373,20930.10000000056,25281.10000000056,27918.900000000373,28822.800000000745,29877.60000000056],"straightlining":0.42857142857142855,"zigzagging":0,"honeypot":0,"survey":"artistic","trial_type":"survey-template","trial_index":7,"time_elapsed":198569,"internal_node_id":"0.0-7.0","task_version":"1.0","jspsych_version":"6.3.1"},{"view_history":"[{\"page_index\":0,\"viewing_time\":8889.799999999814},{\"page_index\":1,\"viewing_time\":4144},{\"page_index\":2,\"viewing_time\":2946.5},{\"page_index\":3,\"viewing_time\":3665.0999999996275},{\"page_index\":4,\"viewing_time\":4837.299999999814},{\"page_index\":5,\"viewing_time\":3617.800000000745},{\"page_index\":6,\"viewing_time\":1565.5},{\"page_index\":7,\"viewing_time\":5654.0999999996275},{\"page_index\":8,\"viewing_time\":4731.299999999814},{\"page_index\":9,\"viewing_time\":7629.200000000186},{\"page_index\":10,\"viewing_time\":3287}]","rt":50969.699999999255,"trial_type":"two-step-instructions","trial_index":8,"time_elapsed":249562,"internal_node_id":"0.0-8.0-1.0","task_version":"1.0","jspsych_version":"6.3.1"},{"responses":["left/right arrow keys","True","True"],"num_errors":0,"rt":11486.300000000745,"quiz":1,"trial_type":"two-step-comprehension","trial_index":9,"time_elapsed":261068,"internal_node_id":"0.0-8.0-2.0","task_version":"1.0","jspsych_version":"6.3.1"},{"view_history":"[{\"page_index\":0,\"viewing_time\":5169.5999999996275}]","rt":5170.5999999996275,"phase":"instructions_1b","trial_type":"two-step-instructions","trial_index":10,"time_elapsed":266263,"internal_node_id":"0.0-9.0-0.0-0.0","task_version":"1.0","jspsych_version":"6.3.1"},{"state_2_ids":[0,1],"state_2_key":0,"state_2_choice":0,"state_2_rt":1471,"outcome":0,"screen_resolution":[1300,731],"minimum_resolution":1,"trial_type":"alien-practice","trial_index":11,"time_elapsed":269948,"internal_node_id":"0.0-9.0-1.0-0.0","task_version":"1.0","jspsych_version":"6.3.1"},{"state_2_ids":[0,1],"state_2_key":0,"state_2_choice":0,"state_2_rt":982.6999999992549,"outcome":1,"screen_resolution":[1300,731],"minimum_resolution":1,"trial_type":"alien-practice","trial_index":12,"time_elapsed":273147,"internal_node_id":"0.0-9.0-2.0-0.0","task_version":"1.0","jspsych_version":"6.3.1"},{"state_2_ids":[0,1],"state_2_key":0,"state_2_choice":0,"state_2_rt":701.2000000001863,"outcome":0,"screen_resolution":[1300,731],"minimum_resolution":1,"trial_type":"alien-practice","trial_index":13,"time_elapsed":276057,"internal_node_id":"0.0-9.0-3.0-0.0","task_version":"1.0","jspsych_version":"6.3.1"},{"state_2_ids":[0,1],"state_2_key":0,"state_2_choice":0,"state_2_rt":1717.300000000745,"outcome":0,"screen_resolution":[1300,731],"minimum_resolution":1,"trial_type":"alien-practice","trial_index":14,"time_elapsed":279982,"internal_node_id":"0.0-9.0-4.0-0.0","task_version":"1.0","jspsych_version":"6.3.1"},{"state_2_ids":[0,1],"state_2_key":1,"state_2_choice":1,"state_2_rt":486,"outcome":1,"screen_resolution":[1300,731],"minimum_resolution":1,"trial_type":"alien-practice","trial_index":15,"time_elapsed":282678,"internal_node_id":"0.0-9.0-5.0-0.0","task_version":"1.0","jspsych_version":"6.3.1"},{"state_2_ids":[0,1],"state_2_key":1,"state_2_choice":1,"state_2_rt":751.7999999998137,"outcome":1,"screen_resolution":[1300,731],"minimum_resolution":1,"trial_type":"alien-practice","trial_index":16,"time_elapsed":285643,"internal_node_id":"0.0-9.0-6.0-0.0","task_version":"1.0","jspsych_version":"6.3.1"},{"state_2_ids":[0,1],"state_2_key":1,"state_2_choice":1,"state_2_rt":652.1999999992549,"outcome":1,"screen_resolution":[1300,731],"minimum_resolution":1,"trial_type":"alien-practice","trial_index":17,"time_elapsed":288509,"internal_node_id":"0.0-9.0-7.0-0.0","task_version":"1.0","jspsych_version":"6.3.1"},{"view_history":"[{\"page_index\":0,\"viewing_time\":5093.799999999814},{\"page_index\":1,\"viewing_time\":2880.899999999441},{\"page_index\":2,\"viewing_time\":4817.5},{\"page_index\":3,\"viewing_time\":6015.300000000745},{\"page_index\":4,\"viewing_time\":3794.0999999996275},{\"page_index\":5,\"viewing_time\":2195.4000000003725}]","rt":24799.39999999944,"trial_type":"two-step-instructions","trial_index":18,"time_elapsed":313347,"internal_node_id":"0.0-10.0-1.0","task_version":"1.0","jspsych_version":"6.3.1"},{"responses":["left/right arrow keys","True","True"],"num_errors":1,"rt":15912.799999999814,"quiz":2,"trial_type":"two-step-comprehension","trial_index":19,"time_elapsed":329276,"internal_node_id":"0.0-10.0-2.0","task_version":"1.0","jspsych_version":"6.3.1"},{"view_history":"[{\"page_index\":0,\"viewing_time\":2795.4000000003725}]","rt":2797.100000000559,"trial_type":"two-step-instructions","trial_index":20,"time_elapsed":332097,"internal_node_id":"0.0-10.1-0.1-0.1","task_version":"1.0","jspsych_version":"6.3.1"},{"view_history":"[{\"page_index\":0,\"viewing_time\":758},{\"page_index\":1,\"viewing_time\":662.4000000003725},{\"page_index\":2,\"viewing_time\":1407.8999999994412},{\"page_index\":3,\"viewing_time\":3196.9000000003725},{\"page_index\":4,\"viewing_time\":1078}]","rt":7105.4000000003725,"trial_type":"two-step-instructions","trial_index":21,"time_elapsed":339220,"internal_node_id":"0.0-10.1-1.1","task_version":"1.0","jspsych_version":"6.3.1"},{"responses":["left/right arrow keys","False","True"],"num_errors":0,"rt":7238.4000000003725,"quiz":2,"trial_type":"two-step-comprehension","trial_index":22,"time_elapsed":346472,"internal_node_id":"0.0-10.1-2.1","task_version":"1.0","jspsych_version":"6.3.1"},{"view_history":"[{\"page_index\":0,\"viewing_time\":3698.100000000559},{\"page_index\":1,\"viewing_time\":3330.5999999996275},{\"page_index\":2,\"viewing_time\":8953.299999999814}]","rt":15983.5,"trial_type":"two-step-instructions","trial_index":23,"time_elapsed":362472,"internal_node_id":"0.0-11.0-0.0","task_version":"1.0","jspsych_version":"6.3.1"},{"state_1_ids":[0,1],"state_1_key":0,"state_1_choice":0,"state_1_rt":2113.9000000003725,"transition":0,"state":1,"state_2_ids":[2,3],"state_2_key":0,"state_2_choice":2,"state_2_rt":2403.800000000745,"outcome":0,"rocket_colors":["#48a782","#955db9"],"planet_colors":["#7f5d5d","#5f6f81"],"screen_resolution":[1300,731],"minimum_resolution":1,"trial":0,"trial_type":"two-step-trial","trial_index":24,"time_elapsed":369008,"internal_node_id":"0.0-11.0-1.0-0.0","task_version":"1.0","jspsych_version":"6.3.1","missing":false},{"state_1_ids":[0,1],"state_1_key":0,"state_1_choice":0,"state_1_rt":953.3999999994412,"transition":1,"state":0,"state_2_ids":[0,1],"state_2_key":0,"state_2_choice":0,"state_2_rt":1001.5,"outcome":1,"rocket_colors":["#48a782","#955db9"],"planet_colors":["#7f5d5d","#5f6f81"],"screen_resolution":[1300,731],"minimum_resolution":1,"trial":0,"trial_type":"two-step-trial","trial_index":25,"time_elapsed":372978,"internal_node_id":"0.0-11.0-1.0-0.1","task_version":"1.0","jspsych_version":"6.3.1","missing":false},{"state_1_ids":[0,1],"state_1_key":0,"state_1_choice":0,"state_1_rt":696.5,"transition":0,"state":1,"state_2_ids":[2,3],"state_2_key":0,"state_2_choice":2,"state_2_rt":800.9000000003725,"outcome":1,"rocket_colors":["#48a782","#955db9"],"planet_colors":["#7f5d5d","#5f6f81"],"screen_resolution":[1300,731],"minimum_resolution":1,"trial":0,"trial_type":"two-step-trial","trial_index":26,"time_elapsed":376491,"internal_node_id":"0.0-11.0-1.0-0.2","task_version":"1.0","jspsych_version":"6.3.1","missing":false},{"state_1_ids":[1,0],"state_1_key":1,"state_1_choice":0,"state_1_rt":941.5,"transition":1,"state":0,"state_2_ids":[0,1],"state_2_key":0,"state_2_choice":0,"state_2_rt":1021.8000000007451,"outcome":1,"rocket_colors":["#48a782","#955db9"],"planet_colors":["#7f5d5d","#5f6f81"],"screen_resolution":[1300,731],"minimum_resolution":1,"trial":0,"trial_type":"two-step-trial","trial_index":27,"time_elapsed":380472,"internal_node_id":"0.0-11.0-1.0-0.3","task_version":"1.0","jspsych_version":"6.3.1","missing":false},{"state_1_ids":[0,1],"state_1_key":0,"state_1_choice":0,"state_1_rt":712.7999999998137,"transition":1,"state":0,"state_2_ids":[0,1],"state_2_key":0,"state_2_choice":0,"state_2_rt":580.6999999992549,"outcome":1,"rocket_colors":["#48a782","#955db9"],"planet_colors":["#7f5d5d","#5f6f81"],"screen_resolution":[1300,731],"minimum_resolution":1,"trial":0,"trial_type":"two-step-trial","trial_index":28,"time_elapsed":383781,"internal_node_id":"0.0-11.0-1.0-0.4","task_version":"1.0","jspsych_version":"6.3.1","missing":false},{"state_1_ids":[1,0],"state_1_key":1,"state_1_choice":0,"state_1_rt":761.7999999998137,"transition":1,"state":0,"state_2_ids":[0,1],"state_2_key":0,"state_2_choice":0,"state_2_rt":528,"outcome":0,"rocket_colors":["#48a782","#955db9"],"planet_colors":["#7f5d5d","#5f6f81"],"screen_resolution":[1300,731],"minimum_resolution":1,"trial":0,"trial_type":"two-step-trial","trial_index":29,"time_elapsed":387084,"internal_node_id":"0.0-11.0-1.0-0.5","task_version":"1.0","jspsych_version":"6.3.1","missing":false},{"state_1_ids":[0,1],"state_1_key":0,"state_1_choice":0,"state_1_rt":853.2000000001863,"transition":0,"state":1,"state_2_ids":[2,3],"state_2_key":0,"state_2_choice":2,"state_2_rt":764,"outcome":1,"rocket_colors":["#48a782","#955db9"],"planet_colors":["#7f5d5d","#5f6f81"],"screen_resolution":[1300,731],"minimum_resolution":1,"trial":0,"trial_type":"two-step-trial","trial_index":30,"time_elapsed":390720,"internal_node_id":"0.0-11.0-1.0-0.6","task_version":"1.0","jspsych_version":"6.3.1","missing":false},{"state_1_ids":[0,1],"state_1_key":0,"state_1_choice":0,"state_1_rt":862,"transition":1,"state":0,"state_2_ids":[0,1],"state_2_key":0,"state_2_choice":0,"state_2_rt":655.2000000001863,"outcome":1,"rocket_colors":["#48a782","#955db9"],"planet_colors":["#7f5d5d","#5f6f81"],"screen_resolution":[1300,731],"minimum_resolution":1,"trial":0,"trial_type":"two-step-trial","trial_index":31,"time_elapsed":394253,"internal_node_id":"0.0-11.0-1.0-0.7","task_version":"1.0","jspsych_version":"6.3.1","missing":false},{"state_1_ids":[1,0],"state_1_key":1,"state_1_choice":0,"state_1_rt":800.9000000003725,"transition":1,"state":0,"state_2_ids":[0,1],"state_2_key":0,"state_2_choice":0,"state_2_rt":589,"outcome":1,"rocket_colors":["#48a782","#955db9"],"planet_colors":["#7f5d5d","#5f6f81"],"screen_resolution":[1300,731],"minimum_resolution":1,"trial":0,"trial_type":"two-step-trial","trial_index":32,"time_elapsed":397668,"internal_node_id":"0.0-11.0-1.0-0.8","task_version":"1.0","jspsych_version":"6.3.1","missing":false},{"state_1_ids":[0,1],"state_1_key":0,"state_1_choice":0,"state_1_rt":742.8000000007451,"transition":1,"state":0,"state_2_ids":[0,1],"state_2_key":0,"state_2_choice":0,"state_2_rt":546.2999999998137,"outcome":1,"rocket_colors":["#48a782","#955db9"],"planet_colors":["#7f5d5d","#5f6f81"],"screen_resolution":[1300,731],"minimum_resolution":1,"trial":0,"trial_type":"two-step-trial","trial_index":33,"time_elapsed":400980,"internal_node_id":"0.0-11.0-1.0-0.9","task_version":"1.0","jspsych_version":"6.3.1","missing":false},{"view_history":"[{\"page_index\":0,\"viewing_time\":3384.7999999998137},{\"page_index\":1,\"viewing_time\":2970.2000000001863},{\"page_index\":2,\"viewing_time\":1576.5},{\"page_index\":3,\"viewing_time\":3117.7999999998137},{\"page_index\":4,\"viewing_time\":10472.800000000745},{\"page_index\":5,\"viewing_time\":10086.699999999255},{\"page_index\":6,\"viewing_time\":3965.4000000003725}]","rt":35575.40000000037,"trial_type":"two-step-instructions","trial_index":34,"time_elapsed":436568,"internal_node_id":"0.0-12.0-1.0","task_version":"1.0","jspsych_version":"6.3.1"},{"responses":["True","False","True"],"num_errors":0,"rt":9256.200000000186,"quiz":3,"trial_type":"two-step-comprehension","trial_index":35,"time_elapsed":445840,"internal_node_id":"0.0-12.0-2.0","task_version":"1.0","jspsych_version":"6.3.1"},{"view_history":"[{\"page_index\":0,\"viewing_time\":2041},{\"page_index\":1,\"viewing_time\":6180.700000000186},{\"page_index\":2,\"viewing_time\":1306.7999999998137}]","rt":9529.800000000745,"trial_type":"two-step-instructions","trial_index":36,"time_elapsed":455391,"internal_node_id":"0.0-13.0","task_version":"1.0","jspsych_version":"6.3.1"},{"state_1_ids":[1,0],"state_1_key":0,"state_1_choice":1,"state_1_rt":774.2000000001863,"transition":1,"state":1,"state_2_ids":[2,3],"state_2_key":0,"state_2_choice":2,"state_2_rt":777.4000000003725,"outcome":1,"rocket_colors":["#a75248","#486ea7"],"planet_colors":["#5b7c65","#706081"],"screen_resolution":[1300,731],"minimum_resolution":1,"trial":1,"drifts":[0.44,0.385,0.62,0.421],"drift_ix":1,"trial_type":"two-step-trial","trial_index":37,"time_elapsed":458959,"internal_node_id":"0.0-14.0-0.0","task_version":"1.0","jspsych_version":"6.3.1","browser_interactions":0,"missing":false},{"state_1_ids":[1,0],"state_1_key":1,"state_1_choice":0,"state_1_rt":1057,"transition":1,"state":0,"state_2_ids":[0,1],"state_2_key":0,"state_2_choice":0,"state_2_rt":890.9000000003725,"outcome":0,"rocket_colors":["#a75248","#486ea7"],"planet_colors":["#5b7c65","#706081"],"screen_resolution":[1300,731],"minimum_resolution":1,"trial":2,"drifts":[0.427,0.383,0.623,0.388],"drift_ix":1,"trial_type":"two-step-trial","trial_index":38,"time_elapsed":462924,"internal_node_id":"0.0-15.0-0.0","task_version":"1.0","jspsych_version":"6.3.1","browser_interactions":0,"missing":false},{"state_1_ids":[1,0],"state_1_key":0,"state_1_choice":1,"state_1_rt":516.2999999998137,"transition":1,"state":1,"state_2_ids":[2,3],"state_2_key":0,"state_2_choice":2,"state_2_rt":608.5,"outcome":1,"rocket_colors":["#a75248","#486ea7"],"planet_colors":["#5b7c65","#706081"],"screen_resolution":[1300,731],"minimum_resolution":1,"trial":3,"drifts":[0.366,0.399,0.638,0.394],"drift_ix":1,"trial_type":"two-step-trial","trial_index":39,"time_elapsed":466062,"internal_node_id":"0.0-16.0-0.0","task_version":"1.0","jspsych_version":"6.3.1","browser_interactions":0,"missing":false},{"state_1_ids":[1,0],"state_1_key":0,"state_1_choice":1,"state_1_rt":628.2999999998137,"transition":0,"state":0,"state_2_ids":[0,1],"state_2_key":1,"state_2_choice":1,"state_2_rt":1049.3999999994412,"outcome":1,"rocket_colors":["#a75248","#486ea7"],"planet_colors":["#5b7c65","#706081"],"screen_resolution":[1300,731],"minimum_resolution":1,"trial":4,"drifts":[0.352,0.371,0.644,0.424],"drift_ix":1,"trial_type":"two-step-trial","trial_index":40,"time_elapsed":469755,"internal_node_id":"0.0-17.0-0.0","task_version":"1.0","jspsych_version":"6.3.1","browser_interactions":0,"missing":false},{"state_1_ids":[1,0],"state_1_key":0,"state_1_choice":1,"state_1_rt":404.8999999994412,"transition":0,"state":0,"state_2_ids":[0,1],"state_2_key":1,"state_2_choice":1,"state_2_rt":1087.5,"outcome":0,"rocket_colors":["#a75248","#486ea7"],"planet_colors":["#5b7c65","#706081"],"screen_resolution":[1300,731],"minimum_resolution":1,"trial":5,"drifts":[0.387,0.418,0.671,0.445],"drift_ix":1,"trial_type":"two-step-trial","trial_index":41,"time_elapsed":473263,"internal_node_id":"0.0-18.0-0.0","task_version":"1.0","jspsych_version":"6.3.1","browser_interactions":0,"missing":false},{"state_1_ids":[0,1],"state_1_key":1,"state_1_choice":1,"state_1_rt":1069.5999999996275,"transition":1,"state":1,"state_2_ids":[2,3],"state_2_key":0,"state_2_choice":2,"state_2_rt":642.2999999998137,"outcome":1,"rocket_colors":["#a75248","#486ea7"],"planet_colors":["#5b7c65","#706081"],"screen_resolution":[1300,731],"minimum_resolution":1,"trial":6,"drifts":[0.376,0.44,0.655,0.477],"drift_ix":1,"trial_type":"two-step-trial","trial_index":42,"time_elapsed":476990,"internal_node_id":"0.0-19.0-0.0","task_version":"1.0","jspsych_version":"6.3.1","browser_interactions":0,"missing":false},{"state_1_ids":[1,0],"state_1_key":0,"state_1_choice":1,"state_1_rt":439.59999999962747,"transition":0,"state":0,"state_2_ids":[0,1],"state_2_key":0,"state_2_choice":0,"state_2_rt":733.5,"outcome":1,"rocket_colors":["#a75248","#486ea7"],"planet_colors":["#5b7c65","#706081"],"screen_resolution":[1300,731],"minimum_resolution":1,"trial":7,"drifts":[0.376,0.46,0.674,0.453],"drift_ix":1,"trial_type":"two-step-trial","trial_index":43,"time_elapsed":480179,"internal_node_id":"0.0-20.0-0.0","task_version":"1.0","jspsych_version":"6.3.1","browser_interactions":0,"missing":false},{"state_1_ids":[0,1],"state_1_key":0,"state_1_choice":0,"state_1_rt":448.3999999994412,"transition":1,"state":0,"state_2_ids":[0,1],"state_2_key":0,"state_2_choice":0,"state_2_rt":555.1000000005588,"outcome":0,"rocket_colors":["#a75248","#486ea7"],"planet_colors":["#5b7c65","#706081"],"screen_resolution":[1300,731],"minimum_resolution":1,"trial":8,"drifts":[0.37,0.476,0.645,0.47],"drift_ix":1,"trial_type":"two-step-trial","trial_index":44,"time_elapsed":483193,"internal_node_id":"0.0-21.0-0.0","task_version":"1.0","jspsych_version":"6.3.1","browser_interactions":0,"missing":false},{"state_1_ids":[1,0],"state_1_key":1,"state_1_choice":0,"state_1_rt":1015.6000000005588,"transition":1,"state":0,"state_2_ids":[0,1],"state_2_key":0,"state_2_choice":0,"state_2_rt":635.2000000001863,"outcome":0,"rocket_colors":["#a75248","#486ea7"],"planet_colors":["#5b7c65","#706081"],"screen_resolution":[1300,731],"minimum_resolution":1,"trial":9,"drifts":[0.349,0.439,0.653,0.482],"drift_ix":1,"trial_type":"two-step-trial","trial_index":45,"time_elapsed":486857,"internal_node_id":"0.0-22.0-0.0","task_version":"1.0","jspsych_version":"6.3.1","browser_interactions":0,"missing":false},{"state_1_ids":[0,1],"state_1_key":1,"state_1_choice":1,"state_1_rt":630.0999999996275,"transition":1,"state":1,"state_2_ids":[2,3],"state_2_key":0,"state_2_choice":2,"state_2_rt":697.7999999998137,"outcome":1,"rocket_colors":["#a75248","#486ea7"],"planet_colors":["#5b7c65","#706081"],"screen_resolution":[1300,731],"minimum_resolution":1,"trial":10,"drifts":[0.347,0.471,0.629,0.478],"drift_ix":1,"trial_type":"two-step-trial","trial_index":46,"time_elapsed":490200,"internal_node_id":"0.0-23.0-0.0","task_version":"1.0","jspsych_version":"6.3.1","browser_interactions":0,"missing":false},{"state_1_ids":[1,0],"state_1_key":1,"state_1_choice":0,"state_1_rt":848.0999999996275,"transition":1,"state":0,"state_2_ids":[0,1],"state_2_key":0,"state_2_choice":0,"state_2_rt":697.2000000001863,"outcome":0,"rocket_colors":["#a75248","#486ea7"],"planet_colors":["#5b7c65","#706081"],"screen_resolution":[1300,731],"minimum_resolution":1,"trial":11,"drifts":[0.346,0.411,0.666,0.456],"drift_ix":1,"trial_type":"two-step-trial","trial_index":47,"time_elapsed":493761,"internal_node_id":"0.0-24.0-0.0","task_version":"1.0","jspsych_version":"6.3.1","browser_interactions":0,"missing":false},{"state_1_ids":[1,0],"state_1_key":0,"state_1_choice":1,"state_1_rt":586.8999999994412,"transition":1,"state":1,"state_2_ids":[2,3],"state_2_key":0,"state_2_choice":2,"state_2_rt":707.6999999992549,"outcome":1,"rocket_colors":["#a75248","#486ea7"],"planet_colors":["#5b7c65","#706081"],"screen_resolution":[1300,731],"minimum_resolution":1,"trial":12,"drifts":[0.371,0.413,0.638,0.405],"drift_ix":1,"trial_type":"two-step-trial","trial_index":48,"time_elapsed":497072,"internal_node_id":"0.0-25.0-0.0","task_version":"1.0","jspsych_version":"6.3.1","browser_interactions":0,"missing":false},{"state_1_ids":[1,0],"state_1_key":0,"state_1_choice":1,"state_1_rt":601.0999999996275,"transition":1,"state":1,"state_2_ids":[2,3],"state_2_key":0,"state_2_choice":2,"state_2_rt":579.4000000003725,"outcome":0,"rocket_colors":["#a75248","#486ea7"],"planet_colors":["#5b7c65","#706081"],"screen_resolution":[1300,731],"minimum_resolution":1,"trial":13,"drifts":[0.354,0.425,0.641,0.388],"drift_ix":1,"trial_type":"two-step-trial","trial_index":49,"time_elapsed":500268,"internal_node_id":"0.0-26.0-0.0","task_version":"1.0","jspsych_version":"6.3.1","browser_interactions":0,"missing":false},{"state_1_ids":[1,0],"state_1_key":0,"state_1_choice":1,"state_1_rt":773.5,"transition":0,"state":0,"state_2_ids":[0,1],"state_2_key":0,"state_2_choice":0,"state_2_rt":1359.3999999994412,"outcome":0,"rocket_colors":["#a75248","#486ea7"],"planet_colors":["#5b7c65","#706081"],"screen_resolution":[1300,731],"minimum_resolution":1,"trial":14,"drifts":[0.315,0.45,0.635,0.335],"drift_ix":1,"trial_type":"two-step-trial","trial_index":50,"time_elapsed":504417,"internal_node_id":"0.0-27.0-0.0","task_version":"1.0","jspsych_version":"6.3.1","browser_interactions":0,"missing":false},{"state_1_ids":[1,0],"state_1_key":0,"state_1_choice":1,"state_1_rt":534.3000000007451,"transition":0,"state":0,"state_2_ids":[0,1],"state_2_key":0,"state_2_choice":0,"state_2_rt":797.7000000001863,"outcome":1,"rocket_colors":["#a75248","#486ea7"],"planet_colors":["#5b7c65","#706081"],"screen_resolution":[1300,731],"minimum_resolution":1,"trial":15,"drifts":[0.291,0.41,0.635,0.339],"drift_ix":1,"trial_type":"two-step-trial","trial_index":51,"time_elapsed":507763,"internal_node_id":"0.0-28.0-0.0","task_version":"1.0","jspsych_version":"6.3.1","browser_interactions":0,"missing":false},{"state_1_ids":[1,0],"state_1_key":0,"state_1_choice":1,"state_1_rt":717.7999999998137,"transition":1,"state":1,"state_2_ids":[2,3],"state_2_key":0,"state_2_choice":2,"state_2_rt":678.5999999996275,"outcome":0,"rocket_colors":["#a75248","#486ea7"],"planet_colors":["#5b7c65","#706081"],"screen_resolution":[1300,731],"minimum_resolution":1,"trial":16,"drifts":[0.3,0.409,0.61,0.364],"drift_ix":1,"trial_type":"two-step-trial","trial_index":52,"time_elapsed":511173,"internal_node_id":"0.0-29.0-0.0","task_version":"1.0","jspsych_version":"6.3.1","browser_interactions":0,"missing":false},{"state_1_ids":[1,0],"state_1_key":1,"state_1_choice":0,"state_1_rt":642.9000000003725,"transition":1,"state":0,"state_2_ids":[0,1],"state_2_key":0,"state_2_choice":0,"state_2_rt":566.2000000001863,"outcome":0,"rocket_colors":["#a75248","#486ea7"],"planet_colors":["#5b7c65","#706081"],"screen_resolution":[1300,731],"minimum_resolution":1,"trial":17,"drifts":[0.3,0.418,0.639,0.392],"drift_ix":1,"trial_type":"two-step-trial","trial_index":53,"time_elapsed":514391,"internal_node_id":"0.0-30.0-0.0","task_version":"1.0","jspsych_version":"6.3.1","browser_interactions":0,"missing":false},{"state_1_ids":[1,0],"state_1_key":1,"state_1_choice":0,"state_1_rt":568.2000000001863,"transition":0,"state":1,"state_2_ids":[2,3],"state_2_key":0,"state_2_choice":2,"state_2_rt":973.5999999996275,"outcome":1,"rocket_colors":["#a75248","#486ea7"],"planet_colors":["#5b7c65","#706081"],"screen_resolution":[1300,731],"minimum_resolution":1,"trial":18,"drifts":[0.308,0.463,0.63,0.375],"drift_ix":1,"trial_type":"two-step-trial","trial_index":54,"time_elapsed":517947,"internal_node_id":"0.0-31.0-0.0","task_version":"1.0","jspsych_version":"6.3.1","browser_interactions":0,"missing":false},{"state_1_ids":[0,1],"state_1_key":0,"state_1_choice":0,"state_1_rt":540.6999999992549,"transition":1,"state":0,"state_2_ids":[0,1],"state_2_key":1,"state_2_choice":1,"state_2_rt":1129.7999999998137,"outcome":0,"rocket_colors":["#a75248","#486ea7"],"planet_colors":["#5b7c65","#706081"],"screen_resolution":[1300,731],"minimum_resolution":1,"trial":19,"drifts":[0.345,0.475,0.617,0.402],"drift_ix":1,"trial_type":"two-step-trial","trial_index":55,"time_elapsed":521629,"internal_node_id":"0.0-32.0-0.0","task_version":"1.0","jspsych_version":"6.3.1","browser_interactions":0,"missing":false},{"state_1_ids":[1,0],"state_1_key":0,"state_1_choice":1,"state_1_rt":694.9000000003725,"transition":1,"state":1,"state_2_ids":[2,3],"state_2_key":0,"state_2_choice":2,"state_2_rt":584.2999999998137,"outcome":1,"rocket_colors":["#a75248","#486ea7"],"planet_colors":["#5b7c65","#706081"],"screen_resolution":[1300,731],"minimum_resolution":1,"trial":20,"drifts":[0.39,0.463,0.595,0.433],"drift_ix":1,"trial_type":"two-step-trial","trial_index":56,"time_elapsed":524918,"internal_node_id":"0.0-33.0-0.0","task_version":"1.0","jspsych_version":"6.3.1","browser_interactions":0,"missing":false},{"state_1_ids":[0,1],"state_1_key":0,"state_1_choice":0,"state_1_rt":609.3999999994412,"transition":0,"state":1,"state_2_ids":[2,3],"state_2_key":0,"state_2_choice":2,"state_2_rt":1138.2000000001863,"outcome":0,"rocket_colors":["#a75248","#486ea7"],"planet_colors":["#5b7c65","#706081"],"screen_resolution":[1300,731],"minimum_resolution":1,"trial":21,"drifts":[0.413,0.433,0.607,0.447],"drift_ix":1,"trial_type":"two-step-trial","trial_index":57,"time_elapsed":528676,"internal_node_id":"0.0-34.0-0.0","task_version":"1.0","jspsych_version":"6.3.1","browser_interactions":0,"missing":false},{"state_1_ids":[1,0],"state_1_key":1,"state_1_choice":0,"state_1_rt":693.5,"transition":1,"state":0,"state_2_ids":[0,1],"state_2_key":0,"state_2_choice":0,"state_2_rt":755.5999999996275,"outcome":1,"rocket_colors":["#a75248","#486ea7"],"planet_colors":["#5b7c65","#706081"],"screen_resolution":[1300,731],"minimum_resolution":1,"trial":22,"drifts":[0.397,0.431,0.605,0.426],"drift_ix":1,"trial_type":"two-step-trial","trial_index":58,"time_elapsed":532136,"internal_node_id":"0.0-35.0-0.0","task_version":"1.0","jspsych_version":"6.3.1","browser_interactions":0,"missing":false},{"state_1_ids":[1,0],"state_1_key":0,"state_1_choice":1,"state_1_rt":530.6999999992549,"transition":1,"state":1,"state_2_ids":[2,3],"state_2_key":0,"state_2_choice":2,"state_2_rt":594.2000000001863,"outcome":1,"rocket_colors":["#a75248","#486ea7"],"planet_colors":["#5b7c65","#706081"],"screen_resolution":[1300,731],"minimum_resolution":1,"trial":23,"drifts":[0.375,0.426,0.617,0.383],"drift_ix":1,"trial_type":"two-step-trial","trial_index":59,"time_elapsed":535274,"internal_node_id":"0.0-36.0-0.0","task_version":"1.0","jspsych_version":"6.3.1","browser_interactions":0,"missing":false},{"state_1_ids":[0,1],"state_1_key":0,"state_1_choice":0,"state_1_rt":502,"transition":1,"state":0,"state_2_ids":[0,1],"state_2_key":0,"state_2_choice":0,"state_2_rt":667.7999999998137,"outcome":1,"rocket_colors":["#a75248","#486ea7"],"planet_colors":["#5b7c65","#706081"],"screen_resolution":[1300,731],"minimum_resolution":1,"trial":24,"drifts":[0.396,0.432,0.631,0.356],"drift_ix":1,"trial_type":"two-step-trial","trial_index":60,"time_elapsed":538459,"internal_node_id":"0.0-37.0-0.0","task_version":"1.0","jspsych_version":"6.3.1","browser_interactions":0,"missing":false},{"state_1_ids":[0,1],"state_1_key":0,"state_1_choice":0,"state_1_rt":358.30000000074506,"transition":1,"state":0,"state_2_ids":[0,1],"state_2_key":0,"state_2_choice":0,"state_2_rt":706,"outcome":0,"rocket_colors":["#a75248","#486ea7"],"planet_colors":["#5b7c65","#706081"],"screen_resolution":[1300,731],"minimum_resolution":1,"trial":25,"drifts":[0.352,0.393,0.634,0.357],"drift_ix":1,"trial_type":"two-step-trial","trial_index":61,"time_elapsed":541531,"internal_node_id":"0.0-38.0-0.0","task_version":"1.0","jspsych_version":"6.3.1","browser_interactions":0,"missing":false},{"state_1_ids":[1,0],"state_1_key":0,"state_1_choice":1,"state_1_rt":777.5,"transition":1,"state":1,"state_2_ids":[2,3],"state_2_key":0,"state_2_choice":2,"state_2_rt":696.2000000001863,"outcome":0,"rocket_colors":["#a75248","#486ea7"],"planet_colors":["#5b7c65","#706081"],"screen_resolution":[1300,731],"minimum_resolution":1,"trial":26,"drifts":[0.379,0.371,0.632,0.315],"drift_ix":1,"trial_type":"two-step-trial","trial_index":62,"time_elapsed":545016,"internal_node_id":"0.0-39.0-0.0","task_version":"1.0","jspsych_version":"6.3.1","browser_interactions":0,"missing":false},{"state_1_ids":[0,1],"state_1_key":0,"state_1_choice":0,"state_1_rt":505.1000000005588,"transition":1,"state":0,"state_2_ids":[0,1],"state_2_key":0,"state_2_choice":0,"state_2_rt":593,"outcome":0,"rocket_colors":["#a75248","#486ea7"],"planet_colors":["#5b7c65","#706081"],"screen_resolution":[1300,731],"minimum_resolution":1,"trial":27,"drifts":[0.44,0.355,0.639,0.305],"drift_ix":1,"trial_type":"two-step-trial","trial_index":63,"time_elapsed":548123,"internal_node_id":"0.0-40.0-0.0","task_version":"1.0","jspsych_version":"6.3.1","browser_interactions":0,"missing":false},{"state_1_ids":[0,1],"state_1_key":0,"state_1_choice":0,"state_1_rt":468,"transition":1,"state":0,"state_2_ids":[0,1],"state_2_key":0,"state_2_choice":0,"state_2_rt":638.1000000005588,"outcome":0,"rocket_colors":["#a75248","#486ea7"],"planet_colors":["#5b7c65","#706081"],"screen_resolution":[1300,731],"minimum_resolution":1,"trial":28,"drifts":[0.473,0.399,0.627,0.311],"drift_ix":1,"trial_type":"two-step-trial","trial_index":64,"time_elapsed":551244,"internal_node_id":"0.0-41.0-0.0","task_version":"1.0","jspsych_version":"6.3.1","browser_interactions":0,"missing":false},{"state_1_ids":[1,0],"state_1_key":0,"state_1_choice":1,"state_1_rt":299.20000000018626,"transition":1,"state":1,"state_2_ids":[2,3],"state_2_key":1,"state_2_choice":3,"state_2_rt":697.8999999994412,"outcome":0,"rocket_colors":["#a75248","#486ea7"],"planet_colors":["#5b7c65","#706081"],"screen_resolution":[1300,731],"minimum_resolution":1,"trial":29,"drifts":[0.47,0.426,0.594,0.318],"drift_ix":1,"trial_type":"two-step-trial","trial_index":65,"time_elapsed":554253,"internal_node_id":"0.0-42.0-0.0","task_version":"1.0","jspsych_version":"6.3.1","browser_interactions":0,"missing":false},{"state_1_ids":[1,0],"state_1_key":0,"state_1_choice":1,"state_1_rt":306.59999999962747,"transition":1,"state":1,"state_2_ids":[2,3],"state_2_key":0,"state_2_choice":2,"state_2_rt":491.5,"outcome":1,"rocket_colors":["#a75248","#486ea7"],"planet_colors":["#5b7c65","#706081"],"screen_resolution":[1300,731],"minimum_resolution":1,"trial":30,"drifts":[0.455,0.475,0.559,0.323],"drift_ix":1,"trial_type":"two-step-trial","trial_index":66,"time_elapsed":557064,"internal_node_id":"0.0-43.0-0.0","task_version":"1.0","jspsych_version":"6.3.1","browser_interactions":0,"missing":false},{"state_1_ids":[0,1],"state_1_key":0,"state_1_choice":0,"state_1_rt":434.40000000037253,"transition":1,"state":0,"state_2_ids":[0,1],"state_2_key":1,"state_2_choice":1,"state_2_rt":1106.300000000745,"outcome":0,"rocket_colors":["#a75248","#486ea7"],"planet_colors":["#5b7c65","#706081"],"screen_resolution":[1300,731],"minimum_resolution":1,"trial":31,"drifts":[0.435,0.51,0.608,0.321],"drift_ix":1,"trial_type":"two-step-trial","trial_index":67,"time_elapsed":560618,"internal_node_id":"0.0-44.0-0.0","task_version":"1.0","jspsych_version":"6.3.1","browser_interactions":0,"missing":false},{"state_1_ids":[0,1],"state_1_key":0,"state_1_choice":0,"state_1_rt":330.3999999994412,"transition":1,"state":0,"state_2_ids":[0,1],"state_2_key":0,"state_2_choice":0,"state_2_rt":458.5,"outcome":0,"rocket_colors":["#a75248","#486ea7"],"planet_colors":["#5b7c65","#706081"],"screen_resolution":[1300,731],"minimum_resolution":1,"trial":32,"drifts":[0.415,0.507,0.579,0.317],"drift_ix":1,"trial_type":"two-step-trial","trial_index":68,"time_elapsed":563420,"internal_node_id":"0.0-45.0-0.0","task_version":"1.0","jspsych_version":"6.3.1","browser_interactions":0,"missing":false},{"state_1_ids":[0,1],"state_1_key":0,"state_1_choice":0,"state_1_rt":343.40000000037253,"transition":0,"state":1,"state_2_ids":[2,3],"state_2_key":0,"state_2_choice":2,"state_2_rt":590,"outcome":1,"rocket_colors":["#a75248","#486ea7"],"planet_colors":["#5b7c65","#706081"],"screen_resolution":[1300,731],"minimum_resolution":1,"trial":33,"drifts":[0.459,0.542,0.595,0.302],"drift_ix":1,"trial_type":"two-step-trial","trial_index":69,"time_elapsed":566369,"internal_node_id":"0.0-46.0-0.0","task_version":"1.0","jspsych_version":"6.3.1","browser_interactions":0,"missing":false},{"state_1_ids":[0,1],"state_1_key":0,"state_1_choice":0,"state_1_rt":471,"transition":1,"state":0,"state_2_ids":[0,1],"state_2_key":0,"state_2_choice":0,"state_2_rt":724.7999999998137,"outcome":0,"rocket_colors":["#a75248","#486ea7"],"planet_colors":["#5b7c65","#706081"],"screen_resolution":[1300,731],"minimum_resolution":1,"trial":34,"drifts":[0.491,0.491,0.597,0.309],"drift_ix":1,"trial_type":"two-step-trial","trial_index":70,"time_elapsed":569577,"internal_node_id":"0.0-47.0-0.0","task_version":"1.0","jspsych_version":"6.3.1","browser_interactions":0,"missing":false},{"state_1_ids":[0,1],"state_1_key":0,"state_1_choice":0,"state_1_rt":349.6000000005588,"transition":1,"state":0,"state_2_ids":[0,1],"state_2_key":0,"state_2_choice":0,"state_2_rt":627.7000000001863,"outcome":1,"rocket_colors":["#a75248","#486ea7"],"planet_colors":["#5b7c65","#706081"],"screen_resolution":[1300,731],"minimum_resolution":1,"trial":35,"drifts":[0.474,0.513,0.589,0.338],"drift_ix":1,"trial_type":"two-step-trial","trial_index":71,"time_elapsed":572568,"internal_node_id":"0.0-48.0-0.0","task_version":"1.0","jspsych_version":"6.3.1","browser_interactions":0,"missing":false},{"state_1_ids":[1,0],"state_1_key":0,"state_1_choice":1,"state_1_rt":421.5,"transition":0,"state":0,"state_2_ids":[0,1],"state_2_key":0,"state_2_choice":0,"state_2_rt":548.2999999998137,"outcome":1,"rocket_colors":["#a75248","#486ea7"],"planet_colors":["#5b7c65","#706081"],"screen_resolution":[1300,731],"minimum_resolution":1,"trial":36,"drifts":[0.457,0.538,0.559,0.332],"drift_ix":1,"trial_type":"two-step-trial","trial_index":72,"time_elapsed":575553,"internal_node_id":"0.0-49.0-0.0","task_version":"1.0","jspsych_version":"6.3.1","browser_interactions":0,"missing":false},{"state_1_ids":[0,1],"state_1_key":0,"state_1_choice":0,"state_1_rt":615.6000000005588,"transition":0,"state":1,"state_2_ids":[2,3],"state_2_key":0,"state_2_choice":2,"state_2_rt":759.6000000005588,"outcome":1,"rocket_colors":["#a75248","#486ea7"],"planet_colors":["#5b7c65","#706081"],"screen_resolution":[1300,731],"minimum_resolution":1,"trial":37,"drifts":[0.485,0.54,0.582,0.328],"drift_ix":1,"trial_type":"two-step-trial","trial_index":73,"time_elapsed":578945,"internal_node_id":"0.0-50.0-0.0","task_version":"1.0","jspsych_version":"6.3.1","browser_interactions":0,"missing":false},{"state_1_ids":[1,0],"state_1_key":0,"state_1_choice":1,"state_1_rt":527.4000000003725,"transition":1,"state":1,"state_2_ids":[2,3],"state_2_key":0,"state_2_choice":2,"state_2_rt":594.4000000003725,"outcome":0,"rocket_colors":["#a75248","#486ea7"],"planet_colors":["#5b7c65","#706081"],"screen_resolution":[1300,731],"minimum_resolution":1,"trial":38,"drifts":[0.448,0.561,0.557,0.342],"drift_ix":1,"trial_type":"two-step-trial","trial_index":74,"time_elapsed":582078,"internal_node_id":"0.0-51.0-0.0","task_version":"1.0","jspsych_version":"6.3.1","browser_interactions":0,"missing":false},{"state_1_ids":[1,0],"state_1_key":0,"state_1_choice":1,"state_1_rt":494.29999999981374,"transition":1,"state":1,"state_2_ids":[2,3],"state_2_key":1,"state_2_choice":3,"state_2_rt":1112,"outcome":0,"rocket_colors":["#a75248","#486ea7"],"planet_colors":["#5b7c65","#706081"],"screen_resolution":[1300,731],"minimum_resolution":1,"trial":39,"drifts":[0.401,0.544,0.587,0.37],"drift_ix":1,"trial_type":"two-step-trial","trial_index":75,"time_elapsed":585696,"internal_node_id":"0.0-52.0-0.0","task_version":"1.0","jspsych_version":"6.3.1","browser_interactions":0,"missing":false},{"state_1_ids":[1,0],"state_1_key":0,"state_1_choice":1,"state_1_rt":520.8999999994412,"transition":0,"state":0,"state_2_ids":[0,1],"state_2_key":0,"state_2_choice":0,"state_2_rt":797.9000000003725,"outcome":0,"rocket_colors":["#a75248","#486ea7"],"planet_colors":["#5b7c65","#706081"],"screen_resolution":[1300,731],"minimum_resolution":1,"trial":40,"drifts":[0.404,0.536,0.602,0.375],"drift_ix":1,"trial_type":"two-step-trial","trial_index":76,"time_elapsed":589027,"internal_node_id":"0.0-53.0-0.0","task_version":"1.0","jspsych_version":"6.3.1","browser_interactions":0,"missing":false},{"state_1_ids":[0,1],"state_1_key":0,"state_1_choice":0,"state_1_rt":519.7999999998137,"transition":0,"state":1,"state_2_ids":[2,3],"state_2_key":0,"state_2_choice":2,"state_2_rt":644,"outcome":1,"rocket_colors":["#a75248","#486ea7"],"planet_colors":["#5b7c65","#706081"],"screen_resolution":[1300,731],"minimum_resolution":1,"trial":41,"drifts":[0.396,0.535,0.6,0.41],"drift_ix":1,"trial_type":"two-step-trial","trial_index":77,"time_elapsed":592206,"internal_node_id":"0.0-54.0-0.0","task_version":"1.0","jspsych_version":"6.3.1","browser_interactions":0,"missing":false},{"state_1_ids":[0,1],"state_1_key":0,"state_1_choice":0,"state_1_rt":1088.5999999996275,"transition":0,"state":1,"state_2_ids":[2,3],"state_2_key":0,"state_2_choice":2,"state_2_rt":585.3999999994412,"outcome":1,"rocket_colors":["#a75248","#486ea7"],"planet_colors":["#5b7c65","#706081"],"screen_resolution":[1300,731],"minimum_resolution":1,"trial":42,"drifts":[0.406,0.554,0.6,0.432],"drift_ix":1,"trial_type":"two-step-trial","trial_index":78,"time_elapsed":595894,"internal_node_id":"0.0-55.0-0.0","task_version":"1.0","jspsych_version":"6.3.1","browser_interactions":0,"missing":false},{"state_1_ids":[1,0],"state_1_key":1,"state_1_choice":0,"state_1_rt":701.5,"transition":1,"state":0,"state_2_ids":[0,1],"state_2_key":0,"state_2_choice":0,"state_2_rt":1182.9000000003725,"outcome":0,"rocket_colors":["#a75248","#486ea7"],"planet_colors":["#5b7c65","#706081"],"screen_resolution":[1300,731],"minimum_resolution":1,"trial":43,"drifts":[0.381,0.564,0.612,0.443],"drift_ix":1,"trial_type":"two-step-trial","trial_index":79,"time_elapsed":599792,"internal_node_id":"0.0-56.0-0.0","task_version":"1.0","jspsych_version":"6.3.1","browser_interactions":0,"missing":false},{"state_1_ids":[0,1],"state_1_key":0,"state_1_choice":0,"state_1_rt":625.5999999996275,"transition":0,"state":1,"state_2_ids":[2,3],"state_2_key":0,"state_2_choice":2,"state_2_rt":681.1999999992549,"outcome":0,"rocket_colors":["#a75248","#486ea7"],"planet_colors":["#5b7c65","#706081"],"screen_resolution":[1300,731],"minimum_resolution":1,"trial":44,"drifts":[0.375,0.564,0.659,0.454],"drift_ix":1,"trial_type":"two-step-trial","trial_index":80,"time_elapsed":603110,"internal_node_id":"0.0-57.0-0.0","task_version":"1.0","jspsych_version":"6.3.1","browser_interactions":0,"missing":false},{"state_1_ids":[1,0],"state_1_key":1,"state_1_choice":0,"state_1_rt":596.6999999992549,"transition":0,"state":1,"state_2_ids":[2,3],"state_2_key":0,"state_2_choice":2,"state_2_rt":630.5,"outcome":1,"rocket_colors":["#a75248","#486ea7"],"planet_colors":["#5b7c65","#706081"],"screen_resolution":[1300,731],"minimum_resolution":1,"trial":45,"drifts":[0.37,0.592,0.676,0.446],"drift_ix":1,"trial_type":"two-step-trial","trial_index":81,"time_elapsed":606352,"internal_node_id":"0.0-58.0-0.0","task_version":"1.0","jspsych_version":"6.3.1","browser_interactions":0,"missing":false},{"state_1_ids":[0,1],"state_1_key":0,"state_1_choice":0,"state_1_rt":709.8000000007451,"transition":1,"state":0,"state_2_ids":[0,1],"state_2_key":1,"state_2_choice":1,"state_2_rt":1178.699999999255,"outcome":1,"rocket_colors":["#a75248","#486ea7"],"planet_colors":["#5b7c65","#706081"],"screen_resolution":[1300,731],"minimum_resolution":1,"trial":46,"drifts":[0.369,0.571,0.682,0.419],"drift_ix":1,"trial_type":"two-step-trial","trial_index":82,"time_elapsed":610253,"internal_node_id":"0.0-59.0-0.0","task_version":"1.0","jspsych_version":"6.3.1","browser_interactions":0,"missing":false},{"state_1_ids":[0,1],"state_1_key":0,"state_1_choice":0,"state_1_rt":343,"transition":1,"state":0,"state_2_ids":[0,1],"state_2_key":1,"state_2_choice":1,"state_2_rt":740.9000000003725,"outcome":1,"rocket_colors":["#a75248","#486ea7"],"planet_colors":["#5b7c65","#706081"],"screen_resolution":[1300,731],"minimum_resolution":1,"trial":47,"drifts":[0.392,0.532,0.65,0.4],"drift_ix":1,"trial_type":"two-step-trial","trial_index":83,"time_elapsed":613351,"internal_node_id":"0.0-60.0-0.0","task_version":"1.0","jspsych_version":"6.3.1","browser_interactions":0,"missing":false},{"state_1_ids":[1,0],"state_1_key":0,"state_1_choice":1,"state_1_rt":381.8999999994412,"transition":0,"state":0,"state_2_ids":[0,1],"state_2_key":1,"state_2_choice":1,"state_2_rt":586.8999999994412,"outcome":1,"rocket_colors":["#a75248","#486ea7"],"planet_colors":["#5b7c65","#706081"],"screen_resolution":[1300,731],"minimum_resolution":1,"trial":48,"drifts":[0.412,0.529,0.637,0.409],"drift_ix":1,"trial_type":"two-step-trial","trial_index":84,"time_elapsed":616335,"internal_node_id":"0.0-61.0-0.0","task_version":"1.0","jspsych_version":"6.3.1","browser_interactions":0,"missing":false},{"state_1_ids":[1,0],"state_1_key":0,"state_1_choice":1,"state_1_rt":350.59999999962747,"transition":1,"state":1,"state_2_ids":[2,3],"state_2_key":0,"state_2_choice":2,"state_2_rt":1114,"outcome":1,"rocket_colors":["#a75248","#486ea7"],"planet_colors":["#5b7c65","#706081"],"screen_resolution":[1300,731],"minimum_resolution":1,"trial":49,"drifts":[0.41,0.533,0.637,0.402],"drift_ix":1,"trial_type":"two-step-trial","trial_index":85,"time_elapsed":619813,"internal_node_id":"0.0-62.0-0.0","task_version":"1.0","jspsych_version":"6.3.1","browser_interactions":0,"missing":false},{"state_1_ids":[0,1],"state_1_key":0,"state_1_choice":0,"state_1_rt":400.3999999994412,"transition":1,"state":0,"state_2_ids":[0,1],"state_2_key":1,"state_2_choice":1,"state_2_rt":630.4000000003725,"outcome":0,"rocket_colors":["#a75248","#486ea7"],"planet_colors":["#5b7c65","#706081"],"screen_resolution":[1300,731],"minimum_resolution":1,"trial":50,"drifts":[0.394,0.554,0.63,0.39],"drift_ix":1,"trial_type":"two-step-trial","trial_index":86,"time_elapsed":622858,"internal_node_id":"0.0-63.0-0.0","task_version":"1.0","jspsych_version":"6.3.1","browser_interactions":0,"missing":false},{"state_1_ids":[1,0],"state_1_key":0,"state_1_choice":1,"state_1_rt":327.30000000074506,"transition":1,"state":1,"state_2_ids":[2,3],"state_2_key":0,"state_2_choice":2,"state_2_rt":550.5,"outcome":1,"rocket_colors":["#a75248","#486ea7"],"planet_colors":["#5b7c65","#706081"],"screen_resolution":[1300,731],"minimum_resolution":1,"trial":51,"drifts":[0.351,0.543,0.599,0.412],"drift_ix":1,"trial_type":"two-step-trial","trial_index":87,"time_elapsed":625747,"internal_node_id":"0.0-64.0-0.0","task_version":"1.0","jspsych_version":"6.3.1","browser_interactions":0,"missing":false},{"state_1_ids":[1,0],"state_1_key":0,"state_1_choice":1,"state_1_rt":574.5999999996275,"transition":1,"state":1,"state_2_ids":[2,3],"state_2_key":0,"state_2_choice":2,"state_2_rt":1060.2000000001863,"outcome":1,"rocket_colors":["#a75248","#486ea7"],"planet_colors":["#5b7c65","#706081"],"screen_resolution":[1300,731],"minimum_resolution":1,"trial":52,"drifts":[0.355,0.541,0.573,0.402],"drift_ix":1,"trial_type":"two-step-trial","trial_index":88,"time_elapsed":629391,"internal_node_id":"0.0-65.0-0.0","task_version":"1.0","jspsych_version":"6.3.1","browser_interactions":0,"missing":false},{"state_1_ids":[0,1],"state_1_key":0,"state_1_choice":0,"state_1_rt":295.3999999994412,"transition":0,"state":1,"state_2_ids":[2,3],"state_2_key":0,"state_2_choice":2,"state_2_rt":856.6000000005588,"outcome":0,"rocket_colors":["#a75248","#486ea7"],"planet_colors":["#5b7c65","#706081"],"screen_resolution":[1300,731],"minimum_resolution":1,"trial":53,"drifts":[0.35,0.565,0.6,0.385],"drift_ix":1,"trial_type":"two-step-trial","trial_index":89,"time_elapsed":632555,"internal_node_id":"0.0-66.0-0.0","task_version":"1.0","jspsych_version":"6.3.1","browser_interactions":0,"missing":false},{"state_1_ids":[0,1],"state_1_key":0,"state_1_choice":0,"state_1_rt":349.6000000005588,"transition":1,"state":0,"state_2_ids":[0,1],"state_2_key":1,"state_2_choice":1,"state_2_rt":1008.5,"outcome":1,"rocket_colors":["#a75248","#486ea7"],"planet_colors":["#5b7c65","#706081"],"screen_resolution":[1300,731],"minimum_resolution":1,"trial":54,"drifts":[0.367,0.543,0.601,0.392],"drift_ix":1,"trial_type":"two-step-trial","trial_index":90,"time_elapsed":635928,"internal_node_id":"0.0-67.0-0.0","task_version":"1.0","jspsych_version":"6.3.1","browser_interactions":0,"missing":false},{"state_1_ids":[1,0],"state_1_key":0,"state_1_choice":1,"state_1_rt":534.5,"transition":1,"state":1,"state_2_ids":[2,3],"state_2_key":1,"state_2_choice":3,"state_2_rt":1106.7000000001863,"outcome":0,"rocket_colors":["#a75248","#486ea7"],"planet_colors":["#5b7c65","#706081"],"screen_resolution":[1300,731],"minimum_resolution":1,"trial":55,"drifts":[0.341,0.54,0.588,0.372],"drift_ix":1,"trial_type":"two-step-trial","trial_index":91,"time_elapsed":639581,"internal_node_id":"0.0-68.0-0.0","task_version":"1.0","jspsych_version":"6.3.1","browser_interactions":0,"missing":false},{"state_1_ids":[0,1],"state_1_key":0,"state_1_choice":0,"state_1_rt":350.70000000018626,"transition":1,"state":0,"state_2_ids":[0,1],"state_2_key":1,"state_2_choice":1,"state_2_rt":955.2999999998137,"outcome":0,"rocket_colors":["#a75248","#486ea7"],"planet_colors":["#5b7c65","#706081"],"screen_resolution":[1300,731],"minimum_resolution":1,"trial":56,"drifts":[0.388,0.584,0.641,0.394],"drift_ix":1,"trial_type":"two-step-trial","trial_index":92,"time_elapsed":642900,"internal_node_id":"0.0-69.0-0.0","task_version":"1.0","jspsych_version":"6.3.1","browser_interactions":0,"missing":false},{"state_1_ids":[0,1],"state_1_key":0,"state_1_choice":0,"state_1_rt":256,"transition":0,"state":1,"state_2_ids":[2,3],"state_2_key":0,"state_2_choice":2,"state_2_rt":763.1999999992549,"outcome":1,"rocket_colors":["#a75248","#486ea7"],"planet_colors":["#5b7c65","#706081"],"screen_resolution":[1300,731],"minimum_resolution":1,"trial":57,"drifts":[0.373,0.597,0.649,0.355],"drift_ix":1,"trial_type":"two-step-trial","trial_index":93,"time_elapsed":645933,"internal_node_id":"0.0-70.0-0.0","task_version":"1.0","jspsych_version":"6.3.1","browser_interactions":0,"missing":false},{"state_1_ids":[1,0],"state_1_key":0,"state_1_choice":1,"state_1_rt":301.29999999981374,"transition":1,"state":1,"state_2_ids":[2,3],"state_2_key":0,"state_2_choice":2,"state_2_rt":608.3000000007451,"outcome":0,"rocket_colors":["#a75248","#486ea7"],"planet_colors":["#5b7c65","#706081"],"screen_resolution":[1300,731],"minimum_resolution":1,"trial":58,"drifts":[0.383,0.601,0.627,0.333],"drift_ix":1,"trial_type":"two-step-trial","trial_index":94,"time_elapsed":648851,"internal_node_id":"0.0-71.0-0.0","task_version":"1.0","jspsych_version":"6.3.1","browser_interactions":0,"missing":false},{"state_1_ids":[0,1],"state_1_key":0,"state_1_choice":0,"state_1_rt":308.79999999981374,"transition":0,"state":1,"state_2_ids":[2,3],"state_2_key":0,"state_2_choice":2,"state_2_rt":936.4000000003725,"outcome":1,"rocket_colors":["#a75248","#486ea7"],"planet_colors":["#5b7c65","#706081"],"screen_resolution":[1300,731],"minimum_resolution":1,"trial":59,"drifts":[0.401,0.574,0.656,0.323],"drift_ix":1,"trial_type":"two-step-trial","trial_index":95,"time_elapsed":652105,"internal_node_id":"0.0-72.0-0.0","task_version":"1.0","jspsych_version":"6.3.1","browser_interactions":0,"missing":false},{"state_1_ids":[0,1],"state_1_key":0,"state_1_choice":0,"state_1_rt":424.6000000005588,"transition":1,"state":0,"state_2_ids":[0,1],"state_2_key":1,"state_2_choice":1,"state_2_rt":1286.699999999255,"outcome":0,"rocket_colors":["#a75248","#486ea7"],"planet_colors":["#5b7c65","#706081"],"screen_resolution":[1300,731],"minimum_resolution":1,"trial":60,"drifts":[0.433,0.567,0.64,0.284],"drift_ix":1,"trial_type":"two-step-trial","trial_index":96,"time_elapsed":655824,"internal_node_id":"0.0-73.0-0.0","task_version":"1.0","jspsych_version":"6.3.1","browser_interactions":0,"missing":false},{"state_1_ids":[0,1],"state_1_key":0,"state_1_choice":0,"state_1_rt":387.70000000018626,"transition":0,"state":1,"state_2_ids":[2,3],"state_2_key":0,"state_2_choice":2,"state_2_rt":730.7999999998137,"outcome":0,"rocket_colors":["#a75248","#486ea7"],"planet_colors":["#5b7c65","#706081"],"screen_resolution":[1300,731],"minimum_resolution":1,"trial":61,"drifts":[0.443,0.536,0.633,0.265],"drift_ix":1,"trial_type":"two-step-trial","trial_index":97,"time_elapsed":658950,"internal_node_id":"0.0-74.0-0.0","task_version":"1.0","jspsych_version":"6.3.1","browser_interactions":0,"missing":false},{"state_1_ids":[0,1],"state_1_key":0,"state_1_choice":0,"state_1_rt":297.6000000005588,"transition":1,"state":0,"state_2_ids":[0,1],"state_2_key":1,"state_2_choice":1,"state_2_rt":892.5999999996275,"outcome":1,"rocket_colors":["#a75248","#486ea7"],"planet_colors":["#5b7c65","#706081"],"screen_resolution":[1300,731],"minimum_resolution":1,"trial":62,"drifts":[0.42,0.521,0.591,0.279],"drift_ix":1,"trial_type":"two-step-trial","trial_index":98,"time_elapsed":662148,"internal_node_id":"0.0-75.0-0.0","task_version":"1.0","jspsych_version":"6.3.1","browser_interactions":0,"missing":false},{"state_1_ids":[1,0],"state_1_key":0,"state_1_choice":1,"state_1_rt":373.5,"transition":1,"state":1,"state_2_ids":[2,3],"state_2_key":0,"state_2_choice":2,"state_2_rt":1688,"outcome":0,"rocket_colors":["#a75248","#486ea7"],"planet_colors":["#5b7c65","#706081"],"screen_resolution":[1300,731],"minimum_resolution":1,"trial":63,"drifts":[0.392,0.519,0.612,0.319],"drift_ix":1,"trial_type":"two-step-trial","trial_index":99,"time_elapsed":666220,"internal_node_id":"0.0-76.0-0.0","task_version":"1.0","jspsych_version":"6.3.1","browser_interactions":0,"missing":false},{"state_1_ids":[0,1],"state_1_key":0,"state_1_choice":0,"state_1_rt":536.7999999998137,"transition":0,"state":1,"state_2_ids":[2,3],"state_2_key":1,"state_2_choice":3,"state_2_rt":891.5999999996275,"outcome":0,"rocket_colors":["#a75248","#486ea7"],"planet_colors":["#5b7c65","#706081"],"screen_resolution":[1300,731],"minimum_resolution":1,"trial":64,"drifts":[0.354,0.493,0.612,0.332],"drift_ix":1,"trial_type":"two-step-trial","trial_index":100,"time_elapsed":669661,"internal_node_id":"0.0-77.0-0.0","task_version":"1.0","jspsych_version":"6.3.1","browser_interactions":0,"missing":false},{"state_1_ids":[1,0],"state_1_key":0,"state_1_choice":1,"state_1_rt":461.19999999925494,"transition":0,"state":0,"state_2_ids":[0,1],"state_2_key":1,"state_2_choice":1,"state_2_rt":1090,"outcome":1,"rocket_colors":["#a75248","#486ea7"],"planet_colors":["#5b7c65","#706081"],"screen_resolution":[1300,731],"minimum_resolution":1,"trial":65,"drifts":[0.379,0.495,0.568,0.327],"drift_ix":1,"trial_type":"two-step-trial","trial_index":101,"time_elapsed":673222,"internal_node_id":"0.0-78.0-0.0","task_version":"1.0","jspsych_version":"6.3.1","browser_interactions":0,"missing":false},{"state_1_ids":[1,0],"state_1_key":0,"state_1_choice":1,"state_1_rt":393.8999999994412,"transition":1,"state":1,"state_2_ids":[2,3],"state_2_key":1,"state_2_choice":3,"state_2_rt":1605.2000000001863,"outcome":0,"rocket_colors":["#a75248","#486ea7"],"planet_colors":["#5b7c65","#706081"],"screen_resolution":[1300,731],"minimum_resolution":1,"trial":66,"drifts":[0.383,0.497,0.601,0.305],"drift_ix":1,"trial_type":"two-step-trial","trial_index":102,"time_elapsed":677239,"internal_node_id":"0.0-79.0-0.0","task_version":"1.0","jspsych_version":"6.3.1","browser_interactions":0,"missing":false},{"state_1_ids":[0,1],"state_1_key":0,"state_1_choice":0,"state_1_rt":287.5,"transition":1,"state":0,"state_2_ids":[0,1],"state_2_key":1,"state_2_choice":1,"state_2_rt":866.5,"outcome":1,"rocket_colors":["#a75248","#486ea7"],"planet_colors":["#5b7c65","#706081"],"screen_resolution":[1300,731],"minimum_resolution":1,"trial":67,"drifts":[0.425,0.523,0.539,0.345],"drift_ix":1,"trial_type":"two-step-trial","trial_index":103,"time_elapsed":680407,"internal_node_id":"0.0-80.0-0.0","task_version":"1.0","jspsych_version":"6.3.1","browser_interactions":0,"missing":false},{"state_1_ids":[1,0],"state_1_key":0,"state_1_choice":1,"state_1_rt":375.6000000005588,"transition":1,"state":1,"state_2_ids":[2,3],"state_2_key":0,"state_2_choice":2,"state_2_rt":886.9000000003725,"outcome":1,"rocket_colors":["#a75248","#486ea7"],"planet_colors":["#5b7c65","#706081"],"screen_resolution":[1300,731],"minimum_resolution":1,"trial":68,"drifts":[0.432,0.482,0.523,0.353],"drift_ix":1,"trial_type":"two-step-trial","trial_index":104,"time_elapsed":683684,"internal_node_id":"0.0-81.0-0.0","task_version":"1.0","jspsych_version":"6.3.1","browser_interactions":0,"missing":false},{"state_1_ids":[1,0],"state_1_key":0,"state_1_choice":1,"state_1_rt":311.6000000005588,"transition":1,"state":1,"state_2_ids":[2,3],"state_2_key":0,"state_2_choice":2,"state_2_rt":618.3000000007451,"outcome":1,"rocket_colors":["#a75248","#486ea7"],"planet_colors":["#5b7c65","#706081"],"screen_resolution":[1300,731],"minimum_resolution":1,"trial":69,"drifts":[0.457,0.505,0.515,0.343],"drift_ix":1,"trial_type":"two-step-trial","trial_index":105,"time_elapsed":686627,"internal_node_id":"0.0-82.0-0.0","task_version":"1.0","jspsych_version":"6.3.1","browser_interactions":0,"missing":false},{"state_1_ids":[1,0],"state_1_key":0,"state_1_choice":1,"state_1_rt":399.70000000018626,"transition":1,"state":1,"state_2_ids":[2,3],"state_2_key":0,"state_2_choice":2,"state_2_rt":507.40000000037253,"outcome":0,"rocket_colors":["#a75248","#486ea7"],"planet_colors":["#5b7c65","#706081"],"screen_resolution":[1300,731],"minimum_resolution":1,"trial":70,"drifts":[0.451,0.526,0.491,0.303],"drift_ix":1,"trial_type":"two-step-trial","trial_index":106,"time_elapsed":689547,"internal_node_id":"0.0-83.0-0.0","task_version":"1.0","jspsych_version":"6.3.1","browser_interactions":0,"missing":false},{"state_1_ids":[1,0],"state_1_key":1,"state_1_choice":0,"state_1_rt":631.5,"transition":0,"state":1,"state_2_ids":[2,3],"state_2_key":0,"state_2_choice":2,"state_2_rt":608.2999999998137,"outcome":0,"rocket_colors":["#a75248","#486ea7"],"planet_colors":["#5b7c65","#706081"],"screen_resolution":[1300,731],"minimum_resolution":1,"trial":71,"drifts":[0.425,0.552,0.478,0.262],"drift_ix":1,"trial_type":"two-step-trial","trial_index":107,"time_elapsed":692800,"internal_node_id":"0.0-84.0-0.0","task_version":"1.0","jspsych_version":"6.3.1","browser_interactions":0,"missing":false},{"state_1_ids":[0,1],"state_1_key":0,"state_1_choice":0,"state_1_rt":319.3999999994412,"transition":1,"state":0,"state_2_ids":[0,1],"state_2_key":1,"state_2_choice":1,"state_2_rt":727.4000000003725,"outcome":0,"rocket_colors":["#a75248","#486ea7"],"planet_colors":["#5b7c65","#706081"],"screen_resolution":[1300,731],"minimum_resolution":1,"trial":72,"drifts":[0.434,0.518,0.459,0.266],"drift_ix":1,"trial_type":"two-step-trial","trial_index":108,"time_elapsed":695859,"internal_node_id":"0.0-85.0-0.0","task_version":"1.0","jspsych_version":"6.3.1","browser_interactions":0,"missing":false},{"state_1_ids":[0,1],"state_1_key":0,"state_1_choice":0,"state_1_rt":272,"transition":1,"state":0,"state_2_ids":[0,1],"state_2_key":0,"state_2_choice":0,"state_2_rt":652.5999999996275,"outcome":1,"rocket_colors":["#a75248","#486ea7"],"planet_colors":["#5b7c65","#706081"],"screen_resolution":[1300,731],"minimum_resolution":1,"trial":73,"drifts":[0.434,0.507,0.435,0.282],"drift_ix":1,"trial_type":"two-step-trial","trial_index":109,"time_elapsed":698795,"internal_node_id":"0.0-86.0-0.0","task_version":"1.0","jspsych_version":"6.3.1","browser_interactions":0,"missing":false},{"state_1_ids":[0,1],"state_1_key":0,"state_1_choice":0,"state_1_rt":356,"transition":1,"state":0,"state_2_ids":[0,1],"state_2_key":0,"state_2_choice":0,"state_2_rt":1494.5,"outcome":1,"rocket_colors":["#a75248","#486ea7"],"planet_colors":["#5b7c65","#706081"],"screen_resolution":[1300,731],"minimum_resolution":1,"trial":74,"drifts":[0.474,0.468,0.425,0.256],"drift_ix":1,"trial_type":"two-step-trial","trial_index":110,"time_elapsed":702655,"internal_node_id":"0.0-87.0-0.0","task_version":"1.0","jspsych_version":"6.3.1","browser_interactions":0,"missing":false},{"state_1_ids":[1,0],"state_1_key":0,"state_1_choice":1,"state_1_rt":320.59999999962747,"transition":1,"state":1,"state_2_ids":[2,3],"state_2_key":0,"state_2_choice":2,"state_2_rt":930.4000000003725,"outcome":0,"rocket_colors":["#a75248","#486ea7"],"planet_colors":["#5b7c65","#706081"],"screen_resolution":[1300,731],"minimum_resolution":1,"trial":75,"drifts":[0.46,0.495,0.398,0.253],"drift_ix":1,"trial_type":"two-step-trial","trial_index":111,"time_elapsed":705915,"internal_node_id":"0.0-88.0-0.0","task_version":"1.0","jspsych_version":"6.3.1","browser_interactions":0,"missing":false},{"state_1_ids":[1,0],"state_1_key":0,"state_1_choice":1,"state_1_rt":292.90000000037253,"transition":0,"state":0,"state_2_ids":[0,1],"state_2_key":0,"state_2_choice":0,"state_2_rt":788.0999999996275,"outcome":0,"rocket_colors":["#a75248","#486ea7"],"planet_colors":["#5b7c65","#706081"],"screen_resolution":[1300,731],"minimum_resolution":1,"trial":76,"drifts":[0.432,0.494,0.438,0.256],"drift_ix":1,"trial_type":"two-step-trial","trial_index":112,"time_elapsed":709013,"internal_node_id":"0.0-89.0-0.0","task_version":"1.0","jspsych_version":"6.3.1","browser_interactions":0,"missing":false},{"state_1_ids":[0,1],"state_1_key":0,"state_1_choice":0,"state_1_rt":288.70000000018626,"transition":0,"state":1,"state_2_ids":[2,3],"state_2_key":0,"state_2_choice":2,"state_2_rt":536.0999999996275,"outcome":1,"rocket_colors":["#a75248","#486ea7"],"planet_colors":["#5b7c65","#706081"],"screen_resolution":[1300,731],"minimum_resolution":1,"trial":77,"drifts":[0.461,0.493,0.446,0.27],"drift_ix":1,"trial_type":"two-step-trial","trial_index":113,"time_elapsed":711850,"internal_node_id":"0.0-90.0-0.0","task_version":"1.0","jspsych_version":"6.3.1","browser_interactions":0,"missing":false},{"state_1_ids":[0,1],"state_1_key":0,"state_1_choice":0,"state_1_rt":429,"transition":1,"state":0,"state_2_ids":[0,1],"state_2_key":1,"state_2_choice":1,"state_2_rt":1057.699999999255,"outcome":1,"rocket_colors":["#a75248","#486ea7"],"planet_colors":["#5b7c65","#706081"],"screen_resolution":[1300,731],"minimum_resolution":1,"trial":78,"drifts":[0.514,0.513,0.473,0.268],"drift_ix":1,"trial_type":"two-step-trial","trial_index":114,"time_elapsed":715350,"internal_node_id":"0.0-91.0-0.0","task_version":"1.0","jspsych_version":"6.3.1","browser_interactions":0,"missing":false},{"state_1_ids":[0,1],"state_1_key":0,"state_1_choice":0,"state_1_rt":316.19999999925494,"transition":0,"state":1,"state_2_ids":[2,3],"state_2_key":0,"state_2_choice":2,"state_2_rt":1216.5,"outcome":0,"rocket_colors":["#a75248","#486ea7"],"planet_colors":["#5b7c65","#706081"],"screen_resolution":[1300,731],"minimum_resolution":1,"trial":79,"drifts":[0.504,0.552,0.491,0.291],"drift_ix":1,"trial_type":"two-step-trial","trial_index":115,"time_elapsed":718898,"internal_node_id":"0.0-92.0-0.0","task_version":"1.0","jspsych_version":"6.3.1","browser_interactions":0,"missing":false},{"state_1_ids":[0,1],"state_1_key":0,"state_1_choice":0,"state_1_rt":328.5,"transition":0,"state":1,"state_2_ids":[2,3],"state_2_key":0,"state_2_choice":2,"state_2_rt":1002.6999999992549,"outcome":0,"rocket_colors":["#a75248","#486ea7"],"planet_colors":["#5b7c65","#706081"],"screen_resolution":[1300,731],"minimum_resolution":1,"trial":80,"drifts":[0.513,0.538,0.46,0.295],"drift_ix":1,"trial_type":"two-step-trial","trial_index":116,"time_elapsed":722244,"internal_node_id":"0.0-93.0-0.0","task_version":"1.0","jspsych_version":"6.3.1","browser_interactions":0,"missing":false},{"state_1_ids":[0,1],"state_1_key":0,"state_1_choice":0,"state_1_rt":292.79999999981374,"transition":1,"state":0,"state_2_ids":[0,1],"state_2_key":1,"state_2_choice":1,"state_2_rt":729.5,"outcome":0,"rocket_colors":["#a75248","#486ea7"],"planet_colors":["#5b7c65","#706081"],"screen_resolution":[1300,731],"minimum_resolution":1,"trial":81,"drifts":[0.523,0.491,0.47,0.326],"drift_ix":1,"trial_type":"two-step-trial","trial_index":117,"time_elapsed":725276,"internal_node_id":"0.0-94.0-0.0","task_version":"1.0","jspsych_version":"6.3.1","browser_interactions":0,"missing":false},{"state_1_ids":[1,0],"state_1_key":0,"state_1_choice":1,"state_1_rt":222.40000000037253,"transition":0,"state":0,"state_2_ids":[0,1],"state_2_key":0,"state_2_choice":0,"state_2_rt":1171.1000000005588,"outcome":0,"rocket_colors":["#a75248","#486ea7"],"planet_colors":["#5b7c65","#706081"],"screen_resolution":[1300,731],"minimum_resolution":1,"trial":82,"drifts":[0.525,0.548,0.454,0.36],"drift_ix":1,"trial_type":"two-step-trial","trial_index":118,"time_elapsed":728685,"internal_node_id":"0.0-95.0-0.0","task_version":"1.0","jspsych_version":"6.3.1","browser_interactions":0,"missing":false},{"state_1_ids":[1,0],"state_1_key":0,"state_1_choice":1,"state_1_rt":234.90000000037253,"transition":1,"state":1,"state_2_ids":[2,3],"state_2_key":1,"state_2_choice":3,"state_2_rt":912.0999999996275,"outcome":0,"rocket_colors":["#a75248","#486ea7"],"planet_colors":["#5b7c65","#706081"],"screen_resolution":[1300,731],"minimum_resolution":1,"trial":83,"drifts":[0.538,0.579,0.452,0.325],"drift_ix":1,"trial_type":"two-step-trial","trial_index":119,"time_elapsed":731846,"internal_node_id":"0.0-96.0-0.0","task_version":"1.0","jspsych_version":"6.3.1","browser_interactions":0,"missing":false},{"state_1_ids":[0,1],"state_1_key":0,"state_1_choice":0,"state_1_rt":271,"transition":1,"state":0,"state_2_ids":[0,1],"state_2_key":1,"state_2_choice":1,"state_2_rt":879,"outcome":1,"rocket_colors":["#a75248","#486ea7"],"planet_colors":["#5b7c65","#706081"],"screen_resolution":[1300,731],"minimum_resolution":1,"trial":84,"drifts":[0.524,0.64,0.439,0.371],"drift_ix":1,"trial_type":"two-step-trial","trial_index":120,"time_elapsed":735010,"internal_node_id":"0.0-97.0-0.0","task_version":"1.0","jspsych_version":"6.3.1","browser_interactions":0,"missing":false},{"state_1_ids":[1,0],"state_1_key":0,"state_1_choice":1,"state_1_rt":277.3999999994412,"transition":1,"state":1,"state_2_ids":[2,3],"state_2_key":1,"state_2_choice":3,"state_2_rt":1048.5999999996275,"outcome":0,"rocket_colors":["#a75248","#486ea7"],"planet_colors":["#5b7c65","#706081"],"screen_resolution":[1300,731],"minimum_resolution":1,"trial":85,"drifts":[0.524,0.637,0.455,0.377],"drift_ix":1,"trial_type":"two-step-trial","trial_index":121,"time_elapsed":738350,"internal_node_id":"0.0-98.0-0.0","task_version":"1.0","jspsych_version":"6.3.1","browser_interactions":0,"missing":false},{"state_1_ids":[1,0],"state_1_key":0,"state_1_choice":1,"state_1_rt":476.40000000037253,"transition":0,"state":0,"state_2_ids":[0,1],"state_2_key":1,"state_2_choice":1,"state_2_rt":947.4000000003725,"outcome":1,"rocket_colors":["#a75248","#486ea7"],"planet_colors":["#5b7c65","#706081"],"screen_resolution":[1300,731],"minimum_resolution":1,"trial":86,"drifts":[0.535,0.666,0.471,0.392],"drift_ix":1,"trial_type":"two-step-trial","trial_index":122,"time_elapsed":741790,"internal_node_id":"0.0-99.0-0.0","task_version":"1.0","jspsych_version":"6.3.1","browser_interactions":0,"missing":false},{"state_1_ids":[0,1],"state_1_key":0,"state_1_choice":0,"state_1_rt":296.8999999994412,"transition":1,"state":0,"state_2_ids":[0,1],"state_2_key":1,"state_2_choice":1,"state_2_rt":761.6000000005588,"outcome":1,"rocket_colors":["#a75248","#486ea7"],"planet_colors":["#5b7c65","#706081"],"screen_resolution":[1300,731],"minimum_resolution":1,"trial":87,"drifts":[0.504,0.695,0.423,0.387],"drift_ix":1,"trial_type":"two-step-trial","trial_index":123,"time_elapsed":744862,"internal_node_id":"0.0-100.0-0.0","task_version":"1.0","jspsych_version":"6.3.1","browser_interactions":0,"missing":false},{"state_1_ids":[1,0],"state_1_key":0,"state_1_choice":1,"state_1_rt":329.8999999994412,"transition":1,"state":1,"state_2_ids":[2,3],"state_2_key":1,"state_2_choice":3,"state_2_rt":1348.7000000001863,"outcome":0,"rocket_colors":["#a75248","#486ea7"],"planet_colors":["#5b7c65","#706081"],"screen_resolution":[1300,731],"minimum_resolution":1,"trial":88,"drifts":[0.485,0.667,0.458,0.39],"drift_ix":1,"trial_type":"two-step-trial","trial_index":124,"time_elapsed":748554,"internal_node_id":"0.0-101.0-0.0","task_version":"1.0","jspsych_version":"6.3.1","browser_interactions":0,"missing":false},{"state_1_ids":[0,1],"state_1_key":0,"state_1_choice":0,"state_1_rt":275,"transition":1,"state":0,"state_2_ids":[0,1],"state_2_key":1,"state_2_choice":1,"state_2_rt":760,"outcome":1,"rocket_colors":["#a75248","#486ea7"],"planet_colors":["#5b7c65","#706081"],"screen_resolution":[1300,731],"minimum_resolution":1,"trial":89,"drifts":[0.47,0.661,0.502,0.408],"drift_ix":1,"trial_type":"two-step-trial","trial_index":125,"time_elapsed":751603,"internal_node_id":"0.0-102.0-0.0","task_version":"1.0","jspsych_version":"6.3.1","browser_interactions":0,"missing":false},{"state_1_ids":[1,0],"state_1_key":0,"state_1_choice":1,"state_1_rt":295.29999999981374,"transition":1,"state":1,"state_2_ids":[2,3],"state_2_key":0,"state_2_choice":2,"state_2_rt":954.6000000005588,"outcome":0,"rocket_colors":["#a75248","#486ea7"],"planet_colors":["#5b7c65","#706081"],"screen_resolution":[1300,731],"minimum_resolution":1,"trial":90,"drifts":[0.46,0.678,0.464,0.349],"drift_ix":1,"trial_type":"two-step-trial","trial_index":126,"time_elapsed":754866,"internal_node_id":"0.0-103.0-0.0","task_version":"1.0","jspsych_version":"6.3.1","browser_interactions":0,"missing":false},{"state_1_ids":[1,0],"state_1_key":0,"state_1_choice":1,"state_1_rt":265.8999999994412,"transition":1,"state":1,"state_2_ids":[2,3],"state_2_key":0,"state_2_choice":2,"state_2_rt":663.5,"outcome":1,"rocket_colors":["#a75248","#486ea7"],"planet_colors":["#5b7c65","#706081"],"screen_resolution":[1300,731],"minimum_resolution":1,"trial":91,"drifts":[0.46,0.655,0.459,0.313],"drift_ix":1,"trial_type":"two-step-trial","trial_index":127,"time_elapsed":757810,"internal_node_id":"0.0-104.0-0.0","task_version":"1.0","jspsych_version":"6.3.1","browser_interactions":0,"missing":false},{"state_1_ids":[1,0],"state_1_key":0,"state_1_choice":1,"state_1_rt":324.30000000074506,"transition":1,"state":1,"state_2_ids":[2,3],"state_2_key":0,"state_2_choice":2,"state_2_rt":511.29999999981374,"outcome":0,"rocket_colors":["#a75248","#486ea7"],"planet_colors":["#5b7c65","#706081"],"screen_resolution":[1300,731],"minimum_resolution":1,"trial":92,"drifts":[0.459,0.663,0.496,0.332],"drift_ix":1,"trial_type":"two-step-trial","trial_index":128,"time_elapsed":760658,"internal_node_id":"0.0-105.0-0.0","task_version":"1.0","jspsych_version":"6.3.1","browser_interactions":0,"missing":false},{"state_1_ids":[1,0],"state_1_key":0,"state_1_choice":1,"state_1_rt":277.79999999981374,"transition":1,"state":1,"state_2_ids":[2,3],"state_2_key":0,"state_2_choice":2,"state_2_rt":888.5,"outcome":1,"rocket_colors":["#a75248","#486ea7"],"planet_colors":["#5b7c65","#706081"],"screen_resolution":[1300,731],"minimum_resolution":1,"trial":93,"drifts":[0.47,0.662,0.476,0.3],"drift_ix":1,"trial_type":"two-step-trial","trial_index":129,"time_elapsed":763835,"internal_node_id":"0.0-106.0-0.0","task_version":"1.0","jspsych_version":"6.3.1","browser_interactions":0,"missing":false},{"state_1_ids":[1,0],"state_1_key":0,"state_1_choice":1,"state_1_rt":274.90000000037253,"transition":1,"state":1,"state_2_ids":[2,3],"state_2_key":0,"state_2_choice":2,"state_2_rt":546.6999999992549,"outcome":0,"rocket_colors":["#a75248","#486ea7"],"planet_colors":["#5b7c65","#706081"],"screen_resolution":[1300,731],"minimum_resolution":1,"trial":94,"drifts":[0.495,0.666,0.452,0.265],"drift_ix":1,"trial_type":"two-step-trial","trial_index":130,"time_elapsed":766668,"internal_node_id":"0.0-107.0-0.0","task_version":"1.0","jspsych_version":"6.3.1","browser_interactions":0,"missing":false},{"state_1_ids":[0,1],"state_1_key":0,"state_1_choice":0,"state_1_rt":273.20000000018626,"transition":1,"state":0,"state_2_ids":[0,1],"state_2_key":1,"state_2_choice":1,"state_2_rt":850,"outcome":1,"rocket_colors":["#a75248","#486ea7"],"planet_colors":["#5b7c65","#706081"],"screen_resolution":[1300,731],"minimum_resolution":1,"trial":95,"drifts":[0.524,0.697,0.448,0.345],"drift_ix":1,"trial_type":"two-step-trial","trial_index":131,"time_elapsed":769805,"internal_node_id":"0.0-108.0-0.0","task_version":"1.0","jspsych_version":"6.3.1","browser_interactions":0,"missing":false},{"state_1_ids":[0,1],"state_1_key":0,"state_1_choice":0,"state_1_rt":331.59999999962747,"transition":0,"state":1,"state_2_ids":[2,3],"state_2_key":0,"state_2_choice":2,"state_2_rt":974.0999999996275,"outcome":1,"rocket_colors":["#a75248","#486ea7"],"planet_colors":["#5b7c65","#706081"],"screen_resolution":[1300,731],"minimum_resolution":1,"trial":96,"drifts":[0.524,0.681,0.435,0.338],"drift_ix":1,"trial_type":"two-step-trial","trial_index":132,"time_elapsed":773126,"internal_node_id":"0.0-109.0-0.0","task_version":"1.0","jspsych_version":"6.3.1","browser_interactions":0,"missing":false},{"state_1_ids":[1,0],"state_1_key":0,"state_1_choice":1,"state_1_rt":304.8999999994412,"transition":0,"state":0,"state_2_ids":[0,1],"state_2_key":1,"state_2_choice":1,"state_2_rt":774.5,"outcome":1,"rocket_colors":["#a75248","#486ea7"],"planet_colors":["#5b7c65","#706081"],"screen_resolution":[1300,731],"minimum_resolution":1,"trial":97,"drifts":[0.542,0.675,0.441,0.363],"drift_ix":1,"trial_type":"two-step-trial","trial_index":133,"time_elapsed":776218,"internal_node_id":"0.0-110.0-0.0","task_version":"1.0","jspsych_version":"6.3.1","browser_interactions":0,"missing":false},{"state_1_ids":[1,0],"state_1_key":0,"state_1_choice":1,"state_1_rt":309.70000000018626,"transition":1,"state":1,"state_2_ids":[2,3],"state_2_key":0,"state_2_choice":2,"state_2_rt":887.2999999998137,"outcome":0,"rocket_colors":["#a75248","#486ea7"],"planet_colors":["#5b7c65","#706081"],"screen_resolution":[1300,731],"minimum_resolution":1,"trial":98,"drifts":[0.542,0.7,0.418,0.358],"drift_ix":1,"trial_type":"two-step-trial","trial_index":134,"time_elapsed":779427,"internal_node_id":"0.0-111.0-0.0","task_version":"1.0","jspsych_version":"6.3.1","browser_interactions":0,"missing":false},{"state_1_ids":[0,1],"state_1_key":0,"state_1_choice":0,"state_1_rt":363.29999999981374,"transition":0,"state":1,"state_2_ids":[2,3],"state_2_key":0,"state_2_choice":2,"state_2_rt":803,"outcome":0,"rocket_colors":["#a75248","#486ea7"],"planet_colors":["#5b7c65","#706081"],"screen_resolution":[1300,731],"minimum_resolution":1,"trial":99,"drifts":[0.586,0.735,0.41,0.338],"drift_ix":1,"trial_type":"two-step-trial","trial_index":135,"time_elapsed":782605,"internal_node_id":"0.0-112.0-0.0","task_version":"1.0","jspsych_version":"6.3.1","browser_interactions":0,"missing":false},{"state_1_ids":[0,1],"state_1_key":0,"state_1_choice":0,"state_1_rt":321.69999999925494,"transition":0,"state":1,"state_2_ids":[2,3],"state_2_key":1,"state_2_choice":3,"state_2_rt":1073.9000000003725,"outcome":0,"rocket_colors":["#a75248","#486ea7"],"planet_colors":["#5b7c65","#706081"],"screen_resolution":[1300,731],"minimum_resolution":1,"trial":100,"drifts":[0.591,0.693,0.426,0.36],"drift_ix":1,"trial_type":"two-step-trial","trial_index":136,"time_elapsed":786015,"internal_node_id":"0.0-113.0-0.0","task_version":"1.0","jspsych_version":"6.3.1","browser_interactions":0,"missing":false},{"view_history":"[{\"page_index\":0,\"viewing_time\":4347.5},{\"page_index\":1,\"viewing_time\":1658.3999999994412}]","rt":6006.799999999814,"trial_type":"two-step-instructions","trial_index":137,"time_elapsed":792030,"internal_node_id":"0.0-114.0","task_version":"1.0","jspsych_version":"6.3.1"},{"state_1_ids":[1,0],"state_1_key":0,"state_1_choice":1,"state_1_rt":955.8999999994412,"transition":0,"state":0,"state_2_ids":[0,1],"state_2_key":1,"state_2_choice":1,"state_2_rt":520.7000000001863,"outcome":1,"rocket_colors":["#a75248","#486ea7"],"planet_colors":["#5b7c65","#706081"],"screen_resolution":[1300,731],"minimum_resolution":1,"trial":101,"drifts":[0.639,0.722,0.416,0.356],"drift_ix":1,"trial_type":"two-step-trial","trial_index":138,"time_elapsed":795524,"internal_node_id":"0.0-115.0-0.0","task_version":"1.0","jspsych_version":"6.3.1","browser_interactions":0,"missing":false},{"state_1_ids":[0,1],"state_1_key":0,"state_1_choice":0,"state_1_rt":342.79999999981374,"transition":1,"state":0,"state_2_ids":[0,1],"state_2_key":0,"state_2_choice":0,"state_2_rt":1398.5,"outcome":1,"rocket_colors":["#a75248","#486ea7"],"planet_colors":["#5b7c65","#706081"],"screen_resolution":[1300,731],"minimum_resolution":1,"trial":102,"drifts":[0.661,0.749,0.353,0.384],"drift_ix":1,"trial_type":"two-step-trial","trial_index":139,"time_elapsed":799281,"internal_node_id":"0.0-116.0-0.0","task_version":"1.0","jspsych_version":"6.3.1","browser_interactions":0,"missing":false},{"state_1_ids":[1,0],"state_1_key":0,"state_1_choice":1,"state_1_rt":427.8999999994412,"transition":0,"state":0,"state_2_ids":[0,1],"state_2_key":1,"state_2_choice":1,"state_2_rt":600.7000000001863,"outcome":0,"rocket_colors":["#a75248","#486ea7"],"planet_colors":["#5b7c65","#706081"],"screen_resolution":[1300,731],"minimum_resolution":1,"trial":103,"drifts":[0.659,0.729,0.293,0.396],"drift_ix":1,"trial_type":"two-step-trial","trial_index":140,"time_elapsed":802322,"internal_node_id":"0.0-117.0-0.0","task_version":"1.0","jspsych_version":"6.3.1","browser_interactions":0,"missing":false},{"state_1_ids":[0,1],"state_1_key":0,"state_1_choice":0,"state_1_rt":234,"transition":1,"state":0,"state_2_ids":[0,1],"state_2_key":0,"state_2_choice":0,"state_2_rt":573.9000000003725,"outcome":1,"rocket_colors":["#a75248","#486ea7"],"planet_colors":["#5b7c65","#706081"],"screen_resolution":[1300,731],"minimum_resolution":1,"trial":104,"drifts":[0.615,0.721,0.288,0.378],"drift_ix":1,"trial_type":"two-step-trial","trial_index":141,"time_elapsed":805139,"internal_node_id":"0.0-118.0-0.0","task_version":"1.0","jspsych_version":"6.3.1","browser_interactions":0,"missing":false},{"state_1_ids":[0,1],"state_1_key":0,"state_1_choice":0,"state_1_rt":355.59999999962747,"transition":1,"state":0,"state_2_ids":[0,1],"state_2_key":0,"state_2_choice":0,"state_2_rt":849.0999999996275,"outcome":1,"rocket_colors":["#a75248","#486ea7"],"planet_colors":["#5b7c65","#706081"],"screen_resolution":[1300,731],"minimum_resolution":1,"trial":105,"drifts":[0.562,0.742,0.297,0.343],"drift_ix":1,"trial_type":"two-step-trial","trial_index":142,"time_elapsed":808352,"internal_node_id":"0.0-119.0-0.0","task_version":"1.0","jspsych_version":"6.3.1","browser_interactions":0,"missing":false},{"state_1_ids":[1,0],"state_1_key":0,"state_1_choice":1,"state_1_rt":944.1999999992549,"transition":0,"state":0,"state_2_ids":[0,1],"state_2_key":1,"state_2_choice":1,"state_2_rt":833,"outcome":1,"rocket_colors":["#a75248","#486ea7"],"planet_colors":["#5b7c65","#706081"],"screen_resolution":[1300,731],"minimum_resolution":1,"trial":106,"drifts":[0.532,0.742,0.25,0.332],"drift_ix":1,"trial_type":"two-step-trial","trial_index":143,"time_elapsed":812144,"internal_node_id":"0.0-120.0-0.0","task_version":"1.0","jspsych_version":"6.3.1","browser_interactions":0,"missing":false},{"state_1_ids":[0,1],"state_1_key":0,"state_1_choice":0,"state_1_rt":1163.7999999998137,"transition":1,"state":0,"state_2_ids":[0,1],"state_2_key":0,"state_2_choice":0,"state_2_rt":704.7999999998137,"outcome":0,"rocket_colors":["#a75248","#486ea7"],"planet_colors":["#5b7c65","#706081"],"screen_resolution":[1300,731],"minimum_resolution":1,"trial":107,"drifts":[0.531,0.742,0.255,0.33],"drift_ix":1,"trial_type":"two-step-trial","trial_index":144,"time_elapsed":816023,"internal_node_id":"0.0-121.0-0.0","task_version":"1.0","jspsych_version":"6.3.1","browser_interactions":0,"missing":false},{"state_1_ids":[1,0],"state_1_key":0,"state_1_choice":1,"state_1_rt":323.40000000037253,"transition":0,"state":0,"state_2_ids":[0,1],"state_2_key":1,"state_2_choice":1,"state_2_rt":419.6000000005588,"outcome":1,"rocket_colors":["#a75248","#486ea7"],"planet_colors":["#5b7c65","#706081"],"screen_resolution":[1300,731],"minimum_resolution":1,"trial":108,"drifts":[0.576,0.733,0.281,0.338],"drift_ix":1,"trial_type":"two-step-trial","trial_index":145,"time_elapsed":818776,"internal_node_id":"0.0-122.0-0.0","task_version":"1.0","jspsych_version":"6.3.1","browser_interactions":0,"missing":false},{"state_1_ids":[1,0],"state_1_key":0,"state_1_choice":1,"state_1_rt":485.8999999994412,"transition":0,"state":0,"state_2_ids":[0,1],"state_2_key":1,"state_2_choice":1,"state_2_rt":429.29999999981374,"outcome":0,"rocket_colors":["#a75248","#486ea7"],"planet_colors":["#5b7c65","#706081"],"screen_resolution":[1300,731],"minimum_resolution":1,"trial":109,"drifts":[0.593,0.74,0.277,0.333],"drift_ix":1,"trial_type":"two-step-trial","trial_index":146,"time_elapsed":821703,"internal_node_id":"0.0-123.0-0.0","task_version":"1.0","jspsych_version":"6.3.1","browser_interactions":0,"missing":false},{"state_1_ids":[1,0],"state_1_key":0,"state_1_choice":1,"state_1_rt":288,"transition":0,"state":0,"state_2_ids":[0,1],"state_2_key":0,"state_2_choice":0,"state_2_rt":483.40000000037253,"outcome":1,"rocket_colors":["#a75248","#486ea7"],"planet_colors":["#5b7c65","#706081"],"screen_resolution":[1300,731],"minimum_resolution":1,"trial":110,"drifts":[0.57,0.735,0.318,0.349],"drift_ix":1,"trial_type":"two-step-trial","trial_index":147,"time_elapsed":824486,"internal_node_id":"0.0-124.0-0.0","task_version":"1.0","jspsych_version":"6.3.1","browser_interactions":0,"missing":false},{"state_1_ids":[1,0],"state_1_key":0,"state_1_choice":1,"state_1_rt":446.40000000037253,"transition":1,"state":1,"state_2_ids":[2,3],"state_2_key":0,"state_2_choice":2,"state_2_rt":1057.8999999994412,"outcome":0,"rocket_colors":["#a75248","#486ea7"],"planet_colors":["#5b7c65","#706081"],"screen_resolution":[1300,731],"minimum_resolution":1,"trial":111,"drifts":[0.566,0.726,0.306,0.333],"drift_ix":1,"trial_type":"two-step-trial","trial_index":148,"time_elapsed":828001,"internal_node_id":"0.0-125.0-0.0","task_version":"1.0","jspsych_version":"6.3.1","browser_interactions":0,"missing":false},{"state_1_ids":[1,0],"state_1_key":0,"state_1_choice":1,"state_1_rt":286.59999999962747,"transition":1,"state":1,"state_2_ids":[2,3],"state_2_key":0,"state_2_choice":2,"state_2_rt":521.9000000003725,"outcome":0,"rocket_colors":["#a75248","#486ea7"],"planet_colors":["#5b7c65","#706081"],"screen_resolution":[1300,731],"minimum_resolution":1,"trial":112,"drifts":[0.552,0.734,0.35,0.354],"drift_ix":1,"trial_type":"two-step-trial","trial_index":149,"time_elapsed":830824,"internal_node_id":"0.0-126.0-0.0","task_version":"1.0","jspsych_version":"6.3.1","browser_interactions":0,"missing":false},{"state_1_ids":[0,1],"state_1_key":0,"state_1_choice":0,"state_1_rt":254.70000000018626,"transition":1,"state":0,"state_2_ids":[0,1],"state_2_key":1,"state_2_choice":1,"state_2_rt":633.7999999998137,"outcome":1,"rocket_colors":["#a75248","#486ea7"],"planet_colors":["#5b7c65","#706081"],"screen_resolution":[1300,731],"minimum_resolution":1,"trial":113,"drifts":[0.503,0.684,0.352,0.329],"drift_ix":1,"trial_type":"two-step-trial","trial_index":150,"time_elapsed":833726,"internal_node_id":"0.0-127.0-0.0","task_version":"1.0","jspsych_version":"6.3.1","browser_interactions":0,"missing":false},{"state_1_ids":[1,0],"state_1_key":0,"state_1_choice":1,"state_1_rt":433.79999999981374,"transition":1,"state":1,"state_2_ids":[2,3],"state_2_key":1,"state_2_choice":3,"state_2_rt":1200.800000000745,"outcome":0,"rocket_colors":["#a75248","#486ea7"],"planet_colors":["#5b7c65","#706081"],"screen_resolution":[1300,731],"minimum_resolution":1,"trial":114,"drifts":[0.517,0.664,0.374,0.314],"drift_ix":1,"trial_type":"two-step-trial","trial_index":151,"time_elapsed":837374,"internal_node_id":"0.0-128.0-0.0","task_version":"1.0","jspsych_version":"6.3.1","browser_interactions":0,"missing":false},{"state_1_ids":[1,0],"state_1_key":0,"state_1_choice":1,"state_1_rt":458,"transition":1,"state":1,"state_2_ids":[2,3],"state_2_key":0,"state_2_choice":2,"state_2_rt":1173.7999999998137,"outcome":1,"rocket_colors":["#a75248","#486ea7"],"planet_colors":["#5b7c65","#706081"],"screen_resolution":[1300,731],"minimum_resolution":1,"trial":115,"drifts":[0.505,0.635,0.405,0.281],"drift_ix":1,"trial_type":"two-step-trial","trial_index":152,"time_elapsed":841019,"internal_node_id":"0.0-129.0-0.0","task_version":"1.0","jspsych_version":"6.3.1","browser_interactions":0,"missing":false},{"state_1_ids":[1,0],"state_1_key":0,"state_1_choice":1,"state_1_rt":362.19999999925494,"transition":1,"state":1,"state_2_ids":[2,3],"state_2_key":0,"state_2_choice":2,"state_2_rt":473.5,"outcome":0,"rocket_colors":["#a75248","#486ea7"],"planet_colors":["#5b7c65","#706081"],"screen_resolution":[1300,731],"minimum_resolution":1,"trial":116,"drifts":[0.506,0.651,0.43,0.328],"drift_ix":1,"trial_type":"two-step-trial","trial_index":153,"time_elapsed":843865,"internal_node_id":"0.0-130.0-0.0","task_version":"1.0","jspsych_version":"6.3.1","browser_interactions":0,"missing":false},{"state_1_ids":[1,0],"state_1_key":0,"state_1_choice":1,"state_1_rt":339.5,"transition":1,"state":1,"state_2_ids":[2,3],"state_2_key":0,"state_2_choice":2,"state_2_rt":595.8999999994412,"outcome":0,"rocket_colors":["#a75248","#486ea7"],"planet_colors":["#5b7c65","#706081"],"screen_resolution":[1300,731],"minimum_resolution":1,"trial":117,"drifts":[0.524,0.623,0.426,0.298],"drift_ix":1,"trial_type":"two-step-trial","trial_index":154,"time_elapsed":846814,"internal_node_id":"0.0-131.0-0.0","task_version":"1.0","jspsych_version":"6.3.1","browser_interactions":0,"missing":false},{"state_1_ids":[0,1],"state_1_key":0,"state_1_choice":0,"state_1_rt":307,"transition":0,"state":1,"state_2_ids":[2,3],"state_2_key":0,"state_2_choice":2,"state_2_rt":1082.8999999994412,"outcome":0,"rocket_colors":["#a75248","#486ea7"],"planet_colors":["#5b7c65","#706081"],"screen_resolution":[1300,731],"minimum_resolution":1,"trial":118,"drifts":[0.512,0.652,0.411,0.294],"drift_ix":1,"trial_type":"two-step-trial","trial_index":155,"time_elapsed":850219,"internal_node_id":"0.0-132.0-0.0","task_version":"1.0","jspsych_version":"6.3.1","browser_interactions":0,"missing":false},{"state_1_ids":[1,0],"state_1_key":0,"state_1_choice":1,"state_1_rt":286.79999999981374,"transition":1,"state":1,"state_2_ids":[2,3],"state_2_key":1,"state_2_choice":3,"state_2_rt":755.6000000005588,"outcome":0,"rocket_colors":["#a75248","#486ea7"],"planet_colors":["#5b7c65","#706081"],"screen_resolution":[1300,731],"minimum_resolution":1,"trial":119,"drifts":[0.502,0.652,0.413,0.344],"drift_ix":1,"trial_type":"two-step-trial","trial_index":156,"time_elapsed":853275,"internal_node_id":"0.0-133.0-0.0","task_version":"1.0","jspsych_version":"6.3.1","browser_interactions":0,"missing":false},{"state_1_ids":[0,1],"state_1_key":0,"state_1_choice":0,"state_1_rt":283.70000000018626,"transition":1,"state":0,"state_2_ids":[0,1],"state_2_key":0,"state_2_choice":0,"state_2_rt":857,"outcome":1,"rocket_colors":["#a75248","#486ea7"],"planet_colors":["#5b7c65","#706081"],"screen_resolution":[1300,731],"minimum_resolution":1,"trial":120,"drifts":[0.482,0.631,0.394,0.33],"drift_ix":1,"trial_type":"two-step-trial","trial_index":157,"time_elapsed":856426,"internal_node_id":"0.0-134.0-0.0","task_version":"1.0","jspsych_version":"6.3.1","browser_interactions":0,"missing":false},{"state_1_ids":[1,0],"state_1_key":0,"state_1_choice":1,"state_1_rt":531.9000000003725,"transition":1,"state":1,"state_2_ids":[2,3],"state_2_key":1,"state_2_choice":3,"state_2_rt":1346.7000000001863,"outcome":1,"rocket_colors":["#a75248","#486ea7"],"planet_colors":["#5b7c65","#706081"],"screen_resolution":[1300,731],"minimum_resolution":1,"trial":121,"drifts":[0.447,0.633,0.361,0.325],"drift_ix":1,"trial_type":"two-step-trial","trial_index":158,"time_elapsed":860315,"internal_node_id":"0.0-135.0-0.0","task_version":"1.0","jspsych_version":"6.3.1","browser_interactions":0,"missing":false},{"state_1_ids":[1,0],"state_1_key":0,"state_1_choice":1,"state_1_rt":378.79999999981374,"transition":0,"state":0,"state_2_ids":[0,1],"state_2_key":1,"state_2_choice":1,"state_2_rt":798.2999999998137,"outcome":1,"rocket_colors":["#a75248","#486ea7"],"planet_colors":["#5b7c65","#706081"],"screen_resolution":[1300,731],"minimum_resolution":1,"trial":122,"drifts":[0.451,0.597,0.354,0.284],"drift_ix":1,"trial_type":"two-step-trial","trial_index":159,"time_elapsed":863504,"internal_node_id":"0.0-136.0-0.0","task_version":"1.0","jspsych_version":"6.3.1","browser_interactions":0,"missing":false},{"state_1_ids":[0,1],"state_1_key":0,"state_1_choice":0,"state_1_rt":304.80000000074506,"transition":1,"state":0,"state_2_ids":[0,1],"state_2_key":1,"state_2_choice":1,"state_2_rt":754.5,"outcome":0,"rocket_colors":["#a75248","#486ea7"],"planet_colors":["#5b7c65","#706081"],"screen_resolution":[1300,731],"minimum_resolution":1,"trial":123,"drifts":[0.511,0.55,0.353,0.29],"drift_ix":1,"trial_type":"two-step-trial","trial_index":160,"time_elapsed":866576,"internal_node_id":"0.0-137.0-0.0","task_version":"1.0","jspsych_version":"6.3.1","browser_interactions":0,"missing":false},{"state_1_ids":[1,0],"state_1_key":0,"state_1_choice":1,"state_1_rt":255.1000000005588,"transition":1,"state":1,"state_2_ids":[2,3],"state_2_key":0,"state_2_choice":2,"state_2_rt":837.1999999992549,"outcome":0,"rocket_colors":["#a75248","#486ea7"],"planet_colors":["#5b7c65","#706081"],"screen_resolution":[1300,731],"minimum_resolution":1,"trial":124,"drifts":[0.523,0.509,0.361,0.326],"drift_ix":1,"trial_type":"two-step-trial","trial_index":161,"time_elapsed":869679,"internal_node_id":"0.0-138.0-0.0","task_version":"1.0","jspsych_version":"6.3.1","browser_interactions":0,"missing":false},{"state_1_ids":[0,1],"state_1_key":0,"state_1_choice":0,"state_1_rt":290.8999999994412,"transition":1,"state":0,"state_2_ids":[0,1],"state_2_key":1,"state_2_choice":1,"state_2_rt":676.8999999994412,"outcome":1,"rocket_colors":["#a75248","#486ea7"],"planet_colors":["#5b7c65","#706081"],"screen_resolution":[1300,731],"minimum_resolution":1,"trial":125,"drifts":[0.519,0.49,0.295,0.344],"drift_ix":1,"trial_type":"two-step-trial","trial_index":162,"time_elapsed":872662,"internal_node_id":"0.0-139.0-0.0","task_version":"1.0","jspsych_version":"6.3.1","browser_interactions":0,"missing":false},{"state_1_ids":[1,0],"state_1_key":0,"state_1_choice":1,"state_1_rt":323.59999999962747,"transition":0,"state":0,"state_2_ids":[0,1],"state_2_key":1,"state_2_choice":1,"state_2_rt":565.6999999992549,"outcome":0,"rocket_colors":["#a75248","#486ea7"],"planet_colors":["#5b7c65","#706081"],"screen_resolution":[1300,731],"minimum_resolution":1,"trial":126,"drifts":[0.525,0.444,0.287,0.34],"drift_ix":1,"trial_type":"two-step-trial","trial_index":163,"time_elapsed":875564,"internal_node_id":"0.0-140.0-0.0","task_version":"1.0","jspsych_version":"6.3.1","browser_interactions":0,"missing":false},{"state_1_ids":[0,1],"state_1_key":0,"state_1_choice":0,"state_1_rt":550.2000000001863,"transition":1,"state":0,"state_2_ids":[0,1],"state_2_key":1,"state_2_choice":1,"state_2_rt":500.5,"outcome":0,"rocket_colors":["#a75248","#486ea7"],"planet_colors":["#5b7c65","#706081"],"screen_resolution":[1300,731],"minimum_resolution":1,"trial":127,"drifts":[0.473,0.463,0.278,0.293],"drift_ix":1,"trial_type":"two-step-trial","trial_index":164,"time_elapsed":878627,"internal_node_id":"0.0-141.0-0.0","task_version":"1.0","jspsych_version":"6.3.1","browser_interactions":0,"missing":false},{"state_1_ids":[0,1],"state_1_key":1,"state_1_choice":1,"state_1_rt":388,"transition":0,"state":0,"state_2_ids":[0,1],"state_2_key":1,"state_2_choice":1,"state_2_rt":434.5,"outcome":1,"rocket_colors":["#a75248","#486ea7"],"planet_colors":["#5b7c65","#706081"],"screen_resolution":[1300,731],"minimum_resolution":1,"trial":128,"drifts":[0.496,0.47,0.277,0.271],"drift_ix":1,"trial_type":"two-step-trial","trial_index":165,"time_elapsed":881463,"internal_node_id":"0.0-142.0-0.0","task_version":"1.0","jspsych_version":"6.3.1","browser_interactions":0,"missing":false},{"state_1_ids":[1,0],"state_1_key":1,"state_1_choice":0,"state_1_rt":320.90000000037253,"transition":0,"state":1,"state_2_ids":[2,3],"state_2_key":0,"state_2_choice":2,"state_2_rt":1075.9000000003725,"outcome":0,"rocket_colors":["#a75248","#486ea7"],"planet_colors":["#5b7c65","#706081"],"screen_resolution":[1300,731],"minimum_resolution":1,"trial":129,"drifts":[0.477,0.48,0.264,0.281],"drift_ix":1,"trial_type":"two-step-trial","trial_index":166,"time_elapsed":884869,"internal_node_id":"0.0-143.0-0.0","task_version":"1.0","jspsych_version":"6.3.1","browser_interactions":0,"missing":false},{"state_1_ids":[1,0],"state_1_key":1,"state_1_choice":0,"state_1_rt":339.79999999981374,"transition":0,"state":1,"state_2_ids":[2,3],"state_2_key":1,"state_2_choice":3,"state_2_rt":1021,"outcome":0,"rocket_colors":["#a75248","#486ea7"],"planet_colors":["#5b7c65","#706081"],"screen_resolution":[1300,731],"minimum_resolution":1,"trial":130,"drifts":[0.494,0.486,0.258,0.258],"drift_ix":1,"trial_type":"two-step-trial","trial_index":167,"time_elapsed":888243,"internal_node_id":"0.0-144.0-0.0","task_version":"1.0","jspsych_version":"6.3.1","browser_interactions":0,"missing":false},{"state_1_ids":[0,1],"state_1_key":1,"state_1_choice":1,"state_1_rt":564,"transition":1,"state":1,"state_2_ids":[2,3],"state_2_key":0,"state_2_choice":2,"state_2_rt":860.5,"outcome":1,"rocket_colors":["#a75248","#486ea7"],"planet_colors":["#5b7c65","#706081"],"screen_resolution":[1300,731],"minimum_resolution":1,"trial":131,"drifts":[0.493,0.471,0.325,0.274],"drift_ix":1,"trial_type":"two-step-trial","trial_index":168,"time_elapsed":891682,"internal_node_id":"0.0-145.0-0.0","task_version":"1.0","jspsych_version":"6.3.1","browser_interactions":0,"missing":false},{"state_1_ids":[1,0],"state_1_key":1,"state_1_choice":0,"state_1_rt":671.1000000005588,"transition":1,"state":0,"state_2_ids":[0,1],"state_2_key":1,"state_2_choice":1,"state_2_rt":985,"outcome":1,"rocket_colors":["#a75248","#486ea7"],"planet_colors":["#5b7c65","#706081"],"screen_resolution":[1300,731],"minimum_resolution":1,"trial":132,"drifts":[0.495,0.414,0.29,0.261],"drift_ix":1,"trial_type":"two-step-trial","trial_index":169,"time_elapsed":895357,"internal_node_id":"0.0-146.0-0.0","task_version":"1.0","jspsych_version":"6.3.1","browser_interactions":0,"missing":false},{"state_1_ids":[0,1],"state_1_key":1,"state_1_choice":1,"state_1_rt":381.69999999925494,"transition":0,"state":0,"state_2_ids":[0,1],"state_2_key":1,"state_2_choice":1,"state_2_rt":528.1999999992549,"outcome":1,"rocket_colors":["#a75248","#486ea7"],"planet_colors":["#5b7c65","#706081"],"screen_resolution":[1300,731],"minimum_resolution":1,"trial":133,"drifts":[0.486,0.393,0.318,0.253],"drift_ix":1,"trial_type":"two-step-trial","trial_index":170,"time_elapsed":898280,"internal_node_id":"0.0-147.0-0.0","task_version":"1.0","jspsych_version":"6.3.1","browser_interactions":0,"missing":false},{"state_1_ids":[0,1],"state_1_key":1,"state_1_choice":1,"state_1_rt":501.90000000037253,"transition":1,"state":1,"state_2_ids":[2,3],"state_2_key":0,"state_2_choice":2,"state_2_rt":906.8999999994412,"outcome":0,"rocket_colors":["#a75248","#486ea7"],"planet_colors":["#5b7c65","#706081"],"screen_resolution":[1300,731],"minimum_resolution":1,"trial":134,"drifts":[0.485,0.381,0.329,0.268],"drift_ix":1,"trial_type":"two-step-trial","trial_index":171,"time_elapsed":901702,"internal_node_id":"0.0-148.0-0.0","task_version":"1.0","jspsych_version":"6.3.1","browser_interactions":0,"missing":false},{"state_1_ids":[0,1],"state_1_key":1,"state_1_choice":1,"state_1_rt":253.29999999981374,"transition":1,"state":1,"state_2_ids":[2,3],"state_2_key":1,"state_2_choice":3,"state_2_rt":1148.0999999996275,"outcome":0,"rocket_colors":["#a75248","#486ea7"],"planet_colors":["#5b7c65","#706081"],"screen_resolution":[1300,731],"minimum_resolution":1,"trial":135,"drifts":[0.476,0.33,0.348,0.266],"drift_ix":1,"trial_type":"two-step-trial","trial_index":172,"time_elapsed":905116,"internal_node_id":"0.0-149.0-0.0","task_version":"1.0","jspsych_version":"6.3.1","browser_interactions":0,"missing":false},{"state_1_ids":[1,0],"state_1_key":1,"state_1_choice":0,"state_1_rt":294,"transition":1,"state":0,"state_2_ids":[0,1],"state_2_key":1,"state_2_choice":1,"state_2_rt":688,"outcome":0,"rocket_colors":["#a75248","#486ea7"],"planet_colors":["#5b7c65","#706081"],"screen_resolution":[1300,731],"minimum_resolution":1,"trial":136,"drifts":[0.408,0.356,0.348,0.276],"drift_ix":1,"trial_type":"two-step-trial","trial_index":173,"time_elapsed":908112,"internal_node_id":"0.0-150.0-0.0","task_version":"1.0","jspsych_version":"6.3.1","browser_interactions":0,"missing":false},{"state_1_ids":[0,1],"state_1_key":1,"state_1_choice":1,"state_1_rt":231.5,"transition":1,"state":1,"state_2_ids":[2,3],"state_2_key":0,"state_2_choice":2,"state_2_rt":866.0999999996275,"outcome":1,"rocket_colors":["#a75248","#486ea7"],"planet_colors":["#5b7c65","#706081"],"screen_resolution":[1300,731],"minimum_resolution":1,"trial":137,"drifts":[0.444,0.402,0.328,0.271],"drift_ix":1,"trial_type":"two-step-trial","trial_index":174,"time_elapsed":911225,"internal_node_id":"0.0-151.0-0.0","task_version":"1.0","jspsych_version":"6.3.1","browser_interactions":0,"missing":false},{"state_1_ids":[0,1],"state_1_key":1,"state_1_choice":1,"state_1_rt":319.59999999962747,"transition":0,"state":0,"state_2_ids":[0,1],"state_2_key":1,"state_2_choice":1,"state_2_rt":890.0999999996275,"outcome":1,"rocket_colors":["#a75248","#486ea7"],"planet_colors":["#5b7c65","#706081"],"screen_resolution":[1300,731],"minimum_resolution":1,"trial":138,"drifts":[0.443,0.378,0.381,0.256],"drift_ix":1,"trial_type":"two-step-trial","trial_index":175,"time_elapsed":914450,"internal_node_id":"0.0-152.0-0.0","task_version":"1.0","jspsych_version":"6.3.1","browser_interactions":0,"missing":false},{"state_1_ids":[0,1],"state_1_key":1,"state_1_choice":1,"state_1_rt":553,"transition":1,"state":1,"state_2_ids":[2,3],"state_2_key":0,"state_2_choice":2,"state_2_rt":1046.2000000001863,"outcome":1,"rocket_colors":["#a75248","#486ea7"],"planet_colors":["#5b7c65","#706081"],"screen_resolution":[1300,731],"minimum_resolution":1,"trial":139,"drifts":[0.465,0.376,0.423,0.302],"drift_ix":1,"trial_type":"two-step-trial","trial_index":176,"time_elapsed":918064,"internal_node_id":"0.0-153.0-0.0","task_version":"1.0","jspsych_version":"6.3.1","browser_interactions":0,"missing":false},{"state_1_ids":[0,1],"state_1_key":0,"state_1_choice":0,"state_1_rt":570.9000000003725,"transition":1,"state":0,"state_2_ids":[0,1],"state_2_key":1,"state_2_choice":1,"state_2_rt":1050.9000000003725,"outcome":1,"rocket_colors":["#a75248","#486ea7"],"planet_colors":["#5b7c65","#706081"],"screen_resolution":[1300,731],"minimum_resolution":1,"trial":140,"drifts":[0.503,0.356,0.419,0.307],"drift_ix":1,"trial_type":"two-step-trial","trial_index":177,"time_elapsed":921698,"internal_node_id":"0.0-154.0-0.0","task_version":"1.0","jspsych_version":"6.3.1","browser_interactions":0,"missing":false},{"state_1_ids":[1,0],"state_1_key":0,"state_1_choice":1,"state_1_rt":320.59999999962747,"transition":1,"state":1,"state_2_ids":[2,3],"state_2_key":0,"state_2_choice":2,"state_2_rt":534.1999999992549,"outcome":1,"rocket_colors":["#a75248","#486ea7"],"planet_colors":["#5b7c65","#706081"],"screen_resolution":[1300,731],"minimum_resolution":1,"trial":141,"drifts":[0.498,0.362,0.406,0.333],"drift_ix":1,"trial_type":"two-step-trial","trial_index":178,"time_elapsed":924566,"internal_node_id":"0.0-155.0-0.0","task_version":"1.0","jspsych_version":"6.3.1","browser_interactions":0,"missing":false},{"state_1_ids":[0,1],"state_1_key":0,"state_1_choice":0,"state_1_rt":314,"transition":1,"state":0,"state_2_ids":[0,1],"state_2_key":1,"state_2_choice":1,"state_2_rt":722.4000000003725,"outcome":1,"rocket_colors":["#a75248","#486ea7"],"planet_colors":["#5b7c65","#706081"],"screen_resolution":[1300,731],"minimum_resolution":1,"trial":142,"drifts":[0.462,0.376,0.412,0.337],"drift_ix":1,"trial_type":"two-step-trial","trial_index":179,"time_elapsed":927616,"internal_node_id":"0.0-156.0-0.0","task_version":"1.0","jspsych_version":"6.3.1","browser_interactions":0,"missing":false},{"state_1_ids":[1,0],"state_1_key":0,"state_1_choice":1,"state_1_rt":314.19999999925494,"transition":1,"state":1,"state_2_ids":[2,3],"state_2_key":0,"state_2_choice":2,"state_2_rt":566.400