[{"success":true,"timeout":false,"failed_images":[],"failed_audio":[],"failed_video":[],"trial_type":"preload","trial_index":0,"time_elapsed":2240,"internal_node_id":"0.0-0.0","task_version":"1.0","jspsych_version":"6.3.1"},{"success":true,"trial_type":"fullscreen","trial_index":1,"time_elapsed":23017,"internal_node_id":"0.0-1.0","task_version":"1.0","jspsych_version":"6.3.1"},{"view_history":[{"page_index":0,"viewing_time":14196}],"rt":14199,"trial_type":"instructions","trial_index":2,"time_elapsed":37222,"internal_node_id":"0.0-2.0","task_version":"1.0","jspsych_version":"6.3.1"},{"responses":{"Q06":"5","Q04":"6","Q05":"5","Q07":"3","Q03":"5","Q02":"4","Q01":"6"},"rt":22594,"item_order":[5,3,4,6,2,1,0],"radio_events":[6592,9258,10462,11619,13257,14171,15399,16456,18201,21650],"key_events":[],"mouse_events":[0,6592,9258,10462,11619,13257,14171,15399,16456,18201,18738,21650,22591],"straightlining":0.42857142857142855,"zigzagging":0,"honeypot":0,"survey":"artistic","trial_type":"survey-template","trial_index":3,"time_elapsed":59837,"internal_node_id":"0.0-3.0","task_version":"1.0","jspsych_version":"6.3.1"},{"responses":{"Q05":"5","Q02":"6","Q06":"5","Q04":"5","Q01":"4","Q03":"5","Q07":"6"},"rt":11573,"item_order":[4,1,5,3,0,2,6],"radio_events":[3353,4394,5351,7065,8050,8914,9580,10865],"key_events":[],"mouse_events":[3353,4394,5351,5860,7065,8050,8914,9580,10865,11570],"straightlining":0.5714285714285714,"zigzagging":0.8333333333333334,"honeypot":0,"survey":"greed","trial_type":"survey-template","trial_index":4,"time_elapsed":71427,"internal_node_id":"0.0-4.0","task_version":"1.0","jspsych_version":"6.3.1"},{"responses":{"Q04":"1","Q08":"2","Q06":"1","Q05":"0","Q02":"0","Q07":"1","Q03":"0","Q01":"1"},"rt":12610,"item_order":[3,7,5,4,1,6,2,0],"radio_events":[4055,4755,5590,6285,7733,9028,10795,11600],"key_events":[],"mouse_events":[3079,4055,4755,5590,6285,6821,7733,8271,9028,10795,11600,12606],"straightlining":0.5,"zigzagging":0.8571428571428571,"honeypot":0,"survey":"mania","trial_type":"survey-template","trial_index":5,"time_elapsed":84045,"internal_node_id":"0.0-5.0","task_version":"1.0","jspsych_version":"6.3.1"},{"responses":{"Q05":"1","Q08":"0","Q06":"1","Q03":"1","Q02":"0","Q07":"0","Q01":"0","Q04":"1"},"rt":15200,"item_order":[4,7,5,2,1,6,0,3],"radio_events":[2133,3074,3991,5131,5586,7306,9038,10453,12018,13024,13988],"key_events":[],"mouse_events":[2133,3074,3991,5131,5586,6431,7306,9038,9455,10453,10765,12018,12395,13024,13988,15198],"straightlining":0.5,"zigzagging":0.5714285714285714,"honeypot":0,"survey":"anxiety","trial_type":"survey-template","trial_index":6,"time_elapsed":99253,"internal_node_id":"0.0-6.0","task_version":"1.0","jspsych_version":"6.3.1"},{"responses":{"Q07":"1","Q06":"0","Q04":"1","Q01":"1","Q05":"0","Q08":"1","Q02":"1","Q03":"1"},"rt":12993,"item_order":[6,5,3,0,4,7,1,2],"radio_events":[2269,4314,4832,5855,6632,6967,8688,10970,12096],"key_events":[],"mouse_events":[2269,2854,3264,4314,4832,5855,6632,6967,7424,8688,9297,10970,12096,12991],"straightlining":0.75,"zigzagging":0.5714285714285714,"honeypot":0,"survey":"depression","trial_type":"survey-template","trial_index":7,"time_elapsed":112256,"internal_node_id":"0.0-7.0","task_version":"1.0","jspsych_version":"6.3.1"},{"view_history":"[{\"page_index\":0,\"viewing_time\":134393},{\"page_index\":1,\"viewing_time\":3838},{\"page_index\":2,\"viewing_time\":14126},{\"page_index\":3,\"viewing_time\":6332},{\"page_index\":4,\"viewing_time\":6890},{\"page_index\":5,\"viewing_time\":5833},{\"page_index\":6,\"viewing_time\":5526},{\"page_index\":7,\"viewing_time\":8378},{\"page_index\":8,\"viewing_time\":12337},{\"page_index\":9,\"viewing_time\":7260},{\"page_index\":10,\"viewing_time\":5470}]","rt":210386,"trial_type":"two-step-instructions","trial_index":8,"time_elapsed":322658,"internal_node_id":"0.0-8.0-1.0","task_version":"1.0","jspsych_version":"6.3.1"},{"responses":["left/right arrow keys","True","True"],"num_errors":0,"rt":41918,"quiz":1,"trial_type":"two-step-comprehension","trial_index":9,"time_elapsed":364582,"internal_node_id":"0.0-8.0-2.0","task_version":"1.0","jspsych_version":"6.3.1"},{"view_history":"[{\"page_index\":0,\"viewing_time\":7117}]","rt":7118,"phase":"instructions_1b","trial_type":"two-step-instructions","trial_index":10,"time_elapsed":371706,"internal_node_id":"0.0-9.0-0.0-0.0","task_version":"1.0","jspsych_version":"6.3.1"},{"state_2_ids":[0,1],"state_2_key":1,"state_2_choice":1,"state_2_rt":1715,"outcome":1,"screen_resolution":[1366,768],"minimum_resolution":1,"trial_type":"alien-practice","trial_index":11,"time_elapsed":375630,"internal_node_id":"0.0-9.0-1.0-0.0","task_version":"1.0","jspsych_version":"6.3.1"},{"state_2_ids":[0,1],"state_2_key":0,"state_2_choice":0,"state_2_rt":4232,"outcome":1,"screen_resolution":[1366,768],"minimum_resolution":1,"trial_type":"alien-practice","trial_index":12,"time_elapsed":382071,"internal_node_id":"0.0-9.0-2.0-0.0","task_version":"1.0","jspsych_version":"6.3.1"},{"state_2_ids":[0,1],"state_2_key":1,"state_2_choice":1,"state_2_rt":1209,"outcome":1,"screen_resolution":[1366,768],"minimum_resolution":1,"trial_type":"alien-practice","trial_index":13,"time_elapsed":385489,"internal_node_id":"0.0-9.0-3.0-0.0","task_version":"1.0","jspsych_version":"6.3.1"},{"state_2_ids":[0,1],"state_2_key":0,"state_2_choice":0,"state_2_rt":642,"outcome":0,"screen_resolution":[1366,768],"minimum_resolution":1,"trial_type":"alien-practice","trial_index":14,"time_elapsed":388338,"internal_node_id":"0.0-9.0-4.0-0.0","task_version":"1.0","jspsych_version":"6.3.1"},{"state_2_ids":[0,1],"state_2_key":0,"state_2_choice":0,"state_2_rt":551,"outcome":0,"screen_resolution":[1366,768],"minimum_resolution":1,"trial_type":"alien-practice","trial_index":15,"time_elapsed":391147,"internal_node_id":"0.0-9.0-5.0-0.0","task_version":"1.0","jspsych_version":"6.3.1"},{"state_2_ids":[0,1],"state_2_key":1,"state_2_choice":1,"state_2_rt":577,"outcome":1,"screen_resolution":[1366,768],"minimum_resolution":1,"trial_type":"alien-practice","trial_index":16,"time_elapsed":393930,"internal_node_id":"0.0-9.0-6.0-0.0","task_version":"1.0","jspsych_version":"6.3.1"},{"state_2_ids":[0,1],"state_2_key":1,"state_2_choice":1,"state_2_rt":1069,"outcome":1,"screen_resolution":[1366,768],"minimum_resolution":1,"trial_type":"alien-practice","trial_index":17,"time_elapsed":397211,"internal_node_id":"0.0-9.0-7.0-0.0","task_version":"1.0","jspsych_version":"6.3.1"},{"state_2_ids":[0,1],"state_2_key":0,"state_2_choice":0,"state_2_rt":815,"outcome":0,"screen_resolution":[1366,768],"minimum_resolution":1,"trial_type":"alien-practice","trial_index":18,"time_elapsed":400231,"internal_node_id":"0.0-9.0-8.0-0.0","task_version":"1.0","jspsych_version":"6.3.1"},{"state_2_ids":[0,1],"state_2_key":1,"state_2_choice":1,"state_2_rt":924,"outcome":1,"screen_resolution":[1366,768],"minimum_resolution":1,"trial_type":"alien-practice","trial_index":19,"time_elapsed":403363,"internal_node_id":"0.0-9.0-9.0-0.0","task_version":"1.0","jspsych_version":"6.3.1"},{"state_2_ids":[0,1],"state_2_key":1,"state_2_choice":1,"state_2_rt":662,"outcome":1,"screen_resolution":[1366,768],"minimum_resolution":1,"trial_type":"alien-practice","trial_index":20,"time_elapsed":406230,"internal_node_id":"0.0-9.0-10.0-0.0","task_version":"1.0","jspsych_version":"6.3.1"},{"view_history":"[{\"page_index\":0,\"viewing_time\":5284},{\"page_index\":1,\"viewing_time\":3629}]","rt":8914,"trial_type":"two-step-instructions","trial_index":21,"time_elapsed":415149,"internal_node_id":"0.0-9.0-11.0-0.0","task_version":"1.0","jspsych_version":"6.3.1"},{"state_2_ids":[0,1],"state_2_key":1,"state_2_choice":1,"state_2_rt":1300,"outcome":1,"screen_resolution":[1366,768],"minimum_resolution":1,"trial_type":"alien-practice","trial_index":22,"time_elapsed":418655,"internal_node_id":"0.0-9.1-1.1-0.1","task_version":"1.0","jspsych_version":"6.3.1"},{"state_2_ids":[0,1],"state_2_key":1,"state_2_choice":1,"state_2_rt":705,"outcome":0,"screen_resolution":[1366,768],"minimum_resolution":1,"trial_type":"alien-practice","trial_index":23,"time_elapsed":421567,"internal_node_id":"0.0-9.1-2.1-0.1","task_version":"1.0","jspsych_version":"6.3.1"},{"state_2_ids":[0,1],"state_2_key":0,"state_2_choice":0,"state_2_rt":592,"outcome":0,"screen_resolution":[1366,768],"minimum_resolution":1,"trial_type":"alien-practice","trial_index":24,"time_elapsed":424364,"internal_node_id":"0.0-9.1-3.1-0.1","task_version":"1.0","jspsych_version":"6.3.1"},{"state_2_ids":[0,1],"state_2_key":1,"state_2_choice":1,"state_2_rt":510,"outcome":1,"screen_resolution":[1366,768],"minimum_resolution":1,"trial_type":"alien-practice","trial_index":25,"time_elapsed":427083,"internal_node_id":"0.0-9.1-4.1-0.1","task_version":"1.0","jspsych_version":"6.3.1"},{"state_2_ids":[0,1],"state_2_key":1,"state_2_choice":1,"state_2_rt":596,"outcome":1,"screen_resolution":[1366,768],"minimum_resolution":1,"trial_type":"alien-practice","trial_index":26,"time_elapsed":429891,"internal_node_id":"0.0-9.1-5.1-0.1","task_version":"1.0","jspsych_version":"6.3.1"},{"state_2_ids":[0,1],"state_2_key":0,"state_2_choice":0,"state_2_rt":665,"outcome":0,"screen_resolution":[1366,768],"minimum_resolution":1,"trial_type":"alien-practice","trial_index":27,"time_elapsed":432765,"internal_node_id":"0.0-9.1-6.1-0.1","task_version":"1.0","jspsych_version":"6.3.1"},{"state_2_ids":[0,1],"state_2_key":0,"state_2_choice":0,"state_2_rt":533,"outcome":1,"screen_resolution":[1366,768],"minimum_resolution":1,"trial_type":"alien-practice","trial_index":28,"time_elapsed":435510,"internal_node_id":"0.0-9.1-7.1-0.1","task_version":"1.0","jspsych_version":"6.3.1"},{"state_2_ids":[0,1],"state_2_key":1,"state_2_choice":1,"state_2_rt":604,"outcome":0,"screen_resolution":[1366,768],"minimum_resolution":1,"trial_type":"alien-practice","trial_index":29,"time_elapsed":438325,"internal_node_id":"0.0-9.1-8.1-0.1","task_version":"1.0","jspsych_version":"6.3.1"},{"state_2_ids":[0,1],"state_2_key":0,"state_2_choice":0,"state_2_rt":838,"outcome":0,"screen_resolution":[1366,768],"minimum_resolution":1,"trial_type":"alien-practice","trial_index":30,"time_elapsed":441369,"internal_node_id":"0.0-9.1-9.1-0.1","task_version":"1.0","jspsych_version":"6.3.1"},{"state_2_ids":[0,1],"state_2_key":1,"state_2_choice":1,"state_2_rt":430,"outcome":1,"screen_resolution":[1366,768],"minimum_resolution":1,"trial_type":"alien-practice","trial_index":31,"time_elapsed":444006,"internal_node_id":"0.0-9.1-10.1-0.1","task_version":"1.0","jspsych_version":"6.3.1"},{"view_history":"[{\"page_index\":0,\"viewing_time\":3215},{\"page_index\":1,\"viewing_time\":1400}]","rt":4615,"trial_type":"two-step-instructions","trial_index":32,"time_elapsed":448625,"internal_node_id":"0.0-9.1-11.1-0.1","task_version":"1.0","jspsych_version":"6.3.1"},{"state_2_ids":[0,1],"state_2_key":1,"state_2_choice":1,"state_2_rt":1281,"outcome":1,"screen_resolution":[1366,768],"minimum_resolution":1,"trial_type":"alien-practice","trial_index":33,"time_elapsed":452112,"internal_node_id":"0.0-9.2-1.2-0.2","task_version":"1.0","jspsych_version":"6.3.1"},{"state_2_ids":[0,1],"state_2_key":1,"state_2_choice":1,"state_2_rt":746,"outcome":0,"screen_resolution":[1366,768],"minimum_resolution":1,"trial_type":"alien-practice","trial_index":34,"time_elapsed":455066,"internal_node_id":"0.0-9.2-2.2-0.2","task_version":"1.0","jspsych_version":"6.3.1"},{"state_2_ids":[0,1],"state_2_key":0,"state_2_choice":0,"state_2_rt":624,"outcome":0,"screen_resolution":[1366,768],"minimum_resolution":1,"trial_type":"alien-practice","trial_index":35,"time_elapsed":457896,"internal_node_id":"0.0-9.2-3.2-0.2","task_version":"1.0","jspsych_version":"6.3.1"},{"state_2_ids":[0,1],"state_2_key":1,"state_2_choice":1,"state_2_rt":758,"outcome":1,"screen_resolution":[1366,768],"minimum_resolution":1,"trial_type":"alien-practice","trial_index":36,"time_elapsed":460860,"internal_node_id":"0.0-9.2-4.2-0.2","task_version":"1.0","jspsych_version":"6.3.1"},{"state_2_ids":[0,1],"state_2_key":1,"state_2_choice":1,"state_2_rt":800,"outcome":1,"screen_resolution":[1366,768],"minimum_resolution":1,"trial_type":"alien-practice","trial_index":37,"time_elapsed":463870,"internal_node_id":"0.0-9.2-5.2-0.2","task_version":"1.0","jspsych_version":"6.3.1"},{"state_2_ids":[0,1],"state_2_key":0,"state_2_choice":0,"state_2_rt":3518,"outcome":0,"screen_resolution":[1366,768],"minimum_resolution":1,"trial_type":"alien-practice","trial_index":38,"time_elapsed":469594,"internal_node_id":"0.0-9.2-6.2-0.2","task_version":"1.0","jspsych_version":"6.3.1"},{"state_2_ids":[0,1],"state_2_key":1,"state_2_choice":1,"state_2_rt":4669,"outcome":1,"screen_resolution":[1366,768],"minimum_resolution":1,"trial_type":"alien-practice","trial_index":39,"time_elapsed":476471,"internal_node_id":"0.0-9.2-7.2-0.2","task_version":"1.0","jspsych_version":"6.3.1"},{"state_2_ids":[0,1],"state_2_key":null,"state_2_choice":null,"state_2_rt":null,"outcome":null,"screen_resolution":[1366,768],"minimum_resolution":1,"trial_type":"alien-practice","trial_index":40,"time_elapsed":492483,"internal_node_id":"0.0-9.2-8.2-0.2","task_version":"1.0","jspsych_version":"6.3.1"},{"state_2_ids":[0,1],"state_2_key":1,"state_2_choice":1,"state_2_rt":1351,"outcome":1,"screen_resolution":[1366,768],"minimum_resolution":1,"trial_type":"alien-practice","trial_index":41,"time_elapsed":496043,"internal_node_id":"0.0-9.2-9.2-0.2","task_version":"1.0","jspsych_version":"6.3.1"},{"state_2_ids":[0,1],"state_2_key":0,"state_2_choice":0,"state_2_rt":658,"outcome":0,"screen_resolution":[1366,768],"minimum_resolution":1,"trial_type":"alien-practice","trial_index":42,"time_elapsed":498908,"internal_node_id":"0.0-9.2-10.2-0.2","task_version":"1.0","jspsych_version":"6.3.1"},{"view_history":"[{\"page_index\":0,\"viewing_time\":1408},{\"page_index\":1,\"viewing_time\":8412}]","rt":9822,"trial_type":"two-step-instructions","trial_index":43,"time_elapsed":508733,"internal_node_id":"0.0-9.2-11.2-0.2","task_version":"1.0","jspsych_version":"6.3.1"},{"state_2_ids":[0,1],"state_2_key":0,"state_2_choice":0,"state_2_rt":1415,"outcome":0,"screen_resolution":[1366,768],"minimum_resolution":1,"trial_type":"alien-practice","trial_index":44,"time_elapsed":512356,"internal_node_id":"0.0-9.3-1.3-0.3","task_version":"1.0","jspsych_version":"6.3.1"},{"state_2_ids":[0,1],"state_2_key":1,"state_2_choice":1,"state_2_rt":1611,"outcome":0,"screen_resolution":[1366,768],"minimum_resolution":1,"trial_type":"alien-practice","trial_index":45,"time_elapsed":516173,"internal_node_id":"0.0-9.3-2.3-0.3","task_version":"1.0","jspsych_version":"6.3.1"},{"state_2_ids":[0,1],"state_2_key":1,"state_2_choice":1,"state_2_rt":644,"outcome":1,"screen_resolution":[1366,768],"minimum_resolution":1,"trial_type":"alien-practice","trial_index":46,"time_elapsed":519021,"internal_node_id":"0.0-9.3-3.3-0.3","task_version":"1.0","jspsych_version":"6.3.1"},{"state_2_ids":[0,1],"state_2_key":0,"state_2_choice":0,"state_2_rt":834,"outcome":0,"screen_resolution":[1366,768],"minimum_resolution":1,"trial_type":"alien-practice","trial_index":47,"time_elapsed":522093,"internal_node_id":"0.0-9.3-4.3-0.3","task_version":"1.0","jspsych_version":"6.3.1"},{"state_2_ids":[0,1],"state_2_key":1,"state_2_choice":1,"state_2_rt":541,"outcome":1,"screen_resolution":[1366,768],"minimum_resolution":1,"trial_type":"alien-practice","trial_index":48,"time_elapsed":524841,"internal_node_id":"0.0-9.3-5.3-0.3","task_version":"1.0","jspsych_version":"6.3.1"},{"state_2_ids":[0,1],"state_2_key":0,"state_2_choice":0,"state_2_rt":729,"outcome":0,"screen_resolution":[1366,768],"minimum_resolution":1,"trial_type":"alien-practice","trial_index":49,"time_elapsed":527774,"internal_node_id":"0.0-9.3-6.3-0.3","task_version":"1.0","jspsych_version":"6.3.1"},{"state_2_ids":[0,1],"state_2_key":1,"state_2_choice":1,"state_2_rt":557,"outcome":1,"screen_resolution":[1366,768],"minimum_resolution":1,"trial_type":"alien-practice","trial_index":50,"time_elapsed":530538,"internal_node_id":"0.0-9.3-7.3-0.3","task_version":"1.0","jspsych_version":"6.3.1"},{"state_2_ids":[0,1],"state_2_key":0,"state_2_choice":0,"state_2_rt":1080,"outcome":0,"screen_resolution":[1366,768],"minimum_resolution":1,"trial_type":"alien-practice","trial_index":51,"time_elapsed":533825,"internal_node_id":"0.0-9.3-8.3-0.3","task_version":"1.0","jspsych_version":"6.3.1"},{"state_2_ids":[0,1],"state_2_key":1,"state_2_choice":1,"state_2_rt":454,"outcome":1,"screen_resolution":[1366,768],"minimum_resolution":1,"trial_type":"alien-practice","trial_index":52,"time_elapsed":536534,"internal_node_id":"0.0-9.3-9.3-0.3","task_version":"1.0","jspsych_version":"6.3.1"},{"state_2_ids":[0,1],"state_2_key":0,"state_2_choice":0,"state_2_rt":758,"outcome":0,"screen_resolution":[1366,768],"minimum_resolution":1,"trial_type":"alien-practice","trial_index":53,"time_elapsed":539582,"internal_node_id":"0.0-9.3-10.3-0.3","task_version":"1.0","jspsych_version":"6.3.1"},{"view_history":"[{\"page_index\":0,\"viewing_time\":2044},{\"page_index\":1,\"viewing_time\":1557}]","rt":3605,"trial_type":"two-step-instructions","trial_index":54,"time_elapsed":543189,"internal_node_id":"0.0-9.3-11.3-0.3","task_version":"1.0","jspsych_version":"6.3.1"},{"state_2_ids":[0,1],"state_2_key":1,"state_2_choice":1,"state_2_rt":866,"outcome":1,"screen_resolution":[1366,768],"minimum_resolution":1,"trial_type":"alien-practice","trial_index":55,"time_elapsed":546259,"internal_node_id":"0.0-9.4-1.4-0.4","task_version":"1.0","jspsych_version":"6.3.1"},{"state_2_ids":[0,1],"state_2_key":1,"state_2_choice":1,"state_2_rt":624,"outcome":0,"screen_resolution":[1366,768],"minimum_resolution":1,"trial_type":"alien-practice","trial_index":56,"time_elapsed":549091,"internal_node_id":"0.0-9.4-2.4-0.4","task_version":"1.0","jspsych_version":"6.3.1"},{"state_2_ids":[0,1],"state_2_key":0,"state_2_choice":0,"state_2_rt":696,"outcome":0,"screen_resolution":[1366,768],"minimum_resolution":1,"trial_type":"alien-practice","trial_index":57,"time_elapsed":552117,"internal_node_id":"0.0-9.4-3.4-0.4","task_version":"1.0","jspsych_version":"6.3.1"},{"state_2_ids":[0,1],"state_2_key":1,"state_2_choice":1,"state_2_rt":924,"outcome":1,"screen_resolution":[1366,768],"minimum_resolution":1,"trial_type":"alien-practice","trial_index":58,"time_elapsed":555260,"internal_node_id":"0.0-9.4-4.4-0.4","task_version":"1.0","jspsych_version":"6.3.1"},{"state_2_ids":[0,1],"state_2_key":1,"state_2_choice":1,"state_2_rt":1012,"outcome":1,"screen_resolution":[1366,768],"minimum_resolution":1,"trial_type":"alien-practice","trial_index":59,"time_elapsed":558478,"internal_node_id":"0.0-9.4-5.4-0.4","task_version":"1.0","jspsych_version":"6.3.1"},{"state_2_ids":[0,1],"state_2_key":0,"state_2_choice":0,"state_2_rt":1486,"outcome":0,"screen_resolution":[1366,768],"minimum_resolution":1,"trial_type":"alien-practice","trial_index":60,"time_elapsed":562169,"internal_node_id":"0.0-9.4-6.4-0.4","task_version":"1.0","jspsych_version":"6.3.1"},{"state_2_ids":[0,1],"state_2_key":1,"state_2_choice":1,"state_2_rt":346,"outcome":1,"screen_resolution":[1366,768],"minimum_resolution":1,"trial_type":"alien-practice","trial_index":61,"time_elapsed":564727,"internal_node_id":"0.0-9.4-7.4-0.4","task_version":"1.0","jspsych_version":"6.3.1"},{"state_2_ids":[0,1],"state_2_key":1,"state_2_choice":1,"state_2_rt":1482,"outcome":0,"screen_resolution":[1366,768],"minimum_resolution":1,"trial_type":"alien-practice","trial_index":62,"time_elapsed":568414,"internal_node_id":"0.0-9.4-8.4-0.4","task_version":"1.0","jspsych_version":"6.3.1"},{"state_2_ids":[0,1],"state_2_key":0,"state_2_choice":0,"state_2_rt":559,"outcome":0,"screen_resolution":[1366,768],"minimum_resolution":1,"trial_type":"alien-practice","trial_index":63,"time_elapsed":571177,"internal_node_id":"0.0-9.4-9.4-0.4","task_version":"1.0","jspsych_version":"6.3.1"},{"state_2_ids":[0,1],"state_2_key":1,"state_2_choice":1,"state_2_rt":543,"outcome":1,"screen_resolution":[1366,768],"minimum_resolution":1,"trial_type":"alien-practice","trial_index":64,"time_elapsed":573938,"internal_node_id":"0.0-9.4-10.4-0.4","task_version":"1.0","jspsych_version":"6.3.1"},{"view_history":"[{\"page_index\":0,\"viewing_time\":2140},{\"page_index\":1,\"viewing_time\":5606}]","rt":7747,"trial_type":"two-step-instructions","trial_index":65,"time_elapsed":581690,"internal_node_id":"0.0-9.4-11.4-0.4","task_version":"1.0","jspsych_version":"6.3.1"},{"state_2_ids":[0,1],"state_2_key":1,"state_2_choice":1,"state_2_rt":680,"outcome":1,"screen_resolution":[1366,768],"minimum_resolution":1,"trial_type":"alien-practice","trial_index":66,"time_elapsed":584582,"internal_node_id":"0.0-9.5-1.5-0.5","task_version":"1.0","jspsych_version":"6.3.1"},{"state_2_ids":[0,1],"state_2_key":1,"state_2_choice":1,"state_2_rt":864,"outcome":0,"screen_resolution":[1366,768],"minimum_resolution":1,"trial_type":"alien-practice","trial_index":67,"time_elapsed":587650,"internal_node_id":"0.0-9.5-2.5-0.5","task_version":"1.0","jspsych_version":"6.3.1"},{"state_2_ids":[0,1],"state_2_key":0,"state_2_choice":0,"state_2_rt":667,"outcome":0,"screen_resolution":[1366,768],"minimum_resolution":1,"trial_type":"alien-practice","trial_index":68,"time_elapsed":590522,"internal_node_id":"0.0-9.5-3.5-0.5","task_version":"1.0","jspsych_version":"6.3.1"},{"state_2_ids":[0,1],"state_2_key":1,"state_2_choice":1,"state_2_rt":546,"outcome":1,"screen_resolution":[1366,768],"minimum_resolution":1,"trial_type":"alien-practice","trial_index":69,"time_elapsed":593276,"internal_node_id":"0.0-9.5-4.5-0.5","task_version":"1.0","jspsych_version":"6.3.1"},{"state_2_ids":[0,1],"state_2_key":1,"state_2_choice":1,"state_2_rt":858,"outcome":1,"screen_resolution":[1366,768],"minimum_resolution":1,"trial_type":"alien-practice","trial_index":70,"time_elapsed":596341,"internal_node_id":"0.0-9.5-5.5-0.5","task_version":"1.0","jspsych_version":"6.3.1"},{"state_2_ids":[0,1],"state_2_key":0,"state_2_choice":0,"state_2_rt":599,"outcome":0,"screen_resolution":[1366,768],"minimum_resolution":1,"trial_type":"alien-practice","trial_index":71,"time_elapsed":599146,"internal_node_id":"0.0-9.5-6.5-0.5","task_version":"1.0","jspsych_version":"6.3.1"},{"state_2_ids":[0,1],"state_2_key":1,"state_2_choice":1,"state_2_rt":540,"outcome":1,"screen_resolution":[1366,768],"minimum_resolution":1,"trial_type":"alien-practice","trial_index":72,"time_elapsed":601890,"internal_node_id":"0.0-9.5-7.5-0.5","task_version":"1.0","jspsych_version":"6.3.1"},{"state_2_ids":[0,1],"state_2_key":1,"state_2_choice":1,"state_2_rt":581,"outcome":0,"screen_resolution":[1366,768],"minimum_resolution":1,"trial_type":"alien-practice","trial_index":73,"time_elapsed":604675,"internal_node_id":"0.0-9.5-8.5-0.5","task_version":"1.0","jspsych_version":"6.3.1"},{"state_2_ids":[0,1],"state_2_key":0,"state_2_choice":0,"state_2_rt":566,"outcome":0,"screen_resolution":[1366,768],"minimum_resolution":1,"trial_type":"alien-practice","trial_index":74,"time_elapsed":607448,"internal_node_id":"0.0-9.5-9.5-0.5","task_version":"1.0","jspsych_version":"6.3.1"},{"state_2_ids":[0,1],"state_2_key":1,"state_2_choice":1,"state_2_rt":467,"outcome":1,"screen_resolution":[1366,768],"minimum_resolution":1,"trial_type":"alien-practice","trial_index":75,"time_elapsed":610126,"internal_node_id":"0.0-9.5-10.5-0.5","task_version":"1.0","jspsych_version":"6.3.1"},{"view_history":"[{\"page_index\":0,\"viewing_time\":4035},{\"page_index\":1,\"viewing_time\":6875}]","rt":10911,"trial_type":"two-step-instructions","trial_index":76,"time_elapsed":621041,"internal_node_id":"0.0-9.5-11.5-0.5","task_version":"1.0","jspsych_version":"6.3.1"},{"state_2_ids":[0,1],"state_2_key":1,"state_2_choice":1,"state_2_rt":740,"outcome":1,"screen_resolution":[1366,768],"minimum_resolution":1,"trial_type":"alien-practice","trial_index":77,"time_elapsed":623986,"internal_node_id":"0.0-9.6-1.6-0.6","task_version":"1.0","jspsych_version":"6.3.1"},{"state_2_ids":[0,1],"state_2_key":1,"state_2_choice":1,"state_2_rt":795,"outcome":0,"screen_resolution":[1366,768],"minimum_resolution":1,"trial_type":"alien-practice","trial_index":78,"time_elapsed":626995,"internal_node_id":"0.0-9.6-2.6-0.6","task_version":"1.0","jspsych_version":"6.3.1"},{"state_2_ids":[0,1],"state_2_key":0,"state_2_choice":0,"state_2_rt":631,"outcome":0,"screen_resolution":[1366,768],"minimum_resolution":1,"trial_type":"alien-practice","trial_index":79,"time_elapsed":629829,"internal_node_id":"0.0-9.6-3.6-0.6","task_version":"1.0","jspsych_version":"6.3.1"},{"state_2_ids":[0,1],"state_2_key":1,"state_2_choice":1,"state_2_rt":501,"outcome":1,"screen_resolution":[1366,768],"minimum_resolution":1,"trial_type":"alien-practice","trial_index":80,"time_elapsed":632535,"internal_node_id":"0.0-9.6-4.6-0.6","task_version":"1.0","jspsych_version":"6.3.1"},{"state_2_ids":[0,1],"state_2_key":1,"state_2_choice":1,"state_2_rt":526,"outcome":1,"screen_resolution":[1366,768],"minimum_resolution":1,"trial_type":"alien-practice","trial_index":81,"time_elapsed":635268,"internal_node_id":"0.0-9.6-5.6-0.6","task_version":"1.0","jspsych_version":"6.3.1"},{"state_2_ids":[0,1],"state_2_key":0,"state_2_choice":0,"state_2_rt":595,"outcome":0,"screen_resolution":[1366,768],"minimum_resolution":1,"trial_type":"alien-practice","trial_index":82,"time_elapsed":638089,"internal_node_id":"0.0-9.6-6.6-0.6","task_version":"1.0","jspsych_version":"6.3.1"},{"state_2_ids":[0,1],"state_2_key":0,"state_2_choice":0,"state_2_rt":567,"outcome":1,"screen_resolution":[1366,768],"minimum_resolution":1,"trial_type":"alien-practice","trial_index":83,"time_elapsed":640860,"internal_node_id":"0.0-9.6-7.6-0.6","task_version":"1.0","jspsych_version":"6.3.1"},{"state_2_ids":[0,1],"state_2_key":1,"state_2_choice":1,"state_2_rt":360,"outcome":0,"screen_resolution":[1366,768],"minimum_resolution":1,"trial_type":"alien-practice","trial_index":84,"time_elapsed":643428,"internal_node_id":"0.0-9.6-8.6-0.6","task_version":"1.0","jspsych_version":"6.3.1"},{"state_2_ids":[0,1],"state_2_key":1,"state_2_choice":1,"state_2_rt":595,"outcome":1,"screen_resolution":[1366,768],"minimum_resolution":1,"trial_type":"alien-practice","trial_index":85,"time_elapsed":646228,"internal_node_id":"0.0-9.6-9.6-0.6","task_version":"1.0","jspsych_version":"6.3.1"},{"state_2_ids":[0,1],"state_2_key":1,"state_2_choice":1,"state_2_rt":457,"outcome":1,"screen_resolution":[1366,768],"minimum_resolution":1,"trial_type":"alien-practice","trial_index":86,"time_elapsed":648891,"internal_node_id":"0.0-9.6-10.6-0.6","task_version":"1.0","jspsych_version":"6.3.1"},{"view_history":"[{\"page_index\":0,\"viewing_time\":2566},{\"page_index\":1,\"viewing_time\":1126},{\"page_index\":2,\"viewing_time\":5049},{\"page_index\":3,\"viewing_time\":2397},{\"page_index\":4,\"viewing_time\":3415},{\"page_index\":5,\"viewing_time\":1430}]","rt":15985,"trial_type":"two-step-instructions","trial_index":87,"time_elapsed":664888,"internal_node_id":"0.0-10.0-1.0","task_version":"1.0","jspsych_version":"6.3.1"},{"responses":["left/right arrow keys","False","True"],"num_errors":0,"rt":9231,"quiz":2,"trial_type":"two-step-comprehension","trial_index":88,"time_elapsed":674130,"internal_node_id":"0.0-10.0-2.0","task_version":"1.0","jspsych_version":"6.3.1"},{"view_history":"[{\"page_index\":0,\"viewing_time\":10127},{\"page_index\":1,\"viewing_time\":5236},{\"page_index\":2,\"viewing_time\":5494}]","rt":20858,"trial_type":"two-step-instructions","trial_index":89,"time_elapsed":694998,"internal_node_id":"0.0-11.0-0.0","task_version":"1.0","jspsych_version":"6.3.1"},{"state_1_ids":[1,0],"state_1_key":1,"state_1_choice":0,"state_1_rt":4035,"transition":1,"state":0,"state_2_ids":[0,1],"state_2_key":0,"state_2_choice":0,"state_2_rt":1802,"outcome":0,"rocket_colors":["#955db9","#48a782"],"planet_colors":["#7f5d5d","#5f6f81"],"screen_resolution":[1366,768],"minimum_resolution":1,"trial":0,"trial_type":"two-step-trial","trial_index":90,"time_elapsed":702848,"internal_node_id":"0.0-11.0-1.0-0.0","task_version":"1.0","jspsych_version":"6.3.1","missing":false},{"state_1_ids":[1,0],"state_1_key":1,"state_1_choice":0,"state_1_rt":104,"transition":0,"state":1,"state_2_ids":[2,3],"state_2_key":1,"state_2_choice":3,"state_2_rt":1281,"outcome":1,"rocket_colors":["#955db9","#48a782"],"planet_colors":["#7f5d5d","#5f6f81"],"screen_resolution":[1366,768],"minimum_resolution":1,"trial":0,"trial_type":"two-step-trial","trial_index":91,"time_elapsed":706278,"internal_node_id":"0.0-11.0-1.0-0.1","task_version":"1.0","jspsych_version":"6.3.1","missing":false},{"state_1_ids":[1,0],"state_1_key":0,"state_1_choice":1,"state_1_rt":995,"transition":1,"state":1,"state_2_ids":[2,3],"state_2_key":1,"state_2_choice":3,"state_2_rt":1570,"outcome":0,"rocket_colors":["#955db9","#48a782"],"planet_colors":["#7f5d5d","#5f6f81"],"screen_resolution":[1366,768],"minimum_resolution":1,"trial":0,"trial_type":"two-step-trial","trial_index":92,"time_elapsed":710849,"internal_node_id":"0.0-11.0-1.0-0.2","task_version":"1.0","jspsych_version":"6.3.1","missing":false},{"state_1_ids":[1,0],"state_1_key":0,"state_1_choice":1,"state_1_rt":466,"transition":1,"state":1,"state_2_ids":[2,3],"state_2_key":0,"state_2_choice":2,"state_2_rt":697,"outcome":0,"rocket_colors":["#955db9","#48a782"],"planet_colors":["#7f5d5d","#5f6f81"],"screen_resolution":[1366,768],"minimum_resolution":1,"trial":0,"trial_type":"two-step-trial","trial_index":93,"time_elapsed":714017,"internal_node_id":"0.0-11.0-1.0-0.3","task_version":"1.0","jspsych_version":"6.3.1","missing":false},{"state_1_ids":[0,1],"state_1_key":1,"state_1_choice":1,"state_1_rt":795,"transition":0,"state":0,"state_2_ids":[0,1],"state_2_key":0,"state_2_choice":0,"state_2_rt":988,"outcome":1,"rocket_colors":["#955db9","#48a782"],"planet_colors":["#7f5d5d","#5f6f81"],"screen_resolution":[1366,768],"minimum_resolution":1,"trial":0,"trial_type":"two-step-trial","trial_index":94,"time_elapsed":717808,"internal_node_id":"0.0-11.0-1.0-0.4","task_version":"1.0","jspsych_version":"6.3.1","missing":false},{"state_1_ids":[0,1],"state_1_key":1,"state_1_choice":1,"state_1_rt":1109,"transition":1,"state":1,"state_2_ids":[2,3],"state_2_key":0,"state_2_choice":2,"state_2_rt":1500,"outcome":0,"rocket_colors":["#955db9","#48a782"],"planet_colors":["#7f5d5d","#5f6f81"],"screen_resolution":[1366,768],"minimum_resolution":1,"trial":0,"trial_type":"two-step-trial","trial_index":95,"time_elapsed":722427,"internal_node_id":"0.0-11.0-1.0-0.5","task_version":"1.0","jspsych_version":"6.3.1","missing":false},{"state_1_ids":[0,1],"state_1_key":0,"state_1_choice":0,"state_1_rt":964,"transition":1,"state":0,"state_2_ids":[0,1],"state_2_key":1,"state_2_choice":1,"state_2_rt":810,"outcome":0,"rocket_colors":["#955db9","#48a782"],"planet_colors":["#7f5d5d","#5f6f81"],"screen_resolution":[1366,768],"minimum_resolution":1,"trial":0,"trial_type":"two-step-trial","trial_index":96,"time_elapsed":726209,"internal_node_id":"0.0-11.0-1.0-0.6","task_version":"1.0","jspsych_version":"6.3.1","missing":false},{"state_1_ids":[1,0],"state_1_key":1,"state_1_choice":0,"state_1_rt":1056,"transition":1,"state":0,"state_2_ids":[0,1],"state_2_key":0,"state_2_choice":0,"state_2_rt":826,"outcome":1,"rocket_colors":["#955db9","#48a782"],"planet_colors":["#7f5d5d","#5f6f81"],"screen_resolution":[1366,768],"minimum_resolution":1,"trial":0,"trial_type":"two-step-trial","trial_index":97,"time_elapsed":730100,"internal_node_id":"0.0-11.0-1.0-0.7","task_version":"1.0","jspsych_version":"6.3.1","missing":false},{"state_1_ids":[1,0],"state_1_key":1,"state_1_choice":0,"state_1_rt":1200,"transition":1,"state":0,"state_2_ids":[0,1],"state_2_key":0,"state_2_choice":0,"state_2_rt":1030,"outcome":0,"rocket_colors":["#955db9","#48a782"],"planet_colors":["#7f5d5d","#5f6f81"],"screen_resolution":[1366,768],"minimum_resolution":1,"trial":0,"trial_type":"two-step-trial","trial_index":98,"time_elapsed":734383,"internal_node_id":"0.0-11.0-1.0-0.8","task_version":"1.0","jspsych_version":"6.3.1","missing":false},{"state_1_ids":[1,0],"state_1_key":0,"state_1_choice":1,"state_1_rt":1040,"transition":1,"state":1,"state_2_ids":[2,3],"state_2_key":1,"state_2_choice":3,"state_2_rt":938,"outcome":1,"rocket_colors":["#955db9","#48a782"],"planet_colors":["#7f5d5d","#5f6f81"],"screen_resolution":[1366,768],"minimum_resolution":1,"trial":0,"trial_type":"two-step-trial","trial_index":99,"time_elapsed":738381,"internal_node_id":"0.0-11.0-1.0-0.9","task_version":"1.0","jspsych_version":"6.3.1","missing":false},{"view_history":"[{\"page_index\":0,\"viewing_time\":3078},{\"page_index\":1,\"viewing_time\":1576},{\"page_index\":2,\"viewing_time\":1166},{\"page_index\":3,\"viewing_time\":2612},{\"page_index\":4,\"viewing_time\":12601},{\"page_index\":5,\"viewing_time\":5490},{\"page_index\":6,\"viewing_time\":5506}]","rt":32030,"trial_type":"two-step-instructions","trial_index":100,"time_elapsed":770422,"internal_node_id":"0.0-12.0-1.0","task_version":"1.0","jspsych_version":"6.3.1"},{"responses":["True","False","True"],"num_errors":0,"rt":32302,"quiz":3,"trial_type":"two-step-comprehension","trial_index":101,"time_elapsed":802731,"internal_node_id":"0.0-12.0-2.0","task_version":"1.0","jspsych_version":"6.3.1"},{"view_history":"[{\"page_index\":0,\"viewing_time\":2046},{\"page_index\":1,\"viewing_time\":3814},{\"page_index\":2,\"viewing_time\":2526}]","rt":8387,"trial_type":"two-step-instructions","trial_index":102,"time_elapsed":811127,"internal_node_id":"0.0-13.0","task_version":"1.0","jspsych_version":"6.3.1"},{"state_1_ids":[0,1],"state_1_key":1,"state_1_choice":1,"state_1_rt":1647,"transition":0,"state":0,"state_2_ids":[0,1],"state_2_key":0,"state_2_choice":0,"state_2_rt":1840,"outcome":0,"rocket_colors":["#a75248","#486ea7"],"planet_colors":["#706081","#5b7c65"],"screen_resolution":[1366,768],"minimum_resolution":1,"trial":1,"drifts":[0.44,0.385,0.62,0.421],"drift_ix":1,"trial_type":"two-step-trial","trial_index":103,"time_elapsed":816633,"internal_node_id":"0.0-14.0-0.0","task_version":"1.0","jspsych_version":"6.3.1","browser_interactions":0,"missing":false},{"state_1_ids":[1,0],"state_1_key":1,"state_1_choice":0,"state_1_rt":1057,"transition":1,"state":0,"state_2_ids":[0,1],"state_2_key":1,"state_2_choice":1,"state_2_rt":1622,"outcome":0,"rocket_colors":["#a75248","#486ea7"],"planet_colors":["#706081","#5b7c65"],"screen_resolution":[1366,768],"minimum_resolution":1,"trial":2,"drifts":[0.427,0.383,0.623,0.388],"drift_ix":1,"trial_type":"two-step-trial","trial_index":104,"time_elapsed":821333,"internal_node_id":"0.0-15.0-0.0","task_version":"1.0","jspsych_version":"6.3.1","browser_interactions":0,"missing":false},{"state_1_ids":[0,1],"state_1_key":0,"state_1_choice":0,"state_1_rt":695,"transition":1,"state":0,"state_2_ids":[0,1],"state_2_key":0,"state_2_choice":0,"state_2_rt":1005,"outcome":0,"rocket_colors":["#a75248","#486ea7"],"planet_colors":["#706081","#5b7c65"],"screen_resolution":[1366,768],"minimum_resolution":1,"trial":3,"drifts":[0.366,0.399,0.638,0.394],"drift_ix":1,"trial_type":"two-step-trial","trial_index":105,"time_elapsed":825042,"internal_node_id":"0.0-16.0-0.0","task_version":"1.0","jspsych_version":"6.3.1","browser_interactions":0,"missing":false},{"state_1_ids":[1,0],"state_1_key":0,"state_1_choice":1,"state_1_rt":816,"transition":0,"state":0,"state_2_ids":[0,1],"state_2_key":1,"state_2_choice":1,"state_2_rt":1080,"outcome":1,"rocket_colors":["#a75248","#486ea7"],"planet_colors":["#706081","#5b7c65"],"screen_resolution":[1366,768],"minimum_resolution":1,"trial":4,"drifts":[0.352,0.371,0.644,0.424],"drift_ix":1,"trial_type":"two-step-trial","trial_index":106,"time_elapsed":828949,"internal_node_id":"0.0-17.0-0.0","task_version":"1.0","jspsych_version":"6.3.1","browser_interactions":0,"missing":false},{"state_1_ids":[1,0],"state_1_key":0,"state_1_choice":1,"state_1_rt":725,"transition":1,"state":1,"state_2_ids":[2,3],"state_2_key":0,"state_2_choice":2,"state_2_rt":1190,"outcome":1,"rocket_colors":["#a75248","#486ea7"],"planet_colors":["#706081","#5b7c65"],"screen_resolution":[1366,768],"minimum_resolution":1,"trial":5,"drifts":[0.387,0.418,0.671,0.445],"drift_ix":1,"trial_type":"two-step-trial","trial_index":107,"time_elapsed":832870,"internal_node_id":"0.0-18.0-0.0","task_version":"1.0","jspsych_version":"6.3.1","browser_interactions":0,"missing":false},{"state_1_ids":[0,1],"state_1_key":1,"state_1_choice":1,"state_1_rt":772,"transition":1,"state":1,"state_2_ids":[2,3],"state_2_key":1,"state_2_choice":3,"state_2_rt":1302,"outcome":1,"rocket_colors":["#a75248","#486ea7"],"planet_colors":["#706081","#5b7c65"],"screen_resolution":[1366,768],"minimum_resolution":1,"trial":6,"drifts":[0.376,0.44,0.655,0.477],"drift_ix":1,"trial_type":"two-step-trial","trial_index":108,"time_elapsed":836954,"internal_node_id":"0.0-19.0-0.0","task_version":"1.0","jspsych_version":"6.3.1","browser_interactions":0,"missing":false},{"state_1_ids":[0,1],"state_1_key":0,"state_1_choice":0,"state_1_rt":675,"transition":1,"state":0,"state_2_ids":[0,1],"state_2_key":0,"state_2_choice":0,"state_2_rt":1650,"outcome":0,"rocket_colors":["#a75248","#486ea7"],"planet_colors":["#706081","#5b7c65"],"screen_resolution":[1366,768],"minimum_resolution":1,"trial":7,"drifts":[0.376,0.46,0.674,0.453],"drift_ix":1,"trial_type":"two-step-trial","trial_index":109,"time_elapsed":841285,"internal_node_id":"0.0-20.0-0.0","task_version":"1.0","jspsych_version":"6.3.1","browser_interactions":0,"missing":false},{"state_1_ids":[1,0],"state_1_key":0,"state_1_choice":1,"state_1_rt":725,"transition":1,"state":1,"state_2_ids":[2,3],"state_2_key":1,"state_2_choice":3,"state_2_rt":1942,"outcome":0,"rocket_colors":["#a75248","#486ea7"],"planet_colors":["#706081","#5b7c65"],"screen_resolution":[1366,768],"minimum_resolution":1,"trial":8,"drifts":[0.37,0.476,0.645,0.47],"drift_ix":1,"trial_type":"two-step-trial","trial_index":110,"time_elapsed":845961,"internal_node_id":"0.0-21.0-0.0","task_version":"1.0","jspsych_version":"6.3.1","browser_interactions":0,"missing":false},{"state_1_ids":[1,0],"state_1_key":0,"state_1_choice":1,"state_1_rt":1067,"transition":1,"state":1,"state_2_ids":[2,3],"state_2_key":0,"state_2_choice":2,"state_2_rt":1520,"outcome":1,"rocket_colors":["#a75248","#486ea7"],"planet_colors":["#706081","#5b7c65"],"screen_resolution":[1366,768],"minimum_resolution":1,"trial":9,"drifts":[0.349,0.439,0.653,0.482],"drift_ix":1,"trial_type":"two-step-trial","trial_index":111,"time_elapsed":850560,"internal_node_id":"0.0-22.0-0.0","task_version":"1.0","jspsych_version":"6.3.1","browser_interactions":0,"missing":false},{"state_1_ids":[1,0],"state_1_key":1,"state_1_choice":0,"state_1_rt":1674,"transition":0,"state":1,"state_2_ids":[2,3],"state_2_key":0,"state_2_choice":2,"state_2_rt":1767,"outcome":1,"rocket_colors":["#a75248","#486ea7"],"planet_colors":["#706081","#5b7c65"],"screen_resolution":[1366,768],"minimum_resolution":1,"trial":10,"drifts":[0.347,0.471,0.629,0.478],"drift_ix":1,"trial_type":"two-step-trial","trial_index":112,"time_elapsed":856010,"internal_node_id":"0.0-23.0-0.0","task_version":"1.0","jspsych_version":"6.3.1","browser_interactions":0,"missing":false},{"state_1_ids":[0,1],"state_1_key":0,"state_1_choice":0,"state_1_rt":3603,"transition":1,"state":0,"state_2_ids":[0,1],"state_2_key":1,"state_2_choice":1,"state_2_rt":930,"outcome":0,"rocket_colors":["#a75248","#486ea7"],"planet_colors":["#706081","#5b7c65"],"screen_resolution":[1366,768],"minimum_resolution":1,"trial":11,"drifts":[0.346,0.411,0.666,0.456],"drift_ix":1,"trial_type":"two-step-trial","trial_index":113,"time_elapsed":862551,"internal_node_id":"0.0-24.0-0.0","task_version":"1.0","jspsych_version":"6.3.1","browser_interactions":0,"missing":false},{"state_1_ids":[1,0],"state_1_key":0,"state_1_choice":1,"state_1_rt":1406,"transition":1,"state":1,"state_2_ids":[2,3],"state_2_key":1,"state_2_choice":3,"state_2_rt":1787,"outcome":0,"rocket_colors":["#a75248","#486ea7"],"planet_colors":["#706081","#5b7c65"],"screen_resolution":[1366,768],"minimum_resolution":1,"trial":12,"drifts":[0.371,0.413,0.638,0.405],"drift_ix":1,"trial_type":"two-step-trial","trial_index":114,"time_elapsed":867752,"internal_node_id":"0.0-25.0-0.0","task_version":"1.0","jspsych_version":"6.3.1","browser_interactions":0,"missing":false},{"state_1_ids":[1,0],"state_1_key":1,"state_1_choice":0,"state_1_rt":2351,"transition":1,"state":0,"state_2_ids":[0,1],"state_2_key":1,"state_2_choice":1,"state_2_rt":2267,"outcome":1,"rocket_colors":["#a75248","#486ea7"],"planet_colors":["#706081","#5b7c65"],"screen_resolution":[1366,768],"minimum_resolution":1,"trial":13,"drifts":[0.354,0.425,0.641,0.388],"drift_ix":1,"trial_type":"two-step-trial","trial_index":115,"time_elapsed":874380,"internal_node_id":"0.0-26.0-0.0","task_version":"1.0","jspsych_version":"6.3.1","browser_interactions":0,"missing":false},{"state_1_ids":[0,1],"state_1_key":0,"state_1_choice":0,"state_1_rt":1670,"transition":1,"state":0,"state_2_ids":[0,1],"state_2_key":1,"state_2_choice":1,"state_2_rt":1031,"outcome":1,"rocket_colors":["#a75248","#486ea7"],"planet_colors":["#706081","#5b7c65"],"screen_resolution":[1366,768],"minimum_resolution":1,"trial":14,"drifts":[0.315,0.45,0.635,0.335],"drift_ix":1,"trial_type":"two-step-trial","trial_index":116,"time_elapsed":879089,"internal_node_id":"0.0-27.0-0.0","task_version":"1.0","jspsych_version":"6.3.1","browser_interactions":0,"missing":false},{"state_1_ids":[1,0],"state_1_key":1,"state_1_choice":0,"state_1_rt":1784,"transition":0,"state":1,"state_2_ids":[2,3],"state_2_key":0,"state_2_choice":2,"state_2_rt":3007,"outcome":1,"rocket_colors":["#a75248","#486ea7"],"planet_colors":["#706081","#5b7c65"],"screen_resolution":[1366,768],"minimum_resolution":1,"trial":15,"drifts":[0.291,0.41,0.635,0.339],"drift_ix":1,"trial_type":"two-step-trial","trial_index":117,"time_elapsed":885889,"internal_node_id":"0.0-28.0-0.0","task_version":"1.0","jspsych_version":"6.3.1","browser_interactions":0,"missing":false},{"state_1_ids":[0,1],"state_1_key":1,"state_1_choice":1,"state_1_rt":2290,"transition":1,"state":1,"state_2_ids":[2,3],"state_2_key":1,"state_2_choice":3,"state_2_rt":879,"outcome":1,"rocket_colors":["#a75248","#486ea7"],"planet_colors":["#706081","#5b7c65"],"screen_resolution":[1366,768],"minimum_resolution":1,"trial":16,"drifts":[0.3,0.409,0.61,0.364],"drift_ix":1,"trial_type":"two-step-trial","trial_index":118,"time_elapsed":891065,"internal_node_id":"0.0-29.0-0.0","task_version":"1.0","jspsych_version":"6.3.1","browser_interactions":0,"missing":false},{"state_1_ids":[0,1],"state_1_key":0,"state_1_choice":0,"state_1_rt":2398,"transition":1,"state":0,"state_2_ids":[0,1],"state_2_key":0,"state_2_choice":0,"state_2_rt":654,"outcome":0,"rocket_colors":["#a75248","#486ea7"],"planet_colors":["#706081","#5b7c65"],"screen_resolution":[1366,768],"minimum_resolution":1,"trial":17,"drifts":[0.3,0.418,0.639,0.392],"drift_ix":1,"trial_type":"two-step-trial","trial_index":119,"time_elapsed":896135,"internal_node_id":"0.0-30.0-0.0","task_version":"1.0","jspsych_version":"6.3.1","browser_interactions":0,"missing":false},{"state_1_ids":[1,0],"state_1_key":0,"state_1_choice":1,"state_1_rt":1413,"transition":1,"state":1,"state_2_ids":[2,3],"state_2_key":1,"state_2_choice":3,"state_2_rt":1829,"outcome":0,"rocket_colors":["#a75248","#486ea7"],"planet_colors":["#706081","#5b7c65"],"screen_resolution":[1366,768],"minimum_resolution":1,"trial":18,"drifts":[0.308,0.463,0.63,0.375],"drift_ix":1,"trial_type":"two-step-trial","trial_index":120,"time_elapsed":901385,"internal_node_id":"0.0-31.0-0.0","task_version":"1.0","jspsych_version":"6.3.1","browser_interactions":0,"missing":false},{"state_1_ids":[1,0],"state_1_key":0,"state_1_choice":1,"state_1_rt":1805,"transition":1,"state":1,"state_2_ids":[2,3],"state_2_key":1,"state_2_choice":3,"state_2_rt":1476,"outcome":0,"rocket_colors":["#a75248","#486ea7"],"planet_colors":["#706081","#5b7c65"],"screen_resolution":[1366,768],"minimum_resolution":1,"trial":19,"drifts":[0.345,0.475,0.617,0.402],"drift_ix":1,"trial_type":"two-step-trial","trial_index":121,"time_elapsed":906676,"internal_node_id":"0.0-32.0-0.0","task_version":"1.0","jspsych_version":"6.3.1","browser_interactions":0,"missing":false},{"state_1_ids":[0,1],"state_1_key":0,"state_1_choice":0,"state_1_rt":2164,"transition":1,"state":0,"state_2_ids":[0,1],"state_2_key":0,"state_2_choice":0,"state_2_rt":816,"outcome":1,"rocket_colors":["#a75248","#486ea7"],"planet_colors":["#706081","#5b7c65"],"screen_resolution":[1366,768],"minimum_resolution":1,"trial":20,"drifts":[0.39,0.463,0.595,0.433],"drift_ix":1,"trial_type":"two-step-trial","trial_index":122,"time_elapsed":911672,"internal_node_id":"0.0-33.0-0.0","task_version":"1.0","jspsych_version":"6.3.1","browser_interactions":0,"missing":false},{"state_1_ids":[1,0],"state_1_key":1,"state_1_choice":0,"state_1_rt":2120,"transition":1,"state":0,"state_2_ids":[0,1],"state_2_key":1,"state_2_choice":1,"state_2_rt":1125,"outcome":1,"rocket_colors":["#a75248","#486ea7"],"planet_colors":["#706081","#5b7c65"],"screen_resolution":[1366,768],"minimum_resolution":1,"trial":21,"drifts":[0.413,0.433,0.607,0.447],"drift_ix":1,"trial_type":"two-step-trial","trial_index":123,"time_elapsed":916925,"internal_node_id":"0.0-34.0-0.0","task_version":"1.0","jspsych_version":"6.3.1","browser_interactions":0,"missing":false},{"state_1_ids":[1,0],"state_1_key":1,"state_1_choice":0,"state_1_rt":3944,"transition":1,"state":0,"state_2_ids":[0,1],"state_2_key":0,"state_2_choice":0,"state_2_rt":1013,"outcome":0,"rocket_colors":["#a75248","#486ea7"],"planet_colors":["#706081","#5b7c65"],"screen_resolution":[1366,768],"minimum_resolution":1,"trial":22,"drifts":[0.397,0.431,0.605,0.426],"drift_ix":1,"trial_type":"two-step-trial","trial_index":124,"time_elapsed":923886,"internal_node_id":"0.0-35.0-0.0","task_version":"1.0","jspsych_version":"6.3.1","browser_interactions":0,"missing":false},{"state_1_ids":[0,1],"state_1_key":1,"state_1_choice":1,"state_1_rt":1787,"transition":1,"state":1,"state_2_ids":[2,3],"state_2_key":1,"state_2_choice":3,"state_2_rt":1062,"outcome":1,"rocket_colors":["#a75248","#486ea7"],"planet_colors":["#706081","#5b7c65"],"screen_resolution":[1366,768],"minimum_resolution":1,"trial":23,"drifts":[0.375,0.426,0.617,0.383],"drift_ix":1,"trial_type":"two-step-trial","trial_index":125,"time_elapsed":928747,"internal_node_id":"0.0-36.0-0.0","task_version":"1.0","jspsych_version":"6.3.1","browser_interactions":0,"missing":false},{"state_1_ids":[1,0],"state_1_key":0,"state_1_choice":1,"state_1_rt":3114,"transition":1,"state":1,"state_2_ids":[2,3],"state_2_key":0,"state_2_choice":2,"state_2_rt":1374,"outcome":0,"rocket_colors":["#a75248","#486ea7"],"planet_colors":["#706081","#5b7c65"],"screen_resolution":[1366,768],"minimum_resolution":1,"trial":24,"drifts":[0.396,0.432,0.631,0.356],"drift_ix":1,"trial_type":"two-step-trial","trial_index":126,"time_elapsed":935248,"internal_node_id":"0.0-37.0-0.0","task_version":"1.0","jspsych_version":"6.3.1","browser_interactions":0,"missing":false},{"state_1_ids":[0,1],"state_1_key":1,"state_1_choice":1,"state_1_rt":2342,"transition":0,"state":0,"state_2_ids":[0,1],"state_2_key":0,"state_2_choice":0,"state_2_rt":5691,"outcome":0,"rocket_colors":["#a75248","#486ea7"],"planet_colors":["#706081","#5b7c65"],"screen_resolution":[1366,768],"minimum_resolution":1,"trial":25,"drifts":[0.352,0.393,0.634,0.357],"drift_ix":1,"trial_type":"two-step-trial","trial_index":127,"time_elapsed":945290,"internal_node_id":"0.0-38.0-0.0","task_version":"1.0","jspsych_version":"6.3.1","browser_interactions":0,"missing":false},{"state_1_ids":[1,0],"state_1_key":1,"state_1_choice":0,"state_1_rt":920,"transition":0,"state":1,"state_2_ids":[2,3],"state_2_key":0,"state_2_choice":2,"state_2_rt":1117,"outcome":1,"rocket_colors":["#a75248","#486ea7"],"planet_colors":["#706081","#5b7c65"],"screen_resolution":[1366,768],"minimum_resolution":1,"trial":26,"drifts":[0.379,0.371,0.632,0.315],"drift_ix":1,"trial_type":"two-step-trial","trial_index":128,"time_elapsed":949340,"internal_node_id":"0.0-39.0-0.0","task_version":"1.0","jspsych_version":"6.3.1","browser_interactions":0,"missing":false},{"state_1_ids":[0,1],"state_1_key":0,"state_1_choice":0,"state_1_rt":4112,"transition":1,"state":0,"state_2_ids":[0,1],"state_2_key":0,"state_2_choice":0,"state_2_rt":988,"outcome":0,"rocket_colors":["#a75248","#486ea7"],"planet_colors":["#706081","#5b7c65"],"screen_resolution":[1366,768],"minimum_resolution":1,"trial":27,"drifts":[0.44,0.355,0.639,0.305],"drift_ix":1,"trial_type":"two-step-trial","trial_index":129,"time_elapsed":956450,"internal_node_id":"0.0-40.0-0.0","task_version":"1.0","jspsych_version":"6.3.1","browser_interactions":0,"missing":false},{"state_1_ids":[0,1],"state_1_key":0,"state_1_choice":0,"state_1_rt":234,"transition":0,"state":1,"state_2_ids":[2,3],"state_2_key":1,"state_2_choice":3,"state_2_rt":1039,"outcome":0,"rocket_colors":["#a75248","#486ea7"],"planet_colors":["#706081","#5b7c65"],"screen_resolution":[1366,768],"minimum_resolution":1,"trial":28,"drifts":[0.473,0.399,0.627,0.311],"drift_ix":1,"trial_type":"two-step-trial","trial_index":130,"time_elapsed":959726,"internal_node_id":"0.0-41.0-0.0","task_version":"1.0","jspsych_version":"6.3.1","browser_interactions":0,"missing":false},{"state_1_ids":[0,1],"state_1_key":0,"state_1_choice":0,"state_1_rt":694,"transition":0,"state":1,"state_2_ids":[2,3],"state_2_key":1,"state_2_choice":3,"state_2_rt":3810,"outcome":0,"rocket_colors":["#a75248","#486ea7"],"planet_colors":["#706081","#5b7c65"],"screen_resolution":[1366,768],"minimum_resolution":1,"trial":29,"drifts":[0.47,0.426,0.594,0.318],"drift_ix":1,"trial_type":"two-step-trial","trial_index":131,"time_elapsed":966237,"internal_node_id":"0.0-42.0-0.0","task_version":"1.0","jspsych_version":"6.3.1","browser_interactions":0,"missing":false},{"state_1_ids":[0,1],"state_1_key":0,"state_1_choice":0,"state_1_rt":670,"transition":0,"state":1,"state_2_ids":[2,3],"state_2_key":0,"state_2_choice":2,"state_2_rt":2644,"outcome":0,"rocket_colors":["#a75248","#486ea7"],"planet_colors":["#706081","#5b7c65"],"screen_resolution":[1366,768],"minimum_resolution":1,"trial":30,"drifts":[0.455,0.475,0.559,0.323],"drift_ix":1,"trial_type":"two-step-trial","trial_index":132,"time_elapsed":971560,"internal_node_id":"0.0-43.0-0.0","task_version":"1.0","jspsych_version":"6.3.1","browser_interactions":0,"missing":false},{"state_1_ids":[1,0],"state_1_key":0,"state_1_choice":1,"state_1_rt":1492,"transition":1,"state":1,"state_2_ids":[2,3],"state_2_key":0,"state_2_choice":2,"state_2_rt":998,"outcome":1,"rocket_colors":["#a75248","#486ea7"],"planet_colors":["#706081","#5b7c65"],"screen_resolution":[1366,768],"minimum_resolution":1,"trial":31,"drifts":[0.435,0.51,0.608,0.321],"drift_ix":1,"trial_type":"two-step-trial","trial_index":133,"time_elapsed":976059,"internal_node_id":"0.0-44.0-0.0","task_version":"1.0","jspsych_version":"6.3.1","browser_interactions":0,"missing":false},{"state_1_ids":[1,0],"state_1_key":0,"state_1_choice":1,"state_1_rt":1577,"transition":0,"state":0,"state_2_ids":[0,1],"state_2_key":1,"state_2_choice":1,"state_2_rt":1716,"outcome":1,"rocket_colors":["#a75248","#486ea7"],"planet_colors":["#706081","#5b7c65"],"screen_resolution":[1366,768],"minimum_resolution":1,"trial":32,"drifts":[0.415,0.507,0.579,0.317],"drift_ix":1,"trial_type":"two-step-trial","trial_index":134,"time_elapsed":981362,"internal_node_id":"0.0-45.0-0.0","task_version":"1.0","jspsych_version":"6.3.1","browser_interactions":0,"missing":false},{"state_1_ids":[1,0],"state_1_key":1,"state_1_choice":0,"state_1_rt":2823,"transition":0,"state":1,"state_2_ids":[2,3],"state_2_key":0,"state_2_choice":2,"state_2_rt":1298,"outcome":1,"rocket_colors":["#a75248","#486ea7"],"planet_colors":["#706081","#5b7c65"],"screen_resolution":[1366,768],"minimum_resolution":1,"trial":33,"drifts":[0.459,0.542,0.595,0.302],"drift_ix":1,"trial_type":"two-step-trial","trial_index":135,"time_elapsed":987492,"internal_node_id":"0.0-46.0-0.0","task_version":"1.0","jspsych_version":"6.3.1","browser_interactions":0,"missing":false},{"state_1_ids":[0,1],"state_1_key":0,"state_1_choice":0,"state_1_rt":540,"transition":0,"state":1,"state_2_ids":[2,3],"state_2_key":1,"state_2_choice":3,"state_2_rt":776,"outcome":0,"rocket_colors":["#a75248","#486ea7"],"planet_colors":["#706081","#5b7c65"],"screen_resolution":[1366,768],"minimum_resolution":1,"trial":34,"drifts":[0.491,0.491,0.597,0.309],"drift_ix":1,"trial_type":"two-step-trial","trial_index":136,"time_elapsed":990817,"internal_node_id":"0.0-47.0-0.0","task_version":"1.0","jspsych_version":"6.3.1","browser_interactions":0,"missing":false},{"state_1_ids":[1,0],"state_1_key":0,"state_1_choice":1,"state_1_rt":2505,"transition":1,"state":1,"state_2_ids":[2,3],"state_2_key":0,"state_2_choice":2,"state_2_rt":1122,"outcome":1,"rocket_colors":["#a75248","#486ea7"],"planet_colors":["#706081","#5b7c65"],"screen_resolution":[1366,768],"minimum_resolution":1,"trial":35,"drifts":[0.474,0.513,0.589,0.338],"drift_ix":1,"trial_type":"two-step-trial","trial_index":137,"time_elapsed":996453,"internal_node_id":"0.0-48.0-0.0","task_version":"1.0","jspsych_version":"6.3.1","browser_interactions":0,"missing":false},{"state_1_ids":[1,0],"state_1_key":1,"state_1_choice":0,"state_1_rt":3162,"transition":0,"state":1,"state_2_ids":[2,3],"state_2_key":0,"state_2_choice":2,"state_2_rt":877,"outcome":1,"rocket_colors":["#a75248","#486ea7"],"planet_colors":["#706081","#5b7c65"],"screen_resolution":[1366,768],"minimum_resolution":1,"trial":36,"drifts":[0.457,0.538,0.559,0.332],"drift_ix":1,"trial_type":"two-step-trial","trial_index":138,"time_elapsed":1002503,"internal_node_id":"0.0-49.0-0.0","task_version":"1.0","jspsych_version":"6.3.1","browser_interactions":0,"missing":false},{"state_1_ids":[0,1],"state_1_key":0,"state_1_choice":0,"state_1_rt":816,"transition":1,"state":0,"state_2_ids":[0,1],"state_2_key":1,"state_2_choice":1,"state_2_rt":911,"outcome":1,"rocket_colors":["#a75248","#486ea7"],"planet_colors":["#706081","#5b7c65"],"screen_resolution":[1366,768],"minimum_resolution":1,"trial":37,"drifts":[0.485,0.54,0.582,0.328],"drift_ix":1,"trial_type":"two-step-trial","trial_index":139,"time_elapsed":1006238,"internal_node_id":"0.0-50.0-0.0","task_version":"1.0","jspsych_version":"6.3.1","browser_interactions":0,"missing":false},{"state_1_ids":[1,0],"state_1_key":0,"state_1_choice":1,"state_1_rt":1063,"transition":0,"state":0,"state_2_ids":[0,1],"state_2_key":1,"state_2_choice":1,"state_2_rt":1795,"outcome":0,"rocket_colors":["#a75248","#486ea7"],"planet_colors":["#706081","#5b7c65"],"screen_resolution":[1366,768],"minimum_resolution":1,"trial":38,"drifts":[0.448,0.561,0.557,0.342],"drift_ix":1,"trial_type":"two-step-trial","trial_index":140,"time_elapsed":1011104,"internal_node_id":"0.0-51.0-0.0","task_version":"1.0","jspsych_version":"6.3.1","browser_interactions":0,"missing":false},{"state_1_ids":[0,1],"state_1_key":1,"state_1_choice":1,"state_1_rt":1708,"transition":1,"state":1,"state_2_ids":[2,3],"state_2_key":0,"state_2_choice":2,"state_2_rt":1010,"outcome":1,"rocket_colors":["#a75248","#486ea7"],"planet_colors":["#706081","#5b7c65"],"screen_resolution":[1366,768],"minimum_resolution":1,"trial":39,"drifts":[0.401,0.544,0.587,0.37],"drift_ix":1,"trial_type":"two-step-trial","trial_index":141,"time_elapsed":1015828,"internal_node_id":"0.0-52.0-0.0","task_version":"1.0","jspsych_version":"6.3.1","browser_interactions":0,"missing":false},{"state_1_ids":[1,0],"state_1_key":1,"state_1_choice":0,"state_1_rt":1321,"transition":1,"state":0,"state_2_ids":[0,1],"state_2_key":0,"state_2_choice":0,"state_2_rt":731,"outcome":0,"rocket_colors":["#a75248","#486ea7"],"planet_colors":["#706081","#5b7c65"],"screen_resolution":[1366,768],"minimum_resolution":1,"trial":40,"drifts":[0.404,0.536,0.602,0.375],"drift_ix":1,"trial_type":"two-step-trial","trial_index":142,"time_elapsed":1019888,"internal_node_id":"0.0-53.0-0.0","task_version":"1.0","jspsych_version":"6.3.1","browser_interactions":0,"missing":false},{"state_1_ids":[1,0],"state_1_key":0,"state_1_choice":1,"state_1_rt":1708,"transition":0,"state":0,"state_2_ids":[0,1],"state_2_key":0,"state_2_choice":0,"state_2_rt":33,"outcome":0,"rocket_colors":["#a75248","#486ea7"],"planet_colors":["#706081","#5b7c65"],"screen_resolution":[1366,768],"minimum_resolution":1,"trial":41,"drifts":[0.396,0.535,0.6,0.41],"drift_ix":1,"trial_type":"two-step-trial","trial_index":143,"time_elapsed":1023636,"internal_node_id":"0.0-54.0-0.0","task_version":"1.0","jspsych_version":"6.3.1","browser_interactions":0,"missing":false},{"state_1_ids":[1,0],"state_1_key":0,"state_1_choice":1,"state_1_rt":1064,"transition":1,"state":1,"state_2_ids":[2,3],"state_2_key":1,"state_2_choice":3,"state_2_rt":1144,"outcome":1,"rocket_colors":["#a75248","#486ea7"],"planet_colors":["#706081","#5b7c65"],"screen_resolution":[1366,768],"minimum_resolution":1,"trial":42,"drifts":[0.406,0.554,0.6,0.432],"drift_ix":1,"trial_type":"two-step-trial","trial_index":144,"time_elapsed":1027849,"internal_node_id":"0.0-55.0-0.0","task_version":"1.0","jspsych_version":"6.3.1","browser_interactions":0,"missing":false},{"state_1_ids":[0,1],"state_1_key":0,"state_1_choice":0,"state_1_rt":608,"transition":1,"state":0,"state_2_ids":[0,1],"state_2_key":1,"state_2_choice":1,"state_2_rt":492,"outcome":1,"rocket_colors":["#a75248","#486ea7"],"planet_colors":["#706081","#5b7c65"],"screen_resolution":[1366,768],"minimum_resolution":1,"trial":43,"drifts":[0.381,0.564,0.612,0.443],"drift_ix":1,"trial_type":"two-step-trial","trial_index":145,"time_elapsed":1030960,"internal_node_id":"0.0-56.0-0.0","task_version":"1.0","jspsych_version":"6.3.1","browser_interactions":0,"missing":false},{"state_1_ids":[0,1],"state_1_key":1,"state_1_choice":1,"state_1_rt":2505,"transition":1,"state":1,"state_2_ids":[2,3],"state_2_key":1,"state_2_choice":3,"state_2_rt":3906,"outcome":1,"rocket_colors":["#a75248","#486ea7"],"planet_colors":["#706081","#5b7c65"],"screen_resolution":[1366,768],"minimum_resolution":1,"trial":44,"drifts":[0.375,0.564,0.659,0.454],"drift_ix":1,"trial_type":"two-step-trial","trial_index":146,"time_elapsed":1039379,"internal_node_id":"0.0-57.0-0.0","task_version":"1.0","jspsych_version":"6.3.1","browser_interactions":0,"missing":false},{"state_1_ids":[0,1],"state_1_key":0,"state_1_choice":0,"state_1_rt":2233,"transition":1,"state":0,"state_2_ids":[0,1],"state_2_key":1,"state_2_choice":1,"state_2_rt":918,"outcome":0,"rocket_colors":["#a75248","#486ea7"],"planet_colors":["#706081","#5b7c65"],"screen_resolution":[1366,768],"minimum_resolution":1,"trial":45,"drifts":[0.37,0.592,0.676,0.446],"drift_ix":1,"trial_type":"two-step-trial","trial_index":147,"time_elapsed":1044537,"internal_node_id":"0.0-58.0-0.0","task_version":"1.0","jspsych_version":"6.3.1","browser_interactions":0,"missing":false},{"state_1_ids":[1,0],"state_1_key":1,"state_1_choice":0,"state_1_rt":435,"transition":1,"state":0,"state_2_ids":[0,1],"state_2_key":0,"state_2_choice":0,"state_2_rt":2611,"outcome":0,"rocket_colors":["#a75248","#486ea7"],"planet_colors":["#706081","#5b7c65"],"screen_resolution":[1366,768],"minimum_resolution":1,"trial":46,"drifts":[0.369,0.571,0.682,0.419],"drift_ix":1,"trial_type":"two-step-trial","trial_index":148,"time_elapsed":1049600,"internal_node_id":"0.0-59.0-0.0","task_version":"1.0","jspsych_version":"6.3.1","browser_interactions":0,"missing":false},{"state_1_ids":[1,0],"state_1_key":0,"state_1_choice":1,"state_1_rt":1194,"transition":1,"state":1,"state_2_ids":[2,3],"state_2_key":0,"state_2_choice":2,"state_2_rt":375,"outcome":1,"rocket_colors":["#a75248","#486ea7"],"planet_colors":["#706081","#5b7c65"],"screen_resolution":[1366,768],"minimum_resolution":1,"trial":47,"drifts":[0.392,0.532,0.65,0.4],"drift_ix":1,"trial_type":"two-step-trial","trial_index":149,"time_elapsed":1053182,"internal_node_id":"0.0-60.0-0.0","task_version":"1.0","jspsych_version":"6.3.1","browser_interactions":0,"missing":false},{"state_1_ids":[1,0],"state_1_key":1,"state_1_choice":0,"state_1_rt":2733,"transition":1,"state":0,"state_2_ids":[0,1],"state_2_key":0,"state_2_choice":0,"state_2_rt":1217,"outcome":0,"rocket_colors":["#a75248","#486ea7"],"planet_colors":["#706081","#5b7c65"],"screen_resolution":[1366,768],"minimum_resolution":1,"trial":48,"drifts":[0.412,0.529,0.637,0.409],"drift_ix":1,"trial_type":"two-step-trial","trial_index":150,"time_elapsed":1059137,"internal_node_id":"0.0-61.0-0.0","task_version":"1.0","jspsych_version":"6.3.1","browser_interactions":0,"missing":false},{"state_1_ids":[1,0],"state_1_key":1,"state_1_choice":0,"state_1_rt":886,"transition":1,"state":0,"state_2_ids":[0,1],"state_2_key":1,"state_2_choice":1,"state_2_rt":1495,"outcome":1,"rocket_colors":["#a75248","#486ea7"],"planet_colors":["#706081","#5b7c65"],"screen_resolution":[1366,768],"minimum_resolution":1,"trial":49,"drifts":[0.41,0.533,0.637,0.402],"drift_ix":1,"trial_type":"two-step-trial","trial_index":151,"time_elapsed":1063526,"internal_node_id":"0.0-62.0-0.0","task_version":"1.0","jspsych_version":"6.3.1","browser_interactions":0,"missing":false},{"state_1_ids":[0,1],"state_1_key":0,"state_1_choice":0,"state_1_rt":740,"transition":0,"state":1,"state_2_ids":[2,3],"state_2_key":1,"state_2_choice":3,"state_2_rt":983,"outcome":1,"rocket_colors":["#a75248","#486ea7"],"planet_colors":["#706081","#5b7c65"],"screen_resolution":[1366,768],"minimum_resolution":1,"trial":50,"drifts":[0.394,0.554,0.63,0.39],"drift_ix":1,"trial_type":"two-step-trial","trial_index":152,"time_elapsed":1067259,"internal_node_id":"0.0-63.0-0.0","task_version":"1.0","jspsych_version":"6.3.1","browser_interactions":0,"missing":false},{"state_1_ids":[1,0],"state_1_key":1,"state_1_choice":0,"state_1_rt":2384,"transition":0,"state":1,"state_2_ids":[2,3],"state_2_key":1,"state_2_choice":3,"state_2_rt":3744,"outcome":1,"rocket_colors":["#a75248","#486ea7"],"planet_colors":["#706081","#5b7c65"],"screen_resolution":[1366,768],"minimum_resolution":1,"trial":51,"drifts":[0.351,0.543,0.599,0.412],"drift_ix":1,"trial_type":"two-step-trial","trial_index":153,"time_elapsed":1075396,"internal_node_id":"0.0-64.0-0.0","task_version":"1.0","jspsych_version":"6.3.1","browser_interactions":0,"missing":false},{"state_1_ids":[0,1],"state_1_key":0,"state_1_choice":0,"state_1_rt":2529,"transition":1,"state":0,"state_2_ids":[0,1],"state_2_key":1,"state_2_choice":1,"state_2_rt":2289,"outcome":0,"rocket_colors":["#a75248","#486ea7"],"planet_colors":["#706081","#5b7c65"],"screen_resolution":[1366,768],"minimum_resolution":1,"trial":52,"drifts":[0.355,0.541,0.573,0.402],"drift_ix":1,"trial_type":"two-step-trial","trial_index":154,"time_elapsed":1082219,"internal_node_id":"0.0-65.0-0.0","task_version":"1.0","jspsych_version":"6.3.1","browser_interactions":0,"missing":false},{"state_1_ids":[1,0],"state_1_key":1,"state_1_choice":0,"state_1_rt":979,"transition":1,"state":0,"state_2_ids":[0,1],"state_2_key":0,"state_2_choice":0,"state_2_rt":1816,"outcome":1,"rocket_colors":["#a75248","#486ea7"],"planet_colors":["#706081","#5b7c65"],"screen_resolution":[1366,768],"minimum_resolution":1,"trial":53,"drifts":[0.35,0.565,0.6,0.385],"drift_ix":1,"trial_type":"two-step-trial","trial_index":155,"time_elapsed":1087023,"internal_node_id":"0.0-66.0-0.0","task_version":"1.0","jspsych_version":"6.3.1","browser_interactions":0,"missing":false},{"state_1_ids":[0,1],"state_1_key":1,"state_1_choice":1,"state_1_rt":2453,"transition":1,"state":1,"state_2_ids":[2,3],"state_2_key":1,"state_2_choice":3,"state_2_rt":293,"outcome":0,"rocket_colors":["#a75248","#486ea7"],"planet_colors":["#706081","#5b7c65"],"screen_resolution":[1366,768],"minimum_resolution":1,"trial":54,"drifts":[0.367,0.543,0.601,0.392],"drift_ix":1,"trial_type":"two-step-trial","trial_index":156,"time_elapsed":1091777,"internal_node_id":"0.0-67.0-0.0","task_version":"1.0","jspsych_version":"6.3.1","browser_interactions":0,"missing":false},{"state_1_ids":[1,0],"state_1_key":1,"state_1_choice":0,"state_1_rt":2680,"transition":0,"state":1,"state_2_ids":[2,3],"state_2_key":1,"state_2_choice":3,"state_2_rt":3162,"outcome":0,"rocket_colors":["#a75248","#486ea7"],"planet_colors":["#706081","#5b7c65"],"screen_resolution":[1366,768],"minimum_resolution":1,"trial":55,"drifts":[0.341,0.54,0.588,0.372],"drift_ix":1,"trial_type":"two-step-trial","trial_index":157,"time_elapsed":1099630,"internal_node_id":"0.0-68.0-0.0","task_version":"1.0","jspsych_version":"6.3.1","browser_interactions":0,"missing":false},{"state_1_ids":[0,1],"state_1_key":0,"state_1_choice":0,"state_1_rt":612,"transition":1,"state":0,"state_2_ids":[0,1],"state_2_key":1,"state_2_choice":1,"state_2_rt":3803,"outcome":1,"rocket_colors":["#a75248","#486ea7"],"planet_colors":["#706081","#5b7c65"],"screen_resolution":[1366,768],"minimum_resolution":1,"trial":56,"drifts":[0.388,0.584,0.641,0.394],"drift_ix":1,"trial_type":"two-step-trial","trial_index":158,"time_elapsed":1106133,"internal_node_id":"0.0-69.0-0.0","task_version":"1.0","jspsych_version":"6.3.1","browser_interactions":0,"missing":false},{"state_1_ids":[1,0],"state_1_key":1,"state_1_choice":0,"state_1_rt":487,"transition":1,"state":0,"state_2_ids":[0,1],"state_2_key":1,"state_2_choice":1,"state_2_rt":2443,"outcome":1,"rocket_colors":["#a75248","#486ea7"],"planet_colors":["#706081","#5b7c65"],"screen_resolution":[1366,768],"minimum_resolution":1,"trial":57,"drifts":[0.373,0.597,0.649,0.355],"drift_ix":1,"trial_type":"two-step-trial","trial_index":159,"time_elapsed":1111067,"internal_node_id":"0.0-70.0-0.0","task_version":"1.0","jspsych_version":"6.3.1","browser_interactions":0,"missing":false},{"state_1_ids":[1,0],"state_1_key":0,"state_1_choice":1,"state_1_rt":1409,"transition":0,"state":0,"state_2_ids":[0,1],"state_2_key":1,"state_2_choice":1,"state_2_rt":1011,"outcome":0,"rocket_colors":["#a75248","#486ea7"],"planet_colors":["#706081","#5b7c65"],"screen_resolution":[1366,768],"minimum_resolution":1,"trial":58,"drifts":[0.383,0.601,0.627,0.333],"drift_ix":1,"trial_type":"two-step-trial","trial_index":160,"time_elapsed":1115501,"internal_node_id":"0.0-71.0-0.0","task_version":"1.0","jspsych_version":"6.3.1","browser_interactions":0,"missing":false},{"state_1_ids":[1,0],"state_1_key":0,"state_1_choice":1,"state_1_rt":811,"transition":0,"state":0,"state_2_ids":[0,1],"state_2_key":0,"state_2_choice":0,"state_2_rt":2837,"outcome":1,"rocket_colors":["#a75248","#486ea7"],"planet_colors":["#706081","#5b7c65"],"screen_resolution":[1366,768],"minimum_resolution":1,"trial":59,"drifts":[0.401,0.574,0.656,0.323],"drift_ix":1,"trial_type":"two-step-trial","trial_index":161,"time_elapsed":1121169,"internal_node_id":"0.0-72.0-0.0","task_version":"1.0","jspsych_version":"6.3.1","browser_interactions":0,"missing":false},{"state_1_ids":[1,0],"state_1_key":1,"state_1_choice":0,"state_1_rt":1900,"transition":1,"state":0,"state_2_ids":[0,1],"state_2_key":0,"state_2_choice":0,"state_2_rt":3057,"outcome":1,"rocket_colors":["#a75248","#486ea7"],"planet_colors":["#706081","#5b7c65"],"screen_resolution":[1366,768],"minimum_resolution":1,"trial":60,"drifts":[0.433,0.567,0.64,0.284],"drift_ix":1,"trial_type":"two-step-trial","trial_index":162,"time_elapsed":1128136,"internal_node_id":"0.0-73.0-0.0","task_version":"1.0","jspsych_version":"6.3.1","browser_interactions":0,"missing":false},{"state_1_ids":[0,1],"state_1_key":1,"state_1_choice":1,"state_1_rt":1422,"transition":1,"state":1,"state_2_ids":[2,3],"state_2_key":1,"state_2_choice":3,"state_2_rt":1539,"outcome":0,"rocket_colors":["#a75248","#486ea7"],"planet_colors":["#706081","#5b7c65"],"screen_resolution":[1366,768],"minimum_resolution":1,"trial":61,"drifts":[0.443,0.536,0.633,0.265],"drift_ix":1,"trial_type":"two-step-trial","trial_index":163,"time_elapsed":1133106,"internal_node_id":"0.0-74.0-0.0","task_version":"1.0","jspsych_version":"6.3.1","browser_interactions":0,"missing":false},{"state_1_ids":[0,1],"state_1_key":0,"state_1_choice":0,"state_1_rt":473,"transition":0,"state":1,"state_2_ids":[2,3],"state_2_key":1,"state_2_choice":3,"state_2_rt":3448,"outcome":0,"rocket_colors":["#a75248","#486ea7"],"planet_colors":["#706081","#5b7c65"],"screen_resolution":[1366,768],"minimum_resolution":1,"trial":62,"drifts":[0.42,0.521,0.591,0.279],"drift_ix":1,"trial_type":"two-step-trial","trial_index":164,"time_elapsed":1139035,"internal_node_id":"0.0-75.0-0.0","task_version":"1.0","jspsych_version":"6.3.1","browser_interactions":0,"missing":false},{"state_1_ids":[0,1],"state_1_key":0,"state_1_choice":0,"state_1_rt":368,"transition":1,"state":0,"state_2_ids":[0,1],"state_2_key":0,"state_2_choice":0,"state_2_rt":744,"outcome":0,"rocket_colors":["#a75248","#486ea7"],"planet_colors":["#706081","#5b7c65"],"screen_resolution":[1366,768],"minimum_resolution":1,"trial":63,"drifts":[0.392,0.519,0.612,0.319],"drift_ix":1,"trial_type":"two-step-trial","trial_index":165,"time_elapsed":1142156,"internal_node_id":"0.0-76.0-0.0","task_version":"1.0","jspsych_version":"6.3.1","browser_interactions":0,"missing":false},{"state_1_ids":[1,0],"state_1_key":1,"state_1_choice":0,"state_1_rt":975,"transition":1,"state":0,"state_2_ids":[0,1],"state_2_key":1,"state_2_choice":1,"state_2_rt":759,"outcome":1,"rocket_colors":["#a75248","#486ea7"],"planet_colors":["#706081","#5b7c65"],"screen_resolution":[1366,768],"minimum_resolution":1,"trial":64,"drifts":[0.354,0.493,0.612,0.332],"drift_ix":1,"trial_type":"two-step-trial","trial_index":166,"time_elapsed":1145899,"internal_node_id":"0.0-77.0-0.0","task_version":"1.0","jspsych_version":"6.3.1","browser_interactions":0,"missing":false},{"state_1_ids":[1,0],"state_1_key":0,"state_1_choice":1,"state_1_rt":1789,"transition":1,"state":1,"state_2_ids":[2,3],"state_2_key":1,"state_2_choice":3,"state_2_rt":4273,"outcome":0,"rocket_colors":["#a75248","#486ea7"],"planet_colors":["#706081","#5b7c65"],"screen_resolution":[1366,768],"minimum_resolution":1,"trial":65,"drifts":[0.379,0.495,0.568,0.327],"drift_ix":1,"trial_type":"two-step-trial","trial_index":167,"time_elapsed":1153969,"internal_node_id":"0.0-78.0-0.0","task_version":"1.0","jspsych_version":"6.3.1","browser_interactions":0,"missing":false},{"state_1_ids":[0,1],"state_1_key":0,"state_1_choice":0,"state_1_rt":437,"transition":0,"state":1,"state_2_ids":[2,3],"state_2_key":0,"state_2_choice":2,"state_2_rt":2552,"outcome":0,"rocket_colors":["#a75248","#486ea7"],"planet_colors":["#706081","#5b7c65"],"screen_resolution":[1366,768],"minimum_resolution":1,"trial":66,"drifts":[0.383,0.497,0.601,0.305],"drift_ix":1,"trial_type":"two-step-trial","trial_index":168,"time_elapsed":1158969,"internal_node_id":"0.0-79.0-0.0","task_version":"1.0","jspsych_version":"6.3.1","browser_interactions":0,"missing":false},{"state_1_ids":[0,1],"state_1_key":0,"state_1_choice":0,"state_1_rt":2494,"transition":1,"state":0,"state_2_ids":[0,1],"state_2_key":1,"state_2_choice":1,"state_2_rt":2550,"outcome":0,"rocket_colors":["#a75248","#486ea7"],"planet_colors":["#706081","#5b7c65"],"screen_resolution":[1366,768],"minimum_resolution":1,"trial":67,"drifts":[0.425,0.523,0.539,0.345],"drift_ix":1,"trial_type":"two-step-trial","trial_index":169,"time_elapsed":1166020,"internal_node_id":"0.0-80.0-0.0","task_version":"1.0","jspsych_version":"6.3.1","browser_interactions":0,"missing":false},{"state_1_ids":[1,0],"state_1_key":1,"state_1_choice":0,"state_1_rt":1774,"transition":0,"state":1,"state_2_ids":[2,3],"state_2_key":0,"state_2_choice":2,"state_2_rt":1675,"outcome":0,"rocket_colors":["#a75248","#486ea7"],"planet_colors":["#706081","#5b7c65"],"screen_resolution":[1366,768],"minimum_resolution":1,"trial":68,"drifts":[0.432,0.482,0.523,0.353],"drift_ix":1,"trial_type":"two-step-trial","trial_index":170,"time_elapsed":1171476,"internal_node_id":"0.0-81.0-0.0","task_version":"1.0","jspsych_version":"6.3.1","browser_interactions":0,"missing":false},{"state_1_ids":[0,1],"state_1_key":1,"state_1_choice":1,"state_1_rt":1104,"transition":1,"state":1,"state_2_ids":[2,3],"state_2_key":0,"state_2_choice":2,"state_2_rt":1501,"outcome":0,"rocket_colors":["#a75248","#486ea7"],"planet_colors":["#706081","#5b7c65"],"screen_resolution":[1366,768],"minimum_resolution":1,"trial":69,"drifts":[0.457,0.505,0.515,0.343],"drift_ix":1,"trial_type":"two-step-trial","trial_index":171,"time_elapsed":1176092,"internal_node_id":"0.0-82.0-0.0","task_version":"1.0","jspsych_version":"6.3.1","browser_interactions":0,"missing":false},{"state_1_ids":[1,0],"state_1_key":0,"state_1_choice":1,"state_1_rt":338,"transition":0,"state":0,"state_2_ids":[0,1],"state_2_key":0,"state_2_choice":0,"state_2_rt":2043,"outcome":1,"rocket_colors":["#a75248","#486ea7"],"planet_colors":["#706081","#5b7c65"],"screen_resolution":[1366,768],"minimum_resolution":1,"trial":70,"drifts":[0.451,0.526,0.491,0.303],"drift_ix":1,"trial_type":"two-step-trial","trial_index":172,"time_elapsed":1180485,"internal_node_id":"0.0-83.0-0.0","task_version":"1.0","jspsych_version":"6.3.1","browser_interactions":0,"missing":false},{"state_1_ids":[1,0],"state_1_key":1,"state_1_choice":0,"state_1_rt":1374,"transition":0,"state":1,"state_2_ids":[2,3],"state_2_key":1,"state_2_choice":3,"state_2_rt":66,"outcome":0,"rocket_colors":["#a75248","#486ea7"],"planet_colors":["#706081","#5b7c65"],"screen_resolution":[1366,768],"minimum_resolution":1,"trial":71,"drifts":[0.425,0.552,0.478,0.262],"drift_ix":1,"trial_type":"two-step-trial","trial_index":173,"time_elapsed":1183933,"internal_node_id":"0.0-84.0-0.0","task_version":"1.0","jspsych_version":"6.3.1","browser_interactions":0,"missing":false},{"state_1_ids":[1,0],"state_1_key":0,"state_1_choice":1,"state_1_rt":614,"transition":0,"state":0,"state_2_ids":[0,1],"state_2_key":1,"state_2_choice":1,"state_2_rt":742,"outcome":0,"rocket_colors":["#a75248","#486ea7"],"planet_colors":["#706081","#5b7c65"],"screen_resolution":[1366,768],"minimum_resolution":1,"trial":72,"drifts":[0.434,0.518,0.459,0.266],"drift_ix":1,"trial_type":"two-step-trial","trial_index":174,"time_elapsed":1187297,"internal_node_id":"0.0-85.0-0.0","task_version":"1.0","jspsych_version":"6.3.1","browser_interactions":0,"missing":false},{"state_1_ids":[1,0],"state_1_key":1,"state_1_choice":0,"state_1_rt":763,"transition":1,"state":0,"state_2_ids":[0,1],"state_2_key":0,"state_2_choice":0,"state_2_rt":1458,"outcome":1,"rocket_colors":["#a75248","#486ea7"],"planet_colors":["#706081","#5b7c65"],"screen_resolution":[1366,768],"minimum_resolution":1,"trial":73,"drifts":[0.434,0.507,0.435,0.282],"drift_ix":1,"trial_type":"two-step-trial","trial_index":175,"time_elapsed":1191527,"internal_node_id":"0.0-86.0-0.0","task_version":"1.0","jspsych_version":"6.3.1","browser_interactions":0,"missing":false},{"state_1_ids":[0,1],"state_1_key":1,"state_1_choice":1,"state_1_rt":432,"transition":1,"state":1,"state_2_ids":[2,3],"state_2_key":0,"state_2_choice":2,"state_2_rt":1021,"outcome":0,"rocket_colors":["#a75248","#486ea7"],"planet_colors":["#706081","#5b7c65"],"screen_resolution":[1366,768],"minimum_resolution":1,"trial":74,"drifts":[0.474,0.468,0.425,0.256],"drift_ix":1,"trial_type":"two-step-trial","trial_index":176,"time_elapsed":1194988,"internal_node_id":"0.0-87.0-0.0","task_version":"1.0","jspsych_version":"6.3.1","browser_interactions":0,"missing":false},{"state_1_ids":[0,1],"state_1_key":0,"state_1_choice":0,"state_1_rt":445,"transition":1,"state":0,"state_2_ids":[0,1],"state_2_key":0,"state_2_choice":0,"state_2_rt":1959,"outcome":1,"rocket_colors":["#a75248","#486ea7"],"planet_colors":["#706081","#5b7c65"],"screen_resolution":[1366,768],"minimum_resolution":1,"trial":75,"drifts":[0.46,0.495,0.398,0.253],"drift_ix":1,"trial_type":"two-step-trial","trial_index":177,"time_elapsed":1199400,"internal_node_id":"0.0-88.0-0.0","task_version":"1.0","jspsych_version":"6.3.1","browser_interactions":0,"missing":false},{"state_1_ids":[1,0],"state_1_key":0,"state_1_choice":1,"state_1_rt":963,"transition":1,"state":1,"state_2_ids":[2,3],"state_2_key":0,"state_2_choice":2,"state_2_rt":2388,"outcome":0,"rocket_colors":["#a75248","#486ea7"],"planet_colors":["#706081","#5b7c65"],"screen_resolution":[1366,768],"minimum_resolution":1,"trial":76,"drifts":[0.432,0.494,0.438,0.256],"drift_ix":1,"trial_type":"two-step-trial","trial_index":178,"time_elapsed":1204756,"internal_node_id":"0.0-89.0-0.0","task_version":"1.0","jspsych_version":"6.3.1","browser_interactions":0,"missing":false},{"state_1_ids":[0,1],"state_1_key":0,"state_1_choice":0,"state_1_rt":546,"transition":1,"state":0,"state_2_ids":[0,1],"state_2_key":1,"state_2_choice":1,"state_2_rt":687,"outcome":0,"rocket_colors":["#a75248","#486ea7"],"planet_colors":["#706081","#5b7c65"],"screen_resolution":[1366,768],"minimum_resolution":1,"trial":77,"drifts":[0.461,0.493,0.446,0.27],"drift_ix":1,"trial_type":"two-step-trial","trial_index":179,"time_elapsed":1207998,"internal_node_id":"0.0-90.0-0.0","task_version":"1.0","jspsych_version":"6.3.1","browser_interactions":0,"missing":false},{"state_1_ids":[0,1],"state_1_key":1,"state_1_choice":1,"state_1_rt":206,"transition":1,"state":1,"state_2_ids":[2,3],"state_2_key":0,"state_2_choice":2,"state_2_rt":782,"outcome":0,"rocket_colors":["#a75248","#486ea7"],"planet_colors":["#706081","#5b7c65"],"screen_resolution":[1366,768],"minimum_resolution":1,"trial":78,"drifts":[0.514,0.513,0.473,0.268],"drift_ix":1,"trial_type":"two-step-trial","trial_index":180,"time_elapsed":1210996,"internal_node_id":"0.0-91.0-0.0","task_version":"1.0","jspsych_version":"6.3.1","browser_interactions":0,"missing":false},{"state_1_ids":[0,1],"state_1_key":1,"state_1_choice":1,"state_1_rt":38,"transition":1,"state":1,"state_2_ids":[2,3],"state_2_key":0,"state_2_choice":2,"state_2_rt":357,"outcome":0,"rocket_colors":["#a75248","#486ea7"],"planet_colors":["#706081","#5b7c65"],"screen_resolution":[1366,768],"minimum_resolution":1,"trial":79,"drifts":[0.504,0.552,0.491,0.291],"drift_ix":1,"trial_type":"two-step-trial","trial_index":181,"time_elapsed":1213397,"internal_node_id":"0.0-92.0-0.0","task_version":"1.0","jspsych_version":"6.3.1","browser_interactions":0,"missing":false},{"state_1_ids":[0,1],"state_1_key":1,"state_1_choice":1,"state_1_rt":964,"transition":1,"state":1,"state_2_ids":[2,3],"state_2_key":0,"state_2_choice":2,"state_2_rt":1088,"outcome":1,"rocket_colors":["#a75248","#486ea7"],"planet_colors":["#706081","#5b7c65"],"screen_resolution":[1366,768],"minimum_resolution":1,"trial":80,"drifts":[0.513,0.538,0.46,0.295],"drift_ix":1,"trial_type":"two-step-trial","trial_index":182,"time_elapsed":1217469,"internal_node_id":"0.0-93.0-0.0","task_version":"1.0","jspsych_version":"6.3.1","browser_interactions":0,"missing":false},{"state_1_ids":[0,1],"state_1_key":0,"state_1_choice":0,"state_1_rt":203,"transition":0,"state":1,"state_2_ids":[2,3],"state_2_key":0,"state_2_choice":2,"state_2_rt":527,"outcome":1,"rocket_colors":["#a75248","#486ea7"],"planet_colors":["#706081","#5b7c65"],"screen_resolution":[1366,768],"minimum_resolution":1,"trial":81,"drifts":[0.523,0.491,0.47,0.326],"drift_ix":1,"trial_type":"two-step-trial","trial_index":183,"time_elapsed":1220205,"internal_node_id":"0.0-94.0-0.0","task_version":"1.0","jspsych_version":"6.3.1","browser_interactions":0,"missing":false},{"state_1_ids":[0,1],"state_1_key":1,"state_1_choice":1,"state_1_rt":1878,"transition":0,"state":0,"state_2_ids":[0,1],"state_2_key":1,"state_2_choice":1,"state_2_rt":735,"outcome":1,"rocket_colors":["#a75248","#486ea7"],"planet_colors":["#706081","#5b7c65"],"screen_resolution":[1366,768],"minimum_resolution":1,"trial":82,"drifts":[0.525,0.548,0.454,0.36],"drift_ix":1,"trial_type":"two-step-trial","trial_index":184,"time_elapsed":1224826,"internal_node_id":"0.0-95.0-0.0","task_version":"1.0","jspsych_version":"6.3.1","browser_interactions":0,"missing":false},{"state_1_ids":[1,0],"state_1_key":0,"state_1_choice":1,"state_1_rt":1373,"transition":1,"state":1,"state_2_ids":[2,3],"state_2_key":0,"state_2_choice":2,"state_2_rt":1098,"outcome":0,"rocket_colors":["#a75248","#486ea7"],"planet_colors":["#706081","#5b7c65"],"screen_resolution":[1366,768],"minimum_resolution":1,"trial":83,"drifts":[0.538,0.579,0.452,0.325],"drift_ix":1,"trial_type":"two-step-trial","trial_index":185,"time_elapsed":1229314,"internal_node_id":"0.0-96.0-0.0","task_version":"1.0","jspsych_version":"6.3.1","browser_interactions":0,"missing":false},{"state_1_ids":[1,0],"state_1_key":0,"state_1_choice":1,"state_1_rt":126,"transition":0,"state":0,"state_2_ids":[0,1],"state_2_key":1,"state_2_choice":1,"state_2_rt":735,"outcome":0,"rocket_colors":["#a75248","#486ea7"],"planet_colors":["#706081","#5b7c65"],"screen_resolution":[1366,768],"minimum_resolution":1,"trial":84,"drifts":[0.524,0.64,0.439,0.371],"drift_ix":1,"trial_type":"two-step-trial","trial_index":186,"time_elapsed":1232180,"internal_node_id":"0.0-97.0-0.0","task_version":"1.0","jspsych_version":"6.3.1","browser_interactions":0,"missing":false},{"state_1_ids":[0,1],"state_1_key":0,"state_1_choice":0,"state_1_rt":985,"transition":1,"state":0,"state_2_ids":[0,1],"state_2_key":0,"state_2_choice":0,"state_2_rt":1157,"outcome":0,"rocket_colors":["#a75248","#486ea7"],"planet_colors":["#706081","#5b7c65"],"screen_resolution":[1366,768],"minimum_resolution":1,"trial":85,"drifts":[0.524,0.637,0.455,0.377],"drift_ix":1,"trial_type":"two-step-trial","trial_index":187,"time_elapsed":1236328,"internal_node_id":"0.0-98.0-0.0","task_version":"1.0","jspsych_version":"6.3.1","browser_interactions":0,"missing":false},{"state_1_ids":[1,0],"state_1_key":1,"state_1_choice":0,"state_1_rt":922,"transition":1,"state":0,"state_2_ids":[0,1],"state_2_key":0,"state_2_choice":0,"state_2_rt":1350,"outcome":1,"rocket_colors":["#a75248","#486ea7"],"planet_colors":["#706081","#5b7c65"],"screen_resolution":[1366,768],"minimum_resolution":1,"trial":86,"drifts":[0.535,0.666,0.471,0.392],"drift_ix":1,"trial_type":"two-step-trial","trial_index":188,"time_elapsed":1240609,"internal_node_id":"0.0-99.0-0.0","task_version":"1.0","jspsych_version":"6.3.1","browser_interactions":0,"missing":false},{"state_1_ids":[1,0],"state_1_key":0,"state_1_choice":1,"state_1_rt":1843,"transition":1,"state":1,"state_2_ids":[2,3],"state_2_key":0,"state_2_choice":2,"state_2_rt":916,"outcome":1,"rocket_colors":["#a75248","#486ea7"],"planet_colors":["#706081","#5b7c65"],"screen_resolution":[1366,768],"minimum_resolution":1,"trial":87,"drifts":[0.504,0.695,0.423,0.387],"drift_ix":1,"trial_type":"two-step-trial","trial_index":189,"time_elapsed":1245374,"internal_node_id":"0.0-100.0-0.0","task_version":"1.0","jspsych_version":"6.3.1","browser_interactions":0,"missing":false},{"state_1_ids":[1,0],"state_1_key":1,"state_1_choice":0,"state_1_rt":179,"transition":1,"state":0,"state_2_ids":[0,1],"state_2_key":0,"state_2_choice":0,"state_2_rt":618,"outcome":1,"rocket_colors":["#a75248","#486ea7"],"planet_colors":["#706081","#5b7c65"],"screen_resolution":[1366,768],"minimum_resolution":1,"trial":88,"drifts":[0.485,0.667,0.458,0.39],"drift_ix":1,"trial_type":"two-step-trial","trial_index":190,"time_elapsed":1248179,"internal_node_id":"0.0-101.0-0.0","task_version":"1.0","jspsych_version":"6.3.1","browser_interactions":0,"missing":false},{"state_1_ids":[1,0],"state_1_key":1,"state_1_choice":0,"state_1_rt":15,"transition":1,"state":0,"state_2_ids":[0,1],"state_2_key":0,"state_2_choice":0,"state_2_rt":253,"outcome":0,"rocket_colors":["#a75248","#486ea7"],"planet_colors":["#706081","#5b7c65"],"screen_resolution":[1366,768],"minimum_resolution":1,"trial":89,"drifts":[0.47,0.661,0.502,0.408],"drift_ix":1,"trial_type":"two-step-trial","trial_index":191,"time_elapsed":1250456,"internal_node_id":"0.0-102.0-0.0","task_version":"1.0","jspsych_version":"6.3.1","browser_interactions":0,"missing":false},{"state_1_ids":[1,0],"state_1_key":0,"state_1_choice":1,"state_1_rt":347,"transition":1,"state":1,"state_2_ids":[2,3],"state_2_key":0,"state_2_choice":2,"state_2_rt":1077,"outcome":0,"rocket_colors":["#a75248","#486ea7"],"planet_colors":["#706081","#5b7c65"],"screen_resolution":[1366,768],"minimum_resolution":1,"trial":90,"drifts":[0.46,0.678,0.464,0.349],"drift_ix":1,"trial_type":"two-step-trial","trial_index":192,"time_elapsed":1253888,"internal_node_id":"0.0-103.0-0.0","task_version":"1.0","jspsych_version":"6.3.1","browser_interactions":0,"missing":false},{"state_1_ids":[1,0],"state_1_key":0,"state_1_choice":1,"state_1_rt":216,"transition":1,"state":1,"state_2_ids":[2,3],"state_2_key":0,"state_2_choice":2,"state_2_rt":178,"outcome":0,"rocket_colors":["#a75248","#486ea7"],"planet_colors":["#706081","#5b7c65"],"screen_resolution":[1366,768],"minimum_resolution":1,"trial":91,"drifts":[0.46,0.655,0.459,0.313],"drift_ix":1,"trial_type":"two-step-trial","trial_index":193,"time_elapsed":1256287,"internal_node_id":"0.0-104.0-0.0","task_version":"1.0","jspsych_version":"6.3.1","browser_interactions":0,"missing":false},{"state_1_ids":[0,1],"state_1_key":1,"state_1_choice":1,"state_1_rt":1584,"transition":0,"state":0,"state_2_ids":[0,1],"state_2_key":1,"state_2_choice":1,"state_2_rt":800,"outcome":1,"rocket_colors":["#a75248","#486ea7"],"planet_colors":["#706081","#5b7c65"],"screen_resolution":[1366,768],"minimum_resolution":1,"trial":92,"drifts":[0.459,0.663,0.496,0.332],"drift_ix":1,"trial_type":"two-step-trial","trial_index":194,"time_elapsed":1260679,"internal_node_id":"0.0-105.0-0.0","task_version":"1.0","jspsych_version":"6.3.1","browser_interactions":0,"missing":false},{"state_1_ids":[0,1],"state_1_key":0,"state_1_choice":0,"state_1_rt":421,"transition":0,"state":1,"state_2_ids":[2,3],"state_2_key":0,"state_2_choice":2,"state_2_rt":745,"outcome":1,"rocket_colors":["#a75248","#486ea7"],"planet_colors":["#706081","#5b7c65"],"screen_resolution":[1366,768],"minimum_resolution":1,"trial":93,"drifts":[0.47,0.662,0.476,0.3],"drift_ix":1,"trial_type":"two-step-trial","trial_index":195,"time_elapsed":1263947,"internal_node_id":"0.0-106.0-0.0","task_version":"1.0","jspsych_version":"6.3.1","browser_interactions":0,"missing":false},{"state_1_ids":[0,1],"state_1_key":0,"state_1_choice":0,"state_1_rt":193,"transition":1,"state":0,"state_2_ids":[0,1],"state_2_key":0,"state_2_choice":0,"state_2_rt":481,"outcome":1,"rocket_colors":["#a75248","#486ea7"],"planet_colors":["#706081","#5b7c65"],"screen_resolution":[1366,768],"minimum_resolution":1,"trial":94,"drifts":[0.495,0.666,0.452,0.265],"drift_ix":1,"trial_type":"two-step-trial","trial_index":196,"time_elapsed":1266634,"internal_node_id":"0.0-107.0-0.0","task_version":"1.0","jspsych_version":"6.3.1","browser_interactions":0,"missing":false},{"state_1_ids":[1,0],"state_1_key":0,"state_1_choice":1,"state_1_rt":800,"transition":1,"state":1,"state_2_ids":[2,3],"state_2_key":1,"state_2_choice":3,"state_2_rt":205,"outcome":1,"rocket_colors":["#a75248","#486ea7"],"planet_colors":["#706081","#5b7c65"],"screen_resolution":[1366,768],"minimum_resolution":1,"trial":95,"drifts":[0.524,0.697,0.448,0.345],"drift_ix":1,"trial_type":"two-step-trial","trial_index":197,"time_elapsed":1269644,"internal_node_id":"0.0-108.0-0.0","task_version":"1.0","jspsych_version":"6.3.1","browser_interactions":0,"missing":false},{"state_1_ids":[1,0],"state_1_key":0,"state_1_choice":1,"state_1_rt":439,"transition":1,"state":1,"state_2_ids":[2,3],"state_2_key":0,"state_2_choice":2,"state_2_rt":847,"outcome":0,"rocket_colors":["#a75248","#486ea7"],"planet_colors":["#706081","#5b7c65"],"screen_resolution":[1366,768],"minimum_resolution":1,"trial":96,"drifts":[0.524,0.681,0.435,0.338],"drift_ix":1,"trial_type":"two-step-trial","trial_index":198,"time_elapsed":1272936,"internal_node_id":"0.0-109.0-0.0","task_version":"1.0","jspsych_version":"6.3.1","browser_interactions":0,"missing":false},{"state_1_ids":[1,0],"state_1_key":0,"state_1_choice":1,"state_1_rt":1617,"transition":1,"state":1,"state_2_ids":[2,3],"state_2_key":1,"state_2_choice":3,"state_2_rt":3,"outcome":0,"rocket_colors":["#a75248","#486ea7"],"planet_colors":["#706081","#5b7c65"],"screen_resolution":[1366,768],"minimum_resolution":1,"trial":97,"drifts":[0.542,0.675,0.441,0.363],"drift_ix":1,"trial_type":"two-step-trial","trial_index":199,"time_elapsed":1276619,"internal_node_id":"0.0-110.0-0.0","task_version":"1.0","jspsych_version":"6.3.1","browser_interactions":0,"missing":false},{"state_1_ids":[1,0],"state_1_key":0,"state_1_choice":1,"state_1_rt":364,"transition":1,"state":1,"state_2_ids":[2,3],"state_2_key":1,"state_2_choice":3,"state_2_rt":946,"outcome":1,"rocket_colors":["#a75248","#486ea7"],"planet_colors":["#706081","#5b7c65"],"screen_resolution":[1366,768],"minimum_resolution":1,"trial":98,"drifts":[0.542,0.7,0.418,0.358],"drift_ix":1,"trial_type":"two-step-trial","trial_index":200,"time_elapsed":1279936,"internal_node_id":"0.0-111.0-0.0","task_version":"1.0","jspsych_version":"6.3.1","browser_interactions":0,"missing":false},{"state_1_ids":[0,1],"state_1_key":0,"state_1_choice":0,"state_1_rt":2680,"transition":1,"state":0,"state_2_ids":[0,1],"state_2_key":0,"state_2_choice":0,"state_2_rt":1123,"outcome":1,"rocket_colors":["#a75248","#486ea7"],"planet_colors":["#706081","#5b7c65"],"screen_resolution":[1366,768],"minimum_resolution":1,"trial":99,"drifts":[0.586,0.735,0.41,0.338],"drift_ix":1,"trial_type":"two-step-trial","trial_index":201,"time_elapsed":1285748,"internal_node_id":"0.0-112.0-0.0","task_version":"1.0","jspsych_version":"6.3.1","browser_interactions":0,"missing":false},{"state_1_ids":[1,0],"state_1_key":1,"state_1_choice":0,"state_1_rt":846,"transition":1,"state":0,"state_2_ids":[0,1],"state_2_key":0,"state_2_choice":0,"state_2_rt":265,"outcome":0,"rocket_colors":["#a75248","#486ea7"],"planet_colors":["#706081","#5b7c65"],"screen_resolution":[1366,768],"minimum_resolution":1,"trial":100,"drifts":[0.591,0.693,0.426,0.36],"drift_ix":1,"trial_type":"two-step-trial","trial_index":202,"time_elapsed":1288865,"internal_node_id":"0.0-113.0-0.0","task_version":"1.0","jspsych_version":"6.3.1","browser_interactions":0,"missing":false},{"view_history":"[{\"page_index\":0,\"viewing_time\":658},{\"page_index\":1,\"viewing_time\":77948}]","rt":78607,"trial_type":"two-step-instructions","trial_index":203,"time_elapsed":1367479,"internal_node_id":"0.0-114.0","task_version":"1.0","jspsych_version":"6.3.1"},{"state_1_ids":[0,1],"state_1_key":0,"state_1_choice":0,"state_1_rt":1529,"transition":1,"state":0,"state_2_ids":[0,1],"state_2_key":1,"state_2_choice":1,"state_2_rt":828,"outcome":0,"rocket_colors":["#a75248","#486ea7"],"planet_colors":["#706081","#5b7c65"],"screen_resolution":[1366,768],"minimum_resolution":1,"trial":101,"drifts":[0.639,0.722,0.416,0.356],"drift_ix":1,"trial_type":"two-step-trial","trial_index":204,"time_elapsed":1371851,"internal_node_id":"0.0-115.0-0.0","task_version":"1.0","jspsych_version":"6.3.1","browser_interactions":0,"missing":false},{"state_1_ids":[1,0],"state_1_key":1,"state_1_choice":0,"state_1_rt":2080,"transition":1,"state":0,"state_2_ids":[0,1],"state_2_key":0,"state_2_choice":0,"state_2_rt":824,"outcome":1,"rocket_colors":["#a75248","#486ea7"],"planet_colors":["#706081","#5b7c65"],"screen_resolution":[1366,768],"minimum_resolution":1,"trial":102,"drifts":[0.661,0.749,0.353,0.384],"drift_ix":1,"trial_type":"two-step-trial","trial_index":205,"time_elapsed":1376767,"internal_node_id":"0.0-116.0-0.0","task_version":"1.0","jspsych_version":"6.3.1","browser_interactions":0,"missing":false},{"state_1_ids":[0,1],"state_1_key":1,"state_1_choice":1,"state_1_rt":1456,"transition":1,"state":1,"state_2_ids":[2,3],"state_2_key":0,"state_2_choice":2,"state_2_rt":1326,"outcome":0,"rocket_colors":["#a75248","#486ea7"],"planet_colors":["#706081","#5b7c65"],"screen_resolution":[1366,768],"minimum_resolution":1,"trial":103,"drifts":[0.659,0.729,0.293,0.396],"drift_ix":1,"trial_type":"two-step-trial","trial_index":206,"time_elapsed":1381560,"internal_node_id":"0.0-117.0-0.0","task_version":"1.0","jspsych_version":"6.3.1","browser_interactions":0,"missing":false},{"state_1_ids":[0,1],"state_1_key":1,"state_1_choice":1,"state_1_rt":3235,"transition":1,"state":1,"state_2_ids":[2,3],"state_2_key":0,"state_2_choice":2,"state_2_rt":957,"outcome":1,"rocket_colors":["#a75248","#486ea7"],"planet_colors":["#706081","#5b7c65"],"screen_resolution":[1366,768],"minimum_resolution":1,"trial":104,"drifts":[0.615,0.721,0.288,0.378],"drift_ix":1,"trial_type":"two-step-trial","trial_index":207,"time_elapsed":1387759,"internal_node_id":"0.0-118.0-0.0","task_version":"1.0","jspsych_version":"6.3.1","browser_interactions":0,"missing":false},{"state_1_ids":[0,1],"state_1_key":1,"state_1_choice":1,"state_1_rt":87,"transition":0,"state":0,"state_2_ids":[0,1],"state_2_key":1,"state_2_choice":1,"state_2_rt":1491,"outcome":1,"rocket_colors":["#a75248","#486ea7"],"planet_colors":["#706081","#5b7c65"],"screen_resolution":[1366,768],"minimum_resolution":1,"trial":105,"drifts":[0.562,0.742,0.297,0.343],"drift_ix":1,"trial_type":"two-step-trial","trial_index":208,"time_elapsed":1391344,"internal_node_id":"0.0-119.0-0.0","task_version":"1.0","jspsych_version":"6.3.1","browser_interactions":0,"missing":false},{"state_1_ids":[0,1],"state_1_key":0,"state_1_choice":0,"state_1_rt":600,"transition":0,"state":1,"state_2_ids":[2,3],"state_2_key":0,"state_2_choice":2,"state_2_rt":1216,"outcome":1,"rocket_colors":["#a75248","#486ea7"],"planet_colors":["#706081","#5b7c65"],"screen_resolution":[1366,768],"minimum_resolution":1,"trial":106,"drifts":[0.532,0.742,0.25,0.332],"drift_ix":1,"trial_type":"two-step-trial","trial_index":209,"time_elapsed":1395168,"internal_node_id":"0.0-120.0-0.0","task_version":"1.0","jspsych_version":"6.3.1","browser_interactions":0,"missing":false},{"state_1_ids":[0,1],"state_1_key":0,"state_1_choice":0,"state_1_rt":481,"transition":1,"state":0,"state_2_ids":[0,1],"state_2_key":1,"state_2_choice":1,"state_2_rt":2746,"outcome":1,"rocket_colors":["#a75248","#486ea7"],"planet_colors":["#706081","#5b7c65"],"screen_resolution":[1366,768],"minimum_resolution":1,"trial":107,"drifts":[0.531,0.742,0.255,0.33],"drift_ix":1,"trial_type":"two-step-trial","trial_index":210,"time_elapsed":1400405,"internal_node_id":"0.0-121.0-0.0","task_version":"1.0","jspsych_version":"6.3.1","browser_interactions":0,"missing":false},{"state_1_ids":[0,1],"state_1_key":1,"state_1_choice":1,"state_1_rt":1612,"transition":1,"state":1,"state_2_ids":[2,3],"state_2_key":1,"state_2_choice":3,"state_2_rt":1671,"outcome":0,"rocket_colors":["#a75248","#486ea7"],"planet_colors":["#706081","#5b7c65"],"screen_resolution":[1366,768],"minimum_resolution":1,"trial":108,"drifts":[0.576,0.733,0.281,0.338],"drift_ix":1,"trial_type":"two-step-trial","trial_index":211,"time_elapsed":1405696,"internal_node_id":"0.0-122.0-0.0","task_version":"1.0","jspsych_version":"6.3.1","browser_interactions":0,"missing":false},{"state_1_ids":[0,1],"state_1_key":0,"state_1_choice":0,"state_1_rt":464,"transition":1,"state":0,"state_2_ids":[0,1],"state_2_key":0,"state_2_choice":0,"state_2_rt":2072,"outcome":1,"rocket_colors":["#a75248","#486ea7"],"planet_colors":["#706081","#5b7c65"],"screen_resolution":[1366,768],"minimum_resolution":1,"trial":109,"drifts":[0.593,0.74,0.277,0.333],"drift_ix":1,"trial_type":"two-step-trial","trial_index":212,"time_elapsed":1410243,"internal_node_id":"0.0-123.0-0.0","task_version":"1.0","jspsych_version":"6.3.1","browser_interactions":0,"missing":false},{"state_1_ids":[1,0],"state_1_key":1,"state_1_choice":0,"state_1_rt":466,"transition":1,"state":0,"state_2_ids":[0,1],"state_2_key":0,"state_2_choice":0,"state_2_rt":1067,"outcome":0,"rocket_colors":["#a75248","#486ea7"],"planet_colors":["#706081","#5b7c65"],"screen_resolution":[1366,768],"minimum_resolution":1,"trial":110,"drifts":[0.57,0.735,0.318,0.349],"drift_ix":1,"trial_type":"two-step-trial","trial_index":213,"time_elapsed":1413783,"internal_node_id":"0.0-124.0-0.0","task_version":"1.0","jspsych_version":"6.3.1","browser_interactions":0,"missing":false},{"state_1_ids":[0,1],"state_1_key":1,"state_1_choice":1,"state_1_rt":1752,"transition":1,"state":1,"state_2_ids":[2,3],"state_2_key":0,"state_2_choice":2,"state_2_rt":562,"outcome":0,"rocket_colors":["#a75248","#486ea7"],"planet_colors":["#706081","#5b7c65"],"screen_resolution":[1366,768],"minimum_resolution":1,"trial":111,"drifts":[0.566,0.726,0.306,0.333],"drift_ix":1,"trial_type":"two-step-trial","trial_index":214,"time_elapsed":1418165,"internal_node_id":"0.0-125.0-0.0","task_version":"1.0","jspsych_version":"6.3.1","browser_interactions":0,"missing":false},{"state_1_ids":[0,1],"state_1_key":1,"state_1_choice":1,"state_1_rt":120,"transition":1,"state":1,"state_2_ids":[2,3],"state_2_key":1,"state_2_choice":3,"state_2_rt":1146,"outcome":1,"rocket_colors":["#a75248","#486ea7"],"planet_colors":["#706081","#5b7c65"],"screen_resolution":[1366,768],"minimum_resolution":1,"trial":112,"drifts":[0.552,0.734,0.35,0.354],"drift_ix":1,"trial_type":"two-step-trial","trial_index":215,"time_elapsed":1421441,"internal_node_id":"0.0-126.0-0.0","task_version":"1.0","jspsych_version":"6.3.1","browser_interactions":0,"missing":false},{"state_1_ids":[0,1],"state_1_key":0,"state_1_choice":0,"state_1_rt":1036,"transition":1,"state":0,"state_2_ids":[0,1],"state_2_key":1,"state_2_choice":1,"state_2_rt":2826,"outcome":0,"rocket_colors":["#a75248","#486ea7"],"planet_colors":["#706081","#5b7c65"],"screen_resolution":[1366,768],"minimum_resolution":1,"trial":113,"drifts":[0.503,0.684,0.352,0.329],"drift_ix":1,"trial_type":"two-step-trial","trial_index":216,"time_elapsed":1427344,"internal_node_id":"0.0-127.0-0.0","task_version":"1.0","jspsych_version":"6.3.1","browser_interactions":0,"missing":false},{"state_1_ids":[1,0],"state_1_key":1,"state_1_choice":0,"state_1_rt":682,"transition":1,"state":0,"state_2_ids":[0,1],"state_2_key":0,"state_2_choice":0,"state_2_rt":2921,"outcome":1,"rocket_colors":["#a75248","#486ea7"],"planet_colors":["#706081","#5b7c65"],"screen_resolution":[1366,768],"minimum_resolution":1,"trial":114,"drifts":[0.517,0.664,0.374,0.314],"drift_ix":1,"trial_type":"two-step-trial","trial_index":217,"time_elapsed":1432950,"internal_node_id":"0.0-128.0-0.0","task_version":"1.0","jspsych_version":"6.3.1","browser_interactions":0,"missing":false},{"state_1_ids":[1,0],"state_1_key":1,"state_1_choice":0,"state_1_rt":3271,"transition":0,"state":1,"state_2_ids":[2,3],"state_2_key":0,"state_2_choice":2,"state_2_rt":1227,"outcome":0,"rocket_colors":["#a75248","#486ea7"],"planet_colors":["#706081","#5b7c65"],"screen_resolution":[1366,768],"minimum_resolution":1,"trial":115,"drifts":[0.505,0.635,0.405,0.281],"drift_ix":1,"trial_type":"two-step-trial","trial_index":218,"time_elapsed":1439456,"internal_node_id":"0.0-129.0-0.0","task_version":"1.0","jspsych_version":"6.3.1","browser_interactions":0,"missing":false},{"state_1_ids":[0,1],"state_1_key":1,"state_1_choice":1,"state_1_rt":1947,"transition":1,"state":1,"state_2_ids":[2,3],"state_2_key":0,"state_2_choice":2,"state_2_rt":1136,"outcome":1,"rocket_colors":["#a75248","#486ea7"],"planet_colors":["#706081","#5b7c65"],"screen_resolution":[1366,768],"minimum_resolution":1,"trial":116,"drifts":[0.506,0.651,0.43,0.328],"drift_ix":1,"trial_type":"two-step-trial","trial_index":219,"time_elapsed":1444598,"internal_node_id":"0.0-130.0-0.0","task_version":"1.0","jspsych_version":"6.3.1","browser_interactions":0,"missing":false},{"state_1_ids":[1,0],"state_1_key":1,"state_1_choice":0,"state_1_rt":216,"transition":1,"state":0,"state_2_ids":[0,1],"state_2_key":0,"state_2_choice":0,"state_2_rt":1923,"outcome":1,"rocket_colors":["#a75248","#486ea7"],"planet_colors":["#706081","#5b7c65"],"screen_resolution":[1366,768],"minimum_resolution":1,"trial":117,"drifts":[0.524,0.623,0.426,0.298],"drift_ix":1,"trial_type":"two-step-trial","trial_index":220,"time_elapsed":1448750,"internal_node_id":"0.0-131.0-0.0","task_version":"1.0","jspsych_version":"6.3.1","browser_interactions":0,"missing":false},{"sta