[{"success":true,"timeout":false,"failed_images":[],"failed_audio":[],"failed_video":[],"trial_type":"preload","trial_index":0,"time_elapsed":690,"internal_node_id":"0.0-0.0","task_version":"1.0","jspsych_version":"6.3.1"},{"success":true,"trial_type":"fullscreen","trial_index":1,"time_elapsed":37891,"internal_node_id":"0.0-1.0","task_version":"1.0","jspsych_version":"6.3.1"},{"view_history":[{"page_index":0,"viewing_time":2454.7000000029802}],"rt":2455.3000000044703,"trial_type":"instructions","trial_index":2,"time_elapsed":40350,"internal_node_id":"0.0-2.0","task_version":"1.0","jspsych_version":"6.3.1"},{"responses":{"Q03":"6","Q04":"6","Q01":"6","Q02":"6","Q06":"6","Q05":"6","Q07":"3"},"rt":13840.60000000149,"item_order":[2,3,0,1,5,4,6],"radio_events":[2137,6362.70000000298,7537.80000000447,8635.60000000149,10318.80000000447,11256.80000000447,12702.10000000149],"key_events":[],"mouse_events":[0.30000000447034836,2137,5648.20000000298,6362.70000000298,7537.80000000447,8635.60000000149,10318.80000000447,11256.80000000447,12702.10000000149,13838],"straightlining":0.42857142857142855,"zigzagging":0.3333333333333333,"honeypot":0,"survey":"artistic","trial_type":"survey-template","trial_index":3,"time_elapsed":54200,"internal_node_id":"0.0-3.0","task_version":"1.0","jspsych_version":"6.3.1"},{"responses":{"Q05":"0","Q03":"0","Q06":"0","Q07":"0","Q04":"0","Q01":"0","Q08":"0","Q02":"0"},"rt":50200,"item_order":[4,2,5,6,3,0,7,1],"radio_events":[3078.1999999955297,3848,4753.19999999553,8090.5,9083.10000000149,9852.89999999851,10799,12704.89999999851],"key_events":[],"mouse_events":[3078.1999999955297,3848,4753.19999999553,8090.5,9083.10000000149,9852.89999999851,10799,12704.89999999851,50198.5],"straightlining":1,"zigzagging":0,"honeypot":0,"survey":"anxiety","trial_type":"survey-template","trial_index":4,"time_elapsed":104408,"internal_node_id":"0.0-4.0","task_version":"1.0","jspsych_version":"6.3.1"},{"responses":{"Q01":"1","Q07":"6","Q04":"1","Q02":"0","Q03":"0","Q06":"0","Q05":"0"},"rt":41419,"item_order":[0,6,3,1,2,5,4],"radio_events":[28999.90000000596,30691.5,32981.10000000149,34212.10000000149,35109.60000000149,36063.40000000596,38905.70000000298],"key_events":[],"mouse_events":[28999.90000000596,30691.5,32981.10000000149,34212.10000000149,35109.60000000149,36063.40000000596,38311.70000000298,38905.70000000298,41416.70000000298],"straightlining":0.5714285714285714,"zigzagging":0.16666666666666666,"honeypot":0,"survey":"greed","trial_type":"survey-template","trial_index":5,"time_elapsed":145834,"internal_node_id":"0.0-5.0","task_version":"1.0","jspsych_version":"6.3.1"},{"responses":{"Q02":"1","Q04":"1","Q07":"0","Q01":"0","Q08":"3","Q06":"1","Q05":"0","Q03":"0"},"rt":51332,"item_order":[1,3,6,0,7,5,4,2],"radio_events":[12832.29999999702,21912.60000000149,27423.89999999851,31572.60000000149,37482.60000000149,43486.29999999702,47428.5,49914.89999999851],"key_events":[],"mouse_events":[12832.29999999702,21912.60000000149,27423.89999999851,31572.60000000149,37482.60000000149,43486.29999999702,47428.5,49914.89999999851,51331.69999999553],"straightlining":0.5,"zigzagging":0.42857142857142855,"honeypot":0,"survey":"mania","trial_type":"survey-template","trial_index":6,"time_elapsed":197172,"internal_node_id":"0.0-6.0","task_version":"1.0","jspsych_version":"6.3.1"},{"responses":{"Q04":"0","Q01":"0","Q06":"0","Q03":"0","Q02":"0","Q08":"0","Q07":"0","Q05":"0"},"rt":23151.39999999851,"item_order":[3,0,5,2,1,7,6,4],"radio_events":[5927.60000000149,7388.89999999851,8984.5,10717.89999999851,11836.89999999851,16977.5,19329.10000000149,21521.5],"key_events":[],"mouse_events":[5927.60000000149,7388.89999999851,8984.5,10717.89999999851,11836.89999999851,16977.5,19329.10000000149,21521.5,23150],"straightlining":1,"zigzagging":0,"honeypot":0,"survey":"depression","trial_type":"survey-template","trial_index":7,"time_elapsed":220328,"internal_node_id":"0.0-7.0","task_version":"1.0","jspsych_version":"6.3.1"},{"view_history":"[{\"page_index\":0,\"viewing_time\":5061.29999999702},{\"page_index\":1,\"viewing_time\":4792.20000000298},{\"page_index\":2,\"viewing_time\":3440.2000000029802},{\"page_index\":3,\"viewing_time\":8881.79999999702},{\"page_index\":4,\"viewing_time\":9341.79999999702},{\"page_index\":5,\"viewing_time\":1779.7000000029802},{\"page_index\":6,\"viewing_time\":1247.2999999970198},{\"page_index\":7,\"viewing_time\":3296.5},{\"page_index\":8,\"viewing_time\":6819.4000000059605},{\"page_index\":9,\"viewing_time\":5008.5},{\"page_index\":10,\"viewing_time\":15062}]","rt":64732.29999999702,"trial_type":"two-step-instructions","trial_index":8,"time_elapsed":285067,"internal_node_id":"0.0-8.0-1.0","task_version":"1.0","jspsych_version":"6.3.1"},{"responses":["left/right arrow keys","True","True"],"num_errors":0,"rt":10308.89999999851,"quiz":1,"trial_type":"two-step-comprehension","trial_index":9,"time_elapsed":295384,"internal_node_id":"0.0-8.0-2.0","task_version":"1.0","jspsych_version":"6.3.1"},{"view_history":"[{\"page_index\":0,\"viewing_time\":24245}]","rt":24245.89999999851,"phase":"instructions_1b","trial_type":"two-step-instructions","trial_index":10,"time_elapsed":319636,"internal_node_id":"0.0-9.0-0.0-0.0","task_version":"1.0","jspsych_version":"6.3.1"},{"state_2_ids":[0,1],"state_2_key":0,"state_2_choice":0,"state_2_rt":1597.3999999985099,"outcome":0,"screen_resolution":[988,707],"minimum_resolution":1,"trial_type":"alien-practice","trial_index":11,"time_elapsed":323449,"internal_node_id":"0.0-9.0-1.0-0.0","task_version":"1.0","jspsych_version":"6.3.1"},{"state_2_ids":[0,1],"state_2_key":1,"state_2_choice":1,"state_2_rt":488.6000000014901,"outcome":0,"screen_resolution":[988,707],"minimum_resolution":1,"trial_type":"alien-practice","trial_index":12,"time_elapsed":326145,"internal_node_id":"0.0-9.0-2.0-0.0","task_version":"1.0","jspsych_version":"6.3.1"},{"state_2_ids":[0,1],"state_2_key":0,"state_2_choice":0,"state_2_rt":279.70000000298023,"outcome":0,"screen_resolution":[988,707],"minimum_resolution":1,"trial_type":"alien-practice","trial_index":13,"time_elapsed":328641,"internal_node_id":"0.0-9.0-3.0-0.0","task_version":"1.0","jspsych_version":"6.3.1"},{"state_2_ids":[0,1],"state_2_key":1,"state_2_choice":1,"state_2_rt":278.30000000447035,"outcome":1,"screen_resolution":[988,707],"minimum_resolution":1,"trial_type":"alien-practice","trial_index":14,"time_elapsed":331137,"internal_node_id":"0.0-9.0-4.0-0.0","task_version":"1.0","jspsych_version":"6.3.1"},{"state_2_ids":[0,1],"state_2_key":1,"state_2_choice":1,"state_2_rt":272.79999999701977,"outcome":1,"screen_resolution":[988,707],"minimum_resolution":1,"trial_type":"alien-practice","trial_index":15,"time_elapsed":333627,"internal_node_id":"0.0-9.0-5.0-0.0","task_version":"1.0","jspsych_version":"6.3.1"},{"state_2_ids":[0,1],"state_2_key":1,"state_2_choice":1,"state_2_rt":249.39999999850988,"outcome":1,"screen_resolution":[988,707],"minimum_resolution":1,"trial_type":"alien-practice","trial_index":16,"time_elapsed":336091,"internal_node_id":"0.0-9.0-6.0-0.0","task_version":"1.0","jspsych_version":"6.3.1"},{"view_history":"[{\"page_index\":0,\"viewing_time\":4007.5},{\"page_index\":1,\"viewing_time\":2304.39999999851},{\"page_index\":2,\"viewing_time\":4080.8000000044703},{\"page_index\":3,\"viewing_time\":4757.79999999702},{\"page_index\":4,\"viewing_time\":2208.2999999970198},{\"page_index\":5,\"viewing_time\":1612.9000000059605}]","rt":18972.79999999702,"trial_type":"two-step-instructions","trial_index":17,"time_elapsed":355075,"internal_node_id":"0.0-10.0-1.0","task_version":"1.0","jspsych_version":"6.3.1"},{"responses":["left/right arrow keys","False","True"],"num_errors":0,"rt":6681.19999999553,"quiz":2,"trial_type":"two-step-comprehension","trial_index":18,"time_elapsed":361764,"internal_node_id":"0.0-10.0-2.0","task_version":"1.0","jspsych_version":"6.3.1"},{"view_history":"[{\"page_index\":0,\"viewing_time\":45286.89999999851},{\"page_index\":1,\"viewing_time\":3576.3000000044703},{\"page_index\":2,\"viewing_time\":4368.19999999553}]","rt":53232.10000000149,"trial_type":"two-step-instructions","trial_index":19,"time_elapsed":415004,"internal_node_id":"0.0-11.0-0.0","task_version":"1.0","jspsych_version":"6.3.1"},{"state_1_ids":[0,1],"state_1_key":0,"state_1_choice":0,"state_1_rt":1828.3999999985099,"transition":1,"state":0,"state_2_ids":[0,1],"state_2_key":0,"state_2_choice":0,"state_2_rt":918.3999999985099,"outcome":1,"rocket_colors":["#486ea7","#a75248"],"planet_colors":["#706081","#5b7c65"],"screen_resolution":[988,707],"minimum_resolution":1,"trial":0,"trial_type":"two-step-trial","trial_index":20,"time_elapsed":419765,"internal_node_id":"0.0-11.0-1.0-0.0","task_version":"1.0","jspsych_version":"6.3.1","missing":false},{"state_1_ids":[1,0],"state_1_key":1,"state_1_choice":0,"state_1_rt":931.6000000014901,"transition":0,"state":1,"state_2_ids":[2,3],"state_2_key":0,"state_2_choice":2,"state_2_rt":1829.3000000044703,"outcome":0,"rocket_colors":["#486ea7","#a75248"],"planet_colors":["#706081","#5b7c65"],"screen_resolution":[988,707],"minimum_resolution":1,"trial":0,"trial_type":"two-step-trial","trial_index":21,"time_elapsed":424541,"internal_node_id":"0.0-11.0-1.0-0.1","task_version":"1.0","jspsych_version":"6.3.1","missing":false},{"state_1_ids":[1,0],"state_1_key":1,"state_1_choice":0,"state_1_rt":718.1999999955297,"transition":1,"state":0,"state_2_ids":[0,1],"state_2_key":0,"state_2_choice":0,"state_2_rt":622.2999999970198,"outcome":1,"rocket_colors":["#486ea7","#a75248"],"planet_colors":["#706081","#5b7c65"],"screen_resolution":[988,707],"minimum_resolution":1,"trial":0,"trial_type":"two-step-trial","trial_index":22,"time_elapsed":427901,"internal_node_id":"0.0-11.0-1.0-0.2","task_version":"1.0","jspsych_version":"6.3.1","missing":false},{"state_1_ids":[0,1],"state_1_key":0,"state_1_choice":0,"state_1_rt":503.79999999701977,"transition":1,"state":0,"state_2_ids":[0,1],"state_2_key":0,"state_2_choice":0,"state_2_rt":400.1000000014901,"outcome":1,"rocket_colors":["#486ea7","#a75248"],"planet_colors":["#706081","#5b7c65"],"screen_resolution":[988,707],"minimum_resolution":1,"trial":0,"trial_type":"two-step-trial","trial_index":23,"time_elapsed":430816,"internal_node_id":"0.0-11.0-1.0-0.3","task_version":"1.0","jspsych_version":"6.3.1","missing":false},{"state_1_ids":[0,1],"state_1_key":0,"state_1_choice":0,"state_1_rt":398.20000000298023,"transition":1,"state":0,"state_2_ids":[0,1],"state_2_key":0,"state_2_choice":0,"state_2_rt":354.1000000014901,"outcome":0,"rocket_colors":["#486ea7","#a75248"],"planet_colors":["#706081","#5b7c65"],"screen_resolution":[988,707],"minimum_resolution":1,"trial":0,"trial_type":"two-step-trial","trial_index":24,"time_elapsed":433581,"internal_node_id":"0.0-11.0-1.0-0.4","task_version":"1.0","jspsych_version":"6.3.1","missing":false},{"state_1_ids":[0,1],"state_1_key":0,"state_1_choice":0,"state_1_rt":494.80000000447035,"transition":1,"state":0,"state_2_ids":[0,1],"state_2_key":0,"state_2_choice":0,"state_2_rt":546.7000000029802,"outcome":1,"rocket_colors":["#486ea7","#a75248"],"planet_colors":["#706081","#5b7c65"],"screen_resolution":[988,707],"minimum_resolution":1,"trial":0,"trial_type":"two-step-trial","trial_index":25,"time_elapsed":436636,"internal_node_id":"0.0-11.0-1.0-0.5","task_version":"1.0","jspsych_version":"6.3.1","missing":false},{"state_1_ids":[0,1],"state_1_key":0,"state_1_choice":0,"state_1_rt":453.6000000014901,"transition":1,"state":0,"state_2_ids":[0,1],"state_2_key":0,"state_2_choice":0,"state_2_rt":409,"outcome":1,"rocket_colors":["#486ea7","#a75248"],"planet_colors":["#706081","#5b7c65"],"screen_resolution":[988,707],"minimum_resolution":1,"trial":0,"trial_type":"two-step-trial","trial_index":26,"time_elapsed":439510,"internal_node_id":"0.0-11.0-1.0-0.6","task_version":"1.0","jspsych_version":"6.3.1","missing":false},{"state_1_ids":[1,0],"state_1_key":1,"state_1_choice":0,"state_1_rt":733.2000000029802,"transition":0,"state":1,"state_2_ids":[2,3],"state_2_key":1,"state_2_choice":3,"state_2_rt":848.6000000014901,"outcome":1,"rocket_colors":["#486ea7","#a75248"],"planet_colors":["#706081","#5b7c65"],"screen_resolution":[988,707],"minimum_resolution":1,"trial":0,"trial_type":"two-step-trial","trial_index":27,"time_elapsed":443110,"internal_node_id":"0.0-11.0-1.0-0.7","task_version":"1.0","jspsych_version":"6.3.1","missing":false},{"state_1_ids":[0,1],"state_1_key":0,"state_1_choice":0,"state_1_rt":564.3999999985099,"transition":1,"state":0,"state_2_ids":[0,1],"state_2_key":0,"state_2_choice":0,"state_2_rt":475.8999999985099,"outcome":1,"rocket_colors":["#486ea7","#a75248"],"planet_colors":["#706081","#5b7c65"],"screen_resolution":[988,707],"minimum_resolution":1,"trial":0,"trial_type":"two-step-trial","trial_index":28,"time_elapsed":446166,"internal_node_id":"0.0-11.0-1.0-0.8","task_version":"1.0","jspsych_version":"6.3.1","missing":false},{"state_1_ids":[1,0],"state_1_key":1,"state_1_choice":0,"state_1_rt":779.7000000029802,"transition":1,"state":0,"state_2_ids":[0,1],"state_2_key":0,"state_2_choice":0,"state_2_rt":586.8000000044703,"outcome":0,"rocket_colors":["#486ea7","#a75248"],"planet_colors":["#706081","#5b7c65"],"screen_resolution":[988,707],"minimum_resolution":1,"trial":0,"trial_type":"two-step-trial","trial_index":29,"time_elapsed":449547,"internal_node_id":"0.0-11.0-1.0-0.9","task_version":"1.0","jspsych_version":"6.3.1","missing":false},{"view_history":"[{\"page_index\":0,\"viewing_time\":10173.60000000149},{\"page_index\":1,\"viewing_time\":8977.19999999553},{\"page_index\":2,\"viewing_time\":5147.20000000298},{\"page_index\":3,\"viewing_time\":2206.7999999970198},{\"page_index\":4,\"viewing_time\":7730.89999999851},{\"page_index\":5,\"viewing_time\":9016.80000000447},{\"page_index\":6,\"viewing_time\":7721.89999999851}]","rt":50975.39999999851,"trial_type":"two-step-instructions","trial_index":30,"time_elapsed":500531,"internal_node_id":"0.0-12.0-1.0","task_version":"1.0","jspsych_version":"6.3.1"},{"responses":["True","False","True"],"num_errors":0,"rt":10405,"quiz":3,"trial_type":"two-step-comprehension","trial_index":31,"time_elapsed":510944,"internal_node_id":"0.0-12.0-2.0","task_version":"1.0","jspsych_version":"6.3.1"},{"view_history":"[{\"page_index\":0,\"viewing_time\":2821.4000000059605},{\"page_index\":1,\"viewing_time\":3231.5},{\"page_index\":2,\"viewing_time\":3154.2999999970198}]","rt":9207.40000000596,"trial_type":"two-step-instructions","trial_index":32,"time_elapsed":520158,"internal_node_id":"0.0-13.0","task_version":"1.0","jspsych_version":"6.3.1"},{"state_1_ids":[0,1],"state_1_key":0,"state_1_choice":0,"state_1_rt":1971.1999999955297,"transition":1,"state":0,"state_2_ids":[0,1],"state_2_key":0,"state_2_choice":0,"state_2_rt":1210,"outcome":1,"rocket_colors":["#955db9","#48a782"],"planet_colors":["#5f6f81","#7f5d5d"],"screen_resolution":[988,707],"minimum_resolution":1,"trial":1,"drifts":[0.412,0.317,0.453,0.743],"drift_ix":2,"trial_type":"two-step-trial","trial_index":33,"time_elapsed":525352,"internal_node_id":"0.0-14.0-0.0","task_version":"1.0","jspsych_version":"6.3.1","browser_interactions":0,"missing":false},{"state_1_ids":[1,0],"state_1_key":1,"state_1_choice":0,"state_1_rt":519.3999999985099,"transition":0,"state":1,"state_2_ids":[2,3],"state_2_key":0,"state_2_choice":2,"state_2_rt":946.3999999985099,"outcome":0,"rocket_colors":["#955db9","#48a782"],"planet_colors":["#5f6f81","#7f5d5d"],"screen_resolution":[988,707],"minimum_resolution":1,"trial":2,"drifts":[0.402,0.305,0.461,0.702],"drift_ix":2,"trial_type":"two-step-trial","trial_index":34,"time_elapsed":528835,"internal_node_id":"0.0-15.0-0.0","task_version":"1.0","jspsych_version":"6.3.1","browser_interactions":0,"missing":false},{"state_1_ids":[1,0],"state_1_key":1,"state_1_choice":0,"state_1_rt":434.79999999701977,"transition":1,"state":0,"state_2_ids":[0,1],"state_2_key":0,"state_2_choice":0,"state_2_rt":493.19999999552965,"outcome":0,"rocket_colors":["#955db9","#48a782"],"planet_colors":["#5f6f81","#7f5d5d"],"screen_resolution":[988,707],"minimum_resolution":1,"trial":3,"drifts":[0.373,0.327,0.445,0.732],"drift_ix":2,"trial_type":"two-step-trial","trial_index":35,"time_elapsed":531778,"internal_node_id":"0.0-16.0-0.0","task_version":"1.0","jspsych_version":"6.3.1","browser_interactions":0,"missing":false},{"state_1_ids":[0,1],"state_1_key":0,"state_1_choice":0,"state_1_rt":871.7000000029802,"transition":0,"state":1,"state_2_ids":[2,3],"state_2_key":0,"state_2_choice":2,"state_2_rt":613.5,"outcome":1,"rocket_colors":["#955db9","#48a782"],"planet_colors":["#5f6f81","#7f5d5d"],"screen_resolution":[988,707],"minimum_resolution":1,"trial":4,"drifts":[0.381,0.303,0.418,0.736],"drift_ix":2,"trial_type":"two-step-trial","trial_index":36,"time_elapsed":535277,"internal_node_id":"0.0-17.0-0.0","task_version":"1.0","jspsych_version":"6.3.1","browser_interactions":0,"missing":false},{"state_1_ids":[0,1],"state_1_key":0,"state_1_choice":0,"state_1_rt":589.1000000014901,"transition":1,"state":0,"state_2_ids":[0,1],"state_2_key":0,"state_2_choice":0,"state_2_rt":544.5,"outcome":0,"rocket_colors":["#955db9","#48a782"],"planet_colors":["#5f6f81","#7f5d5d"],"screen_resolution":[988,707],"minimum_resolution":1,"trial":5,"drifts":[0.366,0.363,0.401,0.709],"drift_ix":2,"trial_type":"two-step-trial","trial_index":37,"time_elapsed":538423,"internal_node_id":"0.0-18.0-0.0","task_version":"1.0","jspsych_version":"6.3.1","browser_interactions":0,"missing":false},{"state_1_ids":[0,1],"state_1_key":1,"state_1_choice":1,"state_1_rt":448.79999999701977,"transition":1,"state":1,"state_2_ids":[2,3],"state_2_key":0,"state_2_choice":2,"state_2_rt":356.1000000014901,"outcome":1,"rocket_colors":["#955db9","#48a782"],"planet_colors":["#5f6f81","#7f5d5d"],"screen_resolution":[988,707],"minimum_resolution":1,"trial":6,"drifts":[0.393,0.368,0.383,0.711],"drift_ix":2,"trial_type":"two-step-trial","trial_index":38,"time_elapsed":541245,"internal_node_id":"0.0-19.0-0.0","task_version":"1.0","jspsych_version":"6.3.1","browser_interactions":0,"missing":false},{"state_1_ids":[1,0],"state_1_key":0,"state_1_choice":1,"state_1_rt":1141.1000000014901,"transition":1,"state":1,"state_2_ids":[2,3],"state_2_key":0,"state_2_choice":2,"state_2_rt":454.40000000596046,"outcome":1,"rocket_colors":["#955db9","#48a782"],"planet_colors":["#5f6f81","#7f5d5d"],"screen_resolution":[988,707],"minimum_resolution":1,"trial":7,"drifts":[0.4,0.405,0.425,0.678],"drift_ix":2,"trial_type":"two-step-trial","trial_index":39,"time_elapsed":544855,"internal_node_id":"0.0-20.0-0.0","task_version":"1.0","jspsych_version":"6.3.1","browser_interactions":0,"missing":false},{"state_1_ids":[0,1],"state_1_key":1,"state_1_choice":1,"state_1_rt":740,"transition":1,"state":1,"state_2_ids":[2,3],"state_2_key":0,"state_2_choice":2,"state_2_rt":451.70000000298023,"outcome":0,"rocket_colors":["#955db9","#48a782"],"planet_colors":["#5f6f81","#7f5d5d"],"screen_resolution":[988,707],"minimum_resolution":1,"trial":8,"drifts":[0.383,0.388,0.415,0.699],"drift_ix":2,"trial_type":"two-step-trial","trial_index":40,"time_elapsed":548060,"internal_node_id":"0.0-21.0-0.0","task_version":"1.0","jspsych_version":"6.3.1","browser_interactions":0,"missing":false},{"state_1_ids":[1,0],"state_1_key":0,"state_1_choice":1,"state_1_rt":692.7000000029802,"transition":0,"state":0,"state_2_ids":[0,1],"state_2_key":0,"state_2_choice":0,"state_2_rt":609.7000000029802,"outcome":0,"rocket_colors":["#955db9","#48a782"],"planet_colors":["#5f6f81","#7f5d5d"],"screen_resolution":[988,707],"minimum_resolution":1,"trial":9,"drifts":[0.347,0.439,0.405,0.713],"drift_ix":2,"trial_type":"two-step-trial","trial_index":41,"time_elapsed":551377,"internal_node_id":"0.0-22.0-0.0","task_version":"1.0","jspsych_version":"6.3.1","browser_interactions":0,"missing":false},{"state_1_ids":[0,1],"state_1_key":1,"state_1_choice":1,"state_1_rt":464.29999999701977,"transition":1,"state":1,"state_2_ids":[2,3],"state_2_key":0,"state_2_choice":2,"state_2_rt":412.1000000014901,"outcome":0,"rocket_colors":["#955db9","#48a782"],"planet_colors":["#5f6f81","#7f5d5d"],"screen_resolution":[988,707],"minimum_resolution":1,"trial":10,"drifts":[0.367,0.459,0.46,0.731],"drift_ix":2,"trial_type":"two-step-trial","trial_index":42,"time_elapsed":554267,"internal_node_id":"0.0-23.0-0.0","task_version":"1.0","jspsych_version":"6.3.1","browser_interactions":0,"missing":false},{"state_1_ids":[1,0],"state_1_key":1,"state_1_choice":0,"state_1_rt":808.5,"transition":1,"state":0,"state_2_ids":[0,1],"state_2_key":1,"state_2_choice":1,"state_2_rt":696.3999999985099,"outcome":0,"rocket_colors":["#955db9","#48a782"],"planet_colors":["#5f6f81","#7f5d5d"],"screen_resolution":[988,707],"minimum_resolution":1,"trial":11,"drifts":[0.397,0.451,0.461,0.701],"drift_ix":2,"trial_type":"two-step-trial","trial_index":43,"time_elapsed":557782,"internal_node_id":"0.0-24.0-0.0","task_version":"1.0","jspsych_version":"6.3.1","browser_interactions":0,"missing":false},{"state_1_ids":[1,0],"state_1_key":1,"state_1_choice":0,"state_1_rt":698.5999999940395,"transition":1,"state":0,"state_2_ids":[0,1],"state_2_key":1,"state_2_choice":1,"state_2_rt":398.1000000014901,"outcome":1,"rocket_colors":["#955db9","#48a782"],"planet_colors":["#5f6f81","#7f5d5d"],"screen_resolution":[988,707],"minimum_resolution":1,"trial":12,"drifts":[0.357,0.426,0.459,0.707],"drift_ix":2,"trial_type":"two-step-trial","trial_index":44,"time_elapsed":560892,"internal_node_id":"0.0-25.0-0.0","task_version":"1.0","jspsych_version":"6.3.1","browser_interactions":0,"missing":false},{"state_1_ids":[0,1],"state_1_key":0,"state_1_choice":0,"state_1_rt":614,"transition":1,"state":0,"state_2_ids":[0,1],"state_2_key":1,"state_2_choice":1,"state_2_rt":384.5,"outcome":1,"rocket_colors":["#955db9","#48a782"],"planet_colors":["#5f6f81","#7f5d5d"],"screen_resolution":[988,707],"minimum_resolution":1,"trial":13,"drifts":[0.337,0.398,0.428,0.721],"drift_ix":2,"trial_type":"two-step-trial","trial_index":45,"time_elapsed":563905,"internal_node_id":"0.0-26.0-0.0","task_version":"1.0","jspsych_version":"6.3.1","browser_interactions":0,"missing":false},{"state_1_ids":[1,0],"state_1_key":1,"state_1_choice":0,"state_1_rt":693.6999999955297,"transition":1,"state":0,"state_2_ids":[0,1],"state_2_key":1,"state_2_choice":1,"state_2_rt":323.59999999403954,"outcome":1,"rocket_colors":["#955db9","#48a782"],"planet_colors":["#5f6f81","#7f5d5d"],"screen_resolution":[988,707],"minimum_resolution":1,"trial":14,"drifts":[0.283,0.408,0.384,0.719],"drift_ix":2,"trial_type":"two-step-trial","trial_index":46,"time_elapsed":566940,"internal_node_id":"0.0-27.0-0.0","task_version":"1.0","jspsych_version":"6.3.1","browser_interactions":0,"missing":false},{"state_1_ids":[0,1],"state_1_key":0,"state_1_choice":0,"state_1_rt":503.6000000014901,"transition":0,"state":1,"state_2_ids":[2,3],"state_2_key":1,"state_2_choice":3,"state_2_rt":1115.6999999955297,"outcome":1,"rocket_colors":["#955db9","#48a782"],"planet_colors":["#5f6f81","#7f5d5d"],"screen_resolution":[988,707],"minimum_resolution":1,"trial":15,"drifts":[0.295,0.37,0.375,0.738],"drift_ix":2,"trial_type":"two-step-trial","trial_index":47,"time_elapsed":570575,"internal_node_id":"0.0-28.0-0.0","task_version":"1.0","jspsych_version":"6.3.1","browser_interactions":0,"missing":false},{"state_1_ids":[0,1],"state_1_key":0,"state_1_choice":0,"state_1_rt":551.3999999985099,"transition":1,"state":0,"state_2_ids":[0,1],"state_2_key":1,"state_2_choice":1,"state_2_rt":437.80000000447035,"outcome":0,"rocket_colors":["#955db9","#48a782"],"planet_colors":["#5f6f81","#7f5d5d"],"screen_resolution":[988,707],"minimum_resolution":1,"trial":16,"drifts":[0.305,0.343,0.325,0.713],"drift_ix":2,"trial_type":"two-step-trial","trial_index":48,"time_elapsed":573573,"internal_node_id":"0.0-29.0-0.0","task_version":"1.0","jspsych_version":"6.3.1","browser_interactions":0,"missing":false},{"state_1_ids":[0,1],"state_1_key":0,"state_1_choice":0,"state_1_rt":538.5999999940395,"transition":1,"state":0,"state_2_ids":[0,1],"state_2_key":1,"state_2_choice":1,"state_2_rt":423.1000000014901,"outcome":0,"rocket_colors":["#955db9","#48a782"],"planet_colors":["#5f6f81","#7f5d5d"],"screen_resolution":[988,707],"minimum_resolution":1,"trial":17,"drifts":[0.305,0.313,0.334,0.705],"drift_ix":2,"trial_type":"two-step-trial","trial_index":49,"time_elapsed":576543,"internal_node_id":"0.0-30.0-0.0","task_version":"1.0","jspsych_version":"6.3.1","browser_interactions":0,"missing":false},{"state_1_ids":[1,0],"state_1_key":0,"state_1_choice":1,"state_1_rt":745.2000000029802,"transition":1,"state":1,"state_2_ids":[2,3],"state_2_key":1,"state_2_choice":3,"state_2_rt":463.29999999701977,"outcome":1,"rocket_colors":["#955db9","#48a782"],"planet_colors":["#5f6f81","#7f5d5d"],"screen_resolution":[988,707],"minimum_resolution":1,"trial":18,"drifts":[0.316,0.314,0.353,0.728],"drift_ix":2,"trial_type":"two-step-trial","trial_index":50,"time_elapsed":579760,"internal_node_id":"0.0-31.0-0.0","task_version":"1.0","jspsych_version":"6.3.1","browser_interactions":0,"missing":false},{"state_1_ids":[0,1],"state_1_key":1,"state_1_choice":1,"state_1_rt":1768.2000000029802,"transition":0,"state":0,"state_2_ids":[0,1],"state_2_key":1,"state_2_choice":1,"state_2_rt":970.6000000014901,"outcome":1,"rocket_colors":["#955db9","#48a782"],"planet_colors":["#5f6f81","#7f5d5d"],"screen_resolution":[988,707],"minimum_resolution":1,"trial":19,"drifts":[0.317,0.335,0.368,0.745],"drift_ix":2,"trial_type":"two-step-trial","trial_index":51,"time_elapsed":584511,"internal_node_id":"0.0-32.0-0.0","task_version":"1.0","jspsych_version":"6.3.1","browser_interactions":0,"missing":false},{"state_1_ids":[0,1],"state_1_key":1,"state_1_choice":1,"state_1_rt":501,"transition":0,"state":0,"state_2_ids":[0,1],"state_2_key":1,"state_2_choice":1,"state_2_rt":609.5999999940395,"outcome":1,"rocket_colors":["#955db9","#48a782"],"planet_colors":["#5f6f81","#7f5d5d"],"screen_resolution":[988,707],"minimum_resolution":1,"trial":20,"drifts":[0.307,0.313,0.421,0.737],"drift_ix":2,"trial_type":"two-step-trial","trial_index":52,"time_elapsed":587633,"internal_node_id":"0.0-33.0-0.0","task_version":"1.0","jspsych_version":"6.3.1","browser_interactions":0,"missing":false},{"state_1_ids":[1,0],"state_1_key":0,"state_1_choice":1,"state_1_rt":984.5,"transition":1,"state":1,"state_2_ids":[2,3],"state_2_key":1,"state_2_choice":3,"state_2_rt":433.70000000298023,"outcome":1,"rocket_colors":["#955db9","#48a782"],"planet_colors":["#5f6f81","#7f5d5d"],"screen_resolution":[988,707],"minimum_resolution":1,"trial":21,"drifts":[0.31,0.305,0.401,0.745],"drift_ix":2,"trial_type":"two-step-trial","trial_index":53,"time_elapsed":591061,"internal_node_id":"0.0-34.0-0.0","task_version":"1.0","jspsych_version":"6.3.1","browser_interactions":0,"missing":false},{"state_1_ids":[0,1],"state_1_key":1,"state_1_choice":1,"state_1_rt":500.30000000447035,"transition":1,"state":1,"state_2_ids":[2,3],"state_2_key":1,"state_2_choice":3,"state_2_rt":489,"outcome":0,"rocket_colors":["#955db9","#48a782"],"planet_colors":["#5f6f81","#7f5d5d"],"screen_resolution":[988,707],"minimum_resolution":1,"trial":22,"drifts":[0.326,0.31,0.391,0.735],"drift_ix":2,"trial_type":"two-step-trial","trial_index":54,"time_elapsed":594063,"internal_node_id":"0.0-35.0-0.0","task_version":"1.0","jspsych_version":"6.3.1","browser_interactions":0,"missing":false},{"state_1_ids":[1,0],"state_1_key":0,"state_1_choice":1,"state_1_rt":506.29999999701977,"transition":1,"state":1,"state_2_ids":[2,3],"state_2_key":1,"state_2_choice":3,"state_2_rt":420.79999999701977,"outcome":1,"rocket_colors":["#955db9","#48a782"],"planet_colors":["#5f6f81","#7f5d5d"],"screen_resolution":[988,707],"minimum_resolution":1,"trial":23,"drifts":[0.331,0.302,0.379,0.741],"drift_ix":2,"trial_type":"two-step-trial","trial_index":55,"time_elapsed":597007,"internal_node_id":"0.0-36.0-0.0","task_version":"1.0","jspsych_version":"6.3.1","browser_interactions":0,"missing":false},{"state_1_ids":[1,0],"state_1_key":0,"state_1_choice":1,"state_1_rt":508.20000000298023,"transition":1,"state":1,"state_2_ids":[2,3],"state_2_key":1,"state_2_choice":3,"state_2_rt":481.3999999985099,"outcome":1,"rocket_colors":["#955db9","#48a782"],"planet_colors":["#5f6f81","#7f5d5d"],"screen_resolution":[988,707],"minimum_resolution":1,"trial":24,"drifts":[0.358,0.323,0.393,0.738],"drift_ix":2,"trial_type":"two-step-trial","trial_index":56,"time_elapsed":600010,"internal_node_id":"0.0-37.0-0.0","task_version":"1.0","jspsych_version":"6.3.1","browser_interactions":0,"missing":false},{"state_1_ids":[1,0],"state_1_key":0,"state_1_choice":1,"state_1_rt":629.5,"transition":1,"state":1,"state_2_ids":[2,3],"state_2_key":1,"state_2_choice":3,"state_2_rt":617.7000000029802,"outcome":1,"rocket_colors":["#955db9","#48a782"],"planet_colors":["#5f6f81","#7f5d5d"],"screen_resolution":[988,707],"minimum_resolution":1,"trial":25,"drifts":[0.342,0.299,0.368,0.724],"drift_ix":2,"trial_type":"two-step-trial","trial_index":57,"time_elapsed":603274,"internal_node_id":"0.0-38.0-0.0","task_version":"1.0","jspsych_version":"6.3.1","browser_interactions":0,"missing":false},{"state_1_ids":[0,1],"state_1_key":1,"state_1_choice":1,"state_1_rt":798.2000000029802,"transition":0,"state":0,"state_2_ids":[0,1],"state_2_key":1,"state_2_choice":1,"state_2_rt":480.6000000014901,"outcome":0,"rocket_colors":["#955db9","#48a782"],"planet_colors":["#5f6f81","#7f5d5d"],"screen_resolution":[988,707],"minimum_resolution":1,"trial":26,"drifts":[0.362,0.294,0.373,0.738],"drift_ix":2,"trial_type":"two-step-trial","trial_index":58,"time_elapsed":606569,"internal_node_id":"0.0-39.0-0.0","task_version":"1.0","jspsych_version":"6.3.1","browser_interactions":0,"missing":false},{"state_1_ids":[1,0],"state_1_key":0,"state_1_choice":1,"state_1_rt":486.40000000596046,"transition":1,"state":1,"state_2_ids":[2,3],"state_2_key":1,"state_2_choice":3,"state_2_rt":504.6000000014901,"outcome":1,"rocket_colors":["#955db9","#48a782"],"planet_colors":["#5f6f81","#7f5d5d"],"screen_resolution":[988,707],"minimum_resolution":1,"trial":27,"drifts":[0.332,0.286,0.389,0.683],"drift_ix":2,"trial_type":"two-step-trial","trial_index":59,"time_elapsed":609572,"internal_node_id":"0.0-40.0-0.0","task_version":"1.0","jspsych_version":"6.3.1","browser_interactions":0,"missing":false},{"state_1_ids":[1,0],"state_1_key":0,"state_1_choice":1,"state_1_rt":607.6000000014901,"transition":0,"state":0,"state_2_ids":[0,1],"state_2_key":1,"state_2_choice":1,"state_2_rt":567.2000000029802,"outcome":0,"rocket_colors":["#955db9","#48a782"],"planet_colors":["#5f6f81","#7f5d5d"],"screen_resolution":[988,707],"minimum_resolution":1,"trial":28,"drifts":[0.34,0.303,0.383,0.689],"drift_ix":2,"trial_type":"two-step-trial","trial_index":60,"time_elapsed":612760,"internal_node_id":"0.0-41.0-0.0","task_version":"1.0","jspsych_version":"6.3.1","browser_interactions":0,"missing":false},{"state_1_ids":[1,0],"state_1_key":0,"state_1_choice":1,"state_1_rt":840.1000000014901,"transition":1,"state":1,"state_2_ids":[2,3],"state_2_key":1,"state_2_choice":3,"state_2_rt":460.20000000298023,"outcome":1,"rocket_colors":["#955db9","#48a782"],"planet_colors":["#5f6f81","#7f5d5d"],"screen_resolution":[988,707],"minimum_resolution":1,"trial":29,"drifts":[0.317,0.302,0.385,0.679],"drift_ix":2,"trial_type":"two-step-trial","trial_index":61,"time_elapsed":616068,"internal_node_id":"0.0-42.0-0.0","task_version":"1.0","jspsych_version":"6.3.1","browser_interactions":0,"missing":false},{"state_1_ids":[0,1],"state_1_key":1,"state_1_choice":1,"state_1_rt":464.5,"transition":1,"state":1,"state_2_ids":[2,3],"state_2_key":1,"state_2_choice":3,"state_2_rt":394.6000000014901,"outcome":1,"rocket_colors":["#955db9","#48a782"],"planet_colors":["#5f6f81","#7f5d5d"],"screen_resolution":[988,707],"minimum_resolution":1,"trial":30,"drifts":[0.353,0.346,0.414,0.681],"drift_ix":2,"trial_type":"two-step-trial","trial_index":62,"time_elapsed":618942,"internal_node_id":"0.0-43.0-0.0","task_version":"1.0","jspsych_version":"6.3.1","browser_interactions":0,"missing":false},{"state_1_ids":[1,0],"state_1_key":0,"state_1_choice":1,"state_1_rt":532.8999999985099,"transition":0,"state":0,"state_2_ids":[0,1],"state_2_key":1,"state_2_choice":1,"state_2_rt":658.1000000014901,"outcome":0,"rocket_colors":["#955db9","#48a782"],"planet_colors":["#5f6f81","#7f5d5d"],"screen_resolution":[988,707],"minimum_resolution":1,"trial":31,"drifts":[0.325,0.331,0.414,0.647],"drift_ix":2,"trial_type":"two-step-trial","trial_index":63,"time_elapsed":622147,"internal_node_id":"0.0-44.0-0.0","task_version":"1.0","jspsych_version":"6.3.1","browser_interactions":0,"missing":false},{"state_1_ids":[0,1],"state_1_key":1,"state_1_choice":1,"state_1_rt":846.2999999970198,"transition":0,"state":0,"state_2_ids":[0,1],"state_2_key":1,"state_2_choice":1,"state_2_rt":650.7000000029802,"outcome":0,"rocket_colors":["#955db9","#48a782"],"planet_colors":["#5f6f81","#7f5d5d"],"screen_resolution":[988,707],"minimum_resolution":1,"trial":32,"drifts":[0.328,0.33,0.383,0.663],"drift_ix":2,"trial_type":"two-step-trial","trial_index":64,"time_elapsed":625657,"internal_node_id":"0.0-45.0-0.0","task_version":"1.0","jspsych_version":"6.3.1","browser_interactions":0,"missing":false},{"state_1_ids":[1,0],"state_1_key":0,"state_1_choice":1,"state_1_rt":1799.1000000014901,"transition":1,"state":1,"state_2_ids":[2,3],"state_2_key":1,"state_2_choice":3,"state_2_rt":410.8999999985099,"outcome":1,"rocket_colors":["#955db9","#48a782"],"planet_colors":["#5f6f81","#7f5d5d"],"screen_resolution":[988,707],"minimum_resolution":1,"trial":33,"drifts":[0.322,0.332,0.362,0.633],"drift_ix":2,"trial_type":"two-step-trial","trial_index":65,"time_elapsed":629880,"internal_node_id":"0.0-46.0-0.0","task_version":"1.0","jspsych_version":"6.3.1","browser_interactions":0,"missing":false},{"state_1_ids":[1,0],"state_1_key":0,"state_1_choice":1,"state_1_rt":566.6000000014901,"transition":0,"state":0,"state_2_ids":[0,1],"state_2_key":0,"state_2_choice":0,"state_2_rt":473.40000000596046,"outcome":0,"rocket_colors":["#955db9","#48a782"],"planet_colors":["#5f6f81","#7f5d5d"],"screen_resolution":[988,707],"minimum_resolution":1,"trial":34,"drifts":[0.322,0.307,0.363,0.617],"drift_ix":2,"trial_type":"two-step-trial","trial_index":66,"time_elapsed":632931,"internal_node_id":"0.0-47.0-0.0","task_version":"1.0","jspsych_version":"6.3.1","browser_interactions":0,"missing":false},{"state_1_ids":[0,1],"state_1_key":1,"state_1_choice":1,"state_1_rt":852.8999999985099,"transition":0,"state":0,"state_2_ids":[0,1],"state_2_key":1,"state_2_choice":1,"state_2_rt":654.8000000044703,"outcome":0,"rocket_colors":["#955db9","#48a782"],"planet_colors":["#5f6f81","#7f5d5d"],"screen_resolution":[988,707],"minimum_resolution":1,"trial":35,"drifts":[0.297,0.336,0.333,0.65],"drift_ix":2,"trial_type":"two-step-trial","trial_index":67,"time_elapsed":636456,"internal_node_id":"0.0-48.0-0.0","task_version":"1.0","jspsych_version":"6.3.1","browser_interactions":0,"missing":false},{"state_1_ids":[1,0],"state_1_key":0,"state_1_choice":1,"state_1_rt":855.7999999970198,"transition":1,"state":1,"state_2_ids":[2,3],"state_2_key":1,"state_2_choice":3,"state_2_rt":456.70000000298023,"outcome":0,"rocket_colors":["#955db9","#48a782"],"planet_colors":["#5f6f81","#7f5d5d"],"screen_resolution":[988,707],"minimum_resolution":1,"trial":36,"drifts":[0.326,0.343,0.331,0.633],"drift_ix":2,"trial_type":"two-step-trial","trial_index":68,"time_elapsed":639783,"internal_node_id":"0.0-49.0-0.0","task_version":"1.0","jspsych_version":"6.3.1","browser_interactions":0,"missing":false},{"state_1_ids":[1,0],"state_1_key":0,"state_1_choice":1,"state_1_rt":653.1000000014901,"transition":1,"state":1,"state_2_ids":[2,3],"state_2_key":1,"state_2_choice":3,"state_2_rt":536.1000000014901,"outcome":0,"rocket_colors":["#955db9","#48a782"],"planet_colors":["#5f6f81","#7f5d5d"],"screen_resolution":[988,707],"minimum_resolution":1,"trial":37,"drifts":[0.318,0.324,0.327,0.612],"drift_ix":2,"trial_type":"two-step-trial","trial_index":69,"time_elapsed":642984,"internal_node_id":"0.0-50.0-0.0","task_version":"1.0","jspsych_version":"6.3.1","browser_interactions":0,"missing":false},{"state_1_ids":[1,0],"state_1_key":1,"state_1_choice":0,"state_1_rt":1051.5,"transition":1,"state":0,"state_2_ids":[0,1],"state_2_key":0,"state_2_choice":0,"state_2_rt":409.29999999701977,"outcome":0,"rocket_colors":["#955db9","#48a782"],"planet_colors":["#5f6f81","#7f5d5d"],"screen_resolution":[988,707],"minimum_resolution":1,"trial":38,"drifts":[0.304,0.324,0.319,0.591],"drift_ix":2,"trial_type":"two-step-trial","trial_index":70,"time_elapsed":646461,"internal_node_id":"0.0-51.0-0.0","task_version":"1.0","jspsych_version":"6.3.1","browser_interactions":0,"missing":false},{"state_1_ids":[1,0],"state_1_key":1,"state_1_choice":0,"state_1_rt":517.8999999985099,"transition":1,"state":0,"state_2_ids":[0,1],"state_2_key":0,"state_2_choice":0,"state_2_rt":395.79999999701977,"outcome":0,"rocket_colors":["#955db9","#48a782"],"planet_colors":["#5f6f81","#7f5d5d"],"screen_resolution":[988,707],"minimum_resolution":1,"trial":39,"drifts":[0.283,0.362,0.351,0.561],"drift_ix":2,"trial_type":"two-step-trial","trial_index":71,"time_elapsed":649389,"internal_node_id":"0.0-52.0-0.0","task_version":"1.0","jspsych_version":"6.3.1","browser_interactions":0,"missing":false},{"state_1_ids":[1,0],"state_1_key":1,"state_1_choice":0,"state_1_rt":425,"transition":1,"state":0,"state_2_ids":[0,1],"state_2_key":1,"state_2_choice":1,"state_2_rt":350.8999999985099,"outcome":0,"rocket_colors":["#955db9","#48a782"],"planet_colors":["#5f6f81","#7f5d5d"],"screen_resolution":[988,707],"minimum_resolution":1,"trial":40,"drifts":[0.295,0.387,0.331,0.546],"drift_ix":2,"trial_type":"two-step-trial","trial_index":72,"time_elapsed":652178,"internal_node_id":"0.0-53.0-0.0","task_version":"1.0","jspsych_version":"6.3.1","browser_interactions":0,"missing":false},{"state_1_ids":[0,1],"state_1_key":0,"state_1_choice":0,"state_1_rt":553.2000000029802,"transition":0,"state":1,"state_2_ids":[2,3],"state_2_key":1,"state_2_choice":3,"state_2_rt":250.70000000298023,"outcome":0,"rocket_colors":["#955db9","#48a782"],"planet_colors":["#5f6f81","#7f5d5d"],"screen_resolution":[988,707],"minimum_resolution":1,"trial":41,"drifts":[0.293,0.385,0.33,0.584],"drift_ix":2,"trial_type":"two-step-trial","trial_index":73,"time_elapsed":654999,"internal_node_id":"0.0-54.0-0.0","task_version":"1.0","jspsych_version":"6.3.1","browser_interactions":0,"missing":false},{"state_1_ids":[0,1],"state_1_key":1,"state_1_choice":1,"state_1_rt":815.3000000044703,"transition":1,"state":1,"state_2_ids":[2,3],"state_2_key":0,"state_2_choice":2,"state_2_rt":430.80000000447035,"outcome":0,"rocket_colors":["#955db9","#48a782"],"planet_colors":["#5f6f81","#7f5d5d"],"screen_resolution":[988,707],"minimum_resolution":1,"trial":42,"drifts":[0.304,0.383,0.318,0.562],"drift_ix":2,"trial_type":"two-step-trial","trial_index":74,"time_elapsed":658258,"internal_node_id":"0.0-55.0-0.0","task_version":"1.0","jspsych_version":"6.3.1","browser_interactions":0,"missing":false},{"state_1_ids":[1,0],"state_1_key":0,"state_1_choice":1,"state_1_rt":805.6999999955297,"transition":1,"state":1,"state_2_ids":[2,3],"state_2_key":0,"state_2_choice":2,"state_2_rt":384.19999999552965,"outcome":1,"rocket_colors":["#955db9","#48a782"],"planet_colors":["#5f6f81","#7f5d5d"],"screen_resolution":[988,707],"minimum_resolution":1,"trial":43,"drifts":[0.318,0.398,0.315,0.576],"drift_ix":2,"trial_type":"two-step-trial","trial_index":75,"time_elapsed":661463,"internal_node_id":"0.0-56.0-0.0","task_version":"1.0","jspsych_version":"6.3.1","browser_interactions":0,"missing":false},{"state_1_ids":[0,1],"state_1_key":1,"state_1_choice":1,"state_1_rt":602,"transition":0,"state":0,"state_2_ids":[0,1],"state_2_key":0,"state_2_choice":0,"state_2_rt":436.29999999701977,"outcome":0,"rocket_colors":["#955db9","#48a782"],"planet_colors":["#5f6f81","#7f5d5d"],"screen_resolution":[988,707],"minimum_resolution":1,"trial":44,"drifts":[0.321,0.371,0.348,0.616],"drift_ix":2,"trial_type":"two-step-trial","trial_index":76,"time_elapsed":664514,"internal_node_id":"0.0-57.0-0.0","task_version":"1.0","jspsych_version":"6.3.1","browser_interactions":0,"missing":false},{"state_1_ids":[1,0],"state_1_key":0,"state_1_choice":1,"state_1_rt":821.5999999940395,"transition":1,"state":1,"state_2_ids":[2,3],"state_2_key":0,"state_2_choice":2,"state_2_rt":308.30000000447035,"outcome":0,"rocket_colors":["#955db9","#48a782"],"planet_colors":["#5f6f81","#7f5d5d"],"screen_resolution":[988,707],"minimum_resolution":1,"trial":45,"drifts":[0.319,0.418,0.367,0.598],"drift_ix":2,"trial_type":"two-step-trial","trial_index":77,"time_elapsed":667660,"internal_node_id":"0.0-58.0-0.0","task_version":"1.0","jspsych_version":"6.3.1","browser_interactions":0,"missing":false},{"state_1_ids":[0,1],"state_1_key":1,"state_1_choice":1,"state_1_rt":461.90000000596046,"transition":0,"state":0,"state_2_ids":[0,1],"state_2_key":0,"state_2_choice":0,"state_2_rt":438.19999999552965,"outcome":0,"rocket_colors":["#955db9","#48a782"],"planet_colors":["#5f6f81","#7f5d5d"],"screen_resolution":[988,707],"minimum_resolution":1,"trial":46,"drifts":[0.326,0.44,0.366,0.588],"drift_ix":2,"trial_type":"two-step-trial","trial_index":78,"time_elapsed":670577,"internal_node_id":"0.0-59.0-0.0","task_version":"1.0","jspsych_version":"6.3.1","browser_interactions":0,"missing":false},{"state_1_ids":[1,0],"state_1_key":0,"state_1_choice":1,"state_1_rt":636.2000000029802,"transition":1,"state":1,"state_2_ids":[2,3],"state_2_key":0,"state_2_choice":2,"state_2_rt":498,"outcome":1,"rocket_colors":["#955db9","#48a782"],"planet_colors":["#5f6f81","#7f5d5d"],"screen_resolution":[988,707],"minimum_resolution":1,"trial":47,"drifts":[0.315,0.46,0.378,0.597],"drift_ix":2,"trial_type":"two-step-trial","trial_index":79,"time_elapsed":673724,"internal_node_id":"0.0-60.0-0.0","task_version":"1.0","jspsych_version":"6.3.1","browser_interactions":0,"missing":false},{"state_1_ids":[1,0],"state_1_key":0,"state_1_choice":1,"state_1_rt":478,"transition":1,"state":1,"state_2_ids":[2,3],"state_2_key":0,"state_2_choice":2,"state_2_rt":388.29999999701977,"outcome":0,"rocket_colors":["#955db9","#48a782"],"planet_colors":["#5f6f81","#7f5d5d"],"screen_resolution":[988,707],"minimum_resolution":1,"trial":48,"drifts":[0.281,0.476,0.36,0.571],"drift_ix":2,"trial_type":"two-step-trial","trial_index":80,"time_elapsed":676604,"internal_node_id":"0.0-61.0-0.0","task_version":"1.0","jspsych_version":"6.3.1","browser_interactions":0,"missing":false},{"state_1_ids":[0,1],"state_1_key":1,"state_1_choice":1,"state_1_rt":436,"transition":1,"state":1,"state_2_ids":[2,3],"state_2_key":0,"state_2_choice":2,"state_2_rt":386.5,"outcome":1,"rocket_colors":["#955db9","#48a782"],"planet_colors":["#5f6f81","#7f5d5d"],"screen_resolution":[988,707],"minimum_resolution":1,"trial":49,"drifts":[0.254,0.439,0.383,0.579],"drift_ix":2,"trial_type":"two-step-trial","trial_index":81,"time_elapsed":679441,"internal_node_id":"0.0-62.0-0.0","task_version":"1.0","jspsych_version":"6.3.1","browser_interactions":0,"missing":false},{"state_1_ids":[1,0],"state_1_key":0,"state_1_choice":1,"state_1_rt":775.8000000044703,"transition":0,"state":0,"state_2_ids":[0,1],"state_2_key":0,"state_2_choice":0,"state_2_rt":672.8999999985099,"outcome":0,"rocket_colors":["#955db9","#48a782"],"planet_colors":["#5f6f81","#7f5d5d"],"screen_resolution":[988,707],"minimum_resolution":1,"trial":50,"drifts":[0.303,0.471,0.392,0.592],"drift_ix":2,"trial_type":"two-step-trial","trial_index":82,"time_elapsed":682901,"internal_node_id":"0.0-63.0-0.0","task_version":"1.0","jspsych_version":"6.3.1","browser_interactions":0,"missing":false},{"state_1_ids":[1,0],"state_1_key":0,"state_1_choice":1,"state_1_rt":463.20000000298023,"transition":1,"state":1,"state_2_ids":[2,3],"state_2_key":0,"state_2_choice":2,"state_2_rt":447,"outcome":0,"rocket_colors":["#955db9","#48a782"],"planet_colors":["#5f6f81","#7f5d5d"],"screen_resolution":[988,707],"minimum_resolution":1,"trial":51,"drifts":[0.274,0.41,0.377,0.587],"drift_ix":2,"trial_type":"two-step-trial","trial_index":83,"time_elapsed":685819,"internal_node_id":"0.0-64.0-0.0","task_version":"1.0","jspsych_version":"6.3.1","browser_interactions":0,"missing":false},{"state_1_ids":[0,1],"state_1_key":0,"state_1_choice":0,"state_1_rt":863.1000000014901,"transition":1,"state":0,"state_2_ids":[0,1],"state_2_key":0,"state_2_choice":0,"state_2_rt":421,"outcome":0,"rocket_colors":["#955db9","#48a782"],"planet_colors":["#5f6f81","#7f5d5d"],"screen_resolution":[988,707],"minimum_resolution":1,"trial":52,"drifts":[0.29,0.413,0.363,0.572],"drift_ix":2,"trial_type":"two-step-trial","trial_index":84,"time_elapsed":689115,"internal_node_id":"0.0-65.0-0.0","task_version":"1.0","jspsych_version":"6.3.1","browser_interactions":0,"missing":false},{"state_1_ids":[1,0],"state_1_key":1,"state_1_choice":0,"state_1_rt":479.20000000298023,"transition":1,"state":0,"state_2_ids":[0,1],"state_2_key":0,"state_2_choice":0,"state_2_rt":474.5,"outcome":0,"rocket_colors":["#955db9","#48a782"],"planet_colors":["#5f6f81","#7f5d5d"],"screen_resolution":[988,707],"minimum_resolution":1,"trial":53,"drifts":[0.292,0.425,0.318,0.522],"drift_ix":2,"trial_type":"two-step-trial","trial_index":85,"time_elapsed":692079,"internal_node_id":"0.0-66.0-0.0","task_version":"1.0","jspsych_version":"6.3.1","browser_interactions":0,"missing":false},{"state_1_ids":[0,1],"state_1_key":0,"state_1_choice":0,"state_1_rt":442.29999999701977,"transition":0,"state":1,"state_2_ids":[2,3],"state_2_key":1,"state_2_choice":3,"state_2_rt":667.3999999985099,"outcome":1,"rocket_colors":["#955db9","#48a782"],"planet_colors":["#5f6f81","#7f5d5d"],"screen_resolution":[988,707],"minimum_resolution":1,"trial":54,"drifts":[0.284,0.449,0.332,0.552],"drift_ix":2,"trial_type":"two-step-trial","trial_index":86,"time_elapsed":695200,"internal_node_id":"0.0-67.0-0.0","task_version":"1.0","jspsych_version":"6.3.1","browser_interactions":0,"missing":false},{"state_1_ids":[0,1],"state_1_key":1,"state_1_choice":1,"state_1_rt":391.40000000596046,"transition":1,"state":1,"state_2_ids":[2,3],"state_2_key":1,"state_2_choice":3,"state_2_rt":344.19999999552965,"outcome":1,"rocket_colors":["#955db9","#48a782"],"planet_colors":["#5f6f81","#7f5d5d"],"screen_resolution":[988,707],"minimum_resolution":1,"trial":55,"drifts":[0.253,0.41,0.344,0.579],"drift_ix":2,"trial_type":"two-step-trial","trial_index":87,"time_elapsed":697951,"internal_node_id":"0.0-68.0-0.0","task_version":"1.0","jspsych_version":"6.3.1","browser_interactions":0,"missing":false},{"state_1_ids":[1,0],"state_1_key":0,"state_1_choice":1,"state_1_rt":471.70000000298023,"transition":1,"state":1,"state_2_ids":[2,3],"state_2_key":1,"state_2_choice":3,"state_2_rt":252,"outcome":1,"rocket_colors":["#955db9","#48a782"],"planet_colors":["#5f6f81","#7f5d5d"],"screen_resolution":[988,707],"minimum_resolution":1,"trial":56,"drifts":[0.277,0.408,0.373,0.526],"drift_ix":2,"trial_type":"two-step-trial","trial_index":88,"time_elapsed":700683,"internal_node_id":"0.0-69.0-0.0","task_version":"1.0","jspsych_version":"6.3.1","browser_interactions":0,"missing":false},{"state_1_ids":[0,1],"state_1_key":1,"state_1_choice":1,"state_1_rt":429.5,"transition":0,"state":0,"state_2_ids":[0,1],"state_2_key":1,"state_2_choice":1,"state_2_rt":532.1000000014901,"outcome":0,"rocket_colors":["#955db9","#48a782"],"planet_colors":["#5f6f81","#7f5d5d"],"screen_resolution":[988,707],"minimum_resolution":1,"trial":57,"drifts":[0.252,0.418,0.356,0.521],"drift_ix":2,"trial_type":"two-step-trial","trial_index":89,"time_elapsed":703658,"internal_node_id":"0.0-70.0-0.0","task_version":"1.0","jspsych_version":"6.3.1","browser_interactions":0,"missing":false},{"state_1_ids":[0,1],"state_1_key":1,"state_1_choice":1,"state_1_rt":938.6000000014901,"transition":0,"state":0,"state_2_ids":[0,1],"state_2_key":1,"state_2_choice":1,"state_2_rt":408.5,"outcome":0,"rocket_colors":["#955db9","#48a782"],"planet_colors":["#5f6f81","#7f5d5d"],"screen_resolution":[988,707],"minimum_resolution":1,"trial":58,"drifts":[0.282,0.462,0.395,0.504],"drift_ix":2,"trial_type":"two-step-trial","trial_index":90,"time_elapsed":707018,"internal_node_id":"0.0-71.0-0.0","task_version":"1.0","jspsych_version":"6.3.1","browser_interactions":0,"missing":false},{"state_1_ids":[1,0],"state_1_key":0,"state_1_choice":1,"state_1_rt":1083.8000000044703,"transition":0,"state":0,"state_2_ids":[0,1],"state_2_key":0,"state_2_choice":0,"state_2_rt":730.6999999955297,"outcome":0,"rocket_colors":["#955db9","#48a782"],"planet_colors":["#5f6f81","#7f5d5d"],"screen_resolution":[988,707],"minimum_resolution":1,"trial":59,"drifts":[0.297,0.475,0.39,0.498],"drift_ix":2,"trial_type":"two-step-trial","trial_index":91,"time_elapsed":710847,"internal_node_id":"0.0-72.0-0.0","task_version":"1.0","jspsych_version":"6.3.1","browser_interactions":0,"missing":false},{"state_1_ids":[0,1],"state_1_key":1,"state_1_choice":1,"state_1_rt":893.8999999985099,"transition":1,"state":1,"state_2_ids":[2,3],"state_2_key":1,"state_2_choice":3,"state_2_rt":570.2000000029802,"outcome":0,"rocket_colors":["#955db9","#48a782"],"planet_colors":["#5f6f81","#7f5d5d"],"screen_resolution":[988,707],"minimum_resolution":1,"trial":60,"drifts":[0.295,0.463,0.364,0.52],"drift_ix":2,"trial_type":"two-step-trial","trial_index":92,"time_elapsed":714325,"internal_node_id":"0.0-73.0-0.0","task_version":"1.0","jspsych_version":"6.3.1","browser_interactions":0,"missing":false},{"state_1_ids":[1,0],"state_1_key":0,"state_1_choice":1,"state_1_rt":793.4000000059605,"transition":0,"state":0,"state_2_ids":[0,1],"state_2_key":0,"state_2_choice":0,"state_2_rt":748.5,"outcome":0,"rocket_colors":["#955db9","#48a782"],"planet_colors":["#5f6f81","#7f5d5d"],"screen_resolution":[988,707],"minimum_resolution":1,"trial":61,"drifts":[0.295,0.433,0.355,0.543],"drift_ix":2,"trial_type":"two-step-trial","trial_index":93,"time_elapsed":717884,"internal_node_id":"0.0-74.0-0.0","task_version":"1.0","jspsych_version":"6.3.1","browser_interactions":0,"missing":false},{"state_1_ids":[0,1],"state_1_key":1,"state_1_choice":1,"state_1_rt":739.5,"transition":1,"state":1,"state_2_ids":[2,3],"state_2_key":1,"state_2_choice":3,"state_2_rt":458.30000000447035,"outcome":0,"rocket_colors":["#955db9","#48a782"],"planet_colors":["#5f6f81","#7f5d5d"],"screen_resolution":[988,707],"minimum_resolution":1,"trial":62,"drifts":[0.307,0.43,0.353,0.543],"drift_ix":2,"trial_type":"two-step-trial","trial_index":94,"time_elapsed":721096,"internal_node_id":"0.0-75.0-0.0","task_version":"1.0","jspsych_version":"6.3.1","browser_interactions":0,"missing":false},{"state_1_ids":[0,1],"state_1_key":0,"state_1_choice":0,"state_1_rt":1142.8000000044703,"transition":1,"state":0,"state_2_ids":[0,1],"state_2_key":0,"state_2_choice":0,"state_2_rt":582.7000000029802,"outcome":1,"rocket_colors":["#955db9","#48a782"],"planet_colors":["#5f6f81","#7f5d5d"],"screen_resolution":[988,707],"minimum_resolution":1,"trial":63,"drifts":[0.353,0.426,0.367,0.529],"drift_ix":2,"trial_type":"two-step-trial","trial_index":95,"time_elapsed":724836,"internal_node_id":"0.0-76.0-0.0","task_version":"1.0","jspsych_version":"6.3.1","browser_interactions":0,"missing":false},{"state_1_ids":[0,1],"state_1_key":0,"state_1_choice":0,"state_1_rt":427.20000000298023,"transition":1,"state":0,"state_2_ids":[0,1],"state_2_key":0,"state_2_choice":0,"state_2_rt":350.5,"outcome":0,"rocket_colors":["#955db9","#48a782"],"planet_colors":["#5f6f81","#7f5d5d"],"screen_resolution":[988,707],"minimum_resolution":1,"trial":64,"drifts":[0.37,0.432,0.33,0.47],"drift_ix":2,"trial_type":"two-step-trial","trial_index":96,"time_elapsed":727628,"internal_node_id":"0.0-77.0-0.0","task_version":"1.0","jspsych_version":"6.3.1","browser_interactions":0,"missing":false},{"state_1_ids":[1,0],"state_1_key":1,"state_1_choice":0,"state_1_rt":658.8000000044703,"transition":1,"state":0,"state_2_ids":[0,1],"state_2_key":0,"state_2_choice":0,"state_2_rt":308.90000000596046,"outcome":0,"rocket_colors":["#955db9","#48a782"],"planet_colors":["#5f6f81","#7f5d5d"],"screen_resolution":[988,707],"minimum_resolution":1,"trial":65,"drifts":[0.377,0.393,0.348,0.501],"drift_ix":2,"trial_type":"two-step-trial","trial_index":97,"time_elapsed":730612,"internal_node_id":"0.0-78.0-0.0","task_version":"1.0","jspsych_version":"6.3.1","browser_interactions":0,"missing":false},{"state_1_ids":[0,1],"state_1_key":0,"state_1_choice":0,"state_1_rt":634.3000000044703,"transition":1,"state":0,"state_2_ids":[0,1],"state_2_key":1,"state_2_choice":1,"state_2_rt":441.8999999985099,"outcome":1,"rocket_colors":["#955db9","#48a782"],"planet_colors":["#5f6f81","#7f5d5d"],"screen_resolution":[988,707],"minimum_resolution":1,"trial":66,"drifts":[0.345,0.371,0.258,0.459],"drift_ix":2,"trial_type":"two-step-trial","trial_index":98,"time_elapsed":733705,"internal_node_id":"0.0-79.0-0.0","task_version":"1.0","jspsych_version":"6.3.1","browser_interactions":0,"missing":false},{"state_1_ids":[1,0],"state_1_key":1,"state_1_choice":0,"state_1_rt":407,"transition":0,"state":1,"state_2_ids":[2,3],"state_2_key":1,"state_2_choice":3,"state_2_rt":433.79999999701977,"outcome":0,"rocket_colors":["#955db9","#48a782"],"planet_colors":["#5f6f81","#7f5d5d"],"screen_resolution":[988,707],"minimum_resolution":1,"trial":67,"drifts":[0.332,0.355,0.256,0.426],"drift_ix":2,"trial_type":"two-step-trial","trial_index":99,"time_elapsed":736563,"internal_node_id":"0.0-80.0-0.0","task_version":"1.0","jspsych_version":"6.3.1","browser_interactions":0,"missing":false},{"state_1_ids":[1,0],"state_1_key":1,"state_1_choice":0,"state_1_rt":432.1000000014901,"transition":1,"state":0,"state_2_ids":[0,1],"state_2_key":1,"state_2_choice":1,"state_2_rt":283.6000000014901,"outcome":0,"rocket_colors":["#955db9","#48a782"],"planet_colors":["#5f6f81","#7f5d5d"],"screen_resolution":[988,707],"minimum_resolution":1,"trial":68,"drifts":[0.331,0.398,0.311,0.426],"drift_ix":2,"trial_type":"two-step-trial","trial_index":100,"time_elapsed":739290,"internal_node_id":"0.0-81.0-0.0","task_version":"1.0","jspsych_version":"6.3.1","browser_interactions":0,"missing":false},{"state_1_ids":[0,1],"state_1_key":0,"state_1_choice":0,"state_1_rt":521.6000000014901,"transition":1,"state":0,"state_2_ids":[0,1],"state_2_key":1,"state_2_choice":1,"state_2_rt":454.3999999985099,"outcome":1,"rocket_colors":["#955db9","#48a782"],"planet_colors":["#5f6f81","#7f5d5d"],"screen_resolution":[988,707],"minimum_resolution":1,"trial":69,"drifts":[0.325,0.426,0.326,0.384],"drift_ix":2,"trial_type":"two-step-trial","trial_index":101,"time_elapsed":742281,"internal_node_id":"0.0-82.0-0.0","task_version":"1.0","jspsych_version":"6.3.1","browser_interactions":0,"missing":false},{"state_1_ids":[0,1],"state_1_key":0,"state_1_choice":0,"state_1_rt":415.70000000298023,"transition":0,"state":1,"state_2_ids":[2,3],"state_2_key":1,"state_2_choice":3,"state_2_rt":323.8999999985099,"outcome":1,"rocket_colors":["#955db9","#48a782"],"planet_colors":["#5f6f81","#7f5d5d"],"screen_resolution":[988,707],"minimum_resolution":1,"trial":70,"drifts":[0.293,0.475,0.305,0.375],"drift_ix":2,"trial_type":"two-step-trial","trial_index":102,"time_elapsed":745032,"internal_node_id":"0.0-83.0-0.0","task_version":"1.0","jspsych_version":"6.3.1","browser_interactions":0,"missing":false},{"state_1_ids":[0,1],"state_1_key":0,"state_1_choice":0,"state_1_rt":523.7999999970198,"transition":0,"state":1,"state_2_ids":[2,3],"state_2_key":1,"state_2_choice":3,"state_2_rt":399.29999999701977,"outcome":1,"rocket_colors":["#955db9","#48a782"],"planet_colors":["#5f6f81","#7f5d5d"],"screen_resolution":[988,707],"minimum_resolution":1,"trial":71,"drifts":[0.268,0.51,0.303,0.365],"drift_ix":2,"trial_type":"two-step-trial","trial_index":103,"time_elapsed":747966,"internal_node_id":"0.0-84.0-0.0","task_version":"1.0","jspsych_version":"6.3.1","browser_interactions":0,"missing":false},{"state_1_ids":[0,1],"state_1_key":0,"state_1_choice":0,"state_1_rt":492.30000000447035,"transition":0,"state":1,"state_2_ids":[2,3],"state_2_key":1,"state_2_choice":3,"state_2_rt":638.8999999985099,"outcome":0,"rocket_colors":["#955db9","#48a782"],"planet_colors":["#5f6f81","#7f5d5d"],"screen_resolution":[988,707],"minimum_resolution":1,"trial":72,"drifts":[0.294,0.507,0.326,0.359],"drift_ix":2,"trial_type":"two-step-trial","trial_index":104,"time_elapsed":751112,"internal_node_id":"0.0-85.0-0.0","task_version":"1.0","jspsych_version":"6.3.1","browser_interactions":0,"missing":false},{"state_1_ids":[1,0],"state_1_key":1,"state_1_choice":0,"state_1_rt":484.30000000447035,"transition":1,"state":0,"state_2_ids":[0,1],"state_2_key":1,"state_2_choice":1,"state_2_rt":434.1000000014901,"outcome":1,"rocket_colors":["#955db9","#48a782"],"planet_colors":["#5f6f81","#7f5d5d"],"screen_resolution":[988,707],"minimum_resolution":1,"trial":73,"drifts":[0.296,0.541,0.313,0.367],"drift_ix":2,"trial_type":"two-step-trial","trial_index":105,"time_elapsed":754045,"internal_node_id":"0.0-86.0-0.0","task_version":"1.0","jspsych_version":"6.3.1","browser_interactions":0,"missing":false},{"state_1_ids":[1,0],"state_1_key":1,"state_1_choice":0,"state_1_rt":566.7999999970198,"transition":1,"state":0,"state_2_ids":[0,1],"state_2_key":1,"state_2_choice":1,"state_2_rt":400.1000000014901,"outcome":1,"rocket_colors":["#955db9","#48a782"],"planet_colors":["#5f6f81","#7f5d5d"],"screen_resolution":[988,707],"minimum_resolution":1,"trial":74,"drifts":[0.282,0.491,0.339,0.374],"drift_ix":2,"trial_type":"two-step-trial","trial_index":106,"time_elapsed":757027,"internal_node_id":"0.0-87.0-0.0","task_version":"1.0","jspsych_version":"6.3.1","browser_interactions":0,"missing":false},{"state_1_ids":[1,0],"state_1_key":1,"state_1_choice":0,"state_1_rt":709.9000000059605,"transition":1,"state":0,"state_2_ids":[0,1],"state_2_key":1,"state_2_choice":1,"state_2_rt":664.2999999970198,"outcome":0,"rocket_colors":["#955db9","#48a782"],"planet_colors":["#5f6f81","#7f5d5d"],"screen_resolution":[988,707],"minimum_resolution":1,"trial":75,"drifts":[0.336,0.513,0.333,0.367],"drift_ix":2,"trial_type":"two-step-trial","trial_index":107,"time_elapsed":760413,"internal_node_id":"0.0-88.0-0.0","task_version":"1.0","jspsych_version":"6.3.1","browser_interactions":0,"missing":false},{"state_1_ids":[0,1],"state_1_key":0,"state_1_choice":0,"state_1_rt":591.2999999970198,"transition":1,"state":0,"state_2_ids":[0,1],"state_2_key":1,"state_2_choice":1,"state_2_rt":426.5,"outcome":0,"rocket_colors":["#955db9","#48a782"],"planet_colors":["#5f6f81","#7f5d5d"],"screen_resolution":[988,707],"minimum_resolution":1,"trial":76,"drifts":[0.344,0.538,0.274,0.339],"drift_ix":2,"trial_type":"two-step-trial","trial_index":108,"time_elapsed":763442,"internal_node_id":"0.0-89.0-0.0","task_version":"1.0","jspsych_version":"6.3.1","browser_interactions":0,"missing":false},{"state_1_ids":[0,1],"state_1_key":1,"state_1_choice":1,"state_1_rt":630.2000000029802,"transition":1,"state":1,"state_2_ids":[2,3],"state_2_key":1,"state_2_choice":3,"state_2_rt":361.8999999985099,"outcome":0,"rocket_colors":["#955db9","#48a782"],"planet_colors":["#5f6f81","#7f5d5d"],"screen_resolution":[988,707],"minimum_resolution":1,"trial":77,"drifts":[0.322,0.54,0.262,0.343],"drift_ix":2,"trial_type":"two-step-trial","trial_index":109,"time_elapsed":766444,"internal_node_id":"0.0-90.0-0.0","task_version":"1.0","jspsych_version":"6.3.1","browser_interactions":0,"missing":false},{"state_1_ids":[0,1],"state_1_key":1,"state_1_choice":1,"state_1_rt":386.29999999701977,"transition":0,"state":0,"state_2_ids":[0,1],"state_2_key":1,"state_2_choice":1,"state_2_rt":659.5999999940395,"outcome":1,"rocket_colors":["#955db9","#48a782"],"planet_colors":["#5f6f81","#7f5d5d"],"screen_resolution":[988,707],"minimum_resolution":1,"trial":78,"drifts":[0.351,0.561,0.265,0.342],"drift_ix":2,"trial_type":"two-step-trial","trial_index":110,"time_elapsed":769501,"internal_node_id":"0.0-91.0-0.0","task_version":"1.0","jspsych_version":"6.3.1","browser_interactions":0,"missing":false},{"state_1_ids":[0,1],"state_1_key":0,"state_1_choice":0,"state_1_rt":429.8999999985099,"transition":0,"state":1,"state_2_ids":[2,3],"state_2_key":1,"state_2_choice":3,"state_2_rt":444.8999999985099,"outcome":1,"rocket_colors":["#955db9","#48a782"],"planet_colors":["#5f6f81","#7f5d5d"],"screen_resolution":[988,707],"minimum_resolution":1,"trial":79,"drifts":[0.335,0.543,0.286,0.35],"drift_ix":2,"trial_type":"two-step-trial","trial_index":111,"time_elapsed":772381,"internal_node_id":"0.0-92.0-0.0","task_version":"1.0","jspsych_version":"6.3.1","browser_interactions":0,"missing":false},{"state_1_ids":[0,1],"state_1_key":0,"state_1_choice":0,"state_1_rt":441.1000000014901,"transition":0,"state":1,"state_2_ids":[2,3],"state_2_key":1,"state_2_choice":3,"state_2_rt":440.8999999985099,"outcome":0,"rocket_colors":["#955db9","#48a782"],"planet_colors":["#5f6f81","#7f5d5d"],"screen_resolution":[988,707],"minimum_resolution":1,"trial":80,"drifts":[0.328,0.536,0.289,0.405],"drift_ix":2,"trial_type":"two-step-trial","trial_index":112,"time_elapsed":775277,"internal_node_id":"0.0-93.0-0.0","task_version":"1.0","jspsych_version":"6.3.1","browser_interactions":0,"missing":false},{"state_1_ids":[1,0],"state_1_key":1,"state_1_choice":0,"state_1_rt":391.3999999985099,"transition":0,"state":1,"state_2_ids":[2,3],"state_2_key":1,"state_2_choice":3,"state_2_rt":532.0999999940395,"outcome":0,"rocket_colors":["#955db9","#48a782"],"planet_colors":["#5f6f81","#7f5d5d"],"screen_resolution":[988,707],"minimum_resolution":1,"trial":81,"drifts":[0.286,0.534,0.265,0.391],"drift_ix":2,"trial_type":"two-step-trial","trial_index":113,"time_elapsed":778215,"internal_node_id":"0.0-94.0-0.0","task_version":"1.0","jspsych_version":"6.3.1","browser_interactions":0,"missing":false},{"state_1_ids":[1,0],"state_1_key":1,"state_1_choice":0,"state_1_rt":615.7000000029802,"transition":1,"state":0,"state_2_ids":[0,1],"state_2_key":1,"state_2_choice":1,"state_2_rt":484.70000000298023,"outcome":1,"rocket_colors":["#955db9","#48a782"],"planet_colors":["#5f6f81","#7f5d5d"],"screen_resolution":[988,707],"minimum_resolution":1,"trial":82,"drifts":[0.307,0.553,0.256,0.373],"drift_ix":2,"trial_type":"two-step-trial","trial_index":114,"time_elapsed":781330,"internal_node_id":"0.0-95.0-0.0","task_version":"1.0","jspsych_version":"6.3.1","browser_interactions":0,"missing":false},{"state_1_ids":[1,0],"state_1_key":1,"state_1_choice":0,"state_1_rt":427.3999999985099,"transition":0,"state":1,"state_2_ids":[2,3],"state_2_key":1,"state_2_choice":3,"state_2_rt":454.8999999985099,"outcome":1,"rocket_colors":["#955db9","#48a782"],"planet_colors":["#5f6f81","#7f5d5d"],"screen_resolution":[988,707],"minimum_resolution":1,"trial":83,"drifts":[0.306,0.564,0.273,0.38],"drift_ix":2,"trial_type":"two-step-trial","trial_index":115,"time_elapsed":784225,"internal_node_id":"0.0-96.0-0.0","task_version":"1.0","jspsych_version":"6.3.1","browser_interactions":0,"missing":false},{"state_1_ids":[0,1],"state_1_key":0,"state_1_choice":0,"state_1_rt":493.5,"transition":1,"state":0,"state_2_ids":[0,1],"state_2_key":1,"state_2_choice":1,"state_2_rt":482.70000000298023,"outcome":0,"rocket_colors":["#955db9","#48a782"],"planet_colors":["#5f6f81","#7f5d5d"],"screen_resolution":[988,707],"minimum_resolution":1,"trial":84,"drifts":[0.263,0.564,0.275,0.397],"drift_ix":2,"trial_type":"two-step-trial","trial_index":116,"time_elapsed":787218,"internal_node_id":"0.0-97.0-0.0","task_version":"1.0","jspsych_version":"6.3.1","browser_interactions":0,"missing":false},{"state_1_ids":[0,1],"state_1_key":0,"state_1_choice":0,"state_1_rt":419.1000000014901,"transition":1,"state":0,"state_2_ids":[0,1],"state_2_key":1,"state_2_choice":1,"state_2_rt":253.89999999850988,"outcome":0,"rocket_colors":["#955db9","#48a782"],"planet_colors":["#5f6f81","#7f5d5d"],"screen_resolution":[988,707],"minimum_resolution":1,"trial":85,"drifts":[0.295,0.592,0.3,0.406],"drift_ix":2,"trial_type":"two-step-trial","trial_index":117,"time_elapsed":789905,"internal_node_id":"0.0-98.0-0.0","task_version":"1.0","jspsych_version":"6.3.1","browser_interactions":0,"missing":false},{"state_1_ids":[1,0],"state_1_key":0,"state_1_choice":1,"state_1_rt":340.69999999552965,"transition":1,"state":1,"state_2_ids":[2,3],"state_2_key":1,"state_2_choice":3,"state_2_rt":193.80000000447035,"outcome":1,"rocket_colors":["#955db9","#48a782"],"planet_colors":["#5f6f81","#7f5d5d"],"screen_resolution":[988,707],"minimum_resolution":1,"trial":86,"drifts":[0.266,0.571,0.324,0.417],"drift_ix":2,"trial_type":"two-step-trial","trial_index":118,"time_elapsed":792450,"internal_node_id":"0.0-99.0-0.0","task_version":"1.0","jspsych_version":"6.3.1","browser_interactions":0,"missing":false},{"state_1_ids":[0,1],"state_1_key":1,"state_1_choice":1,"state_1_rt":416.70000000298023,"transition":0,"state":0,"state_2_ids":[0,1],"state_2_key":1,"state_2_choice":1,"state_2_rt":403.3999999985099,"outcome":1,"rocket_colors":["#955db9","#48a782"],"planet_colors":["#5f6f81","#7f5d5d"],"screen_resolution":[988,707],"minimum_resolution":1,"trial":87,"drifts":[0.25,0.532,0.345,0.39],"drift_ix":2,"trial_type":"two-step-trial","trial_index":119,"time_elapsed":795283,"internal_node_id":"0.0-100.0-0.0","task_version":"1.0","jspsych_version":"6.3.1","browser_interactions":0,"missing":false},{"state_1_ids":[1,0],"state_1_key":1,"state_1_choice":0,"state_1_rt":424.79999999701977,"transition":1,"state":0,"state_2_ids":[0,1],"state_2_key":1,"state_2_choice":1,"state_2_rt":423.6000000014901,"outcome":1,"rocket_colors":["#955db9","#48a782"],"planet_colors":["#5f6f81","#7f5d5d"],"screen_resolution":[988,707],"minimum_resolution":1,"trial":88,"drifts":[0.258,0.529,0.341,0.378],"drift_ix":2,"trial_type":"two-step-trial","trial_index":120,"time_elapsed":798145,"internal_node_id":"0.0-101.0-0.0","task_version":"1.0","jspsych_version":"6.3.1","browser_interactions":0,"missing":false},{"state_1_ids":[0,1],"state_1_key":0,"state_1_choice":0,"state_1_rt":426.3999999985099,"transition":1,"state":0,"state_2_ids":[0,1],"state_2_key":1,"state_2_choice":1,"state_2_rt":331.1000000014901,"outcome":1,"rocket_colors":["#955db9","#48a782"],"planet_colors":["#5f6f81","#7f5d5d"],"screen_resolution":[988,707],"minimum_resolution":1,"trial":89,"drifts":[0.266,0.533,0.306,0.41],"drift_ix":2,"trial_type":"two-step-trial","trial_index":121,"time_elapsed":800918,"internal_node_id":"0.0-102.0-0.0","task_version":"1.0","jspsych_version":"6.3.1","browser_interactions":0,"missing":false},{"state_1_ids":[0,1],"state_1_key":0,"state_1_choice":0,"state_1_rt":461.30000000447035,"transition":0,"state":1,"state_2_ids":[2,3],"state_2_key":1,"state_2_choice":3,"state_2_rt":293.8999999985099,"outcome":0,"rocket_colors":["#955db9","#48a782"],"planet_colors":["#5f6f81","#7f5d5d"],"screen_resolution":[988,707],"minimum_resolution":1,"trial":90,"drifts":[0.254,0.554,0.297,0.382],"drift_ix":2,"trial_type":"two-step-trial","trial_index":122,"time_elapsed":803686,"internal_node_id":"0.0-103.0-0.0","task_version":"1.0","jspsych_version":"6.3.1","browser_interactions":0,"missing":false},{"state_1_ids":[1,0],"state_1_key":1,"state_1_choice":0,"state_1_rt":451.8999999985099,"transition":0,"state":1,"state_2_ids":[2,3],"state_2_key":1,"state_2_choice":3,"state_2_rt":497.69999999552965,"outcome":1,"rocket_colors":["#955db9","#48a782"],"planet_colors":["#5f6f81","#7f5d5d"],"screen_resolution":[988,707],"minimum_resolution":1,"trial":91,"drifts":[0.265,0.543,0.313,0.38],"drift_ix":2,"trial_type":"two-step-trial","trial_index":123,"time_elapsed":806651,"internal_node_id":"0.0-104.0-0.0","task_version":"1.0","jspsych_version":"6.3.1","browser_interactions":0,"missing":false},{"state_1_ids":[0,1],"state_1_key":0,"state_1_choice":0,"state_1_rt":501,"transition":1,"state":0,"state_2_ids":[0,1],"state_2_key":1,"state_2_choice":1,"state_2_rt":397.1000000014901,"outcome":1,"rocket_colors":["#955db9","#48a782"],"planet_colors":["#5f6f81","#7f5d5d"],"screen_resolution":[988,707],"minimum_resolution":1,"trial":92,"drifts":[0.259,0.54,0.279,0.363],"drift_ix":2,"trial_type":"two-step-trial","trial_index":124,"time_elapsed":809563,"internal_node_id":"0.0-105.0-0.0","task_version":"1.0","jspsych_version":"6.3.1","browser_interactions":0,"missing":false},{"state_1_ids":[0,1],"state_1_key":0,"state_1_choice":0,"state_1_rt":436.3999999985099,"transition":1,"state":0,"state_2_ids":[0,1],"state_2_key":1,"state_2_choice":1,"state_2_rt":369.1000000014901,"outcome":0,"rocket_colors":["#955db9","#48a782"],"planet_colors":["#5f6f81","#7f5d5d"],"screen_resolution":[988,707],"minimum_resolution":1,"trial":93,"drifts":[0.251,0.565,0.296,0.35],"drift_ix":2,"trial_type":"two-step-trial","trial_index":125,"time_elapsed":812379,"internal_node_id":"0.0-106.0-0.0","task_version":"1.0","jspsych_version":"6.3.1","browser_interactions":0,"missing":false},{"state_1_ids":[0,1],"state_1_key":0,"state_1_choice":0,"state_1_rt":359.19999999552965,"transition":0,"state":1,"state_2_ids":[2,3],"state_2_key":1,"state_2_choice":3,"state_2_rt":323.70000000298023,"outcome":0,"rocket_colors":["#955db9","#48a782"],"planet_colors":["#5f6f81","#7f5d5d"],"screen_resolution":[988,707],"minimum_resolution":1,"trial":94,"drifts":[0.276,0.543,0.275,0.322],"drift_ix":2,"trial_type":"two-step-trial","trial_index":126,"time_elapsed":815077,"internal_node_id":"0.0-107.0-0.0","task_version":"1.0","jspsych_version":"6.3.1","browser_interactions":0,"missing":false},{"state_1_ids":[0,1],"state_1_key":0,"state_1_choice":0,"state_1_rt":388.8999999985099,"transition":0,"state":1,"state_2_ids":[2,3],"state_2_key":1,"state_2_choice":3,"state_2_rt":275.6000000014901,"outcome":0,"rocket_colors":["#955db9","#48a782"],"planet_colors":["#5f6f81","#7f5d5d"],"screen_resolution":[988,707],"minimum_resolution":1,"trial":95,"drifts":[0.317,0.539,0.285,0.291],"drift_ix":2,"trial_type":"two-step-trial","trial_index":127,"time_elapsed":817757,"internal_node_id":"0.0-108.0-0.0","task_version":"1.0","jspsych_version":"6.3.1","browser_interactions":0,"missing":false},{"state_1_ids":[0,1],"state_1_key":0,"state_1_choice":0,"state_1_rt":383.8999999985099,"transition":1,"state":0,"state_2_ids":[0,1],"state_2_key":1,"state_2_choice":1,"state_2_rt":364.6000000014901,"outcome":1,"rocket_colors":["#955db9","#48a782"],"planet_colors":["#5f6f81","#7f5d5d"],"screen_resolution":[988,707],"minimum_resolution":1,"trial":96,"drifts":[0.325,0.583,0.251,0.276],"drift_ix":2,"trial_type":"two-step-trial","trial_index":128,"time_elapsed":820517,"internal_node_id":"0.0-109.0-0.0","task_version":"1.0","jspsych_version":"6.3.1","browser_interactions":0,"missing":false},{"state_1_ids":[1,0],"state_1_key":1,"state_1_choice":0,"state_1_rt":426.5,"transition":1,"state":0,"state_2_ids":[0,1],"state_2_key":1,"state_2_choice":1,"state_2_rt":379.29999999701977,"outcome":1,"rocket_colors":["#955db9","#48a782"],"planet_colors":["#5f6f81","#7f5d5d"],"screen_resolution":[988,707],"minimum_resolution":1,"trial":97,"drifts":[0.352,0.597,0.278,0.336],"drift_ix":2,"trial_type":"two-step-trial","trial_index":129,"time_elapsed":823333,"internal_node_id":"0.0-110.0-0.0","task_version":"1.0","jspsych_version":"6.3.1","browser_interactions":0,"missing":false},{"state_1_ids":[1,0],"state_1_key":1,"state_1_choice":0,"state_1_rt":460.1000000014901,"transition":0,"state":1,"state_2_ids":[2,3],"state_2_key":1,"state_2_choice":3,"state_2_rt":467.29999999701977,"outcome":1,"rocket_colors":["#955db9","#48a782"],"planet_colors":["#5f6f81","#7f5d5d"],"screen_resolution":[988,707],"minimum_resolution":1,"trial":98,"drifts":[0.369,0.601,0.316,0.324],"drift_ix":2,"trial_type":"two-step-trial","trial_index":130,"time_elapsed":826272,"internal_node_id":"0.0-111.0-0.0","task_version":"1.0","jspsych_version":"6.3.1","browser_interactions":0,"missing":false},{"state_1_ids":[0,1],"state_1_key":0,"state_1_choice":0,"state_1_rt":472.8999999985099,"transition":0,"state":1,"state_2_ids":[2,3],"state_2_key":1,"state_2_choice":3,"state_2_rt":461,"outcome":1,"rocket_colors":["#955db9","#48a782"],"planet_colors":["#5f6f81","#7f5d5d"],"screen_resolution":[988,707],"minimum_resolution":1,"trial":99,"drifts":[0.338,0.574,0.29,0.307],"drift_ix":2,"trial_type":"two-step-trial","trial_index":131,"time_elapsed":829221,"internal_node_id":"0.0-112.0-0.0","task_version":"1.0","jspsych_version":"6.3.1","browser_interactions":0,"missing":false},{"state_1_ids":[0,1],"state_1_key":0,"state_1_choice":0,"state_1_rt":441.59999999403954,"transition":1,"state":0,"state_2_ids":[0,1],"state_2_key":1,"state_2_choice":1,"state_2_rt":412.20000000298023,"outcome":0,"rocket_colors":["#955db9","#48a782"],"planet_colors":["#5f6f81","#7f5d5d"],"screen_resolution":[988,707],"minimum_resolution":1,"trial":100,"drifts":[0.348,0.567,0.294,0.264],"drift_ix":2,"trial_type":"two-step-trial","trial_index":132,"time_elapsed":832090,"internal_node_id":"0.0-113.0-0.0","task_version":"1.0","jspsych_version":"6.3.1","browser_interactions":0,"missing":false},{"view_history":"[{\"page_index\":0,\"viewing_time\":18722.10000000149},{\"page_index\":1,\"viewing_time\":1169.0999999940395}]","rt":19892.29999999702,"trial_type":"two-step-instructions","trial_index":133,"time_elapsed":851990,"internal_node_id":"0.0-114.0","task_version":"1.0","jspsych_version":"6.3.1"},{"state_1_ids":[1,0],"state_1_key":1,"state_1_choice":0,"state_1_rt":1968.3000000044703,"transition":1,"state":0,"state_2_ids":[0,1],"state_2_key":1,"state_2_choice":1,"state_2_rt":408,"outcome":1,"rocket_colors":["#955db9","#48a782"],"planet_colors":["#5f6f81","#7f5d5d"],"screen_resolution":[988,707],"minimum_resolution":1,"trial":101,"drifts":[0.332,0.536,0.335,0.261],"drift_ix":2,"trial_type":"two-step-trial","trial_index":134,"time_elapsed":856382,"internal_node_id":"0.0-115.0-0.0","task_version":"1.0","jspsych_version":"6.3.1","browser_interactions":0,"missing":false},{"state_1_ids":[0,1],"state_1_key":0,"state_1_choice":0,"state_1_rt":522.1000000014901,"transition":1,"state":0,"state_2_ids":[0,1],"state_2_key":1,"state_2_choice":1,"state_2_rt":384.29999999701977,"outcome":1,"rocket_colors":["#955db9","#48a782"],"planet_colors":["#5f6f81","#7f5d5d"],"screen_resolution":[988,707],"minimum_resolution":1,"trial":102,"drifts":[0.331,0.521,0.359,0.268],"drift_ix":2,"trial_type":"two-step-trial","trial_index":135,"time_elapsed":859299,"internal_node_id":"0.0-116.0-0.0","task_version":"1.0","jspsych_version":"6.3.1","browser_interactions":0,"missing":false},{"state_1_ids":[1,0],"state_1_key":1,"state_1_choice":0,"state_1_rt":538.2000000029802,"transition":1,"state":0,"state_2_ids":[0,1],"state_2_key":1,"state_2_choice":1,"state_2_rt":603.6000000014901,"outcome":1,"rocket_colors":["#955db9","#48a782"],"planet_colors":["#5f6f81","#7f5d5d"],"screen_resolution":[988,707],"minimum_resolution":1,"trial":103,"drifts":[0.317,0.518,0.371,0.309],"drift_ix":2,"trial_type":"two-step-trial","trial_index":136,"time_elapsed":862451,"internal_node_id":"0.0-117.0-0.0","task_version":"1.0","jspsych_version":"6.3.1","browser_interactions":0,"missing":false},{"state_1_ids":[0,1],"state_1_key":0,"state_1_choice":0,"state_1_rt":593.6000000014901,"transition":1,"state":0,"state_2_ids":[0,1],"state_2_key":1,"state_2_choice":1,"state_2_rt":399.79999999701977,"outcome":1,"rocket_colors":["#955db9","#48a782"],"planet_colors":["#5f6f81","#7f5d5d"],"screen_resolution":[988,707],"minimum_resolution":1,"trial":104,"drifts":[0.334,0.493,0.341,0.296],"drift_ix":2,"trial_type":"two-step-trial","trial_index":137,"time_elapsed":865459,"internal_node_id":"0.0-118.0-0.0","task_version":"1.0","jspsych_version":"6.3.1","browser_interactions":0,"missing":false},{"state_1_ids":[0,1],"state_1_key":0,"state_1_choice":0,"state_1_rt":446.79999999701977,"transition":1,"state":0,"state_2_ids":[0,1],"state_2_key":1,"state_2_choice":1,"state_2_rt":314.20000000298023,"outcome":1,"rocket_colors":["#955db9","#48a782"],"planet_colors":["#5f6f81","#7f5d5d"],"screen_resolution":[988,707],"minimum_resolution":1,"trial":105,"drifts":[0.349,0.494,0.34,0.27],"drift_ix":2,"trial_type":"two-step-trial","trial_index":138,"time_elapsed":868233,"internal_node_id":"0.0-119.0-0.0","task_version":"1.0","jspsych_version":"6.3.1","browser_interactions":0,"missing":false},{"state_1_ids":[0,1],"state_1_key":0,"state_1_choice":0,"state_1_rt":404.79999999701977,"transition":1,"state":0,"state_2_ids":[0,1],"state_2_key":1,"state_2_choice":1,"state_2_rt":362,"outcome":1,"rocket_colors":["#955db9","#48a782"],"planet_colors":["#5f6f81","#7f5d5d"],"screen_resolution":[988,707],"minimum_resolution":1,"trial":106,"drifts":[0.302,0.497,0.307,0.282],"drift_ix":2,"trial_type":"two-step-trial","trial_index":139,"time_elapsed":871014,"internal_node_id":"0.0-120.0-0.0","task_version":"1.0","jspsych_version":"6.3.1","browser_interactions":0,"missing":false},{"state_1_ids":[1,0],"state_1_key":1,"state_1_choice":0,"state_1_rt":499.5,"transition":1,"state":0,"state_2_ids":[0,1],"state_2_key":1,"state_2_choice":1,"state_2_rt":400,"outcome":1,"rocket_colors":["#955db9","#48a782"],"planet_colors":["#5f6f81","#7f5d5d"],"screen_resolution":[988,707],"minimum_resolution":1,"trial":107,"drifts":[0.336,0.523,0.294,0.315],"drift_ix":2,"trial_type":"two-step-trial","trial_index":140,"time_elapsed":873927,"internal_node_id":"0.0-121.0-0.0","task_version":"1.0","jspsych_version":"6.3.1","browser_interactions":0,"missing":false},{"state_1_ids":[1,0],"state_1_key":1,"state_1_choice":0,"state_1_rt":432.8999999985099,"transition":0,"state":1,"state_2_ids":[2,3],"state_2_key":1,"state_2_choice":3,"state_2_rt":640.8999999985099,"outcome":0,"rocket_colors":["#955db9","#48a782"],"planet_colors":["#5f6f81","#7f5d5d"],"screen_resolution":[988,707],"minimum_resolution":1,"trial":108,"drifts":[0.381,0.482,0.317,0.324],"drift_ix":2,"trial_type":"two-step-trial","trial_index":141,"time_elapsed":877011,"internal_node_id":"0.0-122.0-0.0","task_version":"1.0","jspsych_version":"6.3.1","browser_interactions":0,"missing":false},{"state_1_ids":[0,1],"state_1_key":0,"state_1_choice":0,"state_1_rt":406.6000000014901,"transition":0,"state":1,"state_2_ids":[2,3],"state_2_key":1,"state_2_choice":3,"state_2_rt":343.19999999552965,"outcome":0,"rocket_colors":["#955db9","#48a782"],"planet_colors":["#5f6f81","#7f5d5d"],"screen_resolution":[988,707],"minimum_resolution":1,"trial":109,"drifts":[0.342,0.505,0.32,0.33],"drift_ix":2,"trial_type":"two-step-trial","trial_index":142,"time_elapsed":879778,"internal_node_id":"0.0-123.0-0.0","task_version":"1.0","jspsych_version":"6.3.1","browser_interactions":0,"missing":false},{"state_1_ids":[0,1],"state_1_key":0,"state_1_choice":0,"state_1_rt":448,"transition":0,"state":1,"state_2_ids":[2,3],"state_2_key":1,"state_2_choice":3,"state_2_rt":453.29999999701977,"outcome":1,"rocket_colors":["#955db9","#48a782"],"planet_colors":["#5f6f81","#7f5d5d"],"screen_resolution":[988,707],"minimum_resolution":1,"trial":110,"drifts":[0.337,0.526,0.318,0.349],"drift_ix":2,"trial_type":"two-step-trial","trial_index":143,"time_elapsed":882688,"internal_node_id":"0.0-124.0-0.0","task_version":"1.0","jspsych_version":"6.3.1","browser_interactions":0,"missing":false},{"state_1_ids":[1,0],"state_1_key":1,"state_1_choice":0,"state_1_rt":426.29999999701977,"transition":1,"state":0,"state_2_ids":[0,1],"state_2_key":1,"state_2_choice":1,"state_2_rt":433.8999999985099,"outcome":1,"rocket_colors":["#955db9","#48a782"],"planet_colors":["#5f6f81","#7f5d5d"],"screen_resolution":[988,707],"minimum_resolution":1,"trial":111,"drifts":[0.374,0.551,0.269,0.35],"drift_ix":2,"trial_type":"two-step-trial","trial_index":144,"time_elapsed":885564,"internal_node_id":"0.0-125.0-0.0","task_version":"1.0","jspsych_version":"6.3.1","browser_interactions":0,"missing":false},{"state_1_ids":[0,1],"state_1_key":0,"state_1_choice":0,"state_1_rt":393.79999999701977,"transition":1,"state":0,"state_2_ids":[0,1],"state_2_key":1,"state_2_choice":1,"state_2_rt":286.8999999985099,"outcome":1,"rocket_colors":["#955db9","#48a782"],"planet_colors":["#5f6f81","#7f5d5d"],"screen_resolution":[988,707],"minimum_resolution":1,"trial":112,"drifts":[0.355,0.517,0.255,0.331],"drift_ix":2,"trial_type":"two-step-trial","trial_index":145,"time_elapsed":888258,"internal_node_id":"0.0-126.0-0.0","task_version":"1.0","jspsych_version":"6.3.1","browser_interactions":0,"missing":false},{"state_1_ids":[1,0],"state_1_key":1,"state_1_choice":0,"state_1_rt":422.70000000298023,"transition":1,"state":0,"state_2_ids":[0,1],"state_2_key":1,"state_2_choice":1,"state_2_rt":416,"outcome":1,"rocket_colors":["#955db9","#48a782"],"planet_colors":["#5f6f81","#7f5d5d"],"screen_resolution":[988,707],"minimum_resolution":1,"trial":113,"drifts":[0.331,0.507,0.283,0.271],"drift_ix":2,"trial_type":"two-step-trial","trial_index":146,"time_elapsed":891111,"internal_node_id":"0.0-127.0-0.0","task_version":"1.0","jspsych_version":"6.3.1","browser_interactions":0,"missing":false},{"state_1_ids":[1,0],"state_1_key":1,"state_1_choice":0,"state_1_rt":429.19999999552965,"transition":1,"state":0,"state_2_ids":[0,1],"state_2_key":1,"state_2_choice":1,"state_2_rt":331.30000000447035,"outcome":1,"rocket_colors":["#955db9","#48a782"],"planet_colors":["#5f6f81","#7f5d5d"],"screen_resolution":[988,707],"minimum_resolution":1,"trial":114,"drifts":[0.326,0.467,0.284,0.267],"drift_ix":2,"trial_type":"two-step-trial","trial_index":147,"time_elapsed":893887,"internal_node_id":"0.0-128.0-0.0","task_version":"1.0","jspsych_version":"6.3.1","browser_interactions":0,"missing":false},{"state_1_ids":[1,0],"state_1_key":1,"state_1_choice":0,"state_1_rt":497,"transition":0,"state":1,"state_2_ids":[2,3],"state_2_key":1,"state_2_choice":3,"state_2_rt":467.6000000014901,"outcome":0,"rocket_colors":["#955db9","#48a782"],"planet_colors":["#5f6f81","#7f5d5d"],"screen_resolution":[988,707],"minimum_resolution":1,"trial":115,"drifts":[0.313,0.494,0.291,0.251],"drift_ix":2,"trial_type":"two-step-trial","trial_index":148,"time_elapsed":896864,"internal_node_id":"0.0-129.0-0.0","task_version":"1.0","jspsych_version":"6.3.1","browser_interactions":0,"missing":false},{"state_1_ids":[1,0],"state_1_key":1,"state_1_choice":0,"state_1_rt":448.3999999985099,"transition":1,"state":0,"state_2_ids":[0,1],"state_2_key":1,"state_2_choice":1,"state_2_rt":412.70000000298023,"outcome":0,"rocket_colors":["#955db9","#48a782"],"planet_colors":["#5f6f81","#7f5d5d"],"screen_resolution":[988,707],"minimum_resolution":1,"trial":116,"drifts":[0.319,0.494,0.296,0.273],"drift_ix":2,"trial_type":"two-step-trial","trial_index":149,"time_elapsed":899737,"internal_node_id":"0.0-130.0-0.0","task_version":"1.0","jspsych_version":"6.3.1","browser_interactions":0,"missing":false},{"state_1_ids":[0,1],"state_1_key":0,"state_1_choice":0,"state_1_rt":513,"transition":0,"state":1,"state_2_ids":[2,3],"state_2_key":1,"state_2_choice":3,"state_2_rt":497.8999999985099,"outcome":0,"rocket_colors":["#955db9","#48a782"],"planet_colors":["#5f6f81","#7f5d5d"],"screen_resolution":[988,707],"minimum_resolution":1,"trial":117,"drifts":[0.297,0.492,0.312,0.277],"drift_ix":2,"trial_type":"two-step-trial","trial_index":150,"time_elapsed":902764,"internal_node_id":"0.0-131.0-0.0","task_version":"1.0","jspsych_version":"6.3.1","browser_interactions":0,"missing":false},{"state_1_ids":[1,0],"state_1_key":1,"state_1_choice":0,"state_1_rt":502,"transition":1,"state":0,"state_2_ids":[0,1],"state_2_key":1,"state_2_choice":1,"state_2_rt":414.6000000014901,"outcome":1,"rocket_colors":["#955db9","#48a782"],"planet_colors":["#5f6f81","#7f5d5d"],"screen_resolution":[988,707],"minimum_resolution":1,"trial":118,"drifts":[0.288,0.513,0.36,0.275],"drift_ix":2,"trial_type":"two-step-trial","trial_index":151,"time_elapsed":905697,"internal_node_id":"0.0-132.0-0.0","task_version":"1.0","jspsych_version":"6.3.1","browser_interactions":0,"missing":false},{"state_1_ids":[1,0],"state_1_key":1,"state_1_choice":0,"state_1_rt":563.8999999985099,"transition":1,"state":0,"state_2_ids":[0,1],"state_2_key":1,"state_2_choice":1,"state_2_rt":309.70000000298023,"outcome":0,"rocket_colors":["#955db9","#48a782"],"planet_colors":["#5f6f81","#7f5d5d"],"screen_resolution":[988,707],"minimum_resolution":1,"trial":119,"drifts":[0.304,0.552,0.392,0.266],"drift_ix":2,"trial_type":"two-step-trial","trial_index":152,"time_elapsed":908588,"internal_node_id":"0.0-133.0-0.0","task_version":"1.0","jspsych_version":"6.3.1","browser_interactions":0,"missing":false},{"state_1_ids":[1,0],"state_1_key":1,"state_1_choice":0,"state_1_rt":446.5,"transition":0,"state":1,"state_2_ids":[2,3],"state_2_key":1,"state_2_choice":3,"state_2_rt":410.3999999985099,"outcome":0,"rocket_colors":["#955db9","#48a782"],"planet_colors":["#5f6f81","#7f5d5d"],"screen_resolution":[988,707],"minimum_resolution":1,"trial":120,"drifts":[0.295,0.538,0.367,0.253],"drift_ix":2,"trial_type":"two-step-trial","trial_index":153,"time_elapsed":911457,"internal_node_id":"0.0-134.0-0.0","task_version":"1.0","jspsych_version":"6.3.1","browser_interactions":0,"missing":false},{"state_1_ids":[0,1],"state_1_key":1,"state_1_choice":1,"state_1_rt":391.3999999985099,"transition":1,"state":1,"state_2_ids":[2,3],"state_2_key":1,"state_2_choice":3,"state_2_rt":335.20000000298023,"outcome":1,"rocket_colors":["#955db9","#48a782"],"planet_colors":["#5f6f81","#7f5d5d"],"screen_resolution":[988,707],"minimum_resolution":1,"trial":121,"drifts":[0.268,0.49,0.389,0.267],"drift_ix":2,"trial_type":"two-step-trial","trial_index":154,"time_elapsed":914198,"internal_node_id":"0.0-135.0-0.0","task_version":"1.0","jspsych_version":"6.3.1","browser_interactions":0,"missing":false},{"state_1_ids":[1,0],"state_1_key":1,"state_1_choice":0,"state_1_rt":466.19999999552965,"transition":1,"state":0,"state_2_ids":[0,1],"state_2_key":1,"state_2_choice":1,"state_2_rt":258.3999999985099,"outcome":1,"rocket_colors":["#955db9","#48a782"],"planet_colors":["#5f6f81","#7f5d5d"],"screen_resolution":[988,707],"minimum_resolution":1,"trial":122,"drifts":[0.292,0.548,0.366,0.262],"drift_ix":2,"trial_type":"two-step-trial","trial_index":155,"time_elapsed":916935,"internal_node_id":"0.0-136.0-0.0","task_version":"1.0","jspsych_version":"6.3.1","browser_interactions":0,"missing":false},{"state_1_ids":[0,1],"state_1_key":0,"state_1_choice":0,"state_1_rt":574.5999999940395,"transition":1,"state":0,"state_2_ids":[0,1],"state_2_key":1,"state_2_choice":1,"state_2_rt":275.19999999552965,"outcome":0,"rocket_colors":["#955db9","#48a782"],"planet_colors":["#5f6f81","#7f5d5d"],"screen_resolution":[988,707],"minimum_resolution":1,"trial":123,"drifts":[0.287,0.579,0.38,0.276],"drift_ix":2,"trial_type":"two-step-trial","trial_index":156,"time_elapsed":919798,"internal_node_id":"0.0-137.0-0.0","task_version":"1.0","jspsych_version":"6.3.1","browser_interactions":0,"missing":false},{"state_1_ids":[1,0],"state_1_key":0,"state_1_choice":1,"state_1_rt":696.2000000029802,"transition":1,"state":1,"state_2_ids":[2,3],"state_2_key":0,"state_2_choice":2,"state_2_rt":283.80000000447035,"outcome":1,"rocket_colors":["#955db9","#48a782"],"planet_colors":["#5f6f81","#7f5d5d"],"screen_resolution":[988,707],"minimum_resolution":1,"trial":124,"drifts":[0.296,0.64,0.405,0.262],"drift_ix":2,"trial_type":"two-step-trial","trial_index":157,"time_elapsed":922795,"internal_node_id":"0.0-138.0-0.0","task_version":"1.0","jspsych_version":"6.3.1","browser_interactions":0,"missing":false},{"state_1_ids":[0,1],"state_1_key":1,"state_1_choice":1,"state_1_rt":477.79999999701977,"transition":0,"state":0,"state_2_ids":[0,1],"state_2_key":0,"state_2_choice":0,"state_2_rt":386.70000000298023,"outcome":1,"rocket_colors":["#955db9","#48a782"],"planet_colors":["#5f6f81","#7f5d5d"],"screen_resolution":[988,707],"minimum_resolution":1,"trial":125,"drifts":[0.25,0.637,0.448,0.25],"drift_ix":2,"trial_type":"two-step-trial","trial_index":158,"time_elapsed":925675,"internal_node_id":"0.0-139.0-0.0","task_version":"1.0","jspsych_version":"6.3.1","browser_interactions":0,"missing":false},{"state_1_ids":[0,1],"state_1_key":1,"state_1_choice":1,"state_1_rt":363.79999999701977,"transition":1,"state":1,"state_2_ids":[2,3],"state_2_key":0,"state_2_choice":2,"state_2_rt":290.20000000298023,"outcome":0,"rocket_colors":["#955db9","#48a782"],"planet_colors":["#5f6f81","#7f5d5d"],"screen_resolution":[988,707],"minimum_resolution":1,"trial":126,"drifts":[0.255,0.666,0.447,0.257],"drift_ix":2,"trial_type":"two-step-trial","trial_index":159,"time_elapsed":928342,"internal_node_id":"0.0-140.0-0.0","task_version":"1.0","jspsych_version":"6.3.1","browser_interactions":0,"missing":false},{"state_1_ids":[1,0],"state_1_key":1,"state_1_choice":0,"state_1_rt":569.7999999970198,"transition":1,"state":0,"state_2_ids":[0,1],"state_2_key":0,"state_2_choice":0,"state_2_rt":412.09999999403954,"outcome":0,"rocket_colors":["#955db9","#48a782"],"planet_colors":["#5f6f81","#7f5d5d"],"screen_resolution":[988,707],"minimum_resolution":1,"trial":127,"drifts":[0.281,0.695,0.433,0.272],"drift_ix":2,"trial_type":"two-step-trial","trial_index":160,"time_elapsed":931339,"internal_node_id":"0.0-141.0-0.0","task_version":"1.0","jspsych_version":"6.3.1","browser_interactions":0,"missing":false},{"state_1_ids":[1,0],"state_1_key":1,"state_1_choice":0,"state_1_rt":425.6000000014901,"transition":0,"state":1,"state_2_ids":[2,3],"state_2_key":0,"state_2_choice":2,"state_2_rt":585.1999999955297,"outcome":0,"rocket_colors":["#955db9","#48a782"],"planet_colors":["#5f6f81","#7f5d5d"],"screen_resolution":[988,707],"minimum_resolution":1,"trial":128,"drifts":[0.277,0.667,0.42,0.278],"drift_ix":2,"trial_type":"two-step-trial","trial_index":161,"time_elapsed":934368,"internal_node_id":"0.0-142.0-0.0","task_version":"1.0","jspsych_version":"6.3.1","browser_interactions":0,"missing":false},{"state_1_ids":[0,1],"state_1_key":0,"state_1_choice":0,"state_1_rt":446.8999999985099,"transition":1,"state":0,"state_2_ids":[0,1],"state_2_key":0,"state_2_choice":0,"state_2_rt":424.20000000298023,"outcome":1,"rocket_colors":["#955db9","#48a782"],"planet_colors":["#5f6f81","#7f5d5d"],"screen_resolution":[988,707],"minimum_resolution":1,"trial":129,"drifts":[0.318,0.661,0.46,0.294],"drift_ix":2,"trial_type":"two-step-trial","trial_index":162,"time_elapsed":937253,"internal_node_id":"0.0-143.0-0.0","task_version":"1.0","jspsych_version":"6.3.1","browser_interactions":0,"missing":false},{"state_1_ids":[0,1],"state_1_key":0,"state_1_choice":0,"state_1_rt":401.70000000298023,"transition":1,"state":0,"state_2_ids":[0,1],"state_2_key":0,"state_2_choice":0,"state_2_rt":410.80000000447035,"outcome":0,"rocket_colors":["#955db9","#48a782"],"planet_colors":["#5f6f81","#7f5d5d"],"screen_resolution":[988,707],"minimum_resolution":1,"trial":130,"drifts":[0.306,0.677,0.461,0.259],"drift_ix":2,"trial_type":"two-step-trial","trial_index":163,"time_elapsed":940080,"internal_node_id":"0.0-144.0-0.0","task_version":"1.0","jspsych_version":"6.3.1","browser_interactions":0,"missing":false},{"state_1_ids":[0,1],"state_1_key":0,"state_1_choice":0,"state_1_rt":567.5,"transition":1,"state":0,"state_2_ids":[0,1],"state_2_key":0,"state_2_choice":0,"state_2_rt":481.8999999985099,"outcome":0,"rocket_colors":["#955db9","#48a782"],"planet_colors":["#5f6f81","#7f5d5d"],"screen_resolution":[988,707],"minimum_resolution":1,"trial":131,"drifts":[0.35,0.655,0.474,0.278],"drift_ix":2,"trial_type":"two-step-trial","trial_index":164,"time_elapsed":943146,"internal_node_id":"0.0-145.0-0.0","task_version":"1.0","jspsych_version":"6.3.1","browser_interactions":0,"missing":false},{"state_1_ids":[0,1],"state_1_key":1,"state_1_choice":1,"state_1_rt":455.3999999985099,"transition":1,"state":1,"state_2_ids":[2,3],"state_2_key":0,"state_2_choice":2,"state_2_rt":374.3999999985099,"outcome":0,"rocket_colors":["#955db9","#48a782"],"planet_colors":["#5f6f81","#7f5d5d"],"screen_resolution":[988,707],"minimum_resolution":1,"trial":132,"drifts":[0.352,0.663,0.445,0.297],"drift_ix":2,"trial_type":"two-step-trial","trial_index":165,"time_elapsed":945988,"internal_node_id":"0.0-146.0-0.0","task_version":"1.0","jspsych_version":"6.3.1","browser_interactions":0,"missing":false},{"state_1_ids":[1,0],"state_1_key":0,"state_1_choice":1,"state_1_rt":449.3999999985099,"transition":1,"state":1,"state_2_ids":[2,3],"state_2_key":0,"state_2_choice":2,"state_2_rt":369.1000000014901,"outcome":0,"rocket_colors":["#955db9","#48a782"],"planet_colors":["#5f6f81","#7f5d5d"],"screen_resolution":[988,707],"minimum_resolution":1,"trial":133,"drifts":[0.374,0.662,0.412,0.314],"drift_ix":2,"trial_type":"two-step-trial","trial_index":166,"time_elapsed":948815,"internal_node_id":"0.0-147.0-0.0","task_version":"1.0","jspsych_version":"6.3.1","browser_interactions":0,"missing":false},{"state_1_ids":[1,0],"state_1_key":0,"state_1_choice":1,"state_1_rt":452.6000000014901,"transition":0,"state":0,"state_2_ids":[0,1],"state_2_key":1,"state_2_choice":1,"state_2_rt":299.20000000298023,"outcome":1,"rocket_colors":["#955db9","#48a782"],"planet_colors":["#5f6f81","#7f5d5d"],"screen_resolution":[988,707],"minimum_resolution":1,"trial":134,"drifts":[0.405,0.666,0.424,0.315],"drift_ix":2,"trial_type":"two-step-trial","trial_index":167,"time_elapsed":951578,"internal_node_id":"0.0-148.0-0.0","task_version":"1.0","jspsych_version":"6.3.1","browser_interactions":0,"missing":false},{"state_1_ids":[0,1],"state_1_key":0,"state_1_choice":0,"state_1_rt":408,"transition":0,"state":1,"state_2_ids":[2,3],"state_2_key":1,"state_2_choice":3,"state_2_rt":657.6000000014901,"outcome":1,"rocket_colors":["#955db9","#48a782"],"planet_colors":["#5f6f81","#7f5d5d"],"screen_resolution":[988,707],"minimum_resolution":1,"trial":135,"drifts":[0.43,0.696,0.452,0.345],"drift_ix":2,"trial_type":"two-step-trial","trial_index":168,"time_elapsed":954655,"internal_node_id":"0.0-149.0-0.0","task_version":"1.0","jspsych_version":"6.3.1","browser_interactions":0,"missing":false},{"state_1_ids":[0,1],"state_1_key":0,"state_1_choice":0,"state_1_rt":431.79999999701977,"transition":1,"state":0,"state_2_ids":[0,1],"state_2_key":1,"state_2_choice":1,"state_2_rt":337.6000000014901,"outcome":1,"rocket_colors":["#955db9","#48a782"],"planet_colors":["#5f6f81","#7f5d5d"],"screen_resolution":[988,707],"minimum_resolution":1,"trial":136,"drifts":[0.426,0.681,0.444,0.337],"drift_ix":2,"trial_type":"two-step-trial","trial_index":169,"time_elapsed":957439,"internal_node_id":"0.0-150.0-0.0","task_version":"1.0","jspsych_version":"6.3.1","browser_interactions":0,"missing":false},{"state_1_ids":[1,0],"state_1_key":1,"state_1_choice":0,"state_1_rt":503.5,"transition":0,"state":1,"state_2_ids":[2,3],"state_2_key":1,"state_2_choice":3,"state_2_rt":309.20000000298023,"outcome":1,"rocket_colors":["#955db9","#48a782"],"planet_colors":["#5f6f81","#7f5d5d"],"screen_resolution":[988,707],"minimum_resolution":1,"trial":137,"drifts":[0.411,0.674,0.45,0.299],"drift_ix":2,"trial_type":"two-step-trial","trial_index":170,"time_elapsed":960265,"internal_node_id":"0.0-151.0-0.0","task_version":"1.0","jspsych_version":"6.3.1","browser_interactions":0,"missing":false},{"state_1_ids":[1,0],"state_1_key":1,"state_1_choice":0,"state_1_rt":508.30000000447035,"transition":0,"state":1,"state_2_ids":[2,3],"state_2_key":1,"state_2_choice":3,"state_2_rt":289.19999999552965,"outcome":1,"rocket_colors":["#955db9","#48a782"],"planet_colors":["#5f6f81","#7f5d5d"],"screen_resolution":[988,707],"minimum_resolution":1,"trial":138,"drifts":[0.414,0.699,0.459,0.339],"drift_ix":2,"trial_type":"two-step-trial","trial_index":171,"time_elapsed":963076,"internal_node_id":"0.0-152.0-0.0","task_version":"1.0","jspsych_version":"6.3.1","browser_interactions":0,"missing":false},{"state_1_ids":[1,0],"state_1_key":1,"state_1_choice":0,"state_1_rt":519.7999999970198,"transition":0,"state":1,"state_2_ids":[2,3],"state_2_key":1,"state_2_choice":3,"state_2_rt":146.5,"outcome":0,"rocket_colors":["#955db9","#48a782"],"planet_colors":["#5f6f81","#7f5d5d"],"screen_resolution":[988,707],"minimum_resolution":1,"trial":139,"drifts":[0.394,0.734,0.462,0.307],"drift_ix":2,"trial_type":"two-step-trial","trial_index":172,"time_elapsed":965754,"internal_node_id":"0.0-153.0-0.0","task_version":"1.0","jspsych_version":"6.3.1","browser_interactions":0,"missing":false},{"state_1_ids":[1,0],"state_1_key":1,"state_1_choice":0,"state_1_rt":466.30000000447035,"transition":0,"state":1,"state_2_ids":[2,3],"state_2_key":1,"state_2_choice":3,"state_2_rt":282.79999999701977,"outcome":1,"rocket_colors":["#955db9","#48a782"],"planet_colors":["#5f6f81","#7f5d5d"],"screen_resolution":[988,707],"minimum_resolution":1,"trial":140,"drifts":[0.361,0.693,0.467,0.292],"drift_ix":2,"trial_type":"two-step-trial","trial_index":173,"time_elapsed":968516,"internal_node_id":"0.0-154.0-0.0","task_version":"1.0","jspsych_version":"6.3.1","browser_interactions":0,"missing":false},{"state_1_ids":[0,1],"state_1_key":0,"state_1_choice":0,"state_1_rt":594.7000000029802,"transition":1,"state":0,"state_2_ids":[0,1],"state_2_key":1,"state_2_choice":1,"state_2_rt":388.90000000596046,"outcome":0,"rocket_colors":["#955db9","#48a782"],"planet_colors":["#5f6f81","#7f5d5d"],"screen_resolution":[988,707],"minimum_resolution":1,"trial":141,"drifts":[0.354,0.722,0.46,0.26],"drift_ix":2,"trial_type":"two-step-trial","trial_index":174,"time_elapsed":971518,"internal_node_id":"0.0-155.0-0.0","task_version":"1.0","jspsych_version":"6.3.1","browser_interactions":0,"missing":false},{"state_1_ids":[1,0],"state_1_key":1,"state_1_choice":0,"state_1_rt":474.79999999701977,"transition":1,"state":0,"state_2_ids":[0,1],"state_2_key":1,"state_2_choice":1,"state_2_rt":481.1000000014901,"outcome":0,"rocket_colors":["#955db9","#48a782"],"planet_colors":["#5f6f81","#7f5d5d"],"screen_resolution":[988,707],"minimum_resolution":1,"trial":142,"drifts":[0.353,0.749,0.428,0.301],"drift_ix":2,"trial_type":"two-step-trial","trial_index":175,"time_elapsed":974484,"internal_node_id":"0.0-156.0-0.0","task_version":"1.0","jspsych_version":"6.3.1","browser_interactions":0,"missing":false},{"state_1_ids":[1,0],"state_1_key":1,"state_1_choice":0,"state_1_rt":535.8999999985099,"transition":1,"state":0,"state_2_ids":[0,1],"state_2_key":1,"state_2_choice":1,"state_2_rt":464.80000000447035,"outcome":1,"rocket_colors":["#955db9","#48a782"],"planet_colors":["#5f6f81","#7f5d5d"],"screen_resolution":[988,707],"minimum_resolution":1,"trial":143,"drifts":[0.361,0.73,0.409,0.316],"drift_ix":2,"trial_type":"two-step-trial","trial_index":176,"time_elapsed":977502,"internal_node_id":"0.0-157.0-0.0","task_version":"1.0","jspsych_version":"6.3.1","browser_interactions":0,"missing":false},{"state_1_ids":[1,0],"state_1_key":1,"state_1_choice":0,"state_1_rt":508.8999999985099,"transition":0,"state":1,"state_2_ids":[2,3],"state_2_key":1,"state_2_choice":3,"state_2_rt":329.3999999985099,"outcome":0,"rocket_colors":["#955db9","#48a782"],"planet_colors":["#5f6f81","#7f5d5d"],"screen_resolution":[988,707],"minimum_resolution":1,"trial":144,"drifts":[0.295,0.721,0.424,0.316],"drift_ix":2,"trial_type":"two-step-trial","trial_index":177,"time_elapsed":980355,"internal_node_id":"0.0-158.0-0.0","task_version":"1.0","jspsych_version":"6.3.1","browser_interactions":0,"missing":false},{"state_1_ids":[1,0],"state_1_key":1,"state_1_choice":0,"state_1_rt":466.79999999701977,"transition":1,"state":0,"state_2_ids":[0,1],"state_2_key":1,"state_2_choice":1,"state_2_rt":254.89999999850988,"outcome":1,"rocket_colors":["#955db9","#48a782"],"planet_colors":["#5f6f81","#7f5d5d"],"screen_resolution":[988,707],"minimum_resolution":1,"trial":145,"drifts":[0.287,0.742,0.437,0.287],"drift_ix":2,"trial_type":"two-step-trial","trial_index":178,"time_elapsed":983091,"internal_node_id":"0.0-159.0-0.0","task_version":"1.0","jspsych_version":"6.3.1","browser