[{"success":true,"timeout":false,"failed_images":[],"failed_audio":[],"failed_video":[],"trial_type":"preload","trial_index":0,"time_elapsed":994,"internal_node_id":"0.0-0.0","task_version":"1.0","jspsych_version":"6.3.1"},{"success":true,"trial_type":"fullscreen","trial_index":1,"time_elapsed":3676,"internal_node_id":"0.0-1.0","task_version":"1.0","jspsych_version":"6.3.1"},{"view_history":[{"page_index":0,"viewing_time":2674.800000011921}],"rt":2675.800000011921,"trial_type":"instructions","trial_index":2,"time_elapsed":6354,"internal_node_id":"0.0-2.0","task_version":"1.0","jspsych_version":"6.3.1"},{"responses":{"Q02":"1","Q06":"1","Q07":"3","Q03":"4","Q01":"6","Q04":"1","Q05":"2"},"rt":36115,"item_order":[1,5,6,2,0,3,4],"radio_events":[2568.5999999940395,5026.5999999940395,8276.5,15342.40000000596,16756.5,25008.5,34399.59999999404],"key_events":[],"mouse_events":[0.30000001192092896,2568.5999999940395,5026.5999999940395,5892.300000011921,8276.5,15342.40000000596,16756.5,23886.59999999404,25008.5,25635,27798.59999999404,34399.59999999404,36111.5],"straightlining":0.2857142857142857,"zigzagging":0.16666666666666666,"honeypot":0,"survey":"artistic","trial_type":"survey-template","trial_index":3,"time_elapsed":42478,"internal_node_id":"0.0-3.0","task_version":"1.0","jspsych_version":"6.3.1"},{"responses":{"Q03":"1","Q04":"2","Q06":"1","Q05":"2","Q08":"0","Q01":"1","Q02":"1","Q07":"0"},"rt":20272.90000000596,"item_order":[2,3,5,4,7,0,1,6],"radio_events":[4095.199999988079,6048.9000000059605,7124.9000000059605,12310.90000000596,13328.90000000596,15952.40000000596,17445.30000001192,19409.09999999404],"key_events":[],"mouse_events":[4095.199999988079,6048.9000000059605,7124.9000000059605,8286.800000011921,12310.90000000596,13328.90000000596,15952.40000000596,17445.30000001192,18543.19999998808,19409.09999999404,20271.09999999404],"straightlining":0.5,"zigzagging":0.7142857142857143,"honeypot":0,"survey":"anxiety","trial_type":"survey-template","trial_index":4,"time_elapsed":62754,"internal_node_id":"0.0-4.0","task_version":"1.0","jspsych_version":"6.3.1"},{"responses":{"Q02":"1","Q01":"1","Q08":"0","Q04":"2","Q03":"2","Q06":"1","Q07":"0","Q05":"1"},"rt":101197.19999998808,"item_order":[1,0,7,3,2,5,6,4],"radio_events":[11779.800000011921,16587.69999998808,18017.69999998808,22019.80000001192,25941.59999999404,29453.80000001192,97905.19999998808,100384.90000000596],"key_events":[],"mouse_events":[6073.800000011921,11779.800000011921,13399.800000011921,16587.69999998808,17373.59999999404,18017.69999998808,22019.80000001192,25941.59999999404,29453.80000001192,97905.19999998808,100384.90000000596,101195.19999998808],"straightlining":0.5,"zigzagging":0.5714285714285714,"honeypot":0,"survey":"depression","trial_type":"survey-template","trial_index":5,"time_elapsed":163953,"internal_node_id":"0.0-5.0","task_version":"1.0","jspsych_version":"6.3.1"},{"responses":{"Q02":"1","Q03":"2","Q07":"0","Q05":"1","Q06":"0","Q04":"1","Q08":"3","Q01":"1"},"rt":73311.80000001192,"item_order":[1,2,6,4,5,3,7,0],"radio_events":[33649.20000001788,39672.20000001788,47208.09999999404,51968.90000000596,54210.80000001192,58772.5,63536.30000001192,67156,71412.30000001192],"key_events":[],"mouse_events":[33649.20000001788,39672.20000001788,47208.09999999404,51968.90000000596,52718.90000000596,54210.80000001192,58772.5,63536.30000001192,67156,71412.30000001192,73310],"straightlining":0.5,"zigzagging":0.5714285714285714,"honeypot":0,"survey":"mania","trial_type":"survey-template","trial_index":6,"time_elapsed":237267,"internal_node_id":"0.0-6.0","task_version":"1.0","jspsych_version":"6.3.1"},{"responses":{"Q04":"3","Q01":"4","Q05":"1","Q07":"6","Q03":"2","Q02":"0","Q06":"0"},"rt":16864,"item_order":[3,0,4,6,2,1,5],"radio_events":[3628.7999999821186,4549.299999982119,8152.799999982119,9824.899999976158,11486.5,13976.799999982119,15994.59999999404],"key_events":[],"mouse_events":[3628.7999999821186,4549.299999982119,7150.399999976158,8152.799999982119,9824.899999976158,11486.5,13976.799999982119,15994.59999999404,16860.899999976158],"straightlining":0.2857142857142857,"zigzagging":0.16666666666666666,"honeypot":0,"survey":"greed","trial_type":"survey-template","trial_index":7,"time_elapsed":254136,"internal_node_id":"0.0-7.0","task_version":"1.0","jspsych_version":"6.3.1"},{"view_history":"[{\"page_index\":0,\"viewing_time\":3534.2000000178814},{\"page_index\":1,\"viewing_time\":2556},{\"page_index\":2,\"viewing_time\":2483.399999976158},{\"page_index\":3,\"viewing_time\":4823.600000023842},{\"page_index\":4,\"viewing_time\":129013.09999999404},{\"page_index\":5,\"viewing_time\":1766.0999999940395},{\"page_index\":6,\"viewing_time\":1503.800000011921},{\"page_index\":7,\"viewing_time\":2707.899999976158},{\"page_index\":8,\"viewing_time\":3154.4000000059605},{\"page_index\":9,\"viewing_time\":3957.800000011921},{\"page_index\":10,\"viewing_time\":6244}]","rt":161745.40000000596,"trial_type":"two-step-instructions","trial_index":8,"time_elapsed":415885,"internal_node_id":"0.0-8.0-1.0","task_version":"1.0","jspsych_version":"6.3.1"},{"responses":["left/right arrow keys","True","True"],"num_errors":0,"rt":9384.899999976158,"quiz":1,"trial_type":"two-step-comprehension","trial_index":9,"time_elapsed":425273,"internal_node_id":"0.0-8.0-2.0","task_version":"1.0","jspsych_version":"6.3.1"},{"view_history":"[{\"page_index\":0,\"viewing_time\":6378.699999988079}]","rt":6379.199999988079,"phase":"instructions_1b","trial_type":"two-step-instructions","trial_index":10,"time_elapsed":431658,"internal_node_id":"0.0-9.0-0.0-0.0","task_version":"1.0","jspsych_version":"6.3.1"},{"state_2_ids":[0,1],"state_2_key":0,"state_2_choice":0,"state_2_rt":1024.6000000238419,"outcome":0,"screen_resolution":[1680,1050],"minimum_resolution":1,"trial_type":"alien-practice","trial_index":11,"time_elapsed":434897,"internal_node_id":"0.0-9.0-1.0-0.0","task_version":"1.0","jspsych_version":"6.3.1"},{"state_2_ids":[0,1],"state_2_key":1,"state_2_choice":1,"state_2_rt":652.6999999880791,"outcome":0,"screen_resolution":[1680,1050],"minimum_resolution":1,"trial_type":"alien-practice","trial_index":12,"time_elapsed":437759,"internal_node_id":"0.0-9.0-2.0-0.0","task_version":"1.0","jspsych_version":"6.3.1"},{"state_2_ids":[0,1],"state_2_key":1,"state_2_choice":1,"state_2_rt":425.69999998807907,"outcome":1,"screen_resolution":[1680,1050],"minimum_resolution":1,"trial_type":"alien-practice","trial_index":13,"time_elapsed":440394,"internal_node_id":"0.0-9.0-3.0-0.0","task_version":"1.0","jspsych_version":"6.3.1"},{"state_2_ids":[0,1],"state_2_key":1,"state_2_choice":1,"state_2_rt":387.7000000178814,"outcome":1,"screen_resolution":[1680,1050],"minimum_resolution":1,"trial_type":"alien-practice","trial_index":14,"time_elapsed":442989,"internal_node_id":"0.0-9.0-4.0-0.0","task_version":"1.0","jspsych_version":"6.3.1"},{"state_2_ids":[0,1],"state_2_key":1,"state_2_choice":1,"state_2_rt":403.5,"outcome":1,"screen_resolution":[1680,1050],"minimum_resolution":1,"trial_type":"alien-practice","trial_index":15,"time_elapsed":445601,"internal_node_id":"0.0-9.0-5.0-0.0","task_version":"1.0","jspsych_version":"6.3.1"},{"view_history":"[{\"page_index\":0,\"viewing_time\":10059.40000000596},{\"page_index\":1,\"viewing_time\":1317.9000000059605},{\"page_index\":2,\"viewing_time\":4651.899999976158},{\"page_index\":3,\"viewing_time\":6503.800000011921},{\"page_index\":4,\"viewing_time\":2586},{\"page_index\":5,\"viewing_time\":2200.0999999940395}]","rt":27319.69999998808,"trial_type":"two-step-instructions","trial_index":16,"time_elapsed":472925,"internal_node_id":"0.0-10.0-1.0","task_version":"1.0","jspsych_version":"6.3.1"},{"responses":["left/right arrow keys","False","True"],"num_errors":0,"rt":8140.9000000059605,"quiz":2,"trial_type":"two-step-comprehension","trial_index":17,"time_elapsed":481069,"internal_node_id":"0.0-10.0-2.0","task_version":"1.0","jspsych_version":"6.3.1"},{"view_history":"[{\"page_index\":0,\"viewing_time\":2960.7000000178814},{\"page_index\":1,\"viewing_time\":2484.5999999940395},{\"page_index\":2,\"viewing_time\":4850}]","rt":10295.90000000596,"trial_type":"two-step-instructions","trial_index":18,"time_elapsed":491370,"internal_node_id":"0.0-11.0-0.0","task_version":"1.0","jspsych_version":"6.3.1"},{"state_1_ids":[1,0],"state_1_key":0,"state_1_choice":1,"state_1_rt":1189.199999988079,"transition":0,"state":0,"state_2_ids":[0,1],"state_2_key":1,"state_2_choice":1,"state_2_rt":916.0999999940395,"outcome":0,"rocket_colors":["#955db9","#48a782"],"planet_colors":["#5f6f81","#7f5d5d"],"screen_resolution":[1680,1050],"minimum_resolution":1,"trial":0,"trial_type":"two-step-trial","trial_index":19,"time_elapsed":495487,"internal_node_id":"0.0-11.0-1.0-0.0","task_version":"1.0","jspsych_version":"6.3.1","missing":false},{"state_1_ids":[1,0],"state_1_key":1,"state_1_choice":0,"state_1_rt":1282.300000011921,"transition":0,"state":1,"state_2_ids":[2,3],"state_2_key":0,"state_2_choice":2,"state_2_rt":1082.2000000178814,"outcome":0,"rocket_colors":["#955db9","#48a782"],"planet_colors":["#5f6f81","#7f5d5d"],"screen_resolution":[1680,1050],"minimum_resolution":1,"trial":0,"trial_type":"two-step-trial","trial_index":20,"time_elapsed":499864,"internal_node_id":"0.0-11.0-1.0-0.1","task_version":"1.0","jspsych_version":"6.3.1","missing":false},{"state_1_ids":[1,0],"state_1_key":1,"state_1_choice":0,"state_1_rt":1063.8999999761581,"transition":1,"state":0,"state_2_ids":[0,1],"state_2_key":1,"state_2_choice":1,"state_2_rt":801.5999999940395,"outcome":1,"rocket_colors":["#955db9","#48a782"],"planet_colors":["#5f6f81","#7f5d5d"],"screen_resolution":[1680,1050],"minimum_resolution":1,"trial":0,"trial_type":"two-step-trial","trial_index":21,"time_elapsed":503736,"internal_node_id":"0.0-11.0-1.0-0.2","task_version":"1.0","jspsych_version":"6.3.1","missing":false},{"state_1_ids":[0,1],"state_1_key":0,"state_1_choice":0,"state_1_rt":895.8000000119209,"transition":0,"state":1,"state_2_ids":[2,3],"state_2_key":1,"state_2_choice":3,"state_2_rt":1076.7999999821186,"outcome":1,"rocket_colors":["#955db9","#48a782"],"planet_colors":["#5f6f81","#7f5d5d"],"screen_resolution":[1680,1050],"minimum_resolution":1,"trial":0,"trial_type":"two-step-trial","trial_index":22,"time_elapsed":507718,"internal_node_id":"0.0-11.0-1.0-0.3","task_version":"1.0","jspsych_version":"6.3.1","missing":false},{"state_1_ids":[0,1],"state_1_key":0,"state_1_choice":0,"state_1_rt":985.6999999880791,"transition":1,"state":0,"state_2_ids":[0,1],"state_2_key":1,"state_2_choice":1,"state_2_rt":782.5999999940395,"outcome":0,"rocket_colors":["#955db9","#48a782"],"planet_colors":["#5f6f81","#7f5d5d"],"screen_resolution":[1680,1050],"minimum_resolution":1,"trial":0,"trial_type":"two-step-trial","trial_index":23,"time_elapsed":511491,"internal_node_id":"0.0-11.0-1.0-0.4","task_version":"1.0","jspsych_version":"6.3.1","missing":false},{"state_1_ids":[0,1],"state_1_key":0,"state_1_choice":0,"state_1_rt":796.1999999880791,"transition":1,"state":0,"state_2_ids":[0,1],"state_2_key":1,"state_2_choice":1,"state_2_rt":669.9000000059605,"outcome":0,"rocket_colors":["#955db9","#48a782"],"planet_colors":["#5f6f81","#7f5d5d"],"screen_resolution":[1680,1050],"minimum_resolution":1,"trial":0,"trial_type":"two-step-trial","trial_index":24,"time_elapsed":514966,"internal_node_id":"0.0-11.0-1.0-0.5","task_version":"1.0","jspsych_version":"6.3.1","missing":false},{"state_1_ids":[0,1],"state_1_key":1,"state_1_choice":1,"state_1_rt":915.8000000119209,"transition":0,"state":0,"state_2_ids":[0,1],"state_2_key":1,"state_2_choice":1,"state_2_rt":803,"outcome":0,"rocket_colors":["#955db9","#48a782"],"planet_colors":["#5f6f81","#7f5d5d"],"screen_resolution":[1680,1050],"minimum_resolution":1,"trial":0,"trial_type":"two-step-trial","trial_index":25,"time_elapsed":518695,"internal_node_id":"0.0-11.0-1.0-0.6","task_version":"1.0","jspsych_version":"6.3.1","missing":false},{"state_1_ids":[0,1],"state_1_key":0,"state_1_choice":0,"state_1_rt":912.3000000119209,"transition":1,"state":0,"state_2_ids":[0,1],"state_2_key":0,"state_2_choice":0,"state_2_rt":880.0999999940395,"outcome":1,"rocket_colors":["#955db9","#48a782"],"planet_colors":["#5f6f81","#7f5d5d"],"screen_resolution":[1680,1050],"minimum_resolution":1,"trial":0,"trial_type":"two-step-trial","trial_index":26,"time_elapsed":522497,"internal_node_id":"0.0-11.0-1.0-0.7","task_version":"1.0","jspsych_version":"6.3.1","missing":false},{"state_1_ids":[1,0],"state_1_key":0,"state_1_choice":1,"state_1_rt":1398.5,"transition":1,"state":1,"state_2_ids":[2,3],"state_2_key":1,"state_2_choice":3,"state_2_rt":660,"outcome":1,"rocket_colors":["#955db9","#48a782"],"planet_colors":["#5f6f81","#7f5d5d"],"screen_resolution":[1680,1050],"minimum_resolution":1,"trial":0,"trial_type":"two-step-trial","trial_index":27,"time_elapsed":526566,"internal_node_id":"0.0-11.0-1.0-0.8","task_version":"1.0","jspsych_version":"6.3.1","missing":false},{"state_1_ids":[1,0],"state_1_key":0,"state_1_choice":1,"state_1_rt":1017,"transition":1,"state":1,"state_2_ids":[2,3],"state_2_key":1,"state_2_choice":3,"state_2_rt":710.3000000119209,"outcome":1,"rocket_colors":["#955db9","#48a782"],"planet_colors":["#5f6f81","#7f5d5d"],"screen_resolution":[1680,1050],"minimum_resolution":1,"trial":0,"trial_type":"two-step-trial","trial_index":28,"time_elapsed":530299,"internal_node_id":"0.0-11.0-1.0-0.9","task_version":"1.0","jspsych_version":"6.3.1","missing":false},{"view_history":"[{\"page_index\":0,\"viewing_time\":2828.9000000059605},{\"page_index\":1,\"viewing_time\":2665.9000000059605},{\"page_index\":2,\"viewing_time\":1272.0999999940395},{\"page_index\":3,\"viewing_time\":2220},{\"page_index\":4,\"viewing_time\":7810.700000017881},{\"page_index\":5,\"viewing_time\":8370.09999999404},{\"page_index\":6,\"viewing_time\":2808.4000000059605}]","rt":27976.5,"trial_type":"two-step-instructions","trial_index":29,"time_elapsed":558279,"internal_node_id":"0.0-12.0-1.0","task_version":"1.0","jspsych_version":"6.3.1"},{"responses":["True","False","True"],"num_errors":0,"rt":9319.200000017881,"quiz":3,"trial_type":"two-step-comprehension","trial_index":30,"time_elapsed":567602,"internal_node_id":"0.0-12.0-2.0","task_version":"1.0","jspsych_version":"6.3.1"},{"view_history":"[{\"page_index\":0,\"viewing_time\":2131.300000011921},{\"page_index\":1,\"viewing_time\":2860},{\"page_index\":2,\"viewing_time\":2706}]","rt":7697.800000011921,"trial_type":"two-step-instructions","trial_index":31,"time_elapsed":575305,"internal_node_id":"0.0-13.0","task_version":"1.0","jspsych_version":"6.3.1"},{"state_1_ids":[0,1],"state_1_key":0,"state_1_choice":0,"state_1_rt":1614.0999999940395,"transition":0,"state":1,"state_2_ids":[2,3],"state_2_key":0,"state_2_choice":2,"state_2_rt":1353.9000000059605,"outcome":0,"rocket_colors":["#486ea7","#a75248"],"planet_colors":["#706081","#5b7c65"],"screen_resolution":[1680,1050],"minimum_resolution":1,"trial":1,"drifts":[0.44,0.385,0.62,0.421],"drift_ix":1,"trial_type":"two-step-trial","trial_index":32,"time_elapsed":580283,"internal_node_id":"0.0-14.0-0.0","task_version":"1.0","jspsych_version":"6.3.1","browser_interactions":0,"missing":false},{"state_1_ids":[1,0],"state_1_key":1,"state_1_choice":0,"state_1_rt":620.3000000119209,"transition":0,"state":1,"state_2_ids":[2,3],"state_2_key":1,"state_2_choice":3,"state_2_rt":761.5,"outcome":1,"rocket_colors":["#486ea7","#a75248"],"planet_colors":["#706081","#5b7c65"],"screen_resolution":[1680,1050],"minimum_resolution":1,"trial":2,"drifts":[0.427,0.383,0.623,0.388],"drift_ix":1,"trial_type":"two-step-trial","trial_index":33,"time_elapsed":583673,"internal_node_id":"0.0-15.0-0.0","task_version":"1.0","jspsych_version":"6.3.1","browser_interactions":0,"missing":false},{"state_1_ids":[1,0],"state_1_key":1,"state_1_choice":0,"state_1_rt":807.0999999940395,"transition":1,"state":0,"state_2_ids":[0,1],"state_2_key":1,"state_2_choice":1,"state_2_rt":1288.0999999940395,"outcome":0,"rocket_colors":["#486ea7","#a75248"],"planet_colors":["#706081","#5b7c65"],"screen_resolution":[1680,1050],"minimum_resolution":1,"trial":3,"drifts":[0.366,0.399,0.638,0.394],"drift_ix":1,"trial_type":"two-step-trial","trial_index":34,"time_elapsed":587778,"internal_node_id":"0.0-16.0-0.0","task_version":"1.0","jspsych_version":"6.3.1","browser_interactions":0,"missing":false},{"state_1_ids":[0,1],"state_1_key":0,"state_1_choice":0,"state_1_rt":958.7999999821186,"transition":1,"state":0,"state_2_ids":[0,1],"state_2_key":0,"state_2_choice":0,"state_2_rt":782.1000000238419,"outcome":0,"rocket_colors":["#486ea7","#a75248"],"planet_colors":["#706081","#5b7c65"],"screen_resolution":[1680,1050],"minimum_resolution":1,"trial":4,"drifts":[0.352,0.371,0.644,0.424],"drift_ix":1,"trial_type":"two-step-trial","trial_index":35,"time_elapsed":591527,"internal_node_id":"0.0-17.0-0.0","task_version":"1.0","jspsych_version":"6.3.1","browser_interactions":0,"missing":false},{"state_1_ids":[0,1],"state_1_key":0,"state_1_choice":0,"state_1_rt":1064.5999999940395,"transition":1,"state":0,"state_2_ids":[0,1],"state_2_key":0,"state_2_choice":0,"state_2_rt":816.5999999940395,"outcome":0,"rocket_colors":["#486ea7","#a75248"],"planet_colors":["#706081","#5b7c65"],"screen_resolution":[1680,1050],"minimum_resolution":1,"trial":5,"drifts":[0.387,0.418,0.671,0.445],"drift_ix":1,"trial_type":"two-step-trial","trial_index":36,"time_elapsed":595417,"internal_node_id":"0.0-18.0-0.0","task_version":"1.0","jspsych_version":"6.3.1","browser_interactions":0,"missing":false},{"state_1_ids":[0,1],"state_1_key":0,"state_1_choice":0,"state_1_rt":871.3000000119209,"transition":0,"state":1,"state_2_ids":[2,3],"state_2_key":1,"state_2_choice":3,"state_2_rt":1061.4000000059605,"outcome":0,"rocket_colors":["#486ea7","#a75248"],"planet_colors":["#706081","#5b7c65"],"screen_resolution":[1680,1050],"minimum_resolution":1,"trial":6,"drifts":[0.376,0.44,0.655,0.477],"drift_ix":1,"trial_type":"two-step-trial","trial_index":37,"time_elapsed":599358,"internal_node_id":"0.0-19.0-0.0","task_version":"1.0","jspsych_version":"6.3.1","browser_interactions":0,"missing":false},{"state_1_ids":[0,1],"state_1_key":1,"state_1_choice":1,"state_1_rt":1099.5,"transition":0,"state":0,"state_2_ids":[0,1],"state_2_key":0,"state_2_choice":0,"state_2_rt":780.0999999940395,"outcome":0,"rocket_colors":["#486ea7","#a75248"],"planet_colors":["#706081","#5b7c65"],"screen_resolution":[1680,1050],"minimum_resolution":1,"trial":7,"drifts":[0.376,0.46,0.674,0.453],"drift_ix":1,"trial_type":"two-step-trial","trial_index":38,"time_elapsed":603243,"internal_node_id":"0.0-20.0-0.0","task_version":"1.0","jspsych_version":"6.3.1","browser_interactions":0,"missing":false},{"state_1_ids":[1,0],"state_1_key":0,"state_1_choice":1,"state_1_rt":1246.5999999940395,"transition":0,"state":0,"state_2_ids":[0,1],"state_2_key":1,"state_2_choice":1,"state_2_rt":737.1999999880791,"outcome":0,"rocket_colors":["#486ea7","#a75248"],"planet_colors":["#706081","#5b7c65"],"screen_resolution":[1680,1050],"minimum_resolution":1,"trial":8,"drifts":[0.37,0.476,0.645,0.47],"drift_ix":1,"trial_type":"two-step-trial","trial_index":39,"time_elapsed":607237,"internal_node_id":"0.0-21.0-0.0","task_version":"1.0","jspsych_version":"6.3.1","browser_interactions":0,"missing":false},{"state_1_ids":[0,1],"state_1_key":1,"state_1_choice":1,"state_1_rt":972.8000000119209,"transition":0,"state":0,"state_2_ids":[0,1],"state_2_key":1,"state_2_choice":1,"state_2_rt":1178.800000011921,"outcome":0,"rocket_colors":["#486ea7","#a75248"],"planet_colors":["#706081","#5b7c65"],"screen_resolution":[1680,1050],"minimum_resolution":1,"trial":9,"drifts":[0.349,0.439,0.653,0.482],"drift_ix":1,"trial_type":"two-step-trial","trial_index":40,"time_elapsed":611397,"internal_node_id":"0.0-22.0-0.0","task_version":"1.0","jspsych_version":"6.3.1","browser_interactions":0,"missing":false},{"state_1_ids":[1,0],"state_1_key":1,"state_1_choice":0,"state_1_rt":868.5,"transition":0,"state":1,"state_2_ids":[2,3],"state_2_key":1,"state_2_choice":3,"state_2_rt":740.0999999940395,"outcome":0,"rocket_colors":["#486ea7","#a75248"],"planet_colors":["#706081","#5b7c65"],"screen_resolution":[1680,1050],"minimum_resolution":1,"trial":10,"drifts":[0.347,0.471,0.629,0.478],"drift_ix":1,"trial_type":"two-step-trial","trial_index":41,"time_elapsed":615015,"internal_node_id":"0.0-23.0-0.0","task_version":"1.0","jspsych_version":"6.3.1","browser_interactions":0,"missing":false},{"state_1_ids":[0,1],"state_1_key":0,"state_1_choice":0,"state_1_rt":1384.0999999940395,"transition":1,"state":0,"state_2_ids":[0,1],"state_2_key":0,"state_2_choice":0,"state_2_rt":1033,"outcome":0,"rocket_colors":["#486ea7","#a75248"],"planet_colors":["#706081","#5b7c65"],"screen_resolution":[1680,1050],"minimum_resolution":1,"trial":11,"drifts":[0.346,0.411,0.666,0.456],"drift_ix":1,"trial_type":"two-step-trial","trial_index":42,"time_elapsed":619437,"internal_node_id":"0.0-24.0-0.0","task_version":"1.0","jspsych_version":"6.3.1","browser_interactions":0,"missing":false},{"state_1_ids":[0,1],"state_1_key":1,"state_1_choice":1,"state_1_rt":2492.199999988079,"transition":1,"state":1,"state_2_ids":[2,3],"state_2_key":0,"state_2_choice":2,"state_2_rt":972.6000000238419,"outcome":0,"rocket_colors":["#486ea7","#a75248"],"planet_colors":["#706081","#5b7c65"],"screen_resolution":[1680,1050],"minimum_resolution":1,"trial":12,"drifts":[0.371,0.413,0.638,0.405],"drift_ix":1,"trial_type":"two-step-trial","trial_index":43,"time_elapsed":624911,"internal_node_id":"0.0-25.0-0.0","task_version":"1.0","jspsych_version":"6.3.1","browser_interactions":0,"missing":false},{"state_1_ids":[1,0],"state_1_key":0,"state_1_choice":1,"state_1_rt":1012.9000000059605,"transition":0,"state":0,"state_2_ids":[0,1],"state_2_key":0,"state_2_choice":0,"state_2_rt":1051.199999988079,"outcome":1,"rocket_colors":["#486ea7","#a75248"],"planet_colors":["#706081","#5b7c65"],"screen_resolution":[1680,1050],"minimum_resolution":1,"trial":13,"drifts":[0.354,0.425,0.641,0.388],"drift_ix":1,"trial_type":"two-step-trial","trial_index":44,"time_elapsed":628980,"internal_node_id":"0.0-26.0-0.0","task_version":"1.0","jspsych_version":"6.3.1","browser_interactions":0,"missing":false},{"state_1_ids":[1,0],"state_1_key":0,"state_1_choice":1,"state_1_rt":1023.5,"transition":1,"state":1,"state_2_ids":[2,3],"state_2_key":0,"state_2_choice":2,"state_2_rt":802.2999999821186,"outcome":1,"rocket_colors":["#486ea7","#a75248"],"planet_colors":["#706081","#5b7c65"],"screen_resolution":[1680,1050],"minimum_resolution":1,"trial":14,"drifts":[0.315,0.45,0.635,0.335],"drift_ix":1,"trial_type":"two-step-trial","trial_index":45,"time_elapsed":632815,"internal_node_id":"0.0-27.0-0.0","task_version":"1.0","jspsych_version":"6.3.1","browser_interactions":0,"missing":false},{"state_1_ids":[0,1],"state_1_key":0,"state_1_choice":0,"state_1_rt":1268.2999999821186,"transition":1,"state":0,"state_2_ids":[0,1],"state_2_key":0,"state_2_choice":0,"state_2_rt":690,"outcome":0,"rocket_colors":["#486ea7","#a75248"],"planet_colors":["#706081","#5b7c65"],"screen_resolution":[1680,1050],"minimum_resolution":1,"trial":15,"drifts":[0.291,0.41,0.635,0.339],"drift_ix":1,"trial_type":"two-step-trial","trial_index":46,"time_elapsed":636782,"internal_node_id":"0.0-28.0-0.0","task_version":"1.0","jspsych_version":"6.3.1","browser_interactions":0,"missing":false},{"state_1_ids":[1,0],"state_1_key":1,"state_1_choice":0,"state_1_rt":1179.4000000059605,"transition":1,"state":0,"state_2_ids":[0,1],"state_2_key":0,"state_2_choice":0,"state_2_rt":835.9000000059605,"outcome":1,"rocket_colors":["#486ea7","#a75248"],"planet_colors":["#706081","#5b7c65"],"screen_resolution":[1680,1050],"minimum_resolution":1,"trial":16,"drifts":[0.3,0.409,0.61,0.364],"drift_ix":1,"trial_type":"two-step-trial","trial_index":47,"time_elapsed":640804,"internal_node_id":"0.0-29.0-0.0","task_version":"1.0","jspsych_version":"6.3.1","browser_interactions":0,"missing":false},{"state_1_ids":[0,1],"state_1_key":1,"state_1_choice":1,"state_1_rt":756.3000000119209,"transition":1,"state":1,"state_2_ids":[2,3],"state_2_key":0,"state_2_choice":2,"state_2_rt":910.7999999821186,"outcome":1,"rocket_colors":["#486ea7","#a75248"],"planet_colors":["#706081","#5b7c65"],"screen_resolution":[1680,1050],"minimum_resolution":1,"trial":17,"drifts":[0.3,0.418,0.639,0.392],"drift_ix":1,"trial_type":"two-step-trial","trial_index":48,"time_elapsed":644479,"internal_node_id":"0.0-30.0-0.0","task_version":"1.0","jspsych_version":"6.3.1","browser_interactions":0,"missing":false},{"state_1_ids":[0,1],"state_1_key":1,"state_1_choice":1,"state_1_rt":745.5,"transition":1,"state":1,"state_2_ids":[2,3],"state_2_key":0,"state_2_choice":2,"state_2_rt":638,"outcome":1,"rocket_colors":["#486ea7","#a75248"],"planet_colors":["#706081","#5b7c65"],"screen_resolution":[1680,1050],"minimum_resolution":1,"trial":18,"drifts":[0.308,0.463,0.63,0.375],"drift_ix":1,"trial_type":"two-step-trial","trial_index":49,"time_elapsed":647869,"internal_node_id":"0.0-31.0-0.0","task_version":"1.0","jspsych_version":"6.3.1","browser_interactions":0,"missing":false},{"state_1_ids":[1,0],"state_1_key":0,"state_1_choice":1,"state_1_rt":717.6999999880791,"transition":1,"state":1,"state_2_ids":[2,3],"state_2_key":0,"state_2_choice":2,"state_2_rt":555.8000000119209,"outcome":1,"rocket_colors":["#486ea7","#a75248"],"planet_colors":["#706081","#5b7c65"],"screen_resolution":[1680,1050],"minimum_resolution":1,"trial":19,"drifts":[0.345,0.475,0.617,0.402],"drift_ix":1,"trial_type":"two-step-trial","trial_index":50,"time_elapsed":651148,"internal_node_id":"0.0-32.0-0.0","task_version":"1.0","jspsych_version":"6.3.1","browser_interactions":0,"missing":false},{"state_1_ids":[1,0],"state_1_key":0,"state_1_choice":1,"state_1_rt":1526.5999999940395,"transition":1,"state":1,"state_2_ids":[2,3],"state_2_key":0,"state_2_choice":2,"state_2_rt":690.2999999821186,"outcome":1,"rocket_colors":["#486ea7","#a75248"],"planet_colors":["#706081","#5b7c65"],"screen_resolution":[1680,1050],"minimum_resolution":1,"trial":20,"drifts":[0.39,0.463,0.595,0.433],"drift_ix":1,"trial_type":"two-step-trial","trial_index":51,"time_elapsed":655374,"internal_node_id":"0.0-33.0-0.0","task_version":"1.0","jspsych_version":"6.3.1","browser_interactions":0,"missing":false},{"state_1_ids":[1,0],"state_1_key":0,"state_1_choice":1,"state_1_rt":852.4000000059605,"transition":0,"state":0,"state_2_ids":[0,1],"state_2_key":0,"state_2_choice":0,"state_2_rt":1260.699999988079,"outcome":1,"rocket_colors":["#486ea7","#a75248"],"planet_colors":["#706081","#5b7c65"],"screen_resolution":[1680,1050],"minimum_resolution":1,"trial":21,"drifts":[0.413,0.433,0.607,0.447],"drift_ix":1,"trial_type":"two-step-trial","trial_index":52,"time_elapsed":659496,"internal_node_id":"0.0-34.0-0.0","task_version":"1.0","jspsych_version":"6.3.1","browser_interactions":0,"missing":false},{"state_1_ids":[0,1],"state_1_key":1,"state_1_choice":1,"state_1_rt":808.0999999940395,"transition":1,"state":1,"state_2_ids":[2,3],"state_2_key":0,"state_2_choice":2,"state_2_rt":741,"outcome":1,"rocket_colors":["#486ea7","#a75248"],"planet_colors":["#706081","#5b7c65"],"screen_resolution":[1680,1050],"minimum_resolution":1,"trial":22,"drifts":[0.397,0.431,0.605,0.426],"drift_ix":1,"trial_type":"two-step-trial","trial_index":53,"time_elapsed":663053,"internal_node_id":"0.0-35.0-0.0","task_version":"1.0","jspsych_version":"6.3.1","browser_interactions":0,"missing":false},{"state_1_ids":[0,1],"state_1_key":1,"state_1_choice":1,"state_1_rt":562.1999999880791,"transition":0,"state":0,"state_2_ids":[0,1],"state_2_key":0,"state_2_choice":0,"state_2_rt":636.9000000059605,"outcome":1,"rocket_colors":["#486ea7","#a75248"],"planet_colors":["#706081","#5b7c65"],"screen_resolution":[1680,1050],"minimum_resolution":1,"trial":23,"drifts":[0.375,0.426,0.617,0.383],"drift_ix":1,"trial_type":"two-step-trial","trial_index":54,"time_elapsed":666263,"internal_node_id":"0.0-36.0-0.0","task_version":"1.0","jspsych_version":"6.3.1","browser_interactions":0,"missing":false},{"state_1_ids":[1,0],"state_1_key":0,"state_1_choice":1,"state_1_rt":1010.7999999821186,"transition":1,"state":1,"state_2_ids":[2,3],"state_2_key":0,"state_2_choice":2,"state_2_rt":650,"outcome":1,"rocket_colors":["#486ea7","#a75248"],"planet_colors":["#706081","#5b7c65"],"screen_resolution":[1680,1050],"minimum_resolution":1,"trial":24,"drifts":[0.396,0.432,0.631,0.356],"drift_ix":1,"trial_type":"two-step-trial","trial_index":55,"time_elapsed":669933,"internal_node_id":"0.0-37.0-0.0","task_version":"1.0","jspsych_version":"6.3.1","browser_interactions":0,"missing":false},{"state_1_ids":[0,1],"state_1_key":1,"state_1_choice":1,"state_1_rt":930.8999999761581,"transition":0,"state":0,"state_2_ids":[0,1],"state_2_key":0,"state_2_choice":0,"state_2_rt":693.3000000119209,"outcome":1,"rocket_colors":["#486ea7","#a75248"],"planet_colors":["#706081","#5b7c65"],"screen_resolution":[1680,1050],"minimum_resolution":1,"trial":25,"drifts":[0.352,0.393,0.634,0.357],"drift_ix":1,"trial_type":"two-step-trial","trial_index":56,"time_elapsed":673563,"internal_node_id":"0.0-38.0-0.0","task_version":"1.0","jspsych_version":"6.3.1","browser_interactions":0,"missing":false},{"state_1_ids":[1,0],"state_1_key":0,"state_1_choice":1,"state_1_rt":687.1000000238419,"transition":1,"state":1,"state_2_ids":[2,3],"state_2_key":0,"state_2_choice":2,"state_2_rt":513.4000000059605,"outcome":0,"rocket_colors":["#486ea7","#a75248"],"planet_colors":["#706081","#5b7c65"],"screen_resolution":[1680,1050],"minimum_resolution":1,"trial":26,"drifts":[0.379,0.371,0.632,0.315],"drift_ix":1,"trial_type":"two-step-trial","trial_index":57,"time_elapsed":676771,"internal_node_id":"0.0-39.0-0.0","task_version":"1.0","jspsych_version":"6.3.1","browser_interactions":0,"missing":false},{"state_1_ids":[0,1],"state_1_key":0,"state_1_choice":0,"state_1_rt":711.0999999940395,"transition":0,"state":1,"state_2_ids":[2,3],"state_2_key":0,"state_2_choice":2,"state_2_rt":683.2000000178814,"outcome":1,"rocket_colors":["#486ea7","#a75248"],"planet_colors":["#706081","#5b7c65"],"screen_resolution":[1680,1050],"minimum_resolution":1,"trial":27,"drifts":[0.44,0.355,0.639,0.305],"drift_ix":1,"trial_type":"two-step-trial","trial_index":58,"time_elapsed":680172,"internal_node_id":"0.0-40.0-0.0","task_version":"1.0","jspsych_version":"6.3.1","browser_interactions":0,"missing":false},{"state_1_ids":[0,1],"state_1_key":0,"state_1_choice":0,"state_1_rt":510.19999998807907,"transition":0,"state":1,"state_2_ids":[2,3],"state_2_key":0,"state_2_choice":2,"state_2_rt":707.5,"outcome":1,"rocket_colors":["#486ea7","#a75248"],"planet_colors":["#706081","#5b7c65"],"screen_resolution":[1680,1050],"minimum_resolution":1,"trial":28,"drifts":[0.473,0.399,0.627,0.311],"drift_ix":1,"trial_type":"two-step-trial","trial_index":59,"time_elapsed":683394,"internal_node_id":"0.0-41.0-0.0","task_version":"1.0","jspsych_version":"6.3.1","browser_interactions":0,"missing":false},{"state_1_ids":[0,1],"state_1_key":0,"state_1_choice":0,"state_1_rt":591.9000000059605,"transition":0,"state":1,"state_2_ids":[2,3],"state_2_key":0,"state_2_choice":2,"state_2_rt":484.09999999403954,"outcome":1,"rocket_colors":["#486ea7","#a75248"],"planet_colors":["#706081","#5b7c65"],"screen_resolution":[1680,1050],"minimum_resolution":1,"trial":29,"drifts":[0.47,0.426,0.594,0.318],"drift_ix":1,"trial_type":"two-step-trial","trial_index":60,"time_elapsed":686476,"internal_node_id":"0.0-42.0-0.0","task_version":"1.0","jspsych_version":"6.3.1","browser_interactions":0,"missing":false},{"state_1_ids":[0,1],"state_1_key":0,"state_1_choice":0,"state_1_rt":685.0999999940395,"transition":1,"state":0,"state_2_ids":[0,1],"state_2_key":0,"state_2_choice":0,"state_2_rt":940.3000000119209,"outcome":1,"rocket_colors":["#486ea7","#a75248"],"planet_colors":["#706081","#5b7c65"],"screen_resolution":[1680,1050],"minimum_resolution":1,"trial":30,"drifts":[0.455,0.475,0.559,0.323],"drift_ix":1,"trial_type":"two-step-trial","trial_index":61,"time_elapsed":690110,"internal_node_id":"0.0-43.0-0.0","task_version":"1.0","jspsych_version":"6.3.1","browser_interactions":0,"missing":false},{"state_1_ids":[1,0],"state_1_key":1,"state_1_choice":0,"state_1_rt":1128.7999999821186,"transition":0,"state":1,"state_2_ids":[2,3],"state_2_key":0,"state_2_choice":2,"state_2_rt":495.19999998807907,"outcome":0,"rocket_colors":["#486ea7","#a75248"],"planet_colors":["#706081","#5b7c65"],"screen_resolution":[1680,1050],"minimum_resolution":1,"trial":31,"drifts":[0.435,0.51,0.608,0.321],"drift_ix":1,"trial_type":"two-step-trial","trial_index":62,"time_elapsed":693738,"internal_node_id":"0.0-44.0-0.0","task_version":"1.0","jspsych_version":"6.3.1","browser_interactions":0,"missing":false},{"state_1_ids":[1,0],"state_1_key":1,"state_1_choice":0,"state_1_rt":933,"transition":1,"state":0,"state_2_ids":[0,1],"state_2_key":0,"state_2_choice":0,"state_2_rt":718.7999999821186,"outcome":0,"rocket_colors":["#486ea7","#a75248"],"planet_colors":["#706081","#5b7c65"],"screen_resolution":[1680,1050],"minimum_resolution":1,"trial":32,"drifts":[0.415,0.507,0.579,0.317],"drift_ix":1,"trial_type":"two-step-trial","trial_index":63,"time_elapsed":697398,"internal_node_id":"0.0-45.0-0.0","task_version":"1.0","jspsych_version":"6.3.1","browser_interactions":0,"missing":false},{"state_1_ids":[0,1],"state_1_key":1,"state_1_choice":1,"state_1_rt":880.9000000059605,"transition":0,"state":0,"state_2_ids":[0,1],"state_2_key":1,"state_2_choice":1,"state_2_rt":754.0999999940395,"outcome":0,"rocket_colors":["#486ea7","#a75248"],"planet_colors":["#706081","#5b7c65"],"screen_resolution":[1680,1050],"minimum_resolution":1,"trial":33,"drifts":[0.459,0.542,0.595,0.302],"drift_ix":1,"trial_type":"two-step-trial","trial_index":64,"time_elapsed":701041,"internal_node_id":"0.0-46.0-0.0","task_version":"1.0","jspsych_version":"6.3.1","browser_interactions":0,"missing":false},{"state_1_ids":[1,0],"state_1_key":1,"state_1_choice":0,"state_1_rt":934.3000000119209,"transition":0,"state":1,"state_2_ids":[2,3],"state_2_key":0,"state_2_choice":2,"state_2_rt":734.6999999880791,"outcome":1,"rocket_colors":["#486ea7","#a75248"],"planet_colors":["#706081","#5b7c65"],"screen_resolution":[1680,1050],"minimum_resolution":1,"trial":34,"drifts":[0.491,0.491,0.597,0.309],"drift_ix":1,"trial_type":"two-step-trial","trial_index":65,"time_elapsed":704715,"internal_node_id":"0.0-47.0-0.0","task_version":"1.0","jspsych_version":"6.3.1","browser_interactions":0,"missing":false},{"state_1_ids":[1,0],"state_1_key":1,"state_1_choice":0,"state_1_rt":1315.7999999821186,"transition":0,"state":1,"state_2_ids":[2,3],"state_2_key":0,"state_2_choice":2,"state_2_rt":589.7999999821186,"outcome":0,"rocket_colors":["#486ea7","#a75248"],"planet_colors":["#706081","#5b7c65"],"screen_resolution":[1680,1050],"minimum_resolution":1,"trial":35,"drifts":[0.474,0.513,0.589,0.338],"drift_ix":1,"trial_type":"two-step-trial","trial_index":66,"time_elapsed":708627,"internal_node_id":"0.0-48.0-0.0","task_version":"1.0","jspsych_version":"6.3.1","browser_interactions":0,"missing":false},{"state_1_ids":[1,0],"state_1_key":1,"state_1_choice":0,"state_1_rt":627.0999999940395,"transition":0,"state":1,"state_2_ids":[2,3],"state_2_key":0,"state_2_choice":2,"state_2_rt":437.40000000596046,"outcome":1,"rocket_colors":["#486ea7","#a75248"],"planet_colors":["#706081","#5b7c65"],"screen_resolution":[1680,1050],"minimum_resolution":1,"trial":36,"drifts":[0.457,0.538,0.559,0.332],"drift_ix":1,"trial_type":"two-step-trial","trial_index":67,"time_elapsed":711698,"internal_node_id":"0.0-49.0-0.0","task_version":"1.0","jspsych_version":"6.3.1","browser_interactions":0,"missing":false},{"state_1_ids":[1,0],"state_1_key":1,"state_1_choice":0,"state_1_rt":662.4000000059605,"transition":1,"state":0,"state_2_ids":[0,1],"state_2_key":1,"state_2_choice":1,"state_2_rt":1463.4000000059605,"outcome":0,"rocket_colors":["#486ea7","#a75248"],"planet_colors":["#706081","#5b7c65"],"screen_resolution":[1680,1050],"minimum_resolution":1,"trial":37,"drifts":[0.485,0.54,0.582,0.328],"drift_ix":1,"trial_type":"two-step-trial","trial_index":68,"time_elapsed":715831,"internal_node_id":"0.0-50.0-0.0","task_version":"1.0","jspsych_version":"6.3.1","browser_interactions":0,"missing":false},{"state_1_ids":[0,1],"state_1_key":0,"state_1_choice":0,"state_1_rt":935,"transition":1,"state":0,"state_2_ids":[0,1],"state_2_key":0,"state_2_choice":0,"state_2_rt":759.3000000119209,"outcome":0,"rocket_colors":["#486ea7","#a75248"],"planet_colors":["#706081","#5b7c65"],"screen_resolution":[1680,1050],"minimum_resolution":1,"trial":38,"drifts":[0.448,0.561,0.557,0.342],"drift_ix":1,"trial_type":"two-step-trial","trial_index":69,"time_elapsed":719535,"internal_node_id":"0.0-51.0-0.0","task_version":"1.0","jspsych_version":"6.3.1","browser_interactions":0,"missing":false},{"state_1_ids":[1,0],"state_1_key":1,"state_1_choice":0,"state_1_rt":935.3999999761581,"transition":1,"state":0,"state_2_ids":[0,1],"state_2_key":0,"state_2_choice":0,"state_2_rt":574.8999999761581,"outcome":0,"rocket_colors":["#486ea7","#a75248"],"planet_colors":["#706081","#5b7c65"],"screen_resolution":[1680,1050],"minimum_resolution":1,"trial":39,"drifts":[0.401,0.544,0.587,0.37],"drift_ix":1,"trial_type":"two-step-trial","trial_index":70,"time_elapsed":723052,"internal_node_id":"0.0-52.0-0.0","task_version":"1.0","jspsych_version":"6.3.1","browser_interactions":0,"missing":false},{"state_1_ids":[1,0],"state_1_key":1,"state_1_choice":0,"state_1_rt":753.2999999821186,"transition":1,"state":0,"state_2_ids":[0,1],"state_2_key":1,"state_2_choice":1,"state_2_rt":774.8000000119209,"outcome":0,"rocket_colors":["#486ea7","#a75248"],"planet_colors":["#706081","#5b7c65"],"screen_resolution":[1680,1050],"minimum_resolution":1,"trial":40,"drifts":[0.404,0.536,0.602,0.375],"drift_ix":1,"trial_type":"two-step-trial","trial_index":71,"time_elapsed":726592,"internal_node_id":"0.0-53.0-0.0","task_version":"1.0","jspsych_version":"6.3.1","browser_interactions":0,"missing":false},{"state_1_ids":[1,0],"state_1_key":1,"state_1_choice":0,"state_1_rt":957.0999999940395,"transition":1,"state":0,"state_2_ids":[0,1],"state_2_key":1,"state_2_choice":1,"state_2_rt":927.6999999880791,"outcome":0,"rocket_colors":["#486ea7","#a75248"],"planet_colors":["#706081","#5b7c65"],"screen_resolution":[1680,1050],"minimum_resolution":1,"trial":41,"drifts":[0.396,0.535,0.6,0.41],"drift_ix":1,"trial_type":"two-step-trial","trial_index":72,"time_elapsed":730484,"internal_node_id":"0.0-54.0-0.0","task_version":"1.0","jspsych_version":"6.3.1","browser_interactions":0,"missing":false},{"state_1_ids":[0,1],"state_1_key":0,"state_1_choice":0,"state_1_rt":1089.8999999761581,"transition":1,"state":0,"state_2_ids":[0,1],"state_2_key":1,"state_2_choice":1,"state_2_rt":1365.7999999821186,"outcome":0,"rocket_colors":["#486ea7","#a75248"],"planet_colors":["#706081","#5b7c65"],"screen_resolution":[1680,1050],"minimum_resolution":1,"trial":42,"drifts":[0.406,0.554,0.6,0.432],"drift_ix":1,"trial_type":"two-step-trial","trial_index":73,"time_elapsed":734946,"internal_node_id":"0.0-55.0-0.0","task_version":"1.0","jspsych_version":"6.3.1","browser_interactions":0,"missing":false},{"state_1_ids":[1,0],"state_1_key":0,"state_1_choice":1,"state_1_rt":827.6000000238419,"transition":1,"state":1,"state_2_ids":[2,3],"state_2_key":0,"state_2_choice":2,"state_2_rt":739,"outcome":1,"rocket_colors":["#486ea7","#a75248"],"planet_colors":["#706081","#5b7c65"],"screen_resolution":[1680,1050],"minimum_resolution":1,"trial":43,"drifts":[0.381,0.564,0.612,0.443],"drift_ix":1,"trial_type":"two-step-trial","trial_index":74,"time_elapsed":738526,"internal_node_id":"0.0-56.0-0.0","task_version":"1.0","jspsych_version":"6.3.1","browser_interactions":0,"missing":false},{"state_1_ids":[0,1],"state_1_key":1,"state_1_choice":1,"state_1_rt":886.9000000059605,"transition":1,"state":1,"state_2_ids":[2,3],"state_2_key":0,"state_2_choice":2,"state_2_rt":510.69999998807907,"outcome":1,"rocket_colors":["#486ea7","#a75248"],"planet_colors":["#706081","#5b7c65"],"screen_resolution":[1680,1050],"minimum_resolution":1,"trial":44,"drifts":[0.375,0.564,0.659,0.454],"drift_ix":1,"trial_type":"two-step-trial","trial_index":75,"time_elapsed":741930,"internal_node_id":"0.0-57.0-0.0","task_version":"1.0","jspsych_version":"6.3.1","browser_interactions":0,"missing":false},{"state_1_ids":[1,0],"state_1_key":1,"state_1_choice":0,"state_1_rt":1283.9000000059605,"transition":0,"state":1,"state_2_ids":[2,3],"state_2_key":0,"state_2_choice":2,"state_2_rt":668.6999999880791,"outcome":0,"rocket_colors":["#486ea7","#a75248"],"planet_colors":["#706081","#5b7c65"],"screen_resolution":[1680,1050],"minimum_resolution":1,"trial":45,"drifts":[0.37,0.592,0.676,0.446],"drift_ix":1,"trial_type":"two-step-trial","trial_index":76,"time_elapsed":745888,"internal_node_id":"0.0-58.0-0.0","task_version":"1.0","jspsych_version":"6.3.1","browser_interactions":0,"missing":false},{"state_1_ids":[0,1],"state_1_key":0,"state_1_choice":0,"state_1_rt":711.4000000059605,"transition":1,"state":0,"state_2_ids":[0,1],"state_2_key":0,"state_2_choice":0,"state_2_rt":801.8000000119209,"outcome":0,"rocket_colors":["#486ea7","#a75248"],"planet_colors":["#706081","#5b7c65"],"screen_resolution":[1680,1050],"minimum_resolution":1,"trial":46,"drifts":[0.369,0.571,0.682,0.419],"drift_ix":1,"trial_type":"two-step-trial","trial_index":77,"time_elapsed":749411,"internal_node_id":"0.0-59.0-0.0","task_version":"1.0","jspsych_version":"6.3.1","browser_interactions":0,"missing":false},{"state_1_ids":[0,1],"state_1_key":0,"state_1_choice":0,"state_1_rt":684,"transition":0,"state":1,"state_2_ids":[2,3],"state_2_key":0,"state_2_choice":2,"state_2_rt":676.1000000238419,"outcome":0,"rocket_colors":["#486ea7","#a75248"],"planet_colors":["#706081","#5b7c65"],"screen_resolution":[1680,1050],"minimum_resolution":1,"trial":47,"drifts":[0.392,0.532,0.65,0.4],"drift_ix":1,"trial_type":"two-step-trial","trial_index":78,"time_elapsed":752779,"internal_node_id":"0.0-60.0-0.0","task_version":"1.0","jspsych_version":"6.3.1","browser_interactions":0,"missing":false},{"state_1_ids":[1,0],"state_1_key":1,"state_1_choice":0,"state_1_rt":546,"transition":1,"state":0,"state_2_ids":[0,1],"state_2_key":0,"state_2_choice":0,"state_2_rt":478,"outcome":0,"rocket_colors":["#486ea7","#a75248"],"planet_colors":["#706081","#5b7c65"],"screen_resolution":[1680,1050],"minimum_resolution":1,"trial":48,"drifts":[0.412,0.529,0.637,0.409],"drift_ix":1,"trial_type":"two-step-trial","trial_index":79,"time_elapsed":755811,"internal_node_id":"0.0-61.0-0.0","task_version":"1.0","jspsych_version":"6.3.1","browser_interactions":0,"missing":false},{"state_1_ids":[1,0],"state_1_key":1,"state_1_choice":0,"state_1_rt":762.0999999940395,"transition":1,"state":0,"state_2_ids":[0,1],"state_2_key":0,"state_2_choice":0,"state_2_rt":477.59999999403954,"outcome":1,"rocket_colors":["#486ea7","#a75248"],"planet_colors":["#706081","#5b7c65"],"screen_resolution":[1680,1050],"minimum_resolution":1,"trial":49,"drifts":[0.41,0.533,0.637,0.402],"drift_ix":1,"trial_type":"two-step-trial","trial_index":80,"time_elapsed":759059,"internal_node_id":"0.0-62.0-0.0","task_version":"1.0","jspsych_version":"6.3.1","browser_interactions":0,"missing":false},{"state_1_ids":[1,0],"state_1_key":1,"state_1_choice":0,"state_1_rt":673.4000000059605,"transition":1,"state":0,"state_2_ids":[0,1],"state_2_key":0,"state_2_choice":0,"state_2_rt":678.2000000178814,"outcome":0,"rocket_colors":["#486ea7","#a75248"],"planet_colors":["#706081","#5b7c65"],"screen_resolution":[1680,1050],"minimum_resolution":1,"trial":50,"drifts":[0.394,0.554,0.63,0.39],"drift_ix":1,"trial_type":"two-step-trial","trial_index":81,"time_elapsed":762420,"internal_node_id":"0.0-63.0-0.0","task_version":"1.0","jspsych_version":"6.3.1","browser_interactions":0,"missing":false},{"state_1_ids":[0,1],"state_1_key":0,"state_1_choice":0,"state_1_rt":1211.9000000059605,"transition":0,"state":1,"state_2_ids":[2,3],"state_2_key":0,"state_2_choice":2,"state_2_rt":723.4000000059605,"outcome":1,"rocket_colors":["#486ea7","#a75248"],"planet_colors":["#706081","#5b7c65"],"screen_resolution":[1680,1050],"minimum_resolution":1,"trial":51,"drifts":[0.351,0.543,0.599,0.412],"drift_ix":1,"trial_type":"two-step-trial","trial_index":82,"time_elapsed":766362,"internal_node_id":"0.0-64.0-0.0","task_version":"1.0","jspsych_version":"6.3.1","browser_interactions":0,"missing":false},{"state_1_ids":[0,1],"state_1_key":0,"state_1_choice":0,"state_1_rt":812.7000000178814,"transition":1,"state":0,"state_2_ids":[0,1],"state_2_key":0,"state_2_choice":0,"state_2_rt":907.8000000119209,"outcome":0,"rocket_colors":["#486ea7","#a75248"],"planet_colors":["#706081","#5b7c65"],"screen_resolution":[1680,1050],"minimum_resolution":1,"trial":52,"drifts":[0.355,0.541,0.573,0.402],"drift_ix":1,"trial_type":"two-step-trial","trial_index":83,"time_elapsed":770090,"internal_node_id":"0.0-65.0-0.0","task_version":"1.0","jspsych_version":"6.3.1","browser_interactions":0,"missing":false},{"state_1_ids":[1,0],"state_1_key":1,"state_1_choice":0,"state_1_rt":809.9000000059605,"transition":1,"state":0,"state_2_ids":[0,1],"state_2_key":0,"state_2_choice":0,"state_2_rt":726.5,"outcome":1,"rocket_colors":["#486ea7","#a75248"],"planet_colors":["#706081","#5b7c65"],"screen_resolution":[1680,1050],"minimum_resolution":1,"trial":53,"drifts":[0.35,0.565,0.6,0.385],"drift_ix":1,"trial_type":"two-step-trial","trial_index":84,"time_elapsed":773635,"internal_node_id":"0.0-66.0-0.0","task_version":"1.0","jspsych_version":"6.3.1","browser_interactions":0,"missing":false},{"state_1_ids":[0,1],"state_1_key":0,"state_1_choice":0,"state_1_rt":987.5,"transition":1,"state":0,"state_2_ids":[0,1],"state_2_key":0,"state_2_choice":0,"state_2_rt":1219.5,"outcome":0,"rocket_colors":["#486ea7","#a75248"],"planet_colors":["#706081","#5b7c65"],"screen_resolution":[1680,1050],"minimum_resolution":1,"trial":54,"drifts":[0.367,0.543,0.601,0.392],"drift_ix":1,"trial_type":"two-step-trial","trial_index":85,"time_elapsed":777850,"internal_node_id":"0.0-67.0-0.0","task_version":"1.0","jspsych_version":"6.3.1","browser_interactions":0,"missing":false},{"state_1_ids":[0,1],"state_1_key":0,"state_1_choice":0,"state_1_rt":1084.5999999940395,"transition":1,"state":0,"state_2_ids":[0,1],"state_2_key":0,"state_2_choice":0,"state_2_rt":754.0999999940395,"outcome":0,"rocket_colors":["#486ea7","#a75248"],"planet_colors":["#706081","#5b7c65"],"screen_resolution":[1680,1050],"minimum_resolution":1,"trial":55,"drifts":[0.341,0.54,0.588,0.372],"drift_ix":1,"trial_type":"two-step-trial","trial_index":86,"time_elapsed":781698,"internal_node_id":"0.0-68.0-0.0","task_version":"1.0","jspsych_version":"6.3.1","browser_interactions":0,"missing":false},{"state_1_ids":[0,1],"state_1_key":0,"state_1_choice":0,"state_1_rt":1036.300000011921,"transition":1,"state":0,"state_2_ids":[0,1],"state_2_key":1,"state_2_choice":1,"state_2_rt":947.9000000059605,"outcome":1,"rocket_colors":["#486ea7","#a75248"],"planet_colors":["#706081","#5b7c65"],"screen_resolution":[1680,1050],"minimum_resolution":1,"trial":56,"drifts":[0.388,0.584,0.641,0.394],"drift_ix":1,"trial_type":"two-step-trial","trial_index":87,"time_elapsed":785691,"internal_node_id":"0.0-69.0-0.0","task_version":"1.0","jspsych_version":"6.3.1","browser_interactions":0,"missing":false},{"state_1_ids":[0,1],"state_1_key":0,"state_1_choice":0,"state_1_rt":887.9000000059605,"transition":1,"state":0,"state_2_ids":[0,1],"state_2_key":1,"state_2_choice":1,"state_2_rt":742.9000000059605,"outcome":1,"rocket_colors":["#486ea7","#a75248"],"planet_colors":["#706081","#5b7c65"],"screen_resolution":[1680,1050],"minimum_resolution":1,"trial":57,"drifts":[0.373,0.597,0.649,0.355],"drift_ix":1,"trial_type":"two-step-trial","trial_index":88,"time_elapsed":789331,"internal_node_id":"0.0-70.0-0.0","task_version":"1.0","jspsych_version":"6.3.1","browser_interactions":0,"missing":false},{"state_1_ids":[0,1],"state_1_key":0,"state_1_choice":0,"state_1_rt":583.8000000119209,"transition":0,"state":1,"state_2_ids":[2,3],"state_2_key":0,"state_2_choice":2,"state_2_rt":1009.3000000119209,"outcome":1,"rocket_colors":["#486ea7","#a75248"],"planet_colors":["#706081","#5b7c65"],"screen_resolution":[1680,1050],"minimum_resolution":1,"trial":58,"drifts":[0.383,0.601,0.627,0.333],"drift_ix":1,"trial_type":"two-step-trial","trial_index":89,"time_elapsed":792930,"internal_node_id":"0.0-71.0-0.0","task_version":"1.0","jspsych_version":"6.3.1","browser_interactions":0,"missing":false},{"state_1_ids":[0,1],"state_1_key":0,"state_1_choice":0,"state_1_rt":904.8000000119209,"transition":0,"state":1,"state_2_ids":[2,3],"state_2_key":0,"state_2_choice":2,"state_2_rt":807.5,"outcome":1,"rocket_colors":["#486ea7","#a75248"],"planet_colors":["#706081","#5b7c65"],"screen_resolution":[1680,1050],"minimum_resolution":1,"trial":59,"drifts":[0.401,0.574,0.656,0.323],"drift_ix":1,"trial_type":"two-step-trial","trial_index":90,"time_elapsed":796651,"internal_node_id":"0.0-72.0-0.0","task_version":"1.0","jspsych_version":"6.3.1","browser_interactions":0,"missing":false},{"state_1_ids":[1,0],"state_1_key":1,"state_1_choice":0,"state_1_rt":543.8999999761581,"transition":1,"state":0,"state_2_ids":[0,1],"state_2_key":0,"state_2_choice":0,"state_2_rt":551,"outcome":1,"rocket_colors":["#486ea7","#a75248"],"planet_colors":["#706081","#5b7c65"],"screen_resolution":[1680,1050],"minimum_resolution":1,"trial":60,"drifts":[0.433,0.567,0.64,0.284],"drift_ix":1,"trial_type":"two-step-trial","trial_index":91,"time_elapsed":799751,"internal_node_id":"0.0-73.0-0.0","task_version":"1.0","jspsych_version":"6.3.1","browser_interactions":0,"missing":false},{"state_1_ids":[0,1],"state_1_key":0,"state_1_choice":0,"state_1_rt":726.7000000178814,"transition":1,"state":0,"state_2_ids":[0,1],"state_2_key":1,"state_2_choice":1,"state_2_rt":932.2999999821186,"outcome":1,"rocket_colors":["#486ea7","#a75248"],"planet_colors":["#706081","#5b7c65"],"screen_resolution":[1680,1050],"minimum_resolution":1,"trial":61,"drifts":[0.443,0.536,0.633,0.265],"drift_ix":1,"trial_type":"two-step-trial","trial_index":92,"time_elapsed":803414,"internal_node_id":"0.0-74.0-0.0","task_version":"1.0","jspsych_version":"6.3.1","browser_interactions":0,"missing":false},{"state_1_ids":[0,1],"state_1_key":0,"state_1_choice":0,"state_1_rt":716.9000000059605,"transition":1,"state":0,"state_2_ids":[0,1],"state_2_key":1,"state_2_choice":1,"state_2_rt":854.2999999821186,"outcome":1,"rocket_colors":["#486ea7","#a75248"],"planet_colors":["#706081","#5b7c65"],"screen_resolution":[1680,1050],"minimum_resolution":1,"trial":62,"drifts":[0.42,0.521,0.591,0.279],"drift_ix":1,"trial_type":"two-step-trial","trial_index":93,"time_elapsed":806990,"internal_node_id":"0.0-75.0-0.0","task_version":"1.0","jspsych_version":"6.3.1","browser_interactions":0,"missing":false},{"state_1_ids":[1,0],"state_1_key":0,"state_1_choice":1,"state_1_rt":1109.300000011921,"transition":1,"state":1,"state_2_ids":[2,3],"state_2_key":0,"state_2_choice":2,"state_2_rt":1263.1000000238419,"outcome":1,"rocket_colors":["#486ea7","#a75248"],"planet_colors":["#706081","#5b7c65"],"screen_resolution":[1680,1050],"minimum_resolution":1,"trial":63,"drifts":[0.392,0.519,0.612,0.319],"drift_ix":1,"trial_type":"two-step-trial","trial_index":94,"time_elapsed":811372,"internal_node_id":"0.0-76.0-0.0","task_version":"1.0","jspsych_version":"6.3.1","browser_interactions":0,"missing":false},{"state_1_ids":[0,1],"state_1_key":1,"state_1_choice":1,"state_1_rt":942.1999999880791,"transition":0,"state":0,"state_2_ids":[0,1],"state_2_key":1,"state_2_choice":1,"state_2_rt":777.3999999761581,"outcome":1,"rocket_colors":["#486ea7","#a75248"],"planet_colors":["#706081","#5b7c65"],"screen_resolution":[1680,1050],"minimum_resolution":1,"trial":64,"drifts":[0.354,0.493,0.612,0.332],"drift_ix":1,"trial_type":"two-step-trial","trial_index":95,"time_elapsed":815099,"internal_node_id":"0.0-77.0-0.0","task_version":"1.0","jspsych_version":"6.3.1","browser_interactions":0,"missing":false},{"state_1_ids":[0,1],"state_1_key":1,"state_1_choice":1,"state_1_rt":583.4000000059605,"transition":1,"state":1,"state_2_ids":[2,3],"state_2_key":1,"state_2_choice":3,"state_2_rt":945.0999999940395,"outcome":0,"rocket_colors":["#486ea7","#a75248"],"planet_colors":["#706081","#5b7c65"],"screen_resolution":[1680,1050],"minimum_resolution":1,"trial":65,"drifts":[0.379,0.495,0.568,0.327],"drift_ix":1,"trial_type":"two-step-trial","trial_index":96,"time_elapsed":818634,"internal_node_id":"0.0-78.0-0.0","task_version":"1.0","jspsych_version":"6.3.1","browser_interactions":0,"missing":false},{"state_1_ids":[0,1],"state_1_key":0,"state_1_choice":0,"state_1_rt":1056.2999999821186,"transition":0,"state":1,"state_2_ids":[2,3],"state_2_key":0,"state_2_choice":2,"state_2_rt":682.2999999821186,"outcome":0,"rocket_colors":["#486ea7","#a75248"],"planet_colors":["#706081","#5b7c65"],"screen_resolution":[1680,1050],"minimum_resolution":1,"trial":66,"drifts":[0.383,0.497,0.601,0.305],"drift_ix":1,"trial_type":"two-step-trial","trial_index":97,"time_elapsed":822378,"internal_node_id":"0.0-79.0-0.0","task_version":"1.0","jspsych_version":"6.3.1","browser_interactions":0,"missing":false},{"state_1_ids":[1,0],"state_1_key":1,"state_1_choice":0,"state_1_rt":887.8000000119209,"transition":0,"state":1,"state_2_ids":[2,3],"state_2_key":1,"state_2_choice":3,"state_2_rt":602.0999999940395,"outcome":0,"rocket_colors":["#486ea7","#a75248"],"planet_colors":["#706081","#5b7c65"],"screen_resolution":[1680,1050],"minimum_resolution":1,"trial":67,"drifts":[0.425,0.523,0.539,0.345],"drift_ix":1,"trial_type":"two-step-trial","trial_index":98,"time_elapsed":825872,"internal_node_id":"0.0-80.0-0.0","task_version":"1.0","jspsych_version":"6.3.1","browser_interactions":0,"missing":false},{"state_1_ids":[1,0],"state_1_key":1,"state_1_choice":0,"state_1_rt":786.1999999880791,"transition":1,"state":0,"state_2_ids":[0,1],"state_2_key":1,"state_2_choice":1,"state_2_rt":745.2999999821186,"outcome":0,"rocket_colors":["#486ea7","#a75248"],"planet_colors":["#706081","#5b7c65"],"screen_resolution":[1680,1050],"minimum_resolution":1,"trial":68,"drifts":[0.432,0.482,0.523,0.353],"drift_ix":1,"trial_type":"two-step-trial","trial_index":99,"time_elapsed":829408,"internal_node_id":"0.0-81.0-0.0","task_version":"1.0","jspsych_version":"6.3.1","browser_interactions":0,"missing":false},{"state_1_ids":[0,1],"state_1_key":1,"state_1_choice":1,"state_1_rt":1297.5999999940395,"transition":0,"state":0,"state_2_ids":[0,1],"state_2_key":1,"state_2_choice":1,"state_2_rt":616.7000000178814,"outcome":1,"rocket_colors":["#486ea7","#a75248"],"planet_colors":["#706081","#5b7c65"],"screen_resolution":[1680,1050],"minimum_resolution":1,"trial":69,"drifts":[0.457,0.505,0.515,0.343],"drift_ix":1,"trial_type":"two-step-trial","trial_index":100,"time_elapsed":833331,"internal_node_id":"0.0-82.0-0.0","task_version":"1.0","jspsych_version":"6.3.1","browser_interactions":0,"missing":false},{"state_1_ids":[1,0],"state_1_key":1,"state_1_choice":0,"state_1_rt":798.7000000178814,"transition":1,"state":0,"state_2_ids":[0,1],"state_2_key":1,"state_2_choice":1,"state_2_rt":1631.5,"outcome":1,"rocket_colors":["#486ea7","#a75248"],"planet_colors":["#706081","#5b7c65"],"screen_resolution":[1680,1050],"minimum_resolution":1,"trial":70,"drifts":[0.451,0.526,0.491,0.303],"drift_ix":1,"trial_type":"two-step-trial","trial_index":101,"time_elapsed":837767,"internal_node_id":"0.0-83.0-0.0","task_version":"1.0","jspsych_version":"6.3.1","browser_interactions":0,"missing":false},{"state_1_ids":[0,1],"state_1_key":0,"state_1_choice":0,"state_1_rt":643.2000000178814,"transition":1,"state":0,"state_2_ids":[0,1],"state_2_key":1,"state_2_choice":1,"state_2_rt":781.9000000059605,"outcome":0,"rocket_colors":["#486ea7","#a75248"],"planet_colors":["#706081","#5b7c65"],"screen_resolution":[1680,1050],"minimum_resolution":1,"trial":71,"drifts":[0.425,0.552,0.478,0.262],"drift_ix":1,"trial_type":"two-step-trial","trial_index":102,"time_elapsed":841197,"internal_node_id":"0.0-84.0-0.0","task_version":"1.0","jspsych_version":"6.3.1","browser_interactions":0,"missing":false},{"state_1_ids":[1,0],"state_1_key":0,"state_1_choice":1,"state_1_rt":732.5,"transition":1,"state":1,"state_2_ids":[2,3],"state_2_key":1,"state_2_choice":3,"state_2_rt":734.1999999880791,"outcome":0,"rocket_colors":["#486ea7","#a75248"],"planet_colors":["#706081","#5b7c65"],"screen_resolution":[1680,1050],"minimum_resolution":1,"trial":72,"drifts":[0.434,0.518,0.459,0.266],"drift_ix":1,"trial_type":"two-step-trial","trial_index":103,"time_elapsed":844673,"internal_node_id":"0.0-85.0-0.0","task_version":"1.0","jspsych_version":"6.3.1","browser_interactions":0,"missing":false},{"state_1_ids":[0,1],"state_1_key":0,"state_1_choice":0,"state_1_rt":1032.0999999940395,"transition":1,"state":0,"state_2_ids":[0,1],"state_2_key":1,"state_2_choice":1,"state_2_rt":789.9000000059605,"outcome":1,"rocket_colors":["#486ea7","#a75248"],"planet_colors":["#706081","#5b7c65"],"screen_resolution":[1680,1050],"minimum_resolution":1,"trial":73,"drifts":[0.434,0.507,0.435,0.282],"drift_ix":1,"trial_type":"two-step-trial","trial_index":104,"time_elapsed":848502,"internal_node_id":"0.0-86.0-0.0","task_version":"1.0","jspsych_version":"6.3.1","browser_interactions":0,"missing":false},{"state_1_ids":[1,0],"state_1_key":1,"state_1_choice":0,"state_1_rt":1190.4000000059605,"transition":1,"state":0,"state_2_ids":[0,1],"state_2_key":1,"state_2_choice":1,"state_2_rt":810.5999999940395,"outcome":1,"rocket_colors":["#486ea7","#a75248"],"planet_colors":["#706081","#5b7c65"],"screen_resolution":[1680,1050],"minimum_resolution":1,"trial":74,"drifts":[0.474,0.468,0.425,0.256],"drift_ix":1,"trial_type":"two-step-trial","trial_index":105,"time_elapsed":852511,"internal_node_id":"0.0-87.0-0.0","task_version":"1.0","jspsych_version":"6.3.1","browser_interactions":0,"missing":false},{"state_1_ids":[1,0],"state_1_key":1,"state_1_choice":0,"state_1_rt":829.5999999940395,"transition":1,"state":0,"state_2_ids":[0,1],"state_2_key":1,"state_2_choice":1,"state_2_rt":736.5999999940395,"outcome":0,"rocket_colors":["#486ea7","#a75248"],"planet_colors":["#706081","#5b7c65"],"screen_resolution":[1680,1050],"minimum_resolution":1,"trial":75,"drifts":[0.46,0.495,0.398,0.253],"drift_ix":1,"trial_type":"two-step-trial","trial_index":106,"time_elapsed":856086,"internal_node_id":"0.0-88.0-0.0","task_version":"1.0","jspsych_version":"6.3.1","browser_interactions":0,"missing":false},{"state_1_ids":[1,0],"state_1_key":1,"state_1_choice":0,"state_1_rt":1206.5999999940395,"transition":1,"state":0,"state_2_ids":[0,1],"state_2_key":1,"state_2_choice":1,"state_2_rt":875,"outcome":0,"rocket_colors":["#486ea7","#a75248"],"planet_colors":["#706081","#5b7c65"],"screen_resolution":[1680,1050],"minimum_resolution":1,"trial":76,"drifts":[0.432,0.494,0.438,0.256],"drift_ix":1,"trial_type":"two-step-trial","trial_index":107,"time_elapsed":860173,"internal_node_id":"0.0-89.0-0.0","task_version":"1.0","jspsych_version":"6.3.1","browser_interactions":0,"missing":false},{"state_1_ids":[0,1],"state_1_key":1,"state_1_choice":1,"state_1_rt":1350.5999999940395,"transition":0,"state":0,"state_2_ids":[0,1],"state_2_key":0,"state_2_choice":0,"state_2_rt":740.2999999821186,"outcome":0,"rocket_colors":["#486ea7","#a75248"],"planet_colors":["#706081","#5b7c65"],"screen_resolution":[1680,1050],"minimum_resolution":1,"trial":77,"drifts":[0.461,0.493,0.446,0.27],"drift_ix":1,"trial_type":"two-step-trial","trial_index":108,"time_elapsed":864271,"internal_node_id":"0.0-90.0-0.0","task_version":"1.0","jspsych_version":"6.3.1","browser_interactions":0,"missing":false},{"state_1_ids":[0,1],"state_1_key":0,"state_1_choice":0,"state_1_rt":740.4000000059605,"transition":1,"state":0,"state_2_ids":[0,1],"state_2_key":0,"state_2_choice":0,"state_2_rt":1515.3999999761581,"outcome":1,"rocket_colors":["#486ea7","#a75248"],"planet_colors":["#706081","#5b7c65"],"screen_resolution":[1680,1050],"minimum_resolution":1,"trial":78,"drifts":[0.514,0.513,0.473,0.268],"drift_ix":1,"trial_type":"two-step-trial","trial_index":109,"time_elapsed":868532,"internal_node_id":"0.0-91.0-0.0","task_version":"1.0","jspsych_version":"6.3.1","browser_interactions":0,"missing":false},{"state_1_ids":[0,1],"state_1_key":0,"state_1_choice":0,"state_1_rt":743.4000000059605,"transition":1,"state":0,"state_2_ids":[0,1],"state_2_key":0,"state_2_choice":0,"state_2_rt":738.6999999880791,"outcome":0,"rocket_colors":["#486ea7","#a75248"],"planet_colors":["#706081","#5b7c65"],"screen_resolution":[1680,1050],"minimum_resolution":1,"trial":79,"drifts":[0.504,0.552,0.491,0.291],"drift_ix":1,"trial_type":"two-step-trial","trial_index":110,"time_elapsed":872020,"internal_node_id":"0.0-92.0-0.0","task_version":"1.0","jspsych_version":"6.3.1","browser_interactions":0,"missing":false},{"state_1_ids":[0,1],"state_1_key":0,"state_1_choice":0,"state_1_rt":855.1000000238419,"transition":1,"state":0,"state_2_ids":[0,1],"state_2_key":1,"state_2_choice":1,"state_2_rt":835.8000000119209,"outcome":0,"rocket_colors":["#486ea7","#a75248"],"planet_colors":["#706081","#5b7c65"],"screen_resolution":[1680,1050],"minimum_resolution":1,"trial":80,"drifts":[0.513,0.538,0.46,0.295],"drift_ix":1,"trial_type":"two-step-trial","trial_index":111,"time_elapsed":875718,"internal_node_id":"0.0-93.0-0.0","task_version":"1.0","jspsych_version":"6.3.1","browser_interactions":0,"missing":false},{"state_1_ids":[0,1],"state_1_key":0,"state_1_choice":0,"state_1_rt":682.0999999940395,"transition":1,"state":0,"state_2_ids":[0,1],"state_2_key":0,"state_2_choice":0,"state_2_rt":673,"outcome":1,"rocket_colors":["#486ea7","#a75248"],"planet_colors":["#706081","#5b7c65"],"screen_resolution":[1680,1050],"minimum_resolution":1,"trial":81,"drifts":[0.523,0.491,0.47,0.326],"drift_ix":1,"trial_type":"two-step-trial","trial_index":112,"time_elapsed":879079,"internal_node_id":"0.0-94.0-0.0","task_version":"1.0","jspsych_version":"6.3.1","browser_interactions":0,"missing":false},{"state_1_ids":[1,0],"state_1_key":1,"state_1_choice":0,"state_1_rt":441.09999999403954,"transition":1,"state":0,"state_2_ids":[0,1],"state_2_key":0,"state_2_choice":0,"state_2_rt":692.8999999761581,"outcome":0,"rocket_colors":["#486ea7","#a75248"],"planet_colors":["#706081","#5b7c65"],"screen_resolution":[1680,1050],"minimum_resolution":1,"trial":82,"drifts":[0.525,0.548,0.454,0.36],"drift_ix":1,"trial_type":"two-step-trial","trial_index":113,"time_elapsed":882220,"internal_node_id":"0.0-95.0-0.0","task_version":"1.0","jspsych_version":"6.3.1","browser_interactions":0,"missing":false},{"state_1_ids":[1,0],"state_1_key":0,"state_1_choice":1,"state_1_rt":671.2000000178814,"transition":1,"state":1,"state_2_ids":[2,3],"state_2_key":1,"state_2_choice":3,"state_2_rt":851.6999999880791,"outcome":0,"rocket_colors":["#486ea7","#a75248"],"planet_colors":["#706081","#5b7c65"],"screen_resolution":[1680,1050],"minimum_resolution":1,"trial":83,"drifts":[0.538,0.579,0.452,0.325],"drift_ix":1,"trial_type":"two-step-trial","trial_index":114,"time_elapsed":885749,"internal_node_id":"0.0-96.0-0.0","task_version":"1.0","jspsych_version":"6.3.1","browser_interactions":0,"missing":false},{"state_1_ids":[1,0],"state_1_key":0,"state_1_choice":1,"state_1_rt":1835.0999999940395,"transition":1,"state":1,"state_2_ids":[2,3],"state_2_key":0,"state_2_choice":2,"state_2_rt":526.3000000119209,"outcome":1,"rocket_colors":["#486ea7","#a75248"],"planet_colors":["#706081","#5b7c65"],"screen_resolution":[1680,1050],"minimum_resolution":1,"trial":84,"drifts":[0.524,0.64,0.439,0.371],"drift_ix":1,"trial_type":"two-step-trial","trial_index":115,"time_elapsed":890120,"internal_node_id":"0.0-97.0-0.0","task_version":"1.0","jspsych_version":"6.3.1","browser_interactions":0,"missing":false},{"state_1_ids":[1,0],"state_1_key":0,"state_1_choice":1,"state_1_rt":1544.5,"transition":0,"state":0,"state_2_ids":[0,1],"state_2_key":1,"state_2_choice":1,"state_2_rt":828.1999999880791,"outcome":1,"rocket_colors":["#486ea7","#a75248"],"planet_colors":["#706081","#5b7c65"],"screen_resolution":[1680,1050],"minimum_resolution":1,"trial":85,"drifts":[0.524,0.637,0.455,0.377],"drift_ix":1,"trial_type":"two-step-trial","trial_index":116,"time_elapsed":894503,"internal_node_id":"0.0-98.0-0.0","task_version":"1.0","jspsych_version":"6.3.1","browser_interactions":0,"missing":false},{"state_1_ids":[1,0],"state_1_key":0,"state_1_choice":1,"state_1_rt":873.3999999761581,"transition":1,"state":1,"state_2_ids":[2,3],"state_2_key":0,"state_2_choice":2,"state_2_rt":943.8000000119209,"outcome":0,"rocket_colors":["#486ea7","#a75248"],"planet_colors":["#706081","#5b7c65"],"screen_resolution":[1680,1050],"minimum_resolution":1,"trial":86,"drifts":[0.535,0.666,0.471,0.392],"drift_ix":1,"trial_type":"two-step-trial","trial_index":117,"time_elapsed":898328,"internal_node_id":"0.0-99.0-0.0","task_version":"1.0","jspsych_version":"6.3.1","browser_interactions":0,"missing":false},{"state_1_ids":[0,1],"state_1_key":0,"state_1_choice":0,"state_1_rt":640.1000000238419,"transition":1,"state":0,"state_2_ids":[0,1],"state_2_key":0,"state_2_choice":0,"state_2_rt":1158.5999999940395,"outcome":0,"rocket_colors":["#486ea7","#a75248"],"planet_colors":["#706081","#5b7c65"],"screen_resolution":[1680,1050],"minimum_resolution":1,"trial":87,"drifts":[0.504,0.695,0.423,0.387],"drift_ix":1,"trial_type":"two-step-trial","trial_index":118,"time_elapsed":902136,"internal_node_id":"0.0-100.0-0.0","task_version":"1.0","jspsych_version":"6.3.1","browser_interactions":0,"missing":false},{"state_1_ids":[1,0],"state_1_key":0,"state_1_choice":1,"state_1_rt":759.3999999761581,"transition":0,"state":0,"state_2_ids":[0,1],"state_2_key":1,"state_2_choice":1,"state_2_rt":1325.7000000178814,"outcome":1,"rocket_colors":["#486ea7","#a75248"],"planet_colors":["#706081","#5b7c65"],"screen_resolution":[1680,1050],"minimum_resolution":1,"trial":88,"drifts":[0.485,0.667,0.458,0.39],"drift_ix":1,"trial_type":"two-step-trial","trial_index":119,"time_elapsed":906228,"internal_node_id":"0.0-101.0-0.0","task_version":"1.0","jspsych_version":"6.3.1","browser_interactions":0,"missing":false},{"state_1_ids":[1,0],"state_1_key":1,"state_1_choice":0,"state_1_rt":638,"transition":0,"state":1,"state_2_ids":[2,3],"state_2_key":1,"state_2_choice":3,"state_2_rt":915,"outcome":0,"rocket_colors":["#486ea7","#a75248"],"planet_colors":["#706081","#5b7c65"],"screen_resolution":[1680,1050],"minimum_resolution":1,"trial":89,"drifts":[0.47,0.661,0.502,0.408],"drift_ix":1,"trial_type":"two-step-trial","trial_index":120,"time_elapsed":909787,"internal_node_id":"0.0-102.0-0.0","task_version":"1.0","jspsych_version":"6.3.1","browser_interactions":0,"missing":false},{"state_1_ids":[1,0],"state_1_key":1,"state_1_choice":0,"state_1_rt":1023.1999999880791,"transition":1,"state":0,"state_2_ids":[0,1],"state_2_key":1,"state_2_choice":1,"state_2_rt":922.8000000119209,"outcome":1,"rocket_colors":["#486ea7","#a75248"],"planet_colors":["#706081","#5b7c65"],"screen_resolution":[1680,1050],"minimum_resolution":1,"trial":90,"drifts":[0.46,0.678,0.464,0.349],"drift_ix":1,"trial_type":"two-step-trial","trial_index":121,"time_elapsed":913740,"internal_node_id":"0.0-103.0-0.0","task_version":"1.0","jspsych_version":"6.3.1","browser_interactions":0,"missing":false},{"state_1_ids":[0,1],"state_1_key":0,"state_1_choice":0,"state_1_rt":1147.8999999761581,"transition":1,"state":0,"state_2_ids":[0,1],"state_2_key":1,"state_2_choice":1,"state_2_rt":894.6999999880791,"outcome":1,"rocket_colors":["#486ea7","#a75248"],"planet_colors":["#706081","#5b7c65"],"screen_resolution":[1680,1050],"minimum_resolution":1,"trial":91,"drifts":[0.46,0.655,0.459,0.313],"drift_ix":1,"trial_type":"two-step-trial","trial_index":122,"time_elapsed":917787,"internal_node_id":"0.0-104.0-0.0","task_version":"1.0","jspsych_version":"6.3.1","browser_interactions":0,"missing":false},{"state_1_ids":[1,0],"state_1_key":1,"state_1_choice":0,"state_1_rt":2374.4000000059605,"transition":0,"state":1,"state_2_ids":[2,3],"state_2_key":0,"state_2_choice":2,"state_2_rt":684.5999999940395,"outcome":0,"rocket_colors":["#486ea7","#a75248"],"planet_colors":["#706081","#5b7c65"],"screen_resolution":[1680,1050],"minimum_resolution":1,"trial":92,"drifts":[0.459,0.663,0.496,0.332],"drift_ix":1,"trial_type":"two-step-trial","trial_index":123,"time_elapsed":922853,"internal_node_id":"0.0-105.0-0.0","task_version":"1.0","jspsych_version":"6.3.1","browser_interactions":0,"missing":false},{"state_1_ids":[0,1],"state_1_key":0,"state_1_choice":0,"state_1_rt":1060.300000011921,"transition":1,"state":0,"state_2_ids":[0,1],"state_2_key":1,"state_2_choice":1,"state_2_rt":820.1000000238419,"outcome":0,"rocket_colors":["#486ea7","#a75248"],"planet_colors":["#706081","#5b7c65"],"screen_resolution":[1680,1050],"minimum_resolution":1,"trial":93,"drifts":[0.47,0.662,0.476,0.3],"drift_ix":1,"trial_type":"two-step-trial","trial_index":124,"time_elapsed":926742,"internal_node_id":"0.0-106.0-0.0","task_version":"1.0","jspsych_version":"6.3.1","browser_interactions":0,"missing":false},{"state_1_ids":[1,0],"state_1_key":1,"state_1_choice":0,"state_1_rt":874.5999999940395,"transition":0,"state":1,"state_2_ids":[2,3],"state_2_key":0,"state_2_choice":2,"state_2_rt":660.5,"outcome":1,"rocket_colors":["#486ea7","#a75248"],"planet_colors":["#706081","#5b7c65"],"screen_resolution":[1680,1050],"minimum_resolution":1,"trial":94,"drifts":[0.495,0.666,0.452,0.265],"drift_ix":1,"trial_type":"two-step-trial","trial_index":125,"time_elapsed":930283,"internal_node_id":"0.0-107.0-0.0","task_version":"1.0","jspsych_version":"6.3.1","browser_interactions":0,"missing":false},{"state_1_ids":[1,0],"state_1_key":1,"state_1_choice":0,"state_1_rt":1890.7999999821186,"transition":0,"state":1,"state_2_ids":[2,3],"state_2_key":0,"state_2_choice":2,"state_2_rt":439.30000001192093,"outcome":0,"rocket_colors":["#486ea7","#a75248"],"planet_colors":["#706081","#5b7c65"],"screen_resolution":[1680,1050],"minimum_resolution":1,"trial":95,"drifts":[0.524,0.697,0.448,0.345],"drift_ix":1,"trial_type":"two-step-trial","trial_index":126,"time_elapsed":934619,"internal_node_id":"0.0-108.0-0.0","task_version":"1.0","jspsych_version":"6.3.1","browser_interactions":0,"missing":false},{"state_1_ids":[1,0],"state_1_key":1,"state_1_choice":0,"state_1_rt":3474.5,"transition":1,"state":0,"state_2_ids":[0,1],"state_2_key":1,"state_2_choice":1,"state_2_rt":913,"outcome":0,"rocket_colors":["#486ea7","#a75248"],"planet_colors":["#706081","#5b7c65"],"screen_resolution":[1680,1050],"minimum_resolution":1,"trial":96,"drifts":[0.524,0.681,0.435,0.338],"drift_ix":1,"trial_type":"two-step-trial","trial_index":127,"time_elapsed":941016,"internal_node_id":"0.0-109.0-0.0","task_version":"1.0","jspsych_version":"6.3.1","browser_interactions":0,"missing":false},{"state_1_ids":[1,0],"state_1_key":1,"state_1_choice":0,"state_1_rt":1414.300000011921,"transition":1,"state":0,"state_2_ids":[0,1],"state_2_key":0,"state_2_choice":0,"state_2_rt":747.6999999880791,"outcome":1,"rocket_colors":["#486ea7","#a75248"],"planet_colors":["#706081","#5b7c65"],"screen_resolution":[1680,1050],"minimum_resolution":1,"trial":97,"drifts":[0.542,0.675,0.441,0.363],"drift_ix":1,"trial_type":"two-step-trial","trial_index":128,"time_elapsed":945190,"internal_node_id":"0.0-110.0-0.0","task_version":"1.0","jspsych_version":"6.3.1","browser_interactions":0,"missing":false},{"state_1_ids":[1,0],"state_1_key":1,"state_1_choice":0,"state_1_rt":776.1999999880791,"transition":1,"state":0,"state_2_ids":[0,1],"state_2_key":0,"state_2_choice":0,"state_2_rt":678.5999999940395,"outcome":1,"rocket_colors":["#486ea7","#a75248"],"planet_colors":["#706081","#5b7c65"],"screen_resolution":[1680,1050],"minimum_resolution":1,"trial":98,"drifts":[0.542,0.7,0.418,0.358],"drift_ix":1,"trial_type":"two-step-trial","trial_index":129,"time_elapsed":948650,"internal_node_id":"0.0-111.0-0.0","task_version":"1.0","jspsych_version":"6.3.1","browser_interactions":0,"missing":false},{"state_1_ids":[0,1],"state_1_key":0,"state_1_choice":0,"state_1_rt":2151.5,"transition":0,"state":1,"state_2_ids":[2,3],"state_2_key":0,"state_2_choice":2,"state_2_rt":545.9000000059605,"outcome":1,"rocket_colors":["#486ea7","#a75248"],"planet_colors":["#706081","#5b7c65"],"screen_resolution":[1680,1050],"minimum_resolution":1,"trial":99,"drifts":[0.586,0.735,0.41,0.338],"drift_ix":1,"trial_type":"two-step-trial","trial_index":130,"time_elapsed":953357,"internal_node_id":"0.0-112.0-0.0","task_version":"1.0","jspsych_version":"6.3.1","browser_interactions":0,"missing":false},{"state_1_ids":[0,1],"state_1_key":0,"state_1_choice":0,"state_1_rt":827,"transition":0,"state":1,"state_2_ids":[2,3],"state_2_key":0,"state_2_choice":2,"state_2_rt":771,"outcome":1,"rocket_colors":["#486ea7","#a75248"],"planet_colors":["#706081","#5b7c65"],"screen_resolution":[1680,1050],"minimum_resolution":1,"trial":100,"drifts":[0.591,0.693,0.426,0.36],"drift_ix":1,"trial_type":"two-step-trial","trial_index":131,"time_elapsed":956963,"internal_node_id":"0.0-113.0-0.0","task_version":"1.0","jspsych_version":"6.3.1","browser_interactions":0,"missing":false},{"view_history":"[{\"page_index\":0,\"viewing_time\":225581.29999998212},{\"page_index\":1,\"viewing_time\":1215.6000000238419}]","rt":226797.40000000596,"trial_type":"two-step-instructions","trial_index":132,"time_elapsed":1183754,"internal_node_id":"0.0-114.0","task_version":"1.0","jspsych_version":"6.3.1"},{"state_1_ids":[1,0],"state_1_key":1,"state_1_choice":0,"state_1_rt":1316.300000011921,"transition":1,"state":0,"state_2_ids":[0,1],"state_2_key":1,"state_2_choice":1,"state_2_rt":758.5999999940395,"outcome":1,"rocket_colors":["#486ea7","#a75248"],"planet_colors":["#706081","#5b7c65"],"screen_resolution":[1680,1050],"minimum_resolution":1,"trial":101,"drifts":[0.639,0.722,0.416,0.356],"drift_ix":1,"trial_type":"two-step-trial","trial_index":133,"time_elapsed":1187842,"internal_node_id":"0.0-115.0-0.0","task_version":"1.0","jspsych_version":"6.3.1","browser_interactions":0,"missing":false},{"state_1_ids":[1,0],"state_1_key":0,"state_1_choice":1,"state_1_rt":1062.5,"transition":1,"state":1,"state_2_ids":[2,3],"state_2_key":0,"state_2_choice":2,"state_2_rt":830.3000000119209,"outcome":1,"rocket_colors":["#486ea7","#a75248"],"planet_colors":["#706081","#5b7c65"],"screen_resolution":[1680,1050],"minimum_resolution":1,"trial":102,"drifts":[0.661,0.749,0.353,0.384],"drift_ix":1,"trial_type":"two-step-trial","trial_index":134,"time_elapsed":1191743,"internal_node_id":"0.0-116.0-0.0","task_version":"1.0","jspsych_version":"6.3.1","browser_interactions":0,"missing":false},{"state_1_ids":[0,1],"state_1_key":0,"state_1_choice":0,"state_1_rt":833.5,"transition":1,"state":0,"state_2_ids":[0,1],"state_2_key":1,"state_2_choice":1,"state_2_rt":830,"outcome":0,"rocket_colors":["#486ea7","#a75248"],"planet_colors":["#706081","#5b7c65"],"screen_resolution":[1680,1050],"minimum_resolution":1,"trial":103,"drifts":[0.659,0.729,0.293,0.396],"drift_ix":1,"trial_type":"two-step-trial","trial_index":135,"time_elapsed":1195411,"internal_node_id":"0.0-117.0-0.0","task_version":"1.0","jspsych_version":"6.3.1","browser_interactions":0,"missing":false},{"state_1_ids":[1,0],"state_1_key":0,"state_1_choice":1,"state_1_rt":948.9000000059605,"transition":0,"state":0,"state_2_ids":[0,1],"state_2_key":1,"state_2_choice":1,"state_2_rt":749.2000000178814,"outcome":1,"rocket_colors":["#486ea7","#a75248"],"planet_colors":["#706081","#5b7c65"],"screen_resolution":[1680,1050],"minimum_resolution":1,"trial":104,"drifts":[0.615,0.721,0.288,0.378],"drift_ix":1,"trial_type":"two-step-trial","trial_index":136,"time_elapsed":1199119,"internal_node_id":"0.0-118.0-0.0","task_version":"1.0","jspsych_version":"6.3.1","browser_interactions":0,"missing":false},{"state_1_ids":[1,0],"state_1_key":1,"state_1_choice":0,"state_1_rt":835.1999999880791,"transition":1,"state":0,"state_2_ids":[0,1],"state_2_key":1,"state_2_choice":1,"state_2_rt":771.9000000059605,"outcome":1,"rocket_colors":["#486ea7","#a75248"],"planet_colors":["#706081","#5b7c65"],"screen_resolution":[1680,1050],"minimum_resolution":1,"trial":105,"drifts":[0.562,0.742,0.297,0.343],"drift_ix":1,"trial_type":"two-step-trial","trial_index":137,"time_elapsed":1202731,"internal_node_id":"0.0-119.0-0.0","task_version":"1.0","jspsych_version":"6.3.1","browser_interactions":0,"missing":false},{"state_1_ids":[0,1],"state_1_key":0,"state_1_choice":0,"state_1_rt":596.5,"transition":1,"state":0,"state_2_ids":[0,1],"state_2_key":1,"state_2_choice":1,"state_2_rt":679,"outcome":1,"rocket_colors":["#486ea7","#a75248"],"planet_colors":["#706081","#5b7c65"],"screen_resolution":[1680,1050],"minimum_resolution":1,"trial":106,"drifts":[0.532,0.742,0.25,0.332],"drift_ix":1,"trial_type":"two-step-trial","trial_index":138,"time_elapsed":1206013,"internal_node_id":"0.0-120.0-0.0","task_version":"1.0","jspsych_version":"6.3.1","browser_interactions":0,"missing":false},{"state_1_ids":[1,0],"state_1_key":0,"state_1_choice":1,"state_1_rt":850.5999999940395,"transition":1,"state":1,"state_2_ids":[2,3],"state_2_key":0,"state_2_choice":2,"state_2_rt":1686.2000000178814,"outcome":0,"rocket_colors":["#486ea7","#a75248"],"planet_colors":["#706081","#5b7c65"],"screen_resolution":[1680,1050],"minimum_resolution":1,"trial":107,"drifts":[0.531,0.742,0.255,0.33],"drift_ix":1,"trial_type":"two-step-trial","trial_index":139,"time_elapsed":1210557,"internal_node_id":"0.0-121.0-0.0","task_version":"1.0","jspsych_version":"6.3.1","browser_interactions":0,"missing":false},{"state_1_ids":[1,0],"state_1_key":1,"state_1_choice":0,"state_1_rt":866.4000000059605,"transition":1,"state":0,"state_2_ids":[0,1],"state_2_key":1,"state_2_choice":1,"state_2_rt":2208.4000000059605,"outcome":1,"rocket_colors":["#486ea7","#a75248"],"planet_colors":["#706081","#5b7c65"],"screen_resolution":[1680,1050],"minimum_resolution":1,"trial":108,"drifts":[0.576,0.733,0.281,0.338],"drift_ix":1,"trial_type":"two-step-trial","trial_index":140,"time_elapsed":1215642,"internal_node_id":"0.0-122.0-0.0","task_version":"1.0","jspsych_version":"6.3.1","browser_interactions":0,"missing":false},{"state_1_ids":[0,1],"state_1_key":1,"state_1_choice":1,"state_1_rt":3756.800000011921,"transition":1,"state":1,"state_2_ids":[2,3],"state_2_key":1,"state_2_choice":3,"state_2_rt":840.2000000178814,"outcome":0,"rocket_colors":["#486ea7","#a75248"],"planet_colors":["#706081","#5b7c65"],"screen_resolution":[1680,1050],"minimum_resolution":1,"trial":109,"drifts":[0.593,0.74,0.277,0.333],"drift_ix":1,"trial_type":"two-step-trial","trial_index":141,"time_elapsed":1222247,"internal_node_id":"0.0-123.0-0.0","task_version":"1.0","jspsych_version":"6.3.1","browser_interactions":0,"missing":false},{"state_1_ids":[0,1],"state_1_key":1,"state_1_choice":1,"state_1_rt":631.5,"transition":0,"state":0,"state_2_ids":[0,1],"state_2_key":1,"state_2_choice":1,"state_2_rt":670.9000000059605,"outcome":1,"rocket_colors":["#486ea7","#a75248"],"planet_colors":["#706081","#5b7c65"],"screen_resolution":[1680,1050],"minimum_resolution":1,"trial":110,"drifts":[0.57,0.735,0.318,0.349],"drift_ix":1,"trial_type":"two-step-trial","trial_index":142,"time_elapsed":1225561,"internal_node_id":"0.0-124.0-0.0","task_version":"1.0","jspsych_version":"6.3.1","browser_interactions":0,"missing":false},{"state_1_ids":[0,1],"state_1_key":1,"state_1_choice":1,"state_1_rt":1029.800000011921,"transition":0,"state":0,"state_2_ids":[0,1],"state_2_key":1,"state_2_choice":1,"state_2_rt":4238.9000000059605,"outcome":1,"rocket_colors":["#486ea7","#a75248"],"planet_colors":["#706081","#5b7c65"],"screen_resolution":[1680,1050],"minimum_resolution":1,"trial":111,"drifts":[0.566,0.726,0.306,0.333],"drift_ix":1,"trial_type":"two-step-trial","trial_index":143,"time_elapsed":1232836,"internal_node_id":"0.0-125.0-0.0","task_version":"1.0","jspsych_version":"6.3.1","browser_interactions":0,"missing":false},{"state_1_ids":[0,1],"state_1_key":1,"state_1_choice":1,"state_1_rt":1209.7999999821186,"transition":0,"state":0,"state_2_ids":[0,1],"state_2_key":1,"state_2_choice":1,"state_2_rt":1617.2999999821186,"outcome":1,"rocket_colors":["#486ea7","#a75248"],"planet_colors":["#706081","#5b7c65"],"screen_resolution":[1680,1050],"minimum_resolution":1,"trial":112,"drifts":[0.552,0.734,0.35,0.354],"drift_ix":1,"trial_type":"two-step-trial","trial_index":144,"time_elapsed":1237670,"internal_node_id":"0.0-126.0-0.0","task_version":"1.0","jspsych_version":"6.3.1","browser_interactions":0,"missing":false},{"state_1_ids":[1,0],"state_1_key":1,"state_1_choice":0,"state_1_rt":1224.4000000059605,"transition":1,"state":0,"state_2_ids":[0,1],"state_2_key":1,"state_2_choice":1,"state_2_rt":653.8999999761581,"outcome":1,"rocket_colors":["#486ea7","#a75248"],"planet_colors":["#706081","#5b7c65"],"screen_resolution":[1680,1050],"minimum_resolution":1,"trial":113,"drifts":[0.503,0.684,0.352,0.329],"drift_ix":1,"trial_type":"two-step-trial","trial_index":145,"time_elapsed":1241559,"internal_node_id":"0.0-127.0-0.0","task_version":"1.0","jspsych_version":"6.3.1","browser_interactions":0,"missing":false},{"state_1_ids":[0,1],"state_1_key":0,"state_1_choice":0,"state_1_rt":927.1999999880791,"transition":1,"state":0,"state_2_ids":[0,1],"state_2_key":1,"state_2_choice":1,"state_2_rt":679,"outcome":1,"rocket_colors":["#486ea7","#a75248"],"planet_colors":["#706081","#5b7c65"],"screen_resolution":[1680,1050],"minimum_resolution":1,"trial":114,"drifts":[0.517,0.664,0.374,0.314],"drift_ix":1,"trial_type":"two-step-trial","trial_index":146,"time_elapsed":1245170,"internal_node_id":"0.0-128.0-0.0","task_version":"1.0","jspsych_version":"6.3.1","browser_interactions":0,"missing":false},{"state_1_ids":[0,1],"state_1_key":0,"state_1_choice":0,"state_1_rt":635.6999999880791,"transition":1,"state":0,"state_2_ids":[0,1],"state_2_key":1,"state_2_choice":1,"state_2_rt":564.8999999761581,"outcome":0,"rocket_colors":["#486ea7","#a75248"],"planet_colors":["#706081","#5b7c65"],"screen_resolution":[1680,1050],"minimum_resolution":1,"trial":115,"drifts":[0.505,0.635,0.405,0.281],"drift_ix":1,"trial_type":"two-step-trial","trial_index":147,"time_elapsed":1248380,"internal_node_id":"0.0-129.0-0.0","task_version":"1.0","jspsych_version":"6.3.1","browser_interactions":0,"missing":false},{"state_1_ids":[1,0],"state_1_key":0,"state_1_choice":1,"state_1_rt":729.8000000119209,"transition":1,"state":1,"state_2_ids":[2,3],"state_2_key":1,"state_2_choice":3,"state_2_rt":797.2000000178814,"outcome":1,"rocket_colors":["#486ea7","#a75248"],"planet_colors":["#706081","#5b7c65"],"screen_resolution":[1680,1050],"minimum_resolution":1,"trial":116,"drifts":[0.506,0.651,0.43,0.328],"drift_ix":1,"trial_type":"two-step-trial","trial_index":148,"time_elapsed":1251915,"internal_node_id":"0.0-130.0-0.0","task_version":"1.0","jspsych_version":"6.3.1","browser_interactions":0,"missing":false},{"state_1_ids":[1,0],"state_1_key":1,"state_1_choice":0,"state_1_rt":677.0999999940395,"transition":0,"state":1,"state_2_ids":[2,3],"state_2_key":1,"state_2_choice":3,"state_2_rt":714,"outcome":0,"rocket_colors":["#486ea7","#a75248"],"planet_colors":["#706081","#5b7c65"],"screen_resolution":[1680,1050],"minimum_resolution":1,"trial":117,"drifts":[0.524,0.623,0.426,0.298],"drift_ix":1,"trial_type":"two-step-trial","trial_index":149,"time_elapsed":1255317,"internal_node_id":"0.0-131.0-0.0","task_version":"1.0","jspsych_version":"6.3.1","browser_interactions":0,"missing":false},{"state_1_ids":[1,0],"state_1_key":1,"state_1_choice":0,"state_1_rt":659.8000000119209,"transition":0,"state":1,"state_2_ids":[2,3],"state_2_key":1,"state_2_choice":3,"state_2_rt":618.5,"outcome":0,"rocket_colors":["#486ea7","#a75248"],"planet_colors":["#706081","#5b7c65"],"screen_resolution":[1680,1050],"minimum_resolution":1,"trial":118,"drifts":[0.512,0.652,0.411,0.294],"drift_ix":1,"trial_type":"two-step-trial","trial_index":150,"time_elapsed":1258602,"internal_node_id":"0.0-132.0-0.0","task_version":"1.0","jspsych_version":"6.3.1","browser_interactions":0,"missing":false},{"state_1_ids":[1,0],"state_1_key":0,"state_1_choice":1,"state_1_rt":915,"transition":1,"state":1,"state_2_ids":[2,3],"state_2_key":0,"state_2_choice":2,"state_2_rt":607.6999999880791,"outcome":0,"rocket_colors":["#486ea7","#a75248"],"planet_colors":["#706081","#5b7c65"],"screen_resolution":[1680,1050],"minimum_resolution":1,"trial":119,"drifts":[0.502,0.652,0.413,0.344],"drift_ix":1,"trial_type":"two-step-trial","trial_index":151,"time_elapsed":1262131,"internal_node_id":"0.0-133.0-0.0","task_version":"1.0","jspsych_version":"6.3.1","browser_interactions":0,"missing":false},{"state_1_ids":[0,1],"state_1_key":0,"state_1_choice":0,"state_1_rt":585.9000000059605,"transition":1,"state":0,"state_2_ids":[0,1],"state_2_key":1,"state_2_choice":1,"state_2_rt":718.9000000059605,"outcome":0,"rocket_colors":["#486ea7","#a75248"],"planet_colors":["#706081","#5b7c65"],"screen_resolution":[1680,1050],"minimum_resolution":1,"trial":120,"drifts":[0.482,0.631,0.394,0.33],"drift_ix":1,"trial_type":"two-step-trial","trial_index":152,"time_elapsed":1265440,"internal_node_id":"0.0-134.0-0.0","task_version":"1.0","jspsych_version":"6.3.1","browser_interactions":0,"missing":false},{"state_1_ids":[1,0],"state_1_key":1,"state_1_choice":0,"state_1_rt":439.19999998807907,"transition":0,"state":1,"state_2_ids":[2,3],"state_2_key":1,"state_2_choice":3,"state_2_rt":676.2999999821186,"outcome":1,"rocket_colors":["#486ea7","#a75248"],"planet_colors":["#706081","#5b7c65"],"screen_resolution":[1680,1050],"minimum_resolution":1,"trial":121,"drifts":[0.447,0.633,0.361,0.325],"drift_ix":1,"trial_type":"two-step-trial","trial_index":153,"time_elapsed":1268563,"internal_node_id":"0.0-135.0-0.0","task_version":"1.0","jspsych_version":"6.3.1","browser_interactions":0,"missing":false},{"state_1_ids":[0,1],"state_1_key":0,"state_1_choice":0,"state_1_rt":729.7000000178814,"transition":1,"state":0,"state_2_ids":[0,1],"state_2_key":1,"state_2_choice":1,"state_2_rt":551.0999999940395,"outcome":0,"rocket_colors":["#486ea7","#a75248"],"planet_colors":["#706081","#5b7c65"],"screen_resolution":[1680,1050],"minimum_resolution":1,"trial":122,"drifts":[0.451,0.597,0.354,0.284],"drift_ix":1,"trial_type":"two-step-trial","trial_index":154,"time_elapsed":1271849,"internal_node_id":"0.0-136.0-0.0","task_version":"1.0","jspsych_version":"6.3.1","browser_interactions":0,"missing":false},{"state_1_ids":[0,1],"state_1_key":1,"state_1_choice":1,"state_1_rt":630.6999999880791,"transition":0,"state":0,"state_2_ids":[0,1],"state_2_key":0,"state_2_choice":0,"state_2_rt":612.5,"outcome":1,"rocket_colors":["#486ea7","#a75248"],"planet_colors":["#706081","#5b7c65"],"screen_resolution":[1680,1050],"minimum_resolution":1,"trial":123,"drifts":[0.511,0.55,0.353,0.29],"drift_ix":1,"trial_type":"two-step-trial","trial_index":155,"time_elapsed":1275099,"internal_node_id":"0.0-137.0-0.0","task_version":"1.0","jspsych_version":"6.3.1","browser_interactions":0,"missing":false},{"state_1_ids":[0,1],"state_1_key":1,"state_1_choice":1,"state_1_rt":689.2000000178814,"transition":1,"state":1,"state_2_ids":[2,3],"state_2_key":1,"state_2_choice":3,"state_2_rt":873.7999999821186,"outcome":0,"rocket_colors":["#486ea7","#a75248"],"planet_colors":["#706081","#5b7c65"],"screen_resolution":[1680,1050],"minimum_resolution":1,"trial":124,"drifts":[0.523,0.509,0.361,0.326],"drift_ix":1,"trial_type":"two-step-trial","trial_index":156,"time_elapsed":1278669,"internal_node_id":"0.0-138.0-0.0","task_version":"1.0","jspsych_version":"6.3.1","browser_interactions":0,"missing":false},{"state_1_ids":[1,0],"state_1_key":0,"state_1_choice":1,"state_1_rt":487.2999999821186,"transition":1,"state":1,"state_2_ids":[2,3],"state_2_key":0,"state_2_choice":2,"state_2_rt":976.1999999880791,"outcome":0,"rocket_colors":["#486ea7","#a75248"],"planet_colors":["#706081","#5b7c65"],"screen_resolution":[1680,1050],"minimum_resolution":1,"trial":125,"drifts":[0.519,0.49,0.295,0.344],"drift_ix":1,"trial_type":"two-step-trial","trial_index":157,"time_elapsed":1282141,"internal_node_id":"0.0-139.0-0.0","task_version":"1.0","jspsych_version":"6.3.1","browser_interactions":0,"missing":false},{"state_1_ids":[0,1],"state_1_key":0,"state_1_choice":0,"state_1_rt":815.3000000119209,"transition":1,"state":0,"state_2_ids":[0,1],"state_2_key":0,"state_2_choice":0,"state_2_rt":1304.199999988079,"outcome":0,"rocket_colors":["#486ea7","#a75248"],"planet_colors":["#706081","#5b7c65"],"screen_resolution":[1680,1050],"minimum_resolution":1,"trial":126,"drifts":[0.525,0.444,0.287,0.34],"drift_ix":1,"trial_type":"two-step-trial","trial_index":158,"time_elapsed":1286268,"internal_node_id":"0.0-140.0-0.0","task_version":"1.0","jspsych_version":"6.3.1","browser_interactions":0,"missing":false},{"state_1_ids":[1,0],"state_1_key":0,"state_1_choice":1,"state_1_rt":696.0999999940395,"transition":1,"state":1,"state_2_ids":[2,3],"state_2_key":1,"state_2_choice":3,"state_2_rt":879.0999999940395,"outcome":0,"rocket_colors":["#486ea7","#a75248"],"planet_colors":["#706081","#5b7c65"],"screen_resolution":[1680,1050],"minimum_resolution":1,"trial":127,"drifts":[0.473,0.463,0.278,0.293],"drift_ix":1,"trial_type":"two-step-trial","trial_index":159,"time_elapsed":1289849,"internal_node_id":"0.0-141.0-0.0","task_version":"1.0","jspsych_version":"6.3.1","browser_interactions":0,"missing":false},{"state_1_ids":[0,1],"state_1_key":1,"state_1_choice":1,"state_1_rt":724.9000000059605,"transition":1,"state":1,"state_2_ids":[2,3],"state_2_key":1,"state_2_choice":3,"state_2_rt":1060.4000000059605,"outcome":1,"rocket_colors":["#486ea7","#a75248"],"planet_colors":["#706081","#5b7c65"],"screen_resolution":[1680,1050],"minimum_resolution":1,"trial":128,"drifts":[0.496,0.47,0.277,0.271],"drift_ix":1,"trial_type":"two-step-trial","trial_index":160,"time_elapsed":1293640,"internal_node_id":"0.0-142.0-0.0","task_version":"1.0","jspsych_version":"6.3.1","browser_interactions":0,"missing":false},{"state_1_ids":[1,0],"state_1_key":1,"state_1_choice":0,"state_1_rt":462.59999999403954,"transition":1,"state":0,"state_2_ids":[0,1],"state_2_key":1,"state_2_choice":1,"state_2_rt":739.6999999880791,"outcome":1,"rocket_colors":["#486ea7","#a75248"],"planet_colors":["#706081","#5b7c65"],"screen_resolution":[1680,1050],"minimum_resolution":1,"trial":129,"drifts":[0.477,0.48,0.264,0.281],"drift_ix":1,"trial_type":"two-step-trial","trial_index":161,"time_elapsed":1296850,"internal_node_id":"0.0-143.0-0.0","task_version":"1.0","jspsych_version":"6.3.1","browser_interactions":0,"missing":false},{"state_1_ids":[0,1],"state_1_key":1,"state_1_choice":1,"state_1_rt":540.7999999821186,"transition":0,"state":0,"state_2_ids":[0,1],"state_2_key":1,"state_2_choice":1,"state_2_rt":553.3000000119209,"outcome":1,"rocket_colors":["#486ea7","#a75248"],"planet_colors":["#706081","#5b7c65"],"screen_resolution":[1680,1050],"minimum_resolution":1,"trial":130,"drifts":[0.494,0.486,0.258,0.258],"drift_ix":1,"trial_type":"two-step-trial","trial_index":162,"time_elapsed":1299955,"internal_node_id":"0.0-144.0-0.0","task_version":"1.0","jspsych_version":"6.3.1","browser_interactions":0,"missing":false},{"state_1_ids":[0,1],"state_1_key":0,"state_1_choice":0,"state_1_rt":552.3000000119209,"transition":1,"state":0,"state_2_ids":[0,1],"state_2_key":1,"state_2_choice":1,"state_2_rt":645.7999999821186,"outcome":0,"rocket_colors":["#486ea7","#a75248"],"planet_colors":["#706081","#5b7c65"],"screen_resolution":[1680,1050],"minimum_resolution":1,"trial":131,"drifts":[0.493,0.471,0.325,0.274],"drift_ix":1,"trial_type":"two-step-trial","trial_index":163,"time_elapsed":1303160,"internal_node_id":"0.0-145.0-0.0","task_version":"1.0","jspsych_version":"6.3.1","browser_interactions":0,"missing":false},{"state_1_ids":[0,1],"state_1_key":1,"state_1_choice":1,"state_1_rt":534.7000000178814,"transition":1,"state":1,"state_2_ids":[2,3],"state_2_key":0,"state_2_choice":2,"state_2_rt":787.8999999761581,"outcome":0,"rocket_colors":["#486ea7","#a75248"],"planet_colors":["#706081","#5b7c65"],"screen_resolution":[1680,1050],"minimum_resolution":1,"trial":132,"drifts":[0.495,0.414,0.29,0.261],"drift_ix":1,"trial_type":"two-step-trial","trial_index":164,"time_elapsed":1306492,"internal_node_id":"0.0-146.0-0.0","task_version":"1.0","jspsych_version":"6.3.1","browser_interactions":0,"missing":false},{"state_1_ids":[1,0],"state_1_key":1,"state_1_choice":0,"state_1_rt":624.0999999940395,"transition":1,"state":0,"state_2_ids":[0,1],"state_2_key":0,"state_2_choice":0,"state_2_rt":1253.5,"outcome":1,"rocket_colors":["#486ea7","#a75248"],"planet_colors":["#706081","#5b7c65"],"screen_resolution":[1680,1050],"minimum_resolution":1,"trial":133,"drifts":[0.486,0.393,0.318,0.253],"drift_ix":1,"trial_type":"two-step-trial","trial_index":165,"time_elapsed":1310375,"internal_node_id":"0.0-147.0-0.0","task_version":"1.0","jspsych_version":"6.3.1","browser_interactions":0,"missing":false},{"state_1_ids":[1,0],"state_1_key":1,"state_1_choice":0,"state_1_rt":636.3000000119209,"transition":1,"state":0,"state_2_ids":[0,1],"state_2_key":1,"state_2_choice":1,"state_2_rt":912.8000000119209,"outcome":0,"rocket_colors":["#486ea7","#a75248"],"planet_colors":["#706081","#5b7c65"],"screen_resolution":[1680,1050],"minimum_resolution":1,"trial":134,"drifts":[0.485,0.381,0.329,0.268],"drift_ix":1,"trial_type":"two-step-trial","trial_index":166,"time_elapsed":1313934,"internal_node_id":"0.0-148.0-0.0","task_version":"1.0","jspsych_version":"6.3.1","browser_interactions":0,"missing":false},{"state_1_ids":[1,0],"state_1_key":0,"state_1_choice":1,"state_1_rt":630.1000000238419,"transition":1,"state":1,"state_2_ids":[2,3],"state_2_key":1,"state_2_choice":3,"state_2_rt":1150.800000011921,"outcome":0,"rocket_colors":["#486ea7","#a75248"],"planet_colors":["#706081","#5b7c65"],"screen_resolution":[1680,1050],"minimum_resolution":1,"trial":135,"drifts":[0.476,0.33,0.348,0.266],"drift_ix":1,"trial_type":"two-step-trial","trial_index":167,"time_elapsed":1317723,"internal_node_id":"0.0-149.0-0.0","task_version":"1.0","jspsych_version":"6.3.1","browser_interactions":0,"missing":false},{"state_1_ids":[1,0],"state_1_key":1,"state_1_choice":0,"state_1_rt":515.6000000238419,"transition":1,"state":0,"state_2_ids":[0,1],"state_2_key":0,"state_2_choice":0,"state_2_rt":1155.300000011921,"outcome":0,"rocket_colors":["#486ea7","#a75248"],"planet_colors":["#706081","#5b7c65"],"screen_resolution":[1680,1050],"minimum_resolution":1,"trial":136,"drifts":[0.408,0.356,0.348,0.276],"drift_ix":1,"trial_type":"two-step-trial","trial_index":168,"time_elapsed":1321399,"internal_node_id":"0.0-150.0-0.0","task_version":"1.0","jspsych_version":"6.3.1","browser_interactions":0,"missing":false},{"state_1_ids":[0,1],"state_1_key":1,"state_1_choice":1,"state_1_rt":676.3000000119209,"transition":1,"state":1,"state_2_ids":[2,3],"state_2_key":1,"state_2_choice":3,"state_2_rt":680.8000000119209,"outcome":1,"rocket_colors":["#486ea7","#a75248"],"planet_colors":["#706081","#5b7c65"],"screen_resolution":[1680,1050],"minimum_resolution":1,"trial":137,"drifts":[0.444,0.402,0.328,0.271],"drift_ix":1,"trial_type":"two-step-trial","trial_index":169,"time_elapsed":1324761,"internal_node_id":"0.0-151.0-0.0","task_version":"1.0","jspsych_version":"6.3.1","browser_interactions":0,"missing":false},{"state_1_ids":[1,0],"state_1_key":0,"state_1_choice":1,"state_1_rt":642.4000000059605,"transition":0,"state":0,"state_2_ids":[0,1],"state_2_key":1,"state_2_choice":1,"state_2_rt":1334.199999988079,"outcome":0,"rocket_colors":["#486ea7","#a75248"],"planet_colors":["#706081","#5b7c65"],"screen_resolution":[1680,1050],"minimum_resolution":1,"trial":138,"drifts":[0.443,0.378,0.381,0.256],"drift_ix":1,"trial_type":"two-step-trial","trial_index":170,"time_elapsed":1328742,"internal_node_id":"0.0-152.0-0.0","task_version":"1.0","jspsych_version":"6.3.1","browser_interactions":0,"missing":false},{"state_1_ids":[0,1],"state_1_key":1,"state_1_choice":1,"state_1_rt":655.9000000059605,"transition":0,"state":0,"state_2_ids":[0,1],"state_2_key":1,"state_2_choice":1,"state_2_rt":715.9000000059605,"outcome":0,"rocket_colors":["#486ea7","#a75248"],"planet_colors":["#706081","#5b7c65"],"screen_resolution":[1680,1050],"minimum_resolution":1,"trial":139,"drifts":[0.465,0.376,0.423,0.302],"drift_ix":1,"trial_type":"two-step-trial","trial_index":171,"time_elapsed":1332120,"internal_node_id":"0.0-153.0-0.0","task_version":"1.0","jspsych_version":"6.3.1","browser_interactions":0,"missing":false},{"state_1_ids":[0,1],"state_1_key":0,"state_1_choice":0,"state_1_rt":459,"transition":1,"state":0,"state_2_ids":[0,1],"state_2_key":0,"state_2_choice":0,"state_2_rt":568,"outcome":0,"rocket_colors":["#486ea7","#a75248"],"planet_colors":["#706081","#5b7c65"],"screen_resolution":[1680,1050],"minimum_resolution":1,"trial":140,"drifts":[0.503,0.356,0.419,0.307],"drift_ix":1,"trial_type":"two-step-trial","trial_index":172,"time_elapsed":1335156,"internal_node_id":"0.0-154.0-0.0","task_version":"1.0","jspsych_version":"6.3.1","browser_interactions":0,"missing":false},{"state_1_ids":[1,0],"state_1_key":1,"state_1_choice":0,"state_1_rt":551,"transition":0,"state":1,"state_2_ids":[2,3],"state_2_key":1,"state_2_choice":3,"state_2_rt":1015.5999999940395,"outcome":0,"rocket_colors":["#486ea7","#a75248"],"planet_colors":["#706081","#5b7c65"],"screen_resolution":[1680,1050],"minimum_resolution":1,"trial":141,"drifts":[0.498,0.362,0.406,0.333],"drift_ix":1,"trial_type":"two-step-trial","trial_index":173,"time_elapsed":1338732,"internal_node_id":"0.0-155.0-0.0","task_version":"1.0","jspsych_version":"6.3.1","browser_interactions":0,"missing":false},{"state_1_ids":[0,1],"state_1_key":1,"state_1_choice":1,"state_1_rt":376,"transition":1,"state":1,"state_2_ids":[2,3],"state_2_key":1,"state_2_choice":3,"state_2_rt":1205.699999988079,"outcome":0,"rocket_colors":["#486ea7","#a75248"],"planet_colors":["#706081","#5b7c65"],"screen_resolution":[1680,1050],"minimum_resolution":1,"trial":142,"drifts":[0.462,0.376,0.412,0.337],"drift_ix":1,"trial_type":"two-step-trial","trial_index":174,"time_elapsed":1342325,"internal_node_id":"0.0-156.0-0.0","task_version":"1.0","jspsych_version":"6.3.1","browser_interactions":0,"missing":false},{"state_1_ids":[0,1],"state_1_key":0,"state_1_choice":0,"state_1_rt":477.59999999403954,"transition":1,"state":0,"state_2_ids":[0,1],"state_2_key":1,"state_2_choice":1,"state_2_rt":549.1999999880791,"outcome":0,"rocket_colors":["#486ea7","#a75248"],"planet_colors":["#706081","#5b7c65"],"screen_resolution":[1680,1050],"minimum_resolution":1,"trial":143,"drifts":[0.494,0.345,0.399,0.358],"drift_ix":1,"trial_type":"two-step-trial","trial_index":175,"time_elapsed":1345361,"internal_node_id":"0.0-157.0-0.0","task_version":"1.0","jspsych_version":"6.3.1","browser_interactions":0,"missing":false},{"state_1_ids":[0,1],"state_1_key":0,"state_1_choice":0,"state_1_rt":585.8000000119209,"transition":0,"state":1,"state_2_ids":[2,3],"state_2_key":1,"state_2_choice":3,"state_2_rt":845.5,"outcome":0,"rocket_colors":["#486ea7","#a75248"],"planet_colors":["#706081","#5b7c65"],"screen_resolution":[1680,1050],"minimum_resolution":1,"trial":144,"drifts":[0.471,0.35,0.398,0.37],"drift_ix":1,"trial_type":"two-step-trial","trial_index":176,"time_elapsed":1348802,"internal_node_id":"0.0-158.0-0.0","task_version":"1.0","jspsych_version":"6.3.1","browser_interactions":0,"missing":false},{"state_1_ids":[1,0],"state_1_key":0,"state_1_choice":1,"state_1_rt":784,"transition":0,"state":0,"state_2_ids":[0,1],"state_2_key":0,"state_2_choice":0,"state_2_rt":895.4000000059605,"outcome":1,"rocket_colors":["#486ea7","#a75248"],"planet_colors":["#706081","#5b7c65"],"screen_resolution":[1680,1050],"minimum_resolution