[{"responses":{"Q08":"0","Q10":"3","Q11":"3","Q15":"1","Q05":"3","Q06":"0","Q04":"1","Q01":"2","Q02":"2","Q09":"3","Q12":"3","Q14":"2","Q07":"0","Q03":"0","Q13":"0"},"rt":166760.585,"survey":"7up7down","trial_type":"survey-template","trial_index":0,"time_elapsed":166779,"internal_node_id":"0.0-0.0","task_version":"screening-prolific"},{"responses":{"Q06":"2","Q03":"3","Q04":"2","Q07":"2","Q01":"3","Q05":"0","Q08":"0","Q02":"2"},"rt":50055.05500000072,"survey":"gad7","trial_type":"survey-template","trial_index":1,"time_elapsed":216839,"internal_node_id":"0.0-1.0","task_version":"screening-prolific"},{"responses":{"Q01":"3","Q02":"2","Q06":"3","Q07":"2","Q15":"3","Q12":"2","Q09":"2","Q10":"2","Q13":"2","Q05":"1","Q11":"2","Q04":"3","Q08":"2","Q03":"1","Q14":"1"},"rt":93024.12999999977,"survey":"shaps","trial_type":"survey-template","trial_index":2,"time_elapsed":309869,"internal_node_id":"0.0-2.0","task_version":"screening-prolific"},{"responses":{"Q07":"3","Q11":"2","Q12":"0","Q08":"1","Q10":"1","Q04":"3","Q02":"3","Q05":"2","Q03":"3","Q06":"3","Q09":"1","Q01":"3","Q13":"3"},"rt":83694.92499999976,"survey":"bisbas","trial_type":"survey-template","trial_index":3,"time_elapsed":393570,"internal_node_id":"0.0-3.0","task_version":"screening-prolific"},{"responses":{"Q03":"4","Q02":"3","Q01":"4"},"rt":8034.475000000384,"survey":"pswq","trial_type":"survey-template","trial_index":4,"time_elapsed":401607,"internal_node_id":"0.0-4.0","task_version":"screening-prolific"},{"view_history":"[{\"page_index\":0,\"viewing_time\":6138.6600000005565},{\"page_index\":1,\"viewing_time\":11669.794999999809},{\"page_index\":2,\"viewing_time\":19098.434999999823},{\"page_index\":1,\"viewing_time\":7525.475000000384},{\"page_index\":2,\"viewing_time\":6125.490000000398},{\"page_index\":3,\"viewing_time\":22656.15500000055},{\"page_index\":4,\"viewing_time\":6838.104999998875},{\"page_index\":5,\"viewing_time\":7946.070000000007},{\"page_index\":6,\"viewing_time\":2975.674999999639},{\"page_index\":7,\"viewing_time\":6389.4650000002}]","rt":97364.47500000033,"trial_type":"instructions","trial_index":5,"time_elapsed":498977,"internal_node_id":"0.0-5.0-0.0","task_version":"screening-prolific"},{"responses":["True","True","False","False","True"],"num_errors":0,"rt":14714.029999999155,"trial_type":"three-arm-comprehension","trial_index":6,"time_elapsed":513694,"internal_node_id":"0.0-5.0-1.0","task_version":"screening-prolific"},{"view_history":"[{\"page_index\":0,\"viewing_time\":1772.4600000001374}]","rt":1772.8999999999069,"trial_type":"instructions","trial_index":7,"time_elapsed":515470,"internal_node_id":"0.0-6.0","task_version":"screening-prolific"},{"contexts":["green","blue","red"],"outcomes":[0,0,1],"key":37,"choice":0,"rt":2197.444999999774,"outcome":0,"trial":1,"correct":2,"trial_type":"three-arm-trial","trial_index":8,"time_elapsed":518873,"internal_node_id":"0.0-7.0-0.0","task_version":"screening-prolific","missing":false,"accuracy":0},{"contexts":["green","blue","red"],"outcomes":[1,0,1],"key":38,"choice":1,"rt":940.1950000009965,"outcome":0,"trial":2,"correct":2,"trial_type":"three-arm-trial","trial_index":9,"time_elapsed":521016,"internal_node_id":"0.0-8.0-0.0","task_version":"screening-prolific","missing":false,"accuracy":0},{"contexts":["green","blue","red"],"outcomes":[0,0,1],"key":38,"choice":1,"rt":652.1149999990012,"outcome":0,"trial":3,"correct":2,"trial_type":"three-arm-trial","trial_index":10,"time_elapsed":522871,"internal_node_id":"0.0-9.0-0.0","task_version":"screening-prolific","missing":false,"accuracy":0},{"contexts":["green","blue","red"],"outcomes":[1,0,1],"key":39,"choice":2,"rt":521.1949999993667,"outcome":1,"trial":4,"correct":2,"trial_type":"three-arm-trial","trial_index":11,"time_elapsed":524596,"internal_node_id":"0.0-10.0-0.0","task_version":"screening-prolific","missing":false,"accuracy":1},{"contexts":["green","blue","red"],"outcomes":[0,0,1],"key":39,"choice":2,"rt":372.69999999995343,"outcome":1,"trial":5,"correct":2,"trial_type":"three-arm-trial","trial_index":12,"time_elapsed":526171,"internal_node_id":"0.0-11.0-0.0","task_version":"screening-prolific","missing":false,"accuracy":1},{"contexts":["green","blue","red"],"outcomes":[0,1,1],"key":39,"choice":2,"rt":335.62499999965075,"outcome":1,"trial":6,"correct":2,"trial_type":"three-arm-trial","trial_index":13,"time_elapsed":527711,"internal_node_id":"0.0-12.0-0.0","task_version":"screening-prolific","missing":false,"accuracy":1},{"contexts":["green","blue","red"],"outcomes":[0,0,1],"key":39,"choice":2,"rt":275.65000000142027,"outcome":1,"trial":7,"correct":2,"trial_type":"three-arm-trial","trial_index":14,"time_elapsed":529190,"internal_node_id":"0.0-13.0-0.0","task_version":"screening-prolific","missing":false,"accuracy":1},{"contexts":["green","blue","red"],"outcomes":[0,0,1],"key":39,"choice":2,"rt":265.4999999994179,"outcome":1,"trial":8,"correct":2,"trial_type":"three-arm-trial","trial_index":15,"time_elapsed":530657,"internal_node_id":"0.0-14.0-0.0","task_version":"screening-prolific","missing":false,"accuracy":1},{"contexts":["green","blue","red"],"outcomes":[0,1,1],"key":39,"choice":2,"rt":557.085000000312,"outcome":1,"trial":9,"correct":2,"trial_type":"three-arm-trial","trial_index":16,"time_elapsed":532419,"internal_node_id":"0.0-15.0-0.0","task_version":"screening-prolific","missing":false,"accuracy":1},{"contexts":["green","blue","red"],"outcomes":[0,0,1],"key":39,"choice":2,"rt":190.03999999945518,"outcome":1,"trial":10,"correct":2,"trial_type":"three-arm-trial","trial_index":17,"time_elapsed":533814,"internal_node_id":"0.0-16.0-0.0","task_version":"screening-prolific","missing":false,"accuracy":1},{"contexts":["green","blue","red"],"outcomes":[0,0,1],"key":39,"choice":2,"rt":243.4050000011921,"outcome":1,"trial":11,"correct":2,"trial_type":"three-arm-trial","trial_index":18,"time_elapsed":535260,"internal_node_id":"0.0-17.0-0.0","task_version":"screening-prolific","missing":false,"accuracy":1},{"contexts":["green","blue","red"],"outcomes":[0,0,0],"key":39,"choice":2,"rt":298.795000000624,"outcome":0,"trial":12,"correct":2,"trial_type":"three-arm-trial","trial_index":19,"time_elapsed":536761,"internal_node_id":"0.0-18.0-0.0","task_version":"screening-prolific","missing":false,"accuracy":1},{"contexts":["green","blue","red"],"outcomes":[0,0,1],"key":37,"choice":0,"rt":624.2350000011502,"outcome":0,"trial":13,"correct":2,"trial_type":"three-arm-trial","trial_index":20,"time_elapsed":538589,"internal_node_id":"0.0-19.0-0.0","task_version":"screening-prolific","missing":false,"accuracy":0},{"contexts":["green","blue","red"],"outcomes":[0,1,1],"key":38,"choice":1,"rt":452.2350000006845,"outcome":1,"trial":14,"correct":2,"trial_type":"three-arm-trial","trial_index":21,"time_elapsed":540244,"internal_node_id":"0.0-20.0-0.0","task_version":"screening-prolific","missing":false,"accuracy":0},{"contexts":["green","blue","red"],"outcomes":[0,0,0],"key":38,"choice":1,"rt":223.8550000002142,"outcome":0,"trial":15,"correct":2,"trial_type":"three-arm-trial","trial_index":22,"time_elapsed":541673,"internal_node_id":"0.0-21.0-0.0","task_version":"screening-prolific","missing":false,"accuracy":0},{"contexts":["green","blue","red"],"outcomes":[0,0,0],"key":39,"choice":2,"rt":179.38499999942724,"outcome":0,"trial":16,"correct":1,"trial_type":"three-arm-trial","trial_index":23,"time_elapsed":543059,"internal_node_id":"0.0-22.0-0.0","task_version":"screening-prolific","missing":false,"accuracy":0},{"contexts":["green","blue","red"],"outcomes":[1,1,0],"key":37,"choice":0,"rt":84.81500000017695,"outcome":1,"trial":17,"correct":1,"trial_type":"three-arm-trial","trial_index":24,"time_elapsed":544347,"internal_node_id":"0.0-23.0-0.0","task_version":"screening-prolific","missing":false,"accuracy":0},{"contexts":["green","blue","red"],"outcomes":[0,1,0],"key":37,"choice":0,"rt":472.8949999989709,"outcome":0,"trial":18,"correct":1,"trial_type":"three-arm-trial","trial_index":25,"time_elapsed":546025,"internal_node_id":"0.0-24.0-0.0","task_version":"screening-prolific","missing":false,"accuracy":0},{"contexts":["green","blue","red"],"outcomes":[1,1,1],"key":39,"choice":2,"rt":370.33999999950174,"outcome":1,"trial":19,"correct":1,"trial_type":"three-arm-trial","trial_index":26,"time_elapsed":547599,"internal_node_id":"0.0-25.0-0.0","task_version":"screening-prolific","missing":false,"accuracy":0},{"contexts":["green","blue","red"],"outcomes":[0,0,0],"key":39,"choice":2,"rt":314.30000000004657,"outcome":0,"trial":20,"correct":1,"trial_type":"three-arm-trial","trial_index":27,"time_elapsed":549116,"internal_node_id":"0.0-26.0-0.0","task_version":"screening-prolific","missing":false,"accuracy":0},{"contexts":["green","blue","red"],"outcomes":[0,1,0],"key":38,"choice":1,"rt":341.50000000046566,"outcome":1,"trial":21,"correct":1,"trial_type":"three-arm-trial","trial_index":28,"time_elapsed":550662,"internal_node_id":"0.0-27.0-0.0","task_version":"screening-prolific","missing":false,"accuracy":1},{"contexts":["green","blue","red"],"outcomes":[1,1,0],"key":38,"choice":1,"rt":506.4700000002049,"outcome":1,"trial":22,"correct":1,"trial_type":"three-arm-trial","trial_index":29,"time_elapsed":552371,"internal_node_id":"0.0-28.0-0.0","task_version":"screening-prolific","missing":false,"accuracy":1},{"contexts":["green","blue","red"],"outcomes":[1,1,0],"key":38,"choice":1,"rt":353.85500000126194,"outcome":1,"trial":23,"correct":1,"trial_type":"three-arm-trial","trial_index":30,"time_elapsed":553930,"internal_node_id":"0.0-29.0-0.0","task_version":"screening-prolific","missing":false,"accuracy":1},{"contexts":["green","blue","red"],"outcomes":[0,0,1],"key":38,"choice":1,"rt":96.3049999991199,"outcome":0,"trial":24,"correct":1,"trial_type":"three-arm-trial","trial_index":31,"time_elapsed":555231,"internal_node_id":"0.0-30.0-0.0","task_version":"screening-prolific","missing":false,"accuracy":1},{"contexts":["green","blue","red"],"outcomes":[1,1,1],"key":39,"choice":2,"rt":634.8749999997672,"outcome":1,"trial":25,"correct":1,"trial_type":"three-arm-trial","trial_index":32,"time_elapsed":557070,"internal_node_id":"0.0-31.0-0.0","task_version":"screening-prolific","missing":false,"accuracy":0},{"contexts":["green","blue","red"],"outcomes":[1,1,0],"key":39,"choice":2,"rt":365.96000000089407,"outcome":0,"trial":26,"correct":1,"trial_type":"three-arm-trial","trial_index":33,"time_elapsed":558638,"internal_node_id":"0.0-32.0-0.0","task_version":"screening-prolific","missing":false,"accuracy":0},{"contexts":["green","blue","red"],"outcomes":[0,1,0],"key":38,"choice":1,"rt":570.2249999993946,"outcome":1,"trial":27,"correct":1,"trial_type":"three-arm-trial","trial_index":34,"time_elapsed":560415,"internal_node_id":"0.0-33.0-0.0","task_version":"screening-prolific","missing":false,"accuracy":1},{"contexts":["green","blue","red"],"outcomes":[0,1,0],"key":38,"choice":1,"rt":286.96500000113156,"outcome":1,"trial":28,"correct":1,"trial_type":"three-arm-trial","trial_index":35,"time_elapsed":561905,"internal_node_id":"0.0-34.0-0.0","task_version":"screening-prolific","missing":false,"accuracy":1},{"contexts":["green","blue","red"],"outcomes":[0,1,0],"key":38,"choice":1,"rt":155.69999999937136,"outcome":1,"trial":29,"correct":1,"trial_type":"three-arm-trial","trial_index":36,"time_elapsed":563264,"internal_node_id":"0.0-35.0-0.0","task_version":"screening-prolific","missing":false,"accuracy":1},{"contexts":["green","blue","red"],"outcomes":[1,1,0],"key":38,"choice":1,"rt":322.14500000013504,"outcome":1,"trial":30,"correct":1,"trial_type":"three-arm-trial","trial_index":37,"time_elapsed":564790,"internal_node_id":"0.0-36.0-0.0","task_version":"screening-prolific","missing":false,"accuracy":1},{"contexts":["green","blue","red"],"outcomes":[1,0,0],"key":38,"choice":1,"rt":264.1149999999907,"outcome":0,"trial":31,"correct":0,"trial_type":"three-arm-trial","trial_index":38,"time_elapsed":566257,"internal_node_id":"0.0-37.0-0.0","task_version":"screening-prolific","missing":false,"accuracy":0},{"contexts":["green","blue","red"],"outcomes":[1,0,1],"key":37,"choice":0,"rt":202.69499999983236,"outcome":1,"trial":32,"correct":0,"trial_type":"three-arm-trial","trial_index":39,"time_elapsed":567665,"internal_node_id":"0.0-38.0-0.0","task_version":"screening-prolific","missing":false,"accuracy":1},{"contexts":["green","blue","red"],"outcomes":[1,0,0],"key":37,"choice":0,"rt":137.2850000007311,"outcome":1,"trial":33,"correct":0,"trial_type":"three-arm-trial","trial_index":40,"time_elapsed":569005,"internal_node_id":"0.0-39.0-0.0","task_version":"screening-prolific","missing":false,"accuracy":1},{"contexts":["green","blue","red"],"outcomes":[1,0,1],"key":37,"choice":0,"rt":192.8299999999581,"outcome":1,"trial":34,"correct":0,"trial_type":"three-arm-trial","trial_index":41,"time_elapsed":570405,"internal_node_id":"0.0-40.0-0.0","task_version":"screening-prolific","missing":false,"accuracy":1},{"contexts":["green","blue","red"],"outcomes":[0,1,0],"key":37,"choice":0,"rt":127.25500000128523,"outcome":0,"trial":35,"correct":0,"trial_type":"three-arm-trial","trial_index":42,"time_elapsed":571738,"internal_node_id":"0.0-41.0-0.0","task_version":"screening-prolific","missing":false,"accuracy":1},{"contexts":["green","blue","red"],"outcomes":[0,1,0],"key":39,"choice":2,"rt":414.17499999993015,"outcome":0,"trial":36,"correct":0,"trial_type":"three-arm-trial","trial_index":43,"time_elapsed":573356,"internal_node_id":"0.0-42.0-0.0","task_version":"screening-prolific","missing":false,"accuracy":0},{"contexts":["green","blue","red"],"outcomes":[0,0,1],"key":38,"choice":1,"rt":663.819999999716,"outcome":0,"trial":37,"correct":0,"trial_type":"three-arm-trial","trial_index":44,"time_elapsed":575224,"internal_node_id":"0.0-43.0-0.0","task_version":"screening-prolific","missing":false,"accuracy":0},{"contexts":["green","blue","red"],"outcomes":[1,0,0],"key":37,"choice":0,"rt":408.7300000010291,"outcome":1,"trial":38,"correct":0,"trial_type":"three-arm-trial","trial_index":45,"time_elapsed":576837,"internal_node_id":"0.0-44.0-0.0","task_version":"screening-prolific","missing":false,"accuracy":1},{"contexts":["green","blue","red"],"outcomes":[1,0,1],"key":37,"choice":0,"rt":524.4599999987986,"outcome":1,"trial":39,"correct":0,"trial_type":"three-arm-trial","trial_index":46,"time_elapsed":578564,"internal_node_id":"0.0-45.0-0.0","task_version":"screening-prolific","missing":false,"accuracy":1},{"contexts":["green","blue","red"],"outcomes":[1,1,0],"key":37,"choice":0,"rt":283.5700000014622,"outcome":1,"trial":40,"correct":0,"trial_type":"three-arm-trial","trial_index":47,"time_elapsed":580052,"internal_node_id":"0.0-46.0-0.0","task_version":"screening-prolific","missing":false,"accuracy":1},{"contexts":["green","blue","red"],"outcomes":[1,0,1],"key":37,"choice":0,"rt":317.11499999975786,"outcome":1,"trial":41,"correct":0,"trial_type":"three-arm-trial","trial_index":48,"time_elapsed":581574,"internal_node_id":"0.0-47.0-0.0","task_version":"screening-prolific","missing":false,"accuracy":1},{"contexts":["green","blue","red"],"outcomes":[1,0,0],"key":37,"choice":0,"rt":56.81999999983236,"outcome":1,"trial":42,"correct":0,"trial_type":"three-arm-trial","trial_index":49,"time_elapsed":582833,"internal_node_id":"0.0-48.0-0.0","task_version":"screening-prolific","missing":false,"accuracy":1},{"contexts":["green","blue","red"],"outcomes":[1,1,0],"key":37,"choice":0,"rt":29.88999999978114,"outcome":1,"trial":43,"correct":0,"trial_type":"three-arm-trial","trial_index":50,"time_elapsed":584066,"internal_node_id":"0.0-49.0-0.0","task_version":"screening-prolific","missing":false,"accuracy":1},{"contexts":["green","blue","red"],"outcomes":[1,0,0],"key":37,"choice":0,"rt":571.6649999994552,"outcome":1,"trial":44,"correct":0,"trial_type":"three-arm-trial","trial_index":51,"time_elapsed":585840,"internal_node_id":"0.0-50.0-0.0","task_version":"screening-prolific","missing":false,"accuracy":1},{"contexts":["green","blue","red"],"outcomes":[1,0,0],"key":37,"choice":0,"rt":195.35499999974854,"outcome":1,"trial":45,"correct":0,"trial_type":"three-arm-trial","trial_index":52,"time_elapsed":587239,"internal_node_id":"0.0-51.0-0.0","task_version":"screening-prolific","missing":false,"accuracy":1},{"contexts":["green","blue","red"],"outcomes":[0,0,0],"key":37,"choice":0,"rt":49.44000000075903,"outcome":0,"trial":46,"correct":2,"trial_type":"three-arm-trial","trial_index":53,"time_elapsed":588493,"internal_node_id":"0.0-52.0-0.0","task_version":"screening-prolific","missing":false,"accuracy":0},{"contexts":["green","blue","red"],"outcomes":[0,0,1],"key":38,"choice":1,"rt":294.7300000014948,"outcome":0,"trial":47,"correct":2,"trial_type":"three-arm-trial","trial_index":54,"time_elapsed":589991,"internal_node_id":"0.0-53.0-0.0","task_version":"screening-prolific","missing":false,"accuracy":0},{"contexts":["green","blue","red"],"outcomes":[0,1,1],"key":39,"choice":2,"rt":737.8950000002515,"outcome":1,"trial":48,"correct":2,"trial_type":"three-arm-trial","trial_index":55,"time_elapsed":591934,"internal_node_id":"0.0-54.0-0.0","task_version":"screening-prolific","missing":false,"accuracy":1},{"contexts":["green","blue","red"],"outcomes":[0,0,1],"key":39,"choice":2,"rt":301.78499999968335,"outcome":1,"trial":49,"correct":2,"trial_type":"three-arm-trial","trial_index":56,"time_elapsed":593440,"internal_node_id":"0.0-55.0-0.0","task_version":"screening-prolific","missing":false,"accuracy":1},{"contexts":["green","blue","red"],"outcomes":[0,0,1],"key":39,"choice":2,"rt":400.1599999992177,"outcome":1,"trial":50,"correct":2,"trial_type":"three-arm-trial","trial_index":57,"time_elapsed":595044,"internal_node_id":"0.0-56.0-0.0","task_version":"screening-prolific","missing":false,"accuracy":1},{"contexts":["green","blue","red"],"outcomes":[0,1,1],"key":39,"choice":2,"rt":175.81000000063796,"outcome":1,"trial":51,"correct":2,"trial_type":"three-arm-trial","trial_index":58,"time_elapsed":596423,"internal_node_id":"0.0-57.0-0.0","task_version":"screening-prolific","missing":false,"accuracy":1},{"contexts":["green","blue","red"],"outcomes":[0,0,1],"key":39,"choice":2,"rt":231.14499999966938,"outcome":1,"trial":52,"correct":2,"trial_type":"three-arm-trial","trial_index":59,"time_elapsed":597858,"internal_node_id":"0.0-58.0-0.0","task_version":"screening-prolific","missing":false,"accuracy":1},{"contexts":["green","blue","red"],"outcomes":[0,1,0],"key":39,"choice":2,"rt":28.87000000011176,"outcome":0,"trial":53,"correct":2,"trial_type":"three-arm-trial","trial_index":60,"time_elapsed":599090,"internal_node_id":"0.0-59.0-0.0","task_version":"screening-prolific","missing":false,"accuracy":1},{"contexts":["green","blue","red"],"outcomes":[0,0,1],"key":38,"choice":1,"rt":183.2599999998929,"outcome":0,"trial":54,"correct":2,"trial_type":"three-arm-trial","trial_index":61,"time_elapsed":600477,"internal_node_id":"0.0-60.0-0.0","task_version":"screening-prolific","missing":false,"accuracy":0},{"contexts":["green","blue","red"],"outcomes":[0,1,0],"key":37,"choice":0,"rt":370.3949999999022,"outcome":0,"trial":55,"correct":2,"trial_type":"three-arm-trial","trial_index":62,"time_elapsed":602052,"internal_node_id":"0.0-61.0-0.0","task_version":"screening-prolific","missing":false,"accuracy":0},{"contexts":["green","blue","red"],"outcomes":[0,0,0],"key":39,"choice":2,"rt":231.27500000002328,"outcome":0,"trial":56,"correct":2,"trial_type":"three-arm-trial","trial_index":63,"time_elapsed":603488,"internal_node_id":"0.0-62.0-0.0","task_version":"screening-prolific","missing":false,"accuracy":1},{"contexts":["green","blue","red"],"outcomes":[1,0,1],"key":37,"choice":0,"rt":573.8650000002235,"outcome":1,"trial":57,"correct":2,"trial_type":"three-arm-trial","trial_index":64,"time_elapsed":605267,"internal_node_id":"0.0-63.0-0.0","task_version":"screening-prolific","missing":false,"accuracy":0},{"contexts":["green","blue","red"],"outcomes":[0,0,1],"key":37,"choice":0,"rt":308.3699999988312,"outcome":0,"trial":58,"correct":2,"trial_type":"three-arm-trial","trial_index":65,"time_elapsed":606778,"internal_node_id":"0.0-64.0-0.0","task_version":"screening-prolific","missing":false,"accuracy":0},{"contexts":["green","blue","red"],"outcomes":[0,0,1],"key":39,"choice":2,"rt":331.9449999999488,"outcome":1,"trial":59,"correct":2,"trial_type":"three-arm-trial","trial_index":66,"time_elapsed":608312,"internal_node_id":"0.0-65.0-0.0","task_version":"screening-prolific","missing":false,"accuracy":1},{"contexts":["green","blue","red"],"outcomes":[1,0,1],"key":39,"choice":2,"rt":355.815000000759,"outcome":1,"trial":60,"correct":2,"trial_type":"three-arm-trial","trial_index":67,"time_elapsed":609874,"internal_node_id":"0.0-66.0-0.0","task_version":"screening-prolific","missing":false,"accuracy":1},{"contexts":["green","blue","red"],"outcomes":[1,1,0],"key":39,"choice":2,"rt":293.7199999996228,"outcome":0,"trial":61,"correct":1,"trial_type":"three-arm-trial","trial_index":68,"time_elapsed":611372,"internal_node_id":"0.0-67.0-0.0","task_version":"screening-prolific","missing":false,"accuracy":0},{"contexts":["green","blue","red"],"outcomes":[1,1,0],"key":37,"choice":0,"rt":358.16999999957625,"outcome":1,"trial":62,"correct":1,"trial_type":"three-arm-trial","trial_index":69,"time_elapsed":612937,"internal_node_id":"0.0-68.0-0.0","task_version":"screening-prolific","missing":false,"accuracy":0},{"contexts":["green","blue","red"],"outcomes":[0,1,0],"key":37,"choice":0,"rt":342.0900000000838,"outcome":0,"trial":63,"correct":1,"trial_type":"three-arm-trial","trial_index":70,"time_elapsed":614482,"internal_node_id":"0.0-69.0-0.0","task_version":"screening-prolific","missing":false,"accuracy":0},{"contexts":["green","blue","red"],"outcomes":[0,1,0],"key":39,"choice":2,"rt":164.45999999996275,"outcome":0,"trial":64,"correct":1,"trial_type":"three-arm-trial","trial_index":71,"time_elapsed":615849,"internal_node_id":"0.0-70.0-0.0","task_version":"screening-prolific","missing":false,"accuracy":0},{"contexts":["green","blue","red"],"outcomes":[0,1,1],"key":38,"choice":1,"rt":533.690000000177,"outcome":1,"trial":65,"correct":1,"trial_type":"three-arm-trial","trial_index":72,"time_elapsed":617585,"internal_node_id":"0.0-71.0-0.0","task_version":"screening-prolific","missing":false,"accuracy":1},{"contexts":["green","blue","red"],"outcomes":[1,1,0],"key":38,"choice":1,"rt":366.5849999997299,"outcome":1,"trial":66,"correct":1,"trial_type":"three-arm-trial","trial_index":73,"time_elapsed":619155,"internal_node_id":"0.0-72.0-0.0","task_version":"screening-prolific","missing":false,"accuracy":1},{"contexts":["green","blue","red"],"outcomes":[0,1,0],"key":38,"choice":1,"rt":215.0949999995064,"outcome":1,"trial":67,"correct":1,"trial_type":"three-arm-trial","trial_index":74,"time_elapsed":620572,"internal_node_id":"0.0-73.0-0.0","task_version":"screening-prolific","missing":false,"accuracy":1},{"contexts":["green","blue","red"],"outcomes":[1,0,0],"key":38,"choice":1,"rt":206.26000000082422,"outcome":0,"trial":68,"correct":1,"trial_type":"three-arm-trial","trial_index":75,"time_elapsed":621982,"internal_node_id":"0.0-74.0-0.0","task_version":"screening-prolific","missing":false,"accuracy":1},{"contexts":["green","blue","red"],"outcomes":[0,0,0],"key":39,"choice":2,"rt":151.264999998617,"outcome":0,"trial":69,"correct":1,"trial_type":"three-arm-trial","trial_index":76,"time_elapsed":623337,"internal_node_id":"0.0-75.0-0.0","task_version":"screening-prolific","missing":false,"accuracy":0},{"contexts":["green","blue","red"],"outcomes":[0,1,0],"key":38,"choice":1,"rt":591.7499999995343,"outcome":1,"trial":70,"correct":1,"trial_type":"three-arm-trial","trial_index":77,"time_elapsed":625132,"internal_node_id":"0.0-76.0-0.0","task_version":"screening-prolific","missing":false,"accuracy":1},{"contexts":["green","blue","red"],"outcomes":[0,1,0],"key":38,"choice":1,"rt":304.4499999996042,"outcome":1,"trial":71,"correct":1,"trial_type":"three-arm-trial","trial_index":78,"time_elapsed":626641,"internal_node_id":"0.0-77.0-0.0","task_version":"screening-prolific","missing":false,"accuracy":1},{"contexts":["green","blue","red"],"outcomes":[0,1,0],"key":38,"choice":1,"rt":223.24499999918044,"outcome":1,"trial":72,"correct":1,"trial_type":"three-arm-trial","trial_index":79,"time_elapsed":628067,"internal_node_id":"0.0-78.0-0.0","task_version":"screening-prolific","missing":false,"accuracy":1},{"contexts":["green","blue","red"],"outcomes":[0,1,0],"key":38,"choice":1,"rt":70.32500000065193,"outcome":1,"trial":73,"correct":1,"trial_type":"three-arm-trial","trial_index":80,"time_elapsed":629340,"internal_node_id":"0.0-79.0-0.0","task_version":"screening-prolific","missing":false,"accuracy":1},{"contexts":["green","blue","red"],"outcomes":[0,1,0],"key":38,"choice":1,"rt":190.35499999881722,"outcome":1,"trial":74,"correct":1,"trial_type":"three-arm-trial","trial_index":81,"time_elapsed":630734,"internal_node_id":"0.0-80.0-0.0","task_version":"screening-prolific","missing":false,"accuracy":1},{"contexts":["green","blue","red"],"outcomes":[0,1,1],"key":38,"choice":1,"rt":191.0649999991292,"outcome":1,"trial":75,"correct":1,"trial_type":"three-arm-trial","trial_index":82,"time_elapsed":632130,"internal_node_id":"0.0-81.0-0.0","task_version":"screening-prolific","missing":false,"accuracy":1},{"contexts":["green","blue","red"],"outcomes":[1,0,0],"key":38,"choice":1,"rt":60.24000000068918,"outcome":0,"trial":76,"correct":0,"trial_type":"three-arm-trial","trial_index":83,"time_elapsed":633393,"internal_node_id":"0.0-82.0-0.0","task_version":"screening-prolific","missing":false,"accuracy":0},{"contexts":["green","blue","red"],"outcomes":[1,1,0],"key":37,"choice":0,"rt":272.4749999997439,"outcome":1,"trial":77,"correct":0,"trial_type":"three-arm-trial","trial_index":84,"time_elapsed":634871,"internal_node_id":"0.0-83.0-0.0","task_version":"screening-prolific","missing":false,"accuracy":1},{"contexts":["green","blue","red"],"outcomes":[1,0,1],"key":37,"choice":0,"rt":54.75000000116415,"outcome":1,"trial":78,"correct":0,"trial_type":"three-arm-trial","trial_index":85,"time_elapsed":636130,"internal_node_id":"0.0-84.0-0.0","task_version":"screening-prolific","missing":false,"accuracy":1},{"contexts":["green","blue","red"],"outcomes":[1,0,0],"key":37,"choice":0,"rt":404.04500000108965,"outcome":1,"trial":79,"correct":0,"trial_type":"three-arm-trial","trial_index":86,"time_elapsed":637739,"internal_node_id":"0.0-85.0-0.0","task_version":"screening-prolific","missing":false,"accuracy":1},{"contexts":["green","blue","red"],"outcomes":[1,1,1],"key":37,"choice":0,"rt":161.2700000004843,"outcome":1,"trial":80,"correct":0,"trial_type":"three-arm-trial","trial_index":87,"time_elapsed":639108,"internal_node_id":"0.0-86.0-0.0","task_version":"screening-prolific","missing":false,"accuracy":1},{"contexts":["green","blue","red"],"outcomes":[1,0,0],"key":37,"choice":0,"rt":22.360000000917353,"outcome":1,"trial":81,"correct":0,"trial_type":"three-arm-trial","trial_index":88,"time_elapsed":640334,"internal_node_id":"0.0-87.0-0.0","task_version":"screening-prolific","missing":false,"accuracy":1},{"contexts":["green","blue","red"],"outcomes":[1,0,0],"key":37,"choice":0,"rt":387.81500000006054,"outcome":1,"trial":82,"correct":0,"trial_type":"three-arm-trial","trial_index":89,"time_elapsed":641925,"internal_node_id":"0.0-88.0-0.0","task_version":"screening-prolific","missing":false,"accuracy":1},{"contexts":["green","blue","red"],"outcomes":[1,0,0],"key":37,"choice":0,"rt":306.23499999998603,"outcome":1,"trial":83,"correct":0,"trial_type":"three-arm-trial","trial_index":90,"time_elapsed":643437,"internal_node_id":"0.0-89.0-0.0","task_version":"screening-prolific","missing":false,"accuracy":1},{"contexts":["green","blue","red"],"outcomes":[1,1,0],"key":37,"choice":0,"rt":241.97500000079162,"outcome":1,"trial":84,"correct":0,"trial_type":"three-arm-trial","trial_index":91,"time_elapsed":644882,"internal_node_id":"0.0-90.0-0.0","task_version":"screening-prolific","missing":false,"accuracy":1},{"contexts":["green","blue","red"],"outcomes":[1,0,0],"key":37,"choice":0,"rt":130.44500000064727,"outcome":1,"trial":85,"correct":0,"trial_type":"three-arm-trial","trial_index":92,"time_elapsed":646214,"internal_node_id":"0.0-91.0-0.0","task_version":"screening-prolific","missing":false,"accuracy":1},{"contexts":["green","blue","red"],"outcomes":[1,0,0],"key":37,"choice":0,"rt":58.06000000122003,"outcome":1,"trial":86,"correct":0,"trial_type":"three-arm-trial","trial_index":93,"time_elapsed":647477,"internal_node_id":"0.0-92.0-0.0","task_version":"screening-prolific","missing":false,"accuracy":1},{"contexts":["green","blue","red"],"outcomes":[1,1,0],"key":37,"choice":0,"rt":123.3499999998603,"outcome":1,"trial":87,"correct":0,"trial_type":"three-arm-trial","trial_index":94,"time_elapsed":648806,"internal_node_id":"0.0-93.0-0.0","task_version":"screening-prolific","missing":false,"accuracy":1},{"contexts":["green","blue","red"],"outcomes":[1,1,0],"key":37,"choice":0,"rt":20.14000000047963,"outcome":1,"trial":88,"correct":0,"trial_type":"three-arm-trial","trial_index":95,"time_elapsed":650029,"internal_node_id":"0.0-94.0-0.0","task_version":"screening-prolific","missing":false,"accuracy":1},{"contexts":["green","blue","red"],"outcomes":[1,0,0],"key":37,"choice":0,"rt":22.225000000558794,"outcome":1,"trial":89,"correct":0,"trial_type":"three-arm-trial","trial_index":96,"time_elapsed":651255,"internal_node_id":"0.0-95.0-0.0","task_version":"screening-prolific","missing":false,"accuracy":1},{"contexts":["green","blue","red"],"outcomes":[1,0,1],"key":37,"choice":0,"rt":119.93000000074971,"outcome":1,"trial":90,"correct":0,"trial_type":"three-arm-trial","trial_index":97,"time_elapsed":652580,"internal_node_id":"0.0-96.0-0.0","task_version":"screening-prolific","missing":false,"accuracy":1},{"rt":44921.44999999984,"responses":{"age":"26","gender-categorical":"Other","gender-free-response":"genderfluid, assigned F","ethnicity":"Not Hispanic or Latino","race":["White"],"language":"Yes","fluency":"Very well","mturk":"No","mturk-this-study":"No"},"survey":"demographics","trial_type":"survey-demo","trial_index":98,"time_elapsed":697509,"internal_node_id":"0.0-97.0","task_version":"screening-prolific","interactions":"[{\"event\":\"blur\",\"trial\":0,\"time\":12339},{\"event\":\"focus\",\"trial\":0,\"time\":14736},{\"event\":\"blur\",\"trial\":3,\"time\":333179},{\"event\":\"focus\",\"trial\":3,\"time\":348663}]"}]