[{"responses":{"Q12":"3","Q03":"3","Q01":"3","Q05":"3","Q10":"3","Q07":"3","Q08":"3","Q09":"3","Q04":"3","Q06":"3","Q15":"3","Q02":"3","Q11":"3","Q13":"3","Q14":"3"},"rt":57125.08000002708,"survey":"shaps","trial_type":"survey-template","trial_index":0,"time_elapsed":57171,"internal_node_id":"0.0-0.0","task_version":"screening-prolific"},{"responses":{"Q03":"3","Q02":"3","Q01":"3"},"rt":9688.644999987446,"survey":"pswq","trial_type":"survey-template","trial_index":1,"time_elapsed":66883,"internal_node_id":"0.0-1.0","task_version":"screening-prolific"},{"responses":{"Q05":"1","Q02":"1","Q08":"0","Q03":"1","Q01":"1","Q07":"1","Q06":"1","Q04":"0"},"rt":28191.53500010725,"survey":"gad7","trial_type":"survey-template","trial_index":2,"time_elapsed":95096,"internal_node_id":"0.0-2.0","task_version":"screening-prolific"},{"responses":{"Q10":"2","Q08":"3","Q12":"2","Q09":"2","Q01":"3","Q02":"2","Q11":"2","Q03":"2","Q04":"3","Q06":"2","Q05":"2","Q07":"3","Q13":"3"},"rt":57908.63999992143,"survey":"bisbas","trial_type":"survey-template","trial_index":3,"time_elapsed":153021,"internal_node_id":"0.0-3.0","task_version":"screening-prolific"},{"responses":{"Q12":"0","Q10":"0","Q01":"0","Q08":"1","Q05":"0","Q02":"0","Q11":"0","Q06":"0","Q14":"0","Q15":"0","Q04":"1","Q03":"1","Q07":"1","Q13":"1","Q09":"0"},"rt":82332.6249999227,"survey":"7up7down","trial_type":"survey-template","trial_index":4,"time_elapsed":235373,"internal_node_id":"0.0-4.0","task_version":"screening-prolific"},{"view_history":"[{\"page_index\":0,\"viewing_time\":3684.045000001788},{\"page_index\":1,\"viewing_time\":6251.034999964759},{\"page_index\":2,\"viewing_time\":4499.0949999773875},{\"page_index\":3,\"viewing_time\":5761.805000016466},{\"page_index\":4,\"viewing_time\":9710.844999994151},{\"page_index\":5,\"viewing_time\":6508.834999985993},{\"page_index\":6,\"viewing_time\":2096.570000052452},{\"page_index\":7,\"viewing_time\":5296.379999956116}]","rt":43810.31500000972,"trial_type":"instructions","trial_index":5,"time_elapsed":279197,"internal_node_id":"0.0-5.0-0.0","task_version":"screening-prolific"},{"responses":["True","True","False","False","True"],"num_errors":0,"rt":21079.865000094287,"trial_type":"three-arm-comprehension","trial_index":6,"time_elapsed":300284,"internal_node_id":"0.0-5.0-1.0","task_version":"screening-prolific"},{"view_history":"[{\"page_index\":0,\"viewing_time\":1432.9000000143424}]","rt":1433.320000069216,"trial_type":"instructions","trial_index":7,"time_elapsed":301789,"internal_node_id":"0.0-6.0","task_version":"screening-prolific"},{"contexts":["red","blue","green"],"outcomes":[0,1,1],"key":null,"rt":null,"trial":1,"correct":1,"trial_type":"three-arm-trial","trial_index":8,"time_elapsed":316795,"internal_node_id":"0.0-7.0-0.0","task_version":"screening-prolific","missing":true},{"contexts":["red","blue","green"],"outcomes":[0,1,1],"key":38,"choice":1,"rt":1659.9649999989197,"outcome":1,"trial":1,"correct":1,"trial_type":"three-arm-trial","trial_index":9,"time_elapsed":319659,"internal_node_id":"0.0-7.1-0.1","task_version":"screening-prolific","missing":false,"accuracy":1},{"contexts":["red","blue","green"],"outcomes":[0,1,0],"key":37,"choice":0,"rt":1275.980000034906,"outcome":0,"trial":2,"correct":1,"trial_type":"three-arm-trial","trial_index":10,"time_elapsed":322149,"internal_node_id":"0.0-8.0-0.0","task_version":"screening-prolific","missing":false,"accuracy":0},{"contexts":["red","blue","green"],"outcomes":[0,1,1],"key":39,"choice":2,"rt":1081.540000042878,"outcome":1,"trial":3,"correct":1,"trial_type":"three-arm-trial","trial_index":11,"time_elapsed":324447,"internal_node_id":"0.0-9.0-0.0","task_version":"screening-prolific","missing":false,"accuracy":0},{"contexts":["red","blue","green"],"outcomes":[0,1,0],"key":39,"choice":2,"rt":555.530000012368,"outcome":0,"trial":4,"correct":1,"trial_type":"three-arm-trial","trial_index":12,"time_elapsed":326220,"internal_node_id":"0.0-10.0-0.0","task_version":"screening-prolific","missing":false,"accuracy":0},{"contexts":["red","blue","green"],"outcomes":[0,0,0],"key":38,"choice":1,"rt":687.9999999655411,"outcome":0,"trial":5,"correct":1,"trial_type":"three-arm-trial","trial_index":13,"time_elapsed":328119,"internal_node_id":"0.0-11.0-0.0","task_version":"screening-prolific","missing":false,"accuracy":1},{"contexts":["red","blue","green"],"outcomes":[1,1,0],"key":39,"choice":2,"rt":526.659999974072,"outcome":0,"trial":6,"correct":1,"trial_type":"three-arm-trial","trial_index":14,"time_elapsed":329857,"internal_node_id":"0.0-12.0-0.0","task_version":"screening-prolific","missing":false,"accuracy":0},{"contexts":["red","blue","green"],"outcomes":[0,0,0],"key":37,"choice":0,"rt":422.98500007018447,"outcome":0,"trial":7,"correct":1,"trial_type":"three-arm-trial","trial_index":15,"time_elapsed":331492,"internal_node_id":"0.0-13.0-0.0","task_version":"screening-prolific","missing":false,"accuracy":0},{"contexts":["red","blue","green"],"outcomes":[0,1,0],"key":37,"choice":0,"rt":410.7800000347197,"outcome":0,"trial":8,"correct":1,"trial_type":"three-arm-trial","trial_index":16,"time_elapsed":333114,"internal_node_id":"0.0-14.0-0.0","task_version":"screening-prolific","missing":false,"accuracy":0},{"contexts":["red","blue","green"],"outcomes":[0,1,1],"key":38,"choice":1,"rt":0.24500000290572643,"outcome":1,"trial":9,"correct":1,"trial_type":"three-arm-trial","trial_index":17,"time_elapsed":334325,"internal_node_id":"0.0-15.0-0.0","task_version":"screening-prolific","missing":false,"accuracy":1},{"contexts":["red","blue","green"],"outcomes":[0,1,0],"key":38,"choice":1,"rt":510.37999999243766,"outcome":1,"trial":10,"correct":1,"trial_type":"three-arm-trial","trial_index":18,"time_elapsed":336045,"internal_node_id":"0.0-16.0-0.0","task_version":"screening-prolific","missing":false,"accuracy":1},{"contexts":["red","blue","green"],"outcomes":[0,1,1],"key":38,"choice":1,"rt":354.6949999872595,"outcome":1,"trial":11,"correct":1,"trial_type":"three-arm-trial","trial_index":19,"time_elapsed":337610,"internal_node_id":"0.0-17.0-0.0","task_version":"screening-prolific","missing":false,"accuracy":1},{"contexts":["red","blue","green"],"outcomes":[0,1,0],"key":38,"choice":1,"rt":322.3399999551475,"outcome":1,"trial":12,"correct":1,"trial_type":"three-arm-trial","trial_index":20,"time_elapsed":339144,"internal_node_id":"0.0-18.0-0.0","task_version":"screening-prolific","missing":false,"accuracy":1},{"contexts":["red","blue","green"],"outcomes":[0,1,0],"key":38,"choice":1,"rt":271.7600000323728,"outcome":1,"trial":13,"correct":1,"trial_type":"three-arm-trial","trial_index":21,"time_elapsed":340631,"internal_node_id":"0.0-19.0-0.0","task_version":"screening-prolific","missing":false,"accuracy":1},{"contexts":["red","blue","green"],"outcomes":[0,1,0],"key":38,"choice":1,"rt":275.24000010453165,"outcome":1,"trial":14,"correct":1,"trial_type":"three-arm-trial","trial_index":22,"time_elapsed":342124,"internal_node_id":"0.0-20.0-0.0","task_version":"screening-prolific","missing":false,"accuracy":1},{"contexts":["red","blue","green"],"outcomes":[0,0,0],"key":38,"choice":1,"rt":244.32500009424984,"outcome":0,"trial":15,"correct":1,"trial_type":"three-arm-trial","trial_index":23,"time_elapsed":343582,"internal_node_id":"0.0-21.0-0.0","task_version":"screening-prolific","missing":false,"accuracy":1},{"contexts":["red","blue","green"],"outcomes":[0,0,1],"key":38,"choice":1,"rt":146.7450000345707,"outcome":0,"trial":16,"correct":2,"trial_type":"three-arm-trial","trial_index":24,"time_elapsed":344940,"internal_node_id":"0.0-22.0-0.0","task_version":"screening-prolific","missing":false,"accuracy":0},{"contexts":["red","blue","green"],"outcomes":[1,0,1],"key":38,"choice":1,"rt":558.0550000304356,"outcome":0,"trial":17,"correct":2,"trial_type":"three-arm-trial","trial_index":25,"time_elapsed":346711,"internal_node_id":"0.0-23.0-0.0","task_version":"screening-prolific","missing":false,"accuracy":0},{"contexts":["red","blue","green"],"outcomes":[0,1,1],"key":37,"choice":0,"rt":303.3400001004338,"outcome":0,"trial":18,"correct":2,"trial_type":"three-arm-trial","trial_index":26,"time_elapsed":348228,"internal_node_id":"0.0-24.0-0.0","task_version":"screening-prolific","missing":false,"accuracy":0},{"contexts":["red","blue","green"],"outcomes":[0,0,1],"key":39,"choice":2,"rt":370.5349999945611,"outcome":1,"trial":19,"correct":2,"trial_type":"three-arm-trial","trial_index":27,"time_elapsed":349811,"internal_node_id":"0.0-25.0-0.0","task_version":"screening-prolific","missing":false,"accuracy":1},{"contexts":["red","blue","green"],"outcomes":[1,0,1],"key":39,"choice":2,"rt":341.41999995335937,"outcome":1,"trial":20,"correct":2,"trial_type":"three-arm-trial","trial_index":28,"time_elapsed":351365,"internal_node_id":"0.0-26.0-0.0","task_version":"screening-prolific","missing":false,"accuracy":1},{"contexts":["red","blue","green"],"outcomes":[1,0,1],"key":39,"choice":2,"rt":362.1350000612438,"outcome":1,"trial":21,"correct":2,"trial_type":"three-arm-trial","trial_index":29,"time_elapsed":352941,"internal_node_id":"0.0-27.0-0.0","task_version":"screening-prolific","missing":false,"accuracy":1},{"contexts":["red","blue","green"],"outcomes":[0,1,1],"key":39,"choice":2,"rt":287.10999991744757,"outcome":1,"trial":22,"correct":2,"trial_type":"three-arm-trial","trial_index":30,"time_elapsed":354443,"internal_node_id":"0.0-28.0-0.0","task_version":"screening-prolific","missing":false,"accuracy":1},{"contexts":["red","blue","green"],"outcomes":[0,0,0],"key":39,"choice":2,"rt":266.21499995235354,"outcome":0,"trial":23,"correct":2,"trial_type":"three-arm-trial","trial_index":31,"time_elapsed":355930,"internal_node_id":"0.0-29.0-0.0","task_version":"screening-prolific","missing":false,"accuracy":1},{"contexts":["red","blue","green"],"outcomes":[0,0,1],"key":37,"choice":0,"rt":733.985000057146,"outcome":0,"trial":24,"correct":2,"trial_type":"three-arm-trial","trial_index":32,"time_elapsed":357877,"internal_node_id":"0.0-30.0-0.0","task_version":"screening-prolific","missing":false,"accuracy":0},{"contexts":["red","blue","green"],"outcomes":[1,1,1],"key":37,"choice":0,"rt":371.58000003546476,"outcome":1,"trial":25,"correct":2,"trial_type":"three-arm-trial","trial_index":33,"time_elapsed":359460,"internal_node_id":"0.0-31.0-0.0","task_version":"screening-prolific","missing":false,"accuracy":0},{"contexts":["red","blue","green"],"outcomes":[0,1,1],"key":37,"choice":0,"rt":261.9750000303611,"outcome":0,"trial":26,"correct":2,"trial_type":"three-arm-trial","trial_index":34,"time_elapsed":360936,"internal_node_id":"0.0-32.0-0.0","task_version":"screening-prolific","missing":false,"accuracy":0},{"contexts":["red","blue","green"],"outcomes":[1,0,1],"key":38,"choice":1,"rt":325.4799999995157,"outcome":0,"trial":27,"correct":2,"trial_type":"three-arm-trial","trial_index":35,"time_elapsed":362479,"internal_node_id":"0.0-33.0-0.0","task_version":"screening-prolific","missing":false,"accuracy":0},{"contexts":["red","blue","green"],"outcomes":[0,1,0],"key":39,"choice":2,"rt":57.82999994698912,"outcome":0,"trial":28,"correct":2,"trial_type":"three-arm-trial","trial_index":36,"time_elapsed":363755,"internal_node_id":"0.0-34.0-0.0","task_version":"screening-prolific","missing":false,"accuracy":1},{"contexts":["red","blue","green"],"outcomes":[0,0,1],"key":39,"choice":2,"rt":302.6049999753013,"outcome":1,"trial":29,"correct":2,"trial_type":"three-arm-trial","trial_index":37,"time_elapsed":365275,"internal_node_id":"0.0-35.0-0.0","task_version":"screening-prolific","missing":false,"accuracy":1},{"contexts":["red","blue","green"],"outcomes":[0,0,1],"key":39,"choice":2,"rt":246.89999991096556,"outcome":1,"trial":30,"correct":2,"trial_type":"three-arm-trial","trial_index":38,"time_elapsed":366740,"internal_node_id":"0.0-36.0-0.0","task_version":"screening-prolific","missing":false,"accuracy":1},{"contexts":["red","blue","green"],"outcomes":[1,0,1],"key":39,"choice":2,"rt":329.4649999588728,"outcome":1,"trial":31,"correct":0,"trial_type":"three-arm-trial","trial_index":39,"time_elapsed":368286,"internal_node_id":"0.0-37.0-0.0","task_version":"screening-prolific","missing":false,"accuracy":0},{"contexts":["red","blue","green"],"outcomes":[1,0,0],"key":39,"choice":2,"rt":362.65499994624406,"outcome":0,"trial":32,"correct":0,"trial_type":"three-arm-trial","trial_index":40,"time_elapsed":369860,"internal_node_id":"0.0-38.0-0.0","task_version":"screening-prolific","missing":false,"accuracy":0},{"contexts":["red","blue","green"],"outcomes":[1,0,0],"key":39,"choice":2,"rt":303.46999992616475,"outcome":0,"trial":33,"correct":0,"trial_type":"three-arm-trial","trial_index":41,"time_elapsed":371375,"internal_node_id":"0.0-39.0-0.0","task_version":"screening-prolific","missing":false,"accuracy":0},{"contexts":["red","blue","green"],"outcomes":[1,1,1],"key":38,"choice":1,"rt":376.52000004891306,"outcome":1,"trial":34,"correct":0,"trial_type":"three-arm-trial","trial_index":42,"time_elapsed":372963,"internal_node_id":"0.0-40.0-0.0","task_version":"screening-prolific","missing":false,"accuracy":0},{"contexts":["red","blue","green"],"outcomes":[1,0,1],"key":38,"choice":1,"rt":558.5900000296533,"outcome":0,"trial":35,"correct":0,"trial_type":"three-arm-trial","trial_index":43,"time_elapsed":374736,"internal_node_id":"0.0-41.0-0.0","task_version":"screening-prolific","missing":false,"accuracy":0},{"contexts":["red","blue","green"],"outcomes":[0,1,0],"key":39,"choice":2,"rt":288.6500000022352,"outcome":0,"trial":36,"correct":0,"trial_type":"three-arm-trial","trial_index":44,"time_elapsed":376238,"internal_node_id":"0.0-42.0-0.0","task_version":"screening-prolific","missing":false,"accuracy":0},{"contexts":["red","blue","green"],"outcomes":[1,1,0],"key":37,"choice":0,"rt":280.9399999678135,"outcome":1,"trial":37,"correct":0,"trial_type":"three-arm-trial","trial_index":45,"time_elapsed":377735,"internal_node_id":"0.0-43.0-0.0","task_version":"screening-prolific","missing":false,"accuracy":1},{"contexts":["red","blue","green"],"outcomes":[1,0,0],"key":37,"choice":0,"rt":199.8750000493601,"outcome":1,"trial":38,"correct":0,"trial_type":"three-arm-trial","trial_index":46,"time_elapsed":379148,"internal_node_id":"0.0-44.0-0.0","task_version":"screening-prolific","missing":false,"accuracy":1},{"contexts":["red","blue","green"],"outcomes":[0,0,0],"key":37,"choice":0,"rt":202.00000004842877,"outcome":0,"trial":39,"correct":0,"trial_type":"three-arm-trial","trial_index":47,"time_elapsed":380563,"internal_node_id":"0.0-45.0-0.0","task_version":"screening-prolific","missing":false,"accuracy":1},{"contexts":["red","blue","green"],"outcomes":[1,0,0],"key":37,"choice":0,"rt":316.5700000245124,"outcome":1,"trial":40,"correct":0,"trial_type":"three-arm-trial","trial_index":48,"time_elapsed":382095,"internal_node_id":"0.0-46.0-0.0","task_version":"screening-prolific","missing":false,"accuracy":1},{"contexts":["red","blue","green"],"outcomes":[0,0,0],"key":37,"choice":0,"rt":291.8500000378117,"outcome":0,"trial":41,"correct":0,"trial_type":"three-arm-trial","trial_index":49,"time_elapsed":383606,"internal_node_id":"0.0-47.0-0.0","task_version":"screening-prolific","missing":false,"accuracy":1},{"contexts":["red","blue","green"],"outcomes":[1,0,0],"key":37,"choice":0,"rt":321.36499998159707,"outcome":1,"trial":42,"correct":0,"trial_type":"three-arm-trial","trial_index":50,"time_elapsed":385177,"internal_node_id":"0.0-48.0-0.0","task_version":"screening-prolific","missing":false,"accuracy":1},{"contexts":["red","blue","green"],"outcomes":[1,0,0],"key":37,"choice":0,"rt":197.71499990019947,"outcome":1,"trial":43,"correct":0,"trial_type":"three-arm-trial","trial_index":51,"time_elapsed":386589,"internal_node_id":"0.0-49.0-0.0","task_version":"screening-prolific","missing":false,"accuracy":1},{"contexts":["red","blue","green"],"outcomes":[1,1,0],"key":37,"choice":0,"rt":320.8800000138581,"outcome":1,"trial":44,"correct":0,"trial_type":"three-arm-trial","trial_index":52,"time_elapsed":388125,"internal_node_id":"0.0-50.0-0.0","task_version":"screening-prolific","missing":false,"accuracy":1},{"contexts":["red","blue","green"],"outcomes":[0,0,0],"key":37,"choice":0,"rt":127.25500005763024,"outcome":0,"trial":45,"correct":0,"trial_type":"three-arm-trial","trial_index":53,"time_elapsed":389470,"internal_node_id":"0.0-51.0-0.0","task_version":"screening-prolific","missing":false,"accuracy":1},{"contexts":["red","blue","green"],"outcomes":[1,1,0],"key":37,"choice":0,"rt":330.1000000210479,"outcome":1,"trial":46,"correct":1,"trial_type":"three-arm-trial","trial_index":54,"time_elapsed":391014,"internal_node_id":"0.0-52.0-0.0","task_version":"screening-prolific","missing":false,"accuracy":0},{"contexts":["red","blue","green"],"outcomes":[0,1,0],"key":37,"choice":0,"rt":288.2499999832362,"outcome":0,"trial":47,"correct":1,"trial_type":"three-arm-trial","trial_index":55,"time_elapsed":392519,"internal_node_id":"0.0-53.0-0.0","task_version":"screening-prolific","missing":false,"accuracy":0},{"contexts":["red","blue","green"],"outcomes":[1,1,0],"key":37,"choice":0,"rt":357.1499999379739,"outcome":1,"trial":48,"correct":1,"trial_type":"three-arm-trial","trial_index":56,"time_elapsed":394091,"internal_node_id":"0.0-54.0-0.0","task_version":"screening-prolific","missing":false,"accuracy":0},{"contexts":["red","blue","green"],"outcomes":[0,1,0],"key":37,"choice":0,"rt":246.92499998491257,"outcome":0,"trial":49,"correct":1,"trial_type":"three-arm-trial","trial_index":57,"time_elapsed":395549,"internal_node_id":"0.0-55.0-0.0","task_version":"screening-prolific","missing":false,"accuracy":0},{"contexts":["red","blue","green"],"outcomes":[0,1,0],"key":38,"choice":1,"rt":173.15499996766448,"outcome":1,"trial":50,"correct":1,"trial_type":"three-arm-trial","trial_index":58,"time_elapsed":396934,"internal_node_id":"0.0-56.0-0.0","task_version":"screening-prolific","missing":false,"accuracy":1},{"contexts":["red","blue","green"],"outcomes":[1,1,1],"key":38,"choice":1,"rt":299.32499991264194,"outcome":1,"trial":51,"correct":1,"trial_type":"three-arm-trial","trial_index":59,"time_elapsed":398449,"internal_node_id":"0.0-57.0-0.0","task_version":"screening-prolific","missing":false,"accuracy":1},{"contexts":["red","blue","green"],"outcomes":[1,1,0],"key":38,"choice":1,"rt":260.5699999257922,"outcome":1,"trial":52,"correct":1,"trial_type":"three-arm-trial","trial_index":60,"time_elapsed":399926,"internal_node_id":"0.0-58.0-0.0","task_version":"screening-prolific","missing":false,"accuracy":1},{"contexts":["red","blue","green"],"outcomes":[0,0,0],"key":38,"choice":1,"rt":232.54500003531575,"outcome":0,"trial":53,"correct":1,"trial_type":"three-arm-trial","trial_index":61,"time_elapsed":401375,"internal_node_id":"0.0-59.0-0.0","task_version":"screening-prolific","missing":false,"accuracy":1},{"contexts":["red","blue","green"],"outcomes":[0,1,0],"key":39,"choice":2,"rt":436.6049999371171,"outcome":0,"trial":54,"correct":1,"trial_type":"three-arm-trial","trial_index":62,"time_elapsed":403027,"internal_node_id":"0.0-60.0-0.0","task_version":"screening-prolific","missing":false,"accuracy":0},{"contexts":["red","blue","green"],"outcomes":[0,1,0],"key":38,"choice":1,"rt":293.4400000376627,"outcome":1,"trial":55,"correct":1,"trial_type":"three-arm-trial","trial_index":63,"time_elapsed":404532,"internal_node_id":"0.0-61.0-0.0","task_version":"screening-prolific","missing":false,"accuracy":1},{"contexts":["red","blue","green"],"outcomes":[0,1,0],"key":38,"choice":1,"rt":253.59999993816018,"outcome":1,"trial":56,"correct":1,"trial_type":"three-arm-trial","trial_index":64,"time_elapsed":406000,"internal_node_id":"0.0-62.0-0.0","task_version":"screening-prolific","missing":false,"accuracy":1},{"contexts":["red","blue","green"],"outcomes":[0,1,0],"key":38,"choice":1,"rt":42.31499996967614,"outcome":1,"trial":57,"correct":1,"trial_type":"three-arm-trial","trial_index":65,"time_elapsed":407258,"internal_node_id":"0.0-63.0-0.0","task_version":"screening-prolific","missing":false,"accuracy":1},{"contexts":["red","blue","green"],"outcomes":[0,1,0],"key":38,"choice":1,"rt":315.90499996673316,"outcome":1,"trial":58,"correct":1,"trial_type":"three-arm-trial","trial_index":66,"time_elapsed":408787,"internal_node_id":"0.0-64.0-0.0","task_version":"screening-prolific","missing":false,"accuracy":1},{"contexts":["red","blue","green"],"outcomes":[0,1,1],"key":38,"choice":1,"rt":103.93999994266778,"outcome":1,"trial":59,"correct":1,"trial_type":"three-arm-trial","trial_index":67,"time_elapsed":410111,"internal_node_id":"0.0-65.0-0.0","task_version":"screening-prolific","missing":false,"accuracy":1},{"contexts":["red","blue","green"],"outcomes":[0,0,0],"key":38,"choice":1,"rt":160.93499993439764,"outcome":0,"trial":60,"correct":1,"trial_type":"three-arm-trial","trial_index":68,"time_elapsed":411487,"internal_node_id":"0.0-66.0-0.0","task_version":"screening-prolific","missing":false,"accuracy":1},{"contexts":["red","blue","green"],"outcomes":[0,1,0],"key":37,"choice":0,"rt":515.114999958314,"outcome":0,"trial":61,"correct":0,"trial_type":"three-arm-trial","trial_index":69,"time_elapsed":413218,"internal_node_id":"0.0-67.0-0.0","task_version":"screening-prolific","missing":false,"accuracy":1},{"contexts":["red","blue","green"],"outcomes":[1,1,0],"key":38,"choice":1,"rt":366.9949999311939,"outcome":1,"trial":62,"correct":0,"trial_type":"three-arm-trial","trial_index":70,"time_elapsed":414798,"internal_node_id":"0.0-68.0-0.0","task_version":"screening-prolific","missing":false,"accuracy":0},{"contexts":["red","blue","green"],"outcomes":[1,0,1],"key":38,"choice":1,"rt":141.59499993547797,"outcome":0,"trial":63,"correct":0,"trial_type":"three-arm-trial","trial_index":71,"time_elapsed":416153,"internal_node_id":"0.0-69.0-0.0","task_version":"screening-prolific","missing":false,"accuracy":0},{"contexts":["red","blue","green"],"outcomes":[1,0,1],"key":39,"choice":2,"rt":264.8950000293553,"outcome":1,"trial":64,"correct":0,"trial_type":"three-arm-trial","trial_index":72,"time_elapsed":417632,"internal_node_id":"0.0-70.0-0.0","task_version":"screening-prolific","missing":false,"accuracy":0},{"contexts":["red","blue","green"],"outcomes":[0,0,0],"key":39,"choice":2,"rt":516.3500000489876,"outcome":0,"trial":65,"correct":0,"trial_type":"three-arm-trial","trial_index":73,"time_elapsed":419368,"internal_node_id":"0.0-71.0-0.0","task_version":"screening-prolific","missing":false,"accuracy":0},{"contexts":["red","blue","green"],"outcomes":[0,0,0],"key":39,"choice":2,"rt":209.34499998111278,"outcome":0,"trial":66,"correct":0,"trial_type":"three-arm-trial","trial_index":74,"time_elapsed":420788,"internal_node_id":"0.0-72.0-0.0","task_version":"screening-prolific","missing":false,"accuracy":0},{"contexts":["red","blue","green"],"outcomes":[1,0,0],"key":38,"choice":1,"rt":340.5750000383705,"outcome":0,"trial":67,"correct":0,"trial_type":"three-arm-trial","trial_index":75,"time_elapsed":422341,"internal_node_id":"0.0-73.0-0.0","task_version":"screening-prolific","missing":false,"accuracy":0},{"contexts":["red","blue","green"],"outcomes":[1,0,0],"key":38,"choice":1,"rt":50.32999999821186,"outcome":0,"trial":68,"correct":0,"trial_type":"three-arm-trial","trial_index":76,"time_elapsed":423603,"internal_node_id":"0.0-74.0-0.0","task_version":"screening-prolific","missing":false,"accuracy":0},{"contexts":["red","blue","green"],"outcomes":[1,1,1],"key":37,"choice":0,"rt":418.8799998955801,"outcome":1,"trial":69,"correct":0,"trial_type":"three-arm-trial","trial_index":77,"time_elapsed":425238,"internal_node_id":"0.0-75.0-0.0","task_version":"screening-prolific","missing":false,"accuracy":1},{"contexts":["red","blue","green"],"outcomes":[0,1,0],"key":37,"choice":0,"rt":477.29499998968095,"outcome":0,"trial":70,"correct":0,"trial_type":"three-arm-trial","trial_index":78,"time_elapsed":426932,"internal_node_id":"0.0-76.0-0.0","task_version":"screening-prolific","missing":false,"accuracy":1},{"contexts":["red","blue","green"],"outcomes":[0,1,1],"key":37,"choice":0,"rt":318.58500000089407,"outcome":0,"trial":71,"correct":0,"trial_type":"three-arm-trial","trial_index":79,"time_elapsed":428466,"internal_node_id":"0.0-77.0-0.0","task_version":"screening-prolific","missing":false,"accuracy":1},{"contexts":["red","blue","green"],"outcomes":[1,0,0],"key":39,"choice":2,"rt":423.33500005770475,"outcome":0,"trial":72,"correct":0,"trial_type":"three-arm-trial","trial_index":80,"time_elapsed":430099,"internal_node_id":"0.0-78.0-0.0","task_version":"screening-prolific","missing":false,"accuracy":0},{"contexts":["red","blue","green"],"outcomes":[1,0,0],"key":37,"choice":0,"rt":95.35499999765307,"outcome":1,"trial":73,"correct":0,"trial_type":"three-arm-trial","trial_index":81,"time_elapsed":431406,"internal_node_id":"0.0-79.0-0.0","task_version":"screening-prolific","missing":false,"accuracy":1},{"contexts":["red","blue","green"],"outcomes":[1,0,0],"key":37,"choice":0,"rt":65.24999998509884,"outcome":1,"trial":74,"correct":0,"trial_type":"three-arm-trial","trial_index":82,"time_elapsed":432682,"internal_node_id":"0.0-80.0-0.0","task_version":"screening-prolific","missing":false,"accuracy":1},{"contexts":["red","blue","green"],"outcomes":[0,0,0],"key":37,"choice":0,"rt":59.42000006325543,"outcome":0,"trial":75,"correct":0,"trial_type":"three-arm-trial","trial_index":83,"time_elapsed":433953,"internal_node_id":"0.0-81.0-0.0","task_version":"screening-prolific","missing":false,"accuracy":1},{"contexts":["red","blue","green"],"outcomes":[0,0,1],"key":37,"choice":0,"rt":435.15999999362975,"outcome":0,"trial":76,"correct":2,"trial_type":"three-arm-trial","trial_index":84,"time_elapsed":435599,"internal_node_id":"0.0-82.0-0.0","task_version":"screening-prolific","missing":false,"accuracy":0},{"contexts":["red","blue","green"],"outcomes":[0,0,1],"key":38,"choice":1,"rt":171.51000001467764,"outcome":0,"trial":77,"correct":2,"trial_type":"three-arm-trial","trial_index":85,"time_elapsed":436981,"internal_node_id":"0.0-83.0-0.0","task_version":"screening-prolific","missing":false,"accuracy":0},{"contexts":["red","blue","green"],"outcomes":[0,0,1],"key":38,"choice":1,"rt":469.3800000241026,"outcome":0,"trial":78,"correct":2,"trial_type":"three-arm-trial","trial_index":86,"time_elapsed":438662,"internal_node_id":"0.0-84.0-0.0","task_version":"screening-prolific","missing":false,"accuracy":0},{"contexts":["red","blue","green"],"outcomes":[0,0,0],"key":39,"choice":2,"rt":114.7750000236556,"outcome":0,"trial":79,"correct":2,"trial_type":"three-arm-trial","trial_index":87,"time_elapsed":439995,"internal_node_id":"0.0-85.0-0.0","task_version":"screening-prolific","missing":false,"accuracy":1},{"contexts":["red","blue","green"],"outcomes":[0,0,1],"key":37,"choice":0,"rt":269.55500000622123,"outcome":0,"trial":80,"correct":2,"trial_type":"three-arm-trial","trial_index":88,"time_elapsed":441476,"internal_node_id":"0.0-86.0-0.0","task_version":"screening-prolific","missing":false,"accuracy":0},{"contexts":["red","blue","green"],"outcomes":[0,1,1],"key":37,"choice":0,"rt":246.9849999761209,"outcome":0,"trial":81,"correct":2,"trial_type":"three-arm-trial","trial_index":89,"time_elapsed":442936,"internal_node_id":"0.0-87.0-0.0","task_version":"screening-prolific","missing":false,"accuracy":0},{"contexts":["red","blue","green"],"outcomes":[0,0,0],"key":38,"choice":1,"rt":145.52500005811453,"outcome":0,"trial":82,"correct":2,"trial_type":"three-arm-trial","trial_index":90,"time_elapsed":444292,"internal_node_id":"0.0-88.0-0.0","task_version":"screening-prolific","missing":false,"accuracy":0},{"contexts":["red","blue","green"],"outcomes":[0,1,0],"key":39,"choice":2,"rt":90.62999999150634,"outcome":0,"trial":83,"correct":2,"trial_type":"three-arm-trial","trial_index":91,"time_elapsed":445593,"internal_node_id":"0.0-89.0-0.0","task_version":"screening-prolific","missing":false,"accuracy":1},{"contexts":["red","blue","green"],"outcomes":[0,1,1],"key":37,"choice":0,"rt":428.04000002797693,"outcome":0,"trial":84,"correct":2,"trial_type":"three-arm-trial","trial_index":92,"time_elapsed":447232,"internal_node_id":"0.0-90.0-0.0","task_version":"screening-prolific","missing":false,"accuracy":0},{"contexts":["red","blue","green"],"outcomes":[0,0,0],"key":38,"choice":1,"rt":114.13500003982335,"outcome":0,"trial":85,"correct":2,"trial_type":"three-arm-trial","trial_index":93,"time_elapsed":448557,"internal_node_id":"0.0-91.0-0.0","task_version":"screening-prolific","missing":false,"accuracy":0},{"contexts":["red","blue","green"],"outcomes":[0,0,1],"key":38,"choice":1,"rt":154.6099999686703,"outcome":0,"trial":86,"correct":2,"trial_type":"three-arm-trial","trial_index":94,"time_elapsed":449924,"internal_node_id":"0.0-92.0-0.0","task_version":"screening-prolific","missing":false,"accuracy":0},{"contexts":["red","blue","green"],"outcomes":[0,0,1],"key":39,"choice":2,"rt":143.48500000778586,"outcome":1,"trial":87,"correct":2,"trial_type":"three-arm-trial","trial_index":95,"time_elapsed":451278,"internal_node_id":"0.0-93.0-0.0","task_version":"screening-prolific","missing":false,"accuracy":1},{"contexts":["red","blue","green"],"outcomes":[1,0,1],"key":39,"choice":2,"rt":61.90999993123114,"outcome":1,"trial":88,"correct":2,"trial_type":"three-arm-trial","trial_index":96,"time_elapsed":452551,"internal_node_id":"0.0-94.0-0.0","task_version":"screening-prolific","missing":false,"accuracy":1},{"contexts":["red","blue","green"],"outcomes":[0,0,1],"key":39,"choice":2,"rt":394.1600000252947,"outcome":1,"trial":89,"correct":2,"trial_type":"three-arm-trial","trial_index":97,"time_elapsed":454157,"internal_node_id":"0.0-95.0-0.0","task_version":"screening-prolific","missing":false,"accuracy":1},{"contexts":["red","blue","green"],"outcomes":[0,0,1],"key":39,"choice":2,"rt":299.18000008910894,"outcome":1,"trial":90,"correct":2,"trial_type":"three-arm-trial","trial_index":98,"time_elapsed":455667,"internal_node_id":"0.0-96.0-0.0","task_version":"screening-prolific","missing":false,"accuracy":1},{"rt":77038.76499994658,"responses":{"age":"29","gender-categorical":"Female","gender-free-response":"","ethnicity":"Not Hispanic or Latino","race":["Asian"],"language":"No","fluency":"Very well","mturk":"No","mturk-this-study":"No"},"survey":"demographics","trial_type":"survey-demo","trial_index":99,"time_elapsed":532759,"internal_node_id":"0.0-97.0","task_version":"screening-prolific","interactions":"[{\"event\":\"blur\",\"trial\":99,\"time\":471004},{\"event\":\"focus\",\"trial\":99,\"time\":508365}]"}]