[{"responses":{"Q02":"4","Q01":"3","Q03":"2"},"rt":24626.04000000283,"survey":"pswq","trial_type":"survey-template","trial_index":0,"time_elapsed":24667,"internal_node_id":"0.0-0.0","task_version":"screening-prolific"},{"responses":{"Q01":"2","Q03":"2","Q05":"1","Q04":"1","Q06":"2","Q08":"0","Q02":"2","Q07":"3"},"rt":23822.355000011157,"survey":"gad7","trial_type":"survey-template","trial_index":1,"time_elapsed":48495,"internal_node_id":"0.0-1.0","task_version":"screening-prolific"},{"responses":{"Q04":"3","Q03":"3","Q02":"3","Q11":"3","Q01":"3","Q13":"3","Q09":"3","Q08":"3","Q06":"3","Q10":"3","Q14":"3","Q12":"3","Q15":"1","Q05":"3","Q07":"3"},"rt":52252.910000039265,"survey":"shaps","trial_type":"survey-template","trial_index":2,"time_elapsed":100753,"internal_node_id":"0.0-2.0","task_version":"screening-prolific"},{"responses":{"Q12":"1","Q07":"3","Q02":"3","Q09":"1","Q08":"2","Q04":"3","Q06":"2","Q03":"3","Q11":"3","Q01":"2","Q13":"3","Q15":"0","Q10":"1","Q14":"1","Q05":"2"},"rt":98305.57500000577,"survey":"7up7down","trial_type":"survey-template","trial_index":3,"time_elapsed":199065,"internal_node_id":"0.0-3.0","task_version":"screening-prolific"},{"responses":{"Q08":"3","Q03":"2","Q12":"2","Q02":"2","Q07":"3","Q13":"3","Q10":"2","Q05":"2","Q04":"3","Q11":"3","Q09":"3","Q01":"2","Q06":"3"},"rt":57682.689999986906,"survey":"bisbas","trial_type":"survey-template","trial_index":4,"time_elapsed":256753,"internal_node_id":"0.0-4.0","task_version":"screening-prolific"},{"view_history":"[{\"page_index\":0,\"viewing_time\":9627.574999991339},{\"page_index\":1,\"viewing_time\":8588.815000024624},{\"page_index\":2,\"viewing_time\":11706.659999967087},{\"page_index\":3,\"viewing_time\":3852.985000004992},{\"page_index\":4,\"viewing_time\":2818.975000001956},{\"page_index\":5,\"viewing_time\":5368.900000001304},{\"page_index\":6,\"viewing_time\":4035.0350000080653},{\"page_index\":7,\"viewing_time\":4010.8500000205822}]","rt":50011.25999999931,"trial_type":"instructions","trial_index":5,"time_elapsed":306766,"internal_node_id":"0.0-5.0-0.0","task_version":"screening-prolific"},{"responses":["True","True","True","True","False"],"num_errors":3,"rt":26738.450000004377,"trial_type":"three-arm-comprehension","trial_index":6,"time_elapsed":333510,"internal_node_id":"0.0-5.0-1.0","task_version":"screening-prolific"},{"view_history":"[{\"page_index\":0,\"viewing_time\":3912.910000013653},{\"page_index\":1,\"viewing_time\":4722.060000000056},{\"page_index\":2,\"viewing_time\":2163.219999987632},{\"page_index\":3,\"viewing_time\":694.1050000023097},{\"page_index\":4,\"viewing_time\":1889.7100000176579},{\"page_index\":5,\"viewing_time\":8133.529999991879},{\"page_index\":6,\"viewing_time\":921.4500000234693},{\"page_index\":7,\"viewing_time\":1251.7549999756739}]","rt":23689.51500003459,"trial_type":"instructions","trial_index":7,"time_elapsed":357207,"internal_node_id":"0.0-5.1-0.1","task_version":"screening-prolific"},{"responses":["True","True","True","False","True"],"num_errors":1,"rt":11103.74499997124,"trial_type":"three-arm-comprehension","trial_index":8,"time_elapsed":368315,"internal_node_id":"0.0-5.1-1.1","task_version":"screening-prolific"},{"view_history":"[{\"page_index\":0,\"viewing_time\":2673.9250000100583},{\"page_index\":1,\"viewing_time\":559.9999999976717},{\"page_index\":2,\"viewing_time\":331.6299999714829},{\"page_index\":3,\"viewing_time\":1015.3500000014901},{\"page_index\":4,\"viewing_time\":515.480000001844},{\"page_index\":5,\"viewing_time\":517.760000017006},{\"page_index\":6,\"viewing_time\":530.9849999612197},{\"page_index\":7,\"viewing_time\":700.0200000475161}]","rt":6845.8450000034645,"trial_type":"instructions","trial_index":9,"time_elapsed":375165,"internal_node_id":"0.0-5.2-0.2","task_version":"screening-prolific"},{"responses":["True","True","False","False","True"],"num_errors":0,"rt":32753.07499995688,"trial_type":"three-arm-comprehension","trial_index":10,"time_elapsed":407922,"internal_node_id":"0.0-5.2-1.2","task_version":"screening-prolific"},{"view_history":"[{\"page_index\":0,\"viewing_time\":2430.274999991525}]","rt":2430.8799999998882,"trial_type":"instructions","trial_index":11,"time_elapsed":410357,"internal_node_id":"0.0-6.0","task_version":"screening-prolific"},{"contexts":["blue","red","green"],"outcomes":[0,1,1],"key":null,"rt":null,"trial":1,"correct":1,"trial_type":"three-arm-trial","trial_index":12,"time_elapsed":425364,"internal_node_id":"0.0-7.0-0.0","task_version":"screening-prolific","missing":true},{"contexts":["blue","red","green"],"outcomes":[0,1,1],"key":null,"rt":null,"trial":1,"correct":1,"trial_type":"three-arm-trial","trial_index":13,"time_elapsed":440369,"internal_node_id":"0.0-7.1-0.1","task_version":"screening-prolific","missing":true},{"contexts":["blue","red","green"],"outcomes":[0,1,1],"key":38,"choice":1,"rt":8085.489999968559,"outcome":1,"trial":1,"correct":1,"trial_type":"three-arm-trial","trial_index":14,"time_elapsed":449660,"internal_node_id":"0.0-7.2-0.2","task_version":"screening-prolific","missing":false,"accuracy":1},{"contexts":["blue","red","green"],"outcomes":[0,1,0],"key":38,"choice":1,"rt":5.905000027269125,"outcome":1,"trial":2,"correct":1,"trial_type":"three-arm-trial","trial_index":15,"time_elapsed":450869,"internal_node_id":"0.0-8.0-0.0","task_version":"screening-prolific","missing":false,"accuracy":1},{"contexts":["blue","red","green"],"outcomes":[0,1,0],"key":39,"choice":2,"rt":29.544999997597188,"outcome":0,"trial":3,"correct":1,"trial_type":"three-arm-trial","trial_index":16,"time_elapsed":452103,"internal_node_id":"0.0-9.0-0.0","task_version":"screening-prolific","missing":false,"accuracy":0},{"contexts":["blue","red","green"],"outcomes":[1,1,1],"key":37,"choice":0,"rt":174.67500001657754,"outcome":1,"trial":4,"correct":1,"trial_type":"three-arm-trial","trial_index":17,"time_elapsed":453481,"internal_node_id":"0.0-10.0-0.0","task_version":"screening-prolific","missing":false,"accuracy":0},{"contexts":["blue","red","green"],"outcomes":[1,1,1],"key":38,"choice":1,"rt":116.80499999783933,"outcome":1,"trial":5,"correct":1,"trial_type":"three-arm-trial","trial_index":18,"time_elapsed":454802,"internal_node_id":"0.0-11.0-0.0","task_version":"screening-prolific","missing":false,"accuracy":1},{"contexts":["blue","red","green"],"outcomes":[1,1,0],"key":37,"choice":0,"rt":952.2199999773875,"outcome":1,"trial":6,"correct":1,"trial_type":"three-arm-trial","trial_index":19,"time_elapsed":456960,"internal_node_id":"0.0-12.0-0.0","task_version":"screening-prolific","missing":false,"accuracy":0},{"contexts":["blue","red","green"],"outcomes":[0,1,0],"key":38,"choice":1,"rt":4.454999987501651,"outcome":1,"trial":7,"correct":1,"trial_type":"three-arm-trial","trial_index":20,"time_elapsed":458168,"internal_node_id":"0.0-13.0-0.0","task_version":"screening-prolific","missing":false,"accuracy":1},{"contexts":["blue","red","green"],"outcomes":[0,0,0],"key":39,"choice":2,"rt":14.060000015888363,"outcome":0,"trial":8,"correct":1,"trial_type":"three-arm-trial","trial_index":21,"time_elapsed":459386,"internal_node_id":"0.0-14.0-0.0","task_version":"screening-prolific","missing":false,"accuracy":0},{"contexts":["blue","red","green"],"outcomes":[0,1,0],"key":37,"choice":0,"rt":92.83500001765788,"outcome":0,"trial":9,"correct":1,"trial_type":"three-arm-trial","trial_index":22,"time_elapsed":460682,"internal_node_id":"0.0-15.0-0.0","task_version":"screening-prolific","missing":false,"accuracy":0},{"contexts":["blue","red","green"],"outcomes":[1,1,0],"key":38,"choice":1,"rt":201.17000001482666,"outcome":1,"trial":10,"correct":1,"trial_type":"three-arm-trial","trial_index":23,"time_elapsed":462087,"internal_node_id":"0.0-16.0-0.0","task_version":"screening-prolific","missing":false,"accuracy":1},{"contexts":["blue","red","green"],"outcomes":[0,1,0],"key":38,"choice":1,"rt":295.285000000149,"outcome":1,"trial":11,"correct":1,"trial_type":"three-arm-trial","trial_index":24,"time_elapsed":463586,"internal_node_id":"0.0-17.0-0.0","task_version":"screening-prolific","missing":false,"accuracy":1},{"contexts":["blue","red","green"],"outcomes":[0,1,1],"key":38,"choice":1,"rt":191.1200000322424,"outcome":1,"trial":12,"correct":1,"trial_type":"three-arm-trial","trial_index":25,"time_elapsed":464981,"internal_node_id":"0.0-18.0-0.0","task_version":"screening-prolific","missing":false,"accuracy":1},{"contexts":["blue","red","green"],"outcomes":[0,1,0],"key":37,"choice":0,"rt":336.3299999618903,"outcome":0,"trial":13,"correct":1,"trial_type":"three-arm-trial","trial_index":26,"time_elapsed":466520,"internal_node_id":"0.0-19.0-0.0","task_version":"screening-prolific","missing":false,"accuracy":0},{"contexts":["blue","red","green"],"outcomes":[0,1,0],"key":38,"choice":1,"rt":65.68500003777444,"outcome":1,"trial":14,"correct":1,"trial_type":"three-arm-trial","trial_index":27,"time_elapsed":467790,"internal_node_id":"0.0-20.0-0.0","task_version":"screening-prolific","missing":false,"accuracy":1},{"contexts":["blue","red","green"],"outcomes":[1,1,1],"key":39,"choice":2,"rt":829.2599999695085,"outcome":1,"trial":15,"correct":1,"trial_type":"three-arm-trial","trial_index":28,"time_elapsed":469824,"internal_node_id":"0.0-21.0-0.0","task_version":"screening-prolific","missing":false,"accuracy":0},{"contexts":["blue","red","green"],"outcomes":[0,1,0],"key":38,"choice":1,"rt":455.0400000298396,"outcome":1,"trial":16,"correct":0,"trial_type":"three-arm-trial","trial_index":29,"time_elapsed":471483,"internal_node_id":"0.0-22.0-0.0","task_version":"screening-prolific","missing":false,"accuracy":0},{"contexts":["blue","red","green"],"outcomes":[1,0,0],"key":39,"choice":2,"rt":191.73500000033528,"outcome":0,"trial":17,"correct":0,"trial_type":"three-arm-trial","trial_index":30,"time_elapsed":472878,"internal_node_id":"0.0-23.0-0.0","task_version":"screening-prolific","missing":false,"accuracy":0},{"contexts":["blue","red","green"],"outcomes":[1,0,0],"key":37,"choice":0,"rt":503.85999999707565,"outcome":1,"trial":18,"correct":0,"trial_type":"three-arm-trial","trial_index":31,"time_elapsed":474586,"internal_node_id":"0.0-24.0-0.0","task_version":"screening-prolific","missing":false,"accuracy":1},{"contexts":["blue","red","green"],"outcomes":[0,0,0],"key":38,"choice":1,"rt":1050.745000015013,"outcome":0,"trial":19,"correct":0,"trial_type":"three-arm-trial","trial_index":32,"time_elapsed":476840,"internal_node_id":"0.0-25.0-0.0","task_version":"screening-prolific","missing":false,"accuracy":0},{"contexts":["blue","red","green"],"outcomes":[1,0,0],"key":37,"choice":0,"rt":74.54999996116385,"outcome":1,"trial":20,"correct":0,"trial_type":"three-arm-trial","trial_index":33,"time_elapsed":478119,"internal_node_id":"0.0-26.0-0.0","task_version":"screening-prolific","missing":false,"accuracy":1},{"contexts":["blue","red","green"],"outcomes":[0,0,0],"key":37,"choice":0,"rt":131.16500002797693,"outcome":0,"trial":21,"correct":0,"trial_type":"three-arm-trial","trial_index":34,"time_elapsed":479454,"internal_node_id":"0.0-27.0-0.0","task_version":"screening-prolific","missing":false,"accuracy":1},{"contexts":["blue","red","green"],"outcomes":[1,0,0],"key":39,"choice":2,"rt":375.4799999878742,"outcome":0,"trial":22,"correct":0,"trial_type":"three-arm-trial","trial_index":35,"time_elapsed":481034,"internal_node_id":"0.0-28.0-0.0","task_version":"screening-prolific","missing":false,"accuracy":0},{"contexts":["blue","red","green"],"outcomes":[1,0,0],"key":38,"choice":1,"rt":446.62000000244007,"outcome":0,"trial":23,"correct":0,"trial_type":"three-arm-trial","trial_index":36,"time_elapsed":482684,"internal_node_id":"0.0-29.0-0.0","task_version":"screening-prolific","missing":false,"accuracy":0},{"contexts":["blue","red","green"],"outcomes":[1,0,1],"key":37,"choice":0,"rt":454.2699999874458,"outcome":1,"trial":24,"correct":0,"trial_type":"three-arm-trial","trial_index":37,"time_elapsed":484344,"internal_node_id":"0.0-30.0-0.0","task_version":"screening-prolific","missing":false,"accuracy":1},{"contexts":["blue","red","green"],"outcomes":[1,1,0],"key":38,"choice":1,"rt":568.2599999709055,"outcome":1,"trial":25,"correct":0,"trial_type":"three-arm-trial","trial_index":38,"time_elapsed":486115,"internal_node_id":"0.0-31.0-0.0","task_version":"screening-prolific","missing":false,"accuracy":0},{"contexts":["blue","red","green"],"outcomes":[1,1,0],"key":37,"choice":0,"rt":525.6999999983236,"outcome":1,"trial":26,"correct":0,"trial_type":"three-arm-trial","trial_index":39,"time_elapsed":487845,"internal_node_id":"0.0-32.0-0.0","task_version":"screening-prolific","missing":false,"accuracy":1},{"contexts":["blue","red","green"],"outcomes":[1,1,0],"key":38,"choice":1,"rt":462.50000002328306,"outcome":1,"trial":27,"correct":0,"trial_type":"three-arm-trial","trial_index":40,"time_elapsed":489511,"internal_node_id":"0.0-33.0-0.0","task_version":"screening-prolific","missing":false,"accuracy":0},{"contexts":["blue","red","green"],"outcomes":[1,1,0],"key":37,"choice":0,"rt":531.1199999996461,"outcome":1,"trial":28,"correct":0,"trial_type":"three-arm-trial","trial_index":41,"time_elapsed":491247,"internal_node_id":"0.0-34.0-0.0","task_version":"screening-prolific","missing":false,"accuracy":1},{"contexts":["blue","red","green"],"outcomes":[0,0,0],"key":38,"choice":1,"rt":129.30999998934567,"outcome":0,"trial":29,"correct":0,"trial_type":"three-arm-trial","trial_index":42,"time_elapsed":492580,"internal_node_id":"0.0-35.0-0.0","task_version":"screening-prolific","missing":false,"accuracy":0},{"contexts":["blue","red","green"],"outcomes":[1,1,0],"key":39,"choice":2,"rt":137.30000000214204,"outcome":0,"trial":30,"correct":0,"trial_type":"three-arm-trial","trial_index":43,"time_elapsed":493922,"internal_node_id":"0.0-36.0-0.0","task_version":"screening-prolific","missing":false,"accuracy":0},{"contexts":["blue","red","green"],"outcomes":[0,1,1],"key":37,"choice":0,"rt":368.30000003101304,"outcome":0,"trial":31,"correct":1,"trial_type":"three-arm-trial","trial_index":44,"time_elapsed":495495,"internal_node_id":"0.0-37.0-0.0","task_version":"screening-prolific","missing":false,"accuracy":0},{"contexts":["blue","red","green"],"outcomes":[1,1,0],"key":38,"choice":1,"rt":662.1450000093319,"outcome":1,"trial":32,"correct":1,"trial_type":"three-arm-trial","trial_index":45,"time_elapsed":497361,"internal_node_id":"0.0-38.0-0.0","task_version":"screening-prolific","missing":false,"accuracy":1},{"contexts":["blue","red","green"],"outcomes":[0,1,0],"key":39,"choice":2,"rt":94.2100000102073,"outcome":0,"trial":33,"correct":1,"trial_type":"three-arm-trial","trial_index":46,"time_elapsed":498660,"internal_node_id":"0.0-39.0-0.0","task_version":"screening-prolific","missing":false,"accuracy":0},{"contexts":["blue","red","green"],"outcomes":[0,1,1],"key":38,"choice":1,"rt":174.41499995766208,"outcome":1,"trial":34,"correct":1,"trial_type":"three-arm-trial","trial_index":47,"time_elapsed":500039,"internal_node_id":"0.0-40.0-0.0","task_version":"screening-prolific","missing":false,"accuracy":1},{"contexts":["blue","red","green"],"outcomes":[0,1,0],"key":38,"choice":1,"rt":1192.5850000116043,"outcome":1,"trial":35,"correct":1,"trial_type":"three-arm-trial","trial_index":48,"time_elapsed":502436,"internal_node_id":"0.0-41.0-0.0","task_version":"screening-prolific","missing":false,"accuracy":1},{"contexts":["blue","red","green"],"outcomes":[0,0,0],"key":38,"choice":1,"rt":468.45500002382323,"outcome":0,"trial":36,"correct":1,"trial_type":"three-arm-trial","trial_index":49,"time_elapsed":504110,"internal_node_id":"0.0-42.0-0.0","task_version":"screening-prolific","missing":false,"accuracy":1},{"contexts":["blue","red","green"],"outcomes":[0,0,0],"key":37,"choice":0,"rt":207.5450000120327,"outcome":0,"trial":37,"correct":1,"trial_type":"three-arm-trial","trial_index":50,"time_elapsed":505521,"internal_node_id":"0.0-43.0-0.0","task_version":"screening-prolific","missing":false,"accuracy":0},{"contexts":["blue","red","green"],"outcomes":[0,1,0],"key":39,"choice":2,"rt":179.04999997699633,"outcome":0,"trial":38,"correct":1,"trial_type":"three-arm-trial","trial_index":51,"time_elapsed":506904,"internal_node_id":"0.0-44.0-0.0","task_version":"screening-prolific","missing":false,"accuracy":0},{"contexts":["blue","red","green"],"outcomes":[0,1,0],"key":38,"choice":1,"rt":39.1500000259839,"outcome":1,"trial":39,"correct":1,"trial_type":"three-arm-trial","trial_index":52,"time_elapsed":508148,"internal_node_id":"0.0-45.0-0.0","task_version":"screening-prolific","missing":false,"accuracy":1},{"contexts":["blue","red","green"],"outcomes":[1,1,0],"key":38,"choice":1,"rt":0.3349999897181988,"outcome":1,"trial":40,"correct":1,"trial_type":"three-arm-trial","trial_index":53,"time_elapsed":509353,"internal_node_id":"0.0-46.0-0.0","task_version":"screening-prolific","missing":false,"accuracy":1},{"contexts":["blue","red","green"],"outcomes":[0,1,0],"key":38,"choice":1,"rt":55.050000024493784,"outcome":1,"trial":41,"correct":1,"trial_type":"three-arm-trial","trial_index":54,"time_elapsed":510612,"internal_node_id":"0.0-47.0-0.0","task_version":"screening-prolific","missing":false,"accuracy":1},{"contexts":["blue","red","green"],"outcomes":[0,1,1],"key":38,"choice":1,"rt":347.4949999945238,"outcome":1,"trial":42,"correct":1,"trial_type":"three-arm-trial","trial_index":55,"time_elapsed":512163,"internal_node_id":"0.0-48.0-0.0","task_version":"screening-prolific","missing":false,"accuracy":1},{"contexts":["blue","red","green"],"outcomes":[0,1,0],"key":38,"choice":1,"rt":273.8750000135042,"outcome":1,"trial":43,"correct":1,"trial_type":"three-arm-trial","trial_index":56,"time_elapsed":513641,"internal_node_id":"0.0-49.0-0.0","task_version":"screening-prolific","missing":false,"accuracy":1},{"contexts":["blue","red","green"],"outcomes":[0,1,0],"key":38,"choice":1,"rt":384.1750000137836,"outcome":1,"trial":44,"correct":1,"trial_type":"three-arm-trial","trial_index":57,"time_elapsed":515229,"internal_node_id":"0.0-50.0-0.0","task_version":"screening-prolific","missing":false,"accuracy":1},{"contexts":["blue","red","green"],"outcomes":[0,1,1],"key":38,"choice":1,"rt":354.97500002384186,"outcome":1,"trial":45,"correct":1,"trial_type":"three-arm-trial","trial_index":58,"time_elapsed":516789,"internal_node_id":"0.0-51.0-0.0","task_version":"screening-prolific","missing":false,"accuracy":1},{"contexts":["blue","red","green"],"outcomes":[1,0,0],"key":38,"choice":1,"rt":276.98500000406057,"outcome":0,"trial":46,"correct":0,"trial_type":"three-arm-trial","trial_index":59,"time_elapsed":518270,"internal_node_id":"0.0-52.0-0.0","task_version":"screening-prolific","missing":false,"accuracy":0},{"contexts":["blue","red","green"],"outcomes":[1,1,0],"key":37,"choice":0,"rt":420.8050000015646,"outcome":1,"trial":47,"correct":0,"trial_type":"three-arm-trial","trial_index":60,"time_elapsed":519895,"internal_node_id":"0.0-53.0-0.0","task_version":"screening-prolific","missing":false,"accuracy":1},{"contexts":["blue","red","green"],"outcomes":[1,0,0],"key":37,"choice":0,"rt":311.54999998398125,"outcome":1,"trial":48,"correct":0,"trial_type":"three-arm-trial","trial_index":61,"time_elapsed":521411,"internal_node_id":"0.0-54.0-0.0","task_version":"screening-prolific","missing":false,"accuracy":1},{"contexts":["blue","red","green"],"outcomes":[1,0,0],"key":37,"choice":0,"rt":400.53500002250075,"outcome":1,"trial":49,"correct":0,"trial_type":"three-arm-trial","trial_index":62,"time_elapsed":523015,"internal_node_id":"0.0-55.0-0.0","task_version":"screening-prolific","missing":false,"accuracy":1},{"contexts":["blue","red","green"],"outcomes":[1,0,0],"key":37,"choice":0,"rt":230.3550000069663,"outcome":1,"trial":50,"correct":0,"trial_type":"three-arm-trial","trial_index":63,"time_elapsed":524449,"internal_node_id":"0.0-56.0-0.0","task_version":"screening-prolific","missing":false,"accuracy":1},{"contexts":["blue","red","green"],"outcomes":[1,0,1],"key":37,"choice":0,"rt":285.875000001397,"outcome":1,"trial":51,"correct":0,"trial_type":"three-arm-trial","trial_index":64,"time_elapsed":525940,"internal_node_id":"0.0-57.0-0.0","task_version":"screening-prolific","missing":false,"accuracy":1},{"contexts":["blue","red","green"],"outcomes":[1,0,0],"key":37,"choice":0,"rt":270.3750000218861,"outcome":1,"trial":52,"correct":0,"trial_type":"three-arm-trial","trial_index":65,"time_elapsed":527415,"internal_node_id":"0.0-58.0-0.0","task_version":"screening-prolific","missing":false,"accuracy":1},{"contexts":["blue","red","green"],"outcomes":[1,0,0],"key":37,"choice":0,"rt":296.8000000109896,"outcome":1,"trial":53,"correct":0,"trial_type":"three-arm-trial","trial_index":66,"time_elapsed":528915,"internal_node_id":"0.0-59.0-0.0","task_version":"screening-prolific","missing":false,"accuracy":1},{"contexts":["blue","red","green"],"outcomes":[0,1,0],"key":37,"choice":0,"rt":319.5350000169128,"outcome":0,"trial":54,"correct":0,"trial_type":"three-arm-trial","trial_index":67,"time_elapsed":530438,"internal_node_id":"0.0-60.0-0.0","task_version":"screening-prolific","missing":false,"accuracy":1},{"contexts":["blue","red","green"],"outcomes":[1,0,0],"key":39,"choice":2,"rt":94.37999996589497,"outcome":0,"trial":55,"correct":0,"trial_type":"three-arm-trial","trial_index":68,"time_elapsed":531736,"internal_node_id":"0.0-61.0-0.0","task_version":"screening-prolific","missing":false,"accuracy":0},{"contexts":["blue","red","green"],"outcomes":[0,0,0],"key":38,"choice":1,"rt":17.044999985955656,"outcome":0,"trial":56,"correct":0,"trial_type":"three-arm-trial","trial_index":69,"time_elapsed":532957,"internal_node_id":"0.0-62.0-0.0","task_version":"screening-prolific","missing":false,"accuracy":0},{"contexts":["blue","red","green"],"outcomes":[1,0,0],"key":37,"choice":0,"rt":135.45499998144805,"outcome":1,"trial":57,"correct":0,"trial_type":"three-arm-trial","trial_index":70,"time_elapsed":534297,"internal_node_id":"0.0-63.0-0.0","task_version":"screening-prolific","missing":false,"accuracy":1},{"contexts":["blue","red","green"],"outcomes":[1,0,1],"key":37,"choice":0,"rt":496.1600000387989,"outcome":1,"trial":58,"correct":0,"trial_type":"three-arm-trial","trial_index":71,"time_elapsed":535997,"internal_node_id":"0.0-64.0-0.0","task_version":"screening-prolific","missing":false,"accuracy":1},{"contexts":["blue","red","green"],"outcomes":[1,1,1],"key":37,"choice":0,"rt":310.0550000090152,"outcome":1,"trial":59,"correct":0,"trial_type":"three-arm-trial","trial_index":72,"time_elapsed":537511,"internal_node_id":"0.0-65.0-0.0","task_version":"screening-prolific","missing":false,"accuracy":1},{"contexts":["blue","red","green"],"outcomes":[0,0,0],"key":37,"choice":0,"rt":303.17999998806044,"outcome":0,"trial":60,"correct":0,"trial_type":"three-arm-trial","trial_index":73,"time_elapsed":539017,"internal_node_id":"0.0-66.0-0.0","task_version":"screening-prolific","missing":false,"accuracy":1},{"contexts":["blue","red","green"],"outcomes":[0,1,0],"key":38,"choice":1,"rt":175.31000002054498,"outcome":1,"trial":61,"correct":1,"trial_type":"three-arm-trial","trial_index":74,"time_elapsed":540396,"internal_node_id":"0.0-67.0-0.0","task_version":"screening-prolific","missing":false,"accuracy":1},{"contexts":["blue","red","green"],"outcomes":[1,1,0],"key":38,"choice":1,"rt":278.03000004496425,"outcome":1,"trial":62,"correct":1,"trial_type":"three-arm-trial","trial_index":75,"time_elapsed":541878,"internal_node_id":"0.0-68.0-0.0","task_version":"screening-prolific","missing":false,"accuracy":1},{"contexts":["blue","red","green"],"outcomes":[1,1,0],"key":38,"choice":1,"rt":412.1099999756552,"outcome":1,"trial":63,"correct":1,"trial_type":"three-arm-trial","trial_index":76,"time_elapsed":543495,"internal_node_id":"0.0-69.0-0.0","task_version":"screening-prolific","missing":false,"accuracy":1},{"contexts":["blue","red","green"],"outcomes":[0,1,0],"key":38,"choice":1,"rt":331.8449999787845,"outcome":1,"trial":64,"correct":1,"trial_type":"three-arm-trial","trial_index":77,"time_elapsed":545030,"internal_node_id":"0.0-70.0-0.0","task_version":"screening-prolific","missing":false,"accuracy":1},{"contexts":["blue","red","green"],"outcomes":[0,1,0],"key":38,"choice":1,"rt":463.9250000473112,"outcome":1,"trial":65,"correct":1,"trial_type":"three-arm-trial","trial_index":78,"time_elapsed":546699,"internal_node_id":"0.0-71.0-0.0","task_version":"screening-prolific","missing":false,"accuracy":1},{"contexts":["blue","red","green"],"outcomes":[0,1,0],"key":38,"choice":1,"rt":558.6950000142679,"outcome":1,"trial":66,"correct":1,"trial_type":"three-arm-trial","trial_index":79,"time_elapsed":548463,"internal_node_id":"0.0-72.0-0.0","task_version":"screening-prolific","missing":false,"accuracy":1},{"contexts":["blue","red","green"],"outcomes":[0,1,0],"key":38,"choice":1,"rt":495.22500002058223,"outcome":1,"trial":67,"correct":1,"trial_type":"three-arm-trial","trial_index":80,"time_elapsed":550162,"internal_node_id":"0.0-73.0-0.0","task_version":"screening-prolific","missing":false,"accuracy":1},{"contexts":["blue","red","green"],"outcomes":[0,1,0],"key":38,"choice":1,"rt":371.47999997250736,"outcome":1,"trial":68,"correct":1,"trial_type":"three-arm-trial","trial_index":81,"time_elapsed":551738,"internal_node_id":"0.0-74.0-0.0","task_version":"screening-prolific","missing":false,"accuracy":1},{"contexts":["blue","red","green"],"outcomes":[0,1,1],"key":38,"choice":1,"rt":302.689999982249,"outcome":1,"trial":69,"correct":1,"trial_type":"three-arm-trial","trial_index":82,"time_elapsed":553245,"internal_node_id":"0.0-75.0-0.0","task_version":"screening-prolific","missing":false,"accuracy":1},{"contexts":["blue","red","green"],"outcomes":[0,1,0],"key":38,"choice":1,"rt":440.7249999931082,"outcome":1,"trial":70,"correct":1,"trial_type":"three-arm-trial","trial_index":83,"time_elapsed":554889,"internal_node_id":"0.0-76.0-0.0","task_version":"screening-prolific","missing":false,"accuracy":1},{"contexts":["blue","red","green"],"outcomes":[0,1,0],"key":38,"choice":1,"rt":286.66499996325,"outcome":1,"trial":71,"correct":1,"trial_type":"three-arm-trial","trial_index":84,"time_elapsed":556381,"internal_node_id":"0.0-77.0-0.0","task_version":"screening-prolific","missing":false,"accuracy":1},{"contexts":["blue","red","green"],"outcomes":[0,1,0],"key":38,"choice":1,"rt":343.0050000315532,"outcome":1,"trial":72,"correct":1,"trial_type":"three-arm-trial","trial_index":85,"time_elapsed":557928,"internal_node_id":"0.0-78.0-0.0","task_version":"screening-prolific","missing":false,"accuracy":1},{"contexts":["blue","red","green"],"outcomes":[1,0,0],"key":38,"choice":1,"rt":469.489999988582,"outcome":0,"trial":73,"correct":1,"trial_type":"three-arm-trial","trial_index":86,"time_elapsed":559602,"internal_node_id":"0.0-79.0-0.0","task_version":"screening-prolific","missing":false,"accuracy":1},{"contexts":["blue","red","green"],"outcomes":[0,1,0],"key":39,"choice":2,"rt":424.3199999909848,"outcome":0,"trial":74,"correct":1,"trial_type":"three-arm-trial","trial_index":87,"time_elapsed":561231,"internal_node_id":"0.0-80.0-0.0","task_version":"screening-prolific","missing":false,"accuracy":0},{"contexts":["blue","red","green"],"outcomes":[1,1,0],"key":37,"choice":0,"rt":98.20499998750165,"outcome":1,"trial":75,"correct":1,"trial_type":"three-arm-trial","trial_index":88,"time_elapsed":562536,"internal_node_id":"0.0-81.0-0.0","task_version":"screening-prolific","missing":false,"accuracy":0},{"contexts":["blue","red","green"],"outcomes":[0,0,0],"key":37,"choice":0,"rt":359.3000000109896,"outcome":0,"trial":76,"correct":2,"trial_type":"three-arm-trial","trial_index":89,"time_elapsed":564103,"internal_node_id":"0.0-82.0-0.0","task_version":"screening-prolific","missing":false,"accuracy":0},{"contexts":["blue","red","green"],"outcomes":[0,0,1],"key":38,"choice":1,"rt":260.2399999741465,"outcome":0,"trial":77,"correct":2,"trial_type":"three-arm-trial","trial_index":90,"time_elapsed":565567,"internal_node_id":"0.0-83.0-0.0","task_version":"screening-prolific","missing":false,"accuracy":0},{"contexts":["blue","red","green"],"outcomes":[0,0,1],"key":39,"choice":2,"rt":428.4050000132993,"outcome":1,"trial":78,"correct":2,"trial_type":"three-arm-trial","trial_index":91,"time_elapsed":567200,"internal_node_id":"0.0-84.0-0.0","task_version":"screening-prolific","missing":false,"accuracy":1},{"contexts":["blue","red","green"],"outcomes":[0,0,1],"key":39,"choice":2,"rt":244.99000003561378,"outcome":1,"trial":79,"correct":2,"trial_type":"three-arm-trial","trial_index":92,"time_elapsed":568648,"internal_node_id":"0.0-85.0-0.0","task_version":"screening-prolific","missing":false,"accuracy":1},{"contexts":["blue","red","green"],"outcomes":[0,0,1],"key":39,"choice":2,"rt":272.5200000568293,"outcome":1,"trial":80,"correct":2,"trial_type":"three-arm-trial","trial_index":93,"time_elapsed":570125,"internal_node_id":"0.0-86.0-0.0","task_version":"screening-prolific","missing":false,"accuracy":1},{"contexts":["blue","red","green"],"outcomes":[0,0,1],"key":39,"choice":2,"rt":235.8349999994971,"outcome":1,"trial":81,"correct":2,"trial_type":"three-arm-trial","trial_index":94,"time_elapsed":571566,"internal_node_id":"0.0-87.0-0.0","task_version":"screening-prolific","missing":false,"accuracy":1},{"contexts":["blue","red","green"],"outcomes":[0,0,1],"key":39,"choice":2,"rt":328.09000002453104,"outcome":1,"trial":82,"correct":2,"trial_type":"three-arm-trial","trial_index":95,"time_elapsed":573097,"internal_node_id":"0.0-88.0-0.0","task_version":"screening-prolific","missing":false,"accuracy":1},{"contexts":["blue","red","green"],"outcomes":[0,0,1],"key":39,"choice":2,"rt":251.36999995447695,"outcome":1,"trial":83,"correct":2,"trial_type":"three-arm-trial","trial_index":96,"time_elapsed":574552,"internal_node_id":"0.0-89.0-0.0","task_version":"screening-prolific","missing":false,"accuracy":1},{"contexts":["blue","red","green"],"outcomes":[0,0,1],"key":39,"choice":2,"rt":299.54000003635883,"outcome":1,"trial":84,"correct":2,"trial_type":"three-arm-trial","trial_index":97,"time_elapsed":576056,"internal_node_id":"0.0-90.0-0.0","task_version":"screening-prolific","missing":false,"accuracy":1},{"contexts":["blue","red","green"],"outcomes":[0,0,0],"key":39,"choice":2,"rt":314.41000004997477,"outcome":0,"trial":85,"correct":2,"trial_type":"three-arm-trial","trial_index":98,"time_elapsed":577575,"internal_node_id":"0.0-91.0-0.0","task_version":"screening-prolific","missing":false,"accuracy":1},{"contexts":["blue","red","green"],"outcomes":[0,0,1],"key":37,"choice":0,"rt":425.9099999908358,"outcome":0,"trial":86,"correct":2,"trial_type":"three-arm-trial","trial_index":99,"time_elapsed":579206,"internal_node_id":"0.0-92.0-0.0","task_version":"screening-prolific","missing":false,"accuracy":0},{"contexts":["blue","red","green"],"outcomes":[0,0,1],"key":38,"choice":1,"rt":9.254999982658774,"outcome":0,"trial":87,"correct":2,"trial_type":"three-arm-trial","trial_index":100,"time_elapsed":580418,"internal_node_id":"0.0-93.0-0.0","task_version":"screening-prolific","missing":false,"accuracy":0},{"contexts":["blue","red","green"],"outcomes":[0,0,1],"key":39,"choice":2,"rt":451.8149999785237,"outcome":1,"trial":88,"correct":2,"trial_type":"three-arm-trial","trial_index":101,"time_elapsed":582073,"internal_node_id":"0.0-94.0-0.0","task_version":"screening-prolific","missing":false,"accuracy":1},{"contexts":["blue","red","green"],"outcomes":[0,0,1],"key":39,"choice":2,"rt":129.2700000340119,"outcome":1,"trial":89,"correct":2,"trial_type":"three-arm-trial","trial_index":102,"time_elapsed":583407,"internal_node_id":"0.0-95.0-0.0","task_version":"screening-prolific","missing":false,"accuracy":1},{"contexts":["blue","red","green"],"outcomes":[1,0,1],"key":39,"choice":2,"rt":259.20999998925254,"outcome":1,"trial":90,"correct":2,"trial_type":"three-arm-trial","trial_index":103,"time_elapsed":584870,"internal_node_id":"0.0-96.0-0.0","task_version":"screening-prolific","missing":false,"accuracy":1},{"rt":22991.73999996856,"responses":{"age":"24","gender-categorical":"Female","gender-free-response":"","ethnicity":"Not Hispanic or Latino","race":["White"],"language":"Yes","fluency":"Very well","mturk":"Yes","mturk-this-study":"No"},"survey":"demographics","trial_type":"survey-demo","trial_index":104,"time_elapsed":607870,"internal_node_id":"0.0-97.0","task_version":"screening-prolific","interactions":"[]"}]