[{"responses":{"Q06":"1","Q10":"2","Q15":"0","Q11":"1","Q14":"0","Q08":"1","Q07":"1","Q13":"2","Q05":"2","Q12":"1","Q03":"1","Q01":"1","Q02":"1","Q09":"1","Q04":"1"},"rt":110326.15999999689,"survey":"7up7down","trial_type":"survey-template","trial_index":0,"time_elapsed":110405,"internal_node_id":"0.0-0.0","task_version":"screening-prolific"},{"responses":{"Q13":"3","Q01":"2","Q14":"2","Q05":"3","Q06":"3","Q11":"2","Q09":"3","Q15":"3","Q03":"2","Q02":"3","Q04":"3","Q12":"3","Q08":"2","Q10":"3","Q07":"2"},"rt":58897.49000000302,"survey":"shaps","trial_type":"survey-template","trial_index":1,"time_elapsed":169332,"internal_node_id":"0.0-1.0","task_version":"screening-prolific"},{"responses":{"Q01":"1","Q02":"1","Q08":"0","Q04":"1","Q07":"0","Q03":"2","Q06":"2","Q05":"0"},"rt":34595.90000001481,"survey":"gad7","trial_type":"survey-template","trial_index":2,"time_elapsed":203931,"internal_node_id":"0.0-2.0","task_version":"screening-prolific"},{"responses":{"Q12":"2","Q03":"3","Q08":"2","Q09":"2","Q10":"2","Q05":"2","Q01":"3","Q02":"3","Q07":"3","Q13":"3","Q11":"3","Q04":"3","Q06":"2"},"rt":67694.54500003485,"survey":"bisbas","trial_type":"survey-template","trial_index":3,"time_elapsed":271654,"internal_node_id":"0.0-3.0","task_version":"screening-prolific"},{"responses":{"Q03":"2","Q01":"2","Q02":"3"},"rt":9050.985000038054,"survey":"pswq","trial_type":"survey-template","trial_index":4,"time_elapsed":280707,"internal_node_id":"0.0-4.0","task_version":"screening-prolific"},{"view_history":"[{\"page_index\":0,\"viewing_time\":5428.9600000483915},{\"page_index\":1,\"viewing_time\":6854.539999971166},{\"page_index\":2,\"viewing_time\":6392.310000024736},{\"page_index\":3,\"viewing_time\":5991.500000003725},{\"page_index\":4,\"viewing_time\":9303.714999987278},{\"page_index\":5,\"viewing_time\":3592.2799999825656},{\"page_index\":6,\"viewing_time\":4433.170000032987},{\"page_index\":7,\"viewing_time\":5102.919999975711}]","rt":47100.47000000486,"trial_type":"instructions","trial_index":5,"time_elapsed":327837,"internal_node_id":"0.0-5.0-0.0","task_version":"screening-prolific"},{"responses":["True","True","True","False","True"],"num_errors":1,"rt":76173.56999998447,"trial_type":"three-arm-comprehension","trial_index":6,"time_elapsed":404052,"internal_node_id":"0.0-5.0-1.0","task_version":"screening-prolific"},{"view_history":"[{\"page_index\":0,\"viewing_time\":3515.205000003334},{\"page_index\":1,\"viewing_time\":3351.9649999798276},{\"page_index\":2,\"viewing_time\":927.9400000232272},{\"page_index\":3,\"viewing_time\":936.1499999649823},{\"page_index\":4,\"viewing_time\":5816.125000012107},{\"page_index\":5,\"viewing_time\":2535.795000032522},{\"page_index\":6,\"viewing_time\":1792.2200000029989},{\"page_index\":7,\"viewing_time\":1247.5899999844842}]","rt":20123.439999995753,"trial_type":"instructions","trial_index":7,"time_elapsed":424178,"internal_node_id":"0.0-5.1-0.1","task_version":"screening-prolific"},{"responses":["True","True","False","True","True"],"num_errors":1,"rt":17613.39000001317,"trial_type":"three-arm-comprehension","trial_index":8,"time_elapsed":441796,"internal_node_id":"0.0-5.1-1.1","task_version":"screening-prolific"},{"view_history":"[{\"page_index\":0,\"viewing_time\":2107.5549999950454},{\"page_index\":1,\"viewing_time\":655.8749999967404},{\"page_index\":2,\"viewing_time\":415.804999996908},{\"page_index\":3,\"viewing_time\":648.2299999915995},{\"page_index\":4,\"viewing_time\":495.7849999773316},{\"page_index\":5,\"viewing_time\":448.0100000509992},{\"page_index\":6,\"viewing_time\":480.5099999648519},{\"page_index\":7,\"viewing_time\":655.5200000293553}]","rt":5907.695000001695,"trial_type":"instructions","trial_index":9,"time_elapsed":447706,"internal_node_id":"0.0-5.2-0.2","task_version":"screening-prolific"},{"responses":["True","True","False","False","True"],"num_errors":0,"rt":23254.53999999445,"trial_type":"three-arm-comprehension","trial_index":10,"time_elapsed":470985,"internal_node_id":"0.0-5.2-1.2","task_version":"screening-prolific"},{"view_history":"[{\"page_index\":0,\"viewing_time\":2004.209999984596}]","rt":2004.5249999966472,"trial_type":"instructions","trial_index":11,"time_elapsed":472992,"internal_node_id":"0.0-6.0","task_version":"screening-prolific"},{"contexts":["green","red","blue"],"outcomes":[1,0,1],"key":38,"choice":1,"rt":4607.149999996182,"outcome":0,"trial":1,"correct":0,"trial_type":"three-arm-trial","trial_index":12,"time_elapsed":478804,"internal_node_id":"0.0-7.0-0.0","task_version":"screening-prolific","missing":false,"accuracy":0},{"contexts":["green","red","blue"],"outcomes":[1,1,1],"key":37,"choice":0,"rt":1408.5349999950267,"outcome":1,"trial":2,"correct":0,"trial_type":"three-arm-trial","trial_index":13,"time_elapsed":481420,"internal_node_id":"0.0-8.0-0.0","task_version":"screening-prolific","missing":false,"accuracy":1},{"contexts":["green","red","blue"],"outcomes":[1,0,1],"key":37,"choice":0,"rt":1192.879999987781,"outcome":1,"trial":3,"correct":0,"trial_type":"three-arm-trial","trial_index":14,"time_elapsed":483819,"internal_node_id":"0.0-9.0-0.0","task_version":"screening-prolific","missing":false,"accuracy":1},{"contexts":["green","red","blue"],"outcomes":[1,0,0],"key":39,"choice":2,"rt":1121.8649999937043,"outcome":0,"trial":4,"correct":0,"trial_type":"three-arm-trial","trial_index":15,"time_elapsed":486147,"internal_node_id":"0.0-10.0-0.0","task_version":"screening-prolific","missing":false,"accuracy":0},{"contexts":["green","red","blue"],"outcomes":[1,0,0],"key":37,"choice":0,"rt":656.4349999534898,"outcome":1,"trial":5,"correct":0,"trial_type":"three-arm-trial","trial_index":16,"time_elapsed":488010,"internal_node_id":"0.0-11.0-0.0","task_version":"screening-prolific","missing":false,"accuracy":1},{"contexts":["green","red","blue"],"outcomes":[1,0,0],"key":37,"choice":0,"rt":969.6750000002794,"outcome":1,"trial":6,"correct":0,"trial_type":"three-arm-trial","trial_index":17,"time_elapsed":490186,"internal_node_id":"0.0-12.0-0.0","task_version":"screening-prolific","missing":false,"accuracy":1},{"contexts":["green","red","blue"],"outcomes":[1,1,0],"key":37,"choice":0,"rt":691.93000002997,"outcome":1,"trial":7,"correct":0,"trial_type":"three-arm-trial","trial_index":18,"time_elapsed":492083,"internal_node_id":"0.0-13.0-0.0","task_version":"screening-prolific","missing":false,"accuracy":1},{"contexts":["green","red","blue"],"outcomes":[0,0,0],"key":37,"choice":0,"rt":682.0600000210106,"outcome":0,"trial":8,"correct":0,"trial_type":"three-arm-trial","trial_index":19,"time_elapsed":493969,"internal_node_id":"0.0-14.0-0.0","task_version":"screening-prolific","missing":false,"accuracy":1},{"contexts":["green","red","blue"],"outcomes":[1,1,0],"key":38,"choice":1,"rt":491.26999999862164,"outcome":1,"trial":9,"correct":0,"trial_type":"three-arm-trial","trial_index":20,"time_elapsed":495668,"internal_node_id":"0.0-15.0-0.0","task_version":"screening-prolific","missing":false,"accuracy":0},{"contexts":["green","red","blue"],"outcomes":[1,1,0],"key":38,"choice":1,"rt":488.03000000771135,"outcome":1,"trial":10,"correct":0,"trial_type":"three-arm-trial","trial_index":21,"time_elapsed":497363,"internal_node_id":"0.0-16.0-0.0","task_version":"screening-prolific","missing":false,"accuracy":0},{"contexts":["green","red","blue"],"outcomes":[1,0,0],"key":38,"choice":1,"rt":450.1499999896623,"outcome":0,"trial":11,"correct":0,"trial_type":"three-arm-trial","trial_index":22,"time_elapsed":499017,"internal_node_id":"0.0-17.0-0.0","task_version":"screening-prolific","missing":false,"accuracy":0},{"contexts":["green","red","blue"],"outcomes":[0,0,0],"key":39,"choice":2,"rt":292.01500001363456,"outcome":0,"trial":12,"correct":0,"trial_type":"three-arm-trial","trial_index":23,"time_elapsed":500513,"internal_node_id":"0.0-18.0-0.0","task_version":"screening-prolific","missing":false,"accuracy":0},{"contexts":["green","red","blue"],"outcomes":[1,1,0],"key":37,"choice":0,"rt":355.38999998243526,"outcome":1,"trial":13,"correct":0,"trial_type":"three-arm-trial","trial_index":24,"time_elapsed":502074,"internal_node_id":"0.0-19.0-0.0","task_version":"screening-prolific","missing":false,"accuracy":1},{"contexts":["green","red","blue"],"outcomes":[1,0,1],"key":37,"choice":0,"rt":732.0049999980256,"outcome":1,"trial":14,"correct":0,"trial_type":"three-arm-trial","trial_index":25,"time_elapsed":504011,"internal_node_id":"0.0-20.0-0.0","task_version":"screening-prolific","missing":false,"accuracy":1},{"contexts":["green","red","blue"],"outcomes":[0,0,0],"key":37,"choice":0,"rt":336.3600000157021,"outcome":0,"trial":15,"correct":0,"trial_type":"three-arm-trial","trial_index":26,"time_elapsed":505555,"internal_node_id":"0.0-21.0-0.0","task_version":"screening-prolific","missing":false,"accuracy":1},{"contexts":["green","red","blue"],"outcomes":[0,1,0],"key":38,"choice":1,"rt":319.91000002017245,"outcome":1,"trial":16,"correct":1,"trial_type":"three-arm-trial","trial_index":27,"time_elapsed":507083,"internal_node_id":"0.0-22.0-0.0","task_version":"screening-prolific","missing":false,"accuracy":1},{"contexts":["green","red","blue"],"outcomes":[0,0,0],"key":38,"choice":1,"rt":376.7449999577366,"outcome":0,"trial":17,"correct":1,"trial_type":"three-arm-trial","trial_index":28,"time_elapsed":508688,"internal_node_id":"0.0-23.0-0.0","task_version":"screening-prolific","missing":false,"accuracy":1},{"contexts":["green","red","blue"],"outcomes":[1,1,0],"key":39,"choice":2,"rt":362.49999998835847,"outcome":0,"trial":18,"correct":1,"trial_type":"three-arm-trial","trial_index":29,"time_elapsed":510257,"internal_node_id":"0.0-24.0-0.0","task_version":"screening-prolific","missing":false,"accuracy":0},{"contexts":["green","red","blue"],"outcomes":[0,1,0],"key":37,"choice":0,"rt":184.14500000653788,"outcome":0,"trial":19,"correct":1,"trial_type":"three-arm-trial","trial_index":30,"time_elapsed":511648,"internal_node_id":"0.0-25.0-0.0","task_version":"screening-prolific","missing":false,"accuracy":0},{"contexts":["green","red","blue"],"outcomes":[1,0,1],"key":37,"choice":0,"rt":313.5350000229664,"outcome":1,"trial":20,"correct":1,"trial_type":"three-arm-trial","trial_index":31,"time_elapsed":513167,"internal_node_id":"0.0-26.0-0.0","task_version":"screening-prolific","missing":false,"accuracy":0},{"contexts":["green","red","blue"],"outcomes":[1,1,0],"key":37,"choice":0,"rt":347.48499997658655,"outcome":1,"trial":21,"correct":1,"trial_type":"three-arm-trial","trial_index":32,"time_elapsed":514719,"internal_node_id":"0.0-27.0-0.0","task_version":"screening-prolific","missing":false,"accuracy":0},{"contexts":["green","red","blue"],"outcomes":[0,0,1],"key":38,"choice":1,"rt":371.5550000197254,"outcome":0,"trial":22,"correct":1,"trial_type":"three-arm-trial","trial_index":33,"time_elapsed":516296,"internal_node_id":"0.0-28.0-0.0","task_version":"screening-prolific","missing":false,"accuracy":1},{"contexts":["green","red","blue"],"outcomes":[0,1,0],"key":37,"choice":0,"rt":273.5399999655783,"outcome":0,"trial":23,"correct":1,"trial_type":"three-arm-trial","trial_index":34,"time_elapsed":517777,"internal_node_id":"0.0-29.0-0.0","task_version":"screening-prolific","missing":false,"accuracy":0},{"contexts":["green","red","blue"],"outcomes":[0,1,0],"key":39,"choice":2,"rt":159.78500002529472,"outcome":0,"trial":24,"correct":1,"trial_type":"three-arm-trial","trial_index":35,"time_elapsed":519143,"internal_node_id":"0.0-30.0-0.0","task_version":"screening-prolific","missing":false,"accuracy":0},{"contexts":["green","red","blue"],"outcomes":[0,1,0],"key":38,"choice":1,"rt":702.6949999853969,"outcome":1,"trial":25,"correct":1,"trial_type":"three-arm-trial","trial_index":36,"time_elapsed":521051,"internal_node_id":"0.0-31.0-0.0","task_version":"screening-prolific","missing":false,"accuracy":1},{"contexts":["green","red","blue"],"outcomes":[0,1,0],"key":38,"choice":1,"rt":294.1899999859743,"outcome":1,"trial":26,"correct":1,"trial_type":"three-arm-trial","trial_index":37,"time_elapsed":522552,"internal_node_id":"0.0-32.0-0.0","task_version":"screening-prolific","missing":false,"accuracy":1},{"contexts":["green","red","blue"],"outcomes":[0,1,0],"key":39,"choice":2,"rt":458.16000003833324,"outcome":0,"trial":27,"correct":1,"trial_type":"three-arm-trial","trial_index":38,"time_elapsed":524217,"internal_node_id":"0.0-33.0-0.0","task_version":"screening-prolific","missing":false,"accuracy":0},{"contexts":["green","red","blue"],"outcomes":[0,1,0],"key":37,"choice":0,"rt":225.35000002244487,"outcome":0,"trial":28,"correct":1,"trial_type":"three-arm-trial","trial_index":39,"time_elapsed":525648,"internal_node_id":"0.0-34.0-0.0","task_version":"screening-prolific","missing":false,"accuracy":0},{"contexts":["green","red","blue"],"outcomes":[0,1,0],"key":38,"choice":1,"rt":313.17999999737367,"outcome":1,"trial":29,"correct":1,"trial_type":"three-arm-trial","trial_index":40,"time_elapsed":527169,"internal_node_id":"0.0-35.0-0.0","task_version":"screening-prolific","missing":false,"accuracy":1},{"contexts":["green","red","blue"],"outcomes":[0,1,1],"key":38,"choice":1,"rt":326.78499998291954,"outcome":1,"trial":30,"correct":1,"trial_type":"three-arm-trial","trial_index":41,"time_elapsed":528704,"internal_node_id":"0.0-36.0-0.0","task_version":"screening-prolific","missing":false,"accuracy":1},{"contexts":["green","red","blue"],"outcomes":[0,0,1],"key":38,"choice":1,"rt":321.4049999951385,"outcome":0,"trial":31,"correct":2,"trial_type":"three-arm-trial","trial_index":42,"time_elapsed":530231,"internal_node_id":"0.0-37.0-0.0","task_version":"screening-prolific","missing":false,"accuracy":0},{"contexts":["green","red","blue"],"outcomes":[0,0,0],"key":37,"choice":0,"rt":315.83999999566004,"outcome":0,"trial":32,"correct":2,"trial_type":"three-arm-trial","trial_index":43,"time_elapsed":531751,"internal_node_id":"0.0-38.0-0.0","task_version":"screening-prolific","missing":false,"accuracy":0},{"contexts":["green","red","blue"],"outcomes":[0,0,1],"key":38,"choice":1,"rt":338.1449999869801,"outcome":0,"trial":33,"correct":2,"trial_type":"three-arm-trial","trial_index":44,"time_elapsed":533296,"internal_node_id":"0.0-39.0-0.0","task_version":"screening-prolific","missing":false,"accuracy":0},{"contexts":["green","red","blue"],"outcomes":[0,1,0],"key":39,"choice":2,"rt":305.3700000164099,"outcome":0,"trial":34,"correct":2,"trial_type":"three-arm-trial","trial_index":45,"time_elapsed":534807,"internal_node_id":"0.0-40.0-0.0","task_version":"screening-prolific","missing":false,"accuracy":1},{"contexts":["green","red","blue"],"outcomes":[0,0,1],"key":39,"choice":2,"rt":906.1500000534579,"outcome":1,"trial":35,"correct":2,"trial_type":"three-arm-trial","trial_index":46,"time_elapsed":536917,"internal_node_id":"0.0-41.0-0.0","task_version":"screening-prolific","missing":false,"accuracy":1},{"contexts":["green","red","blue"],"outcomes":[1,0,1],"key":37,"choice":0,"rt":381.71499996678904,"outcome":1,"trial":36,"correct":2,"trial_type":"three-arm-trial","trial_index":47,"time_elapsed":538504,"internal_node_id":"0.0-42.0-0.0","task_version":"screening-prolific","missing":false,"accuracy":0},{"contexts":["green","red","blue"],"outcomes":[1,0,0],"key":37,"choice":0,"rt":343.2850000099279,"outcome":1,"trial":37,"correct":2,"trial_type":"three-arm-trial","trial_index":48,"time_elapsed":540055,"internal_node_id":"0.0-43.0-0.0","task_version":"screening-prolific","missing":false,"accuracy":0},{"contexts":["green","red","blue"],"outcomes":[0,0,1],"key":38,"choice":1,"rt":345.6199999782257,"outcome":0,"trial":38,"correct":2,"trial_type":"three-arm-trial","trial_index":49,"time_elapsed":541608,"internal_node_id":"0.0-44.0-0.0","task_version":"screening-prolific","missing":false,"accuracy":0},{"contexts":["green","red","blue"],"outcomes":[0,1,1],"key":37,"choice":0,"rt":265.66500001354143,"outcome":0,"trial":39,"correct":2,"trial_type":"three-arm-trial","trial_index":50,"time_elapsed":543079,"internal_node_id":"0.0-45.0-0.0","task_version":"screening-prolific","missing":false,"accuracy":0},{"contexts":["green","red","blue"],"outcomes":[0,1,0],"key":39,"choice":2,"rt":155.88500001467764,"outcome":0,"trial":40,"correct":2,"trial_type":"three-arm-trial","trial_index":51,"time_elapsed":544440,"internal_node_id":"0.0-46.0-0.0","task_version":"screening-prolific","missing":false,"accuracy":1},{"contexts":["green","red","blue"],"outcomes":[0,1,1],"key":39,"choice":2,"rt":89.08000000519678,"outcome":1,"trial":41,"correct":2,"trial_type":"three-arm-trial","trial_index":52,"time_elapsed":545736,"internal_node_id":"0.0-47.0-0.0","task_version":"screening-prolific","missing":false,"accuracy":1},{"contexts":["green","red","blue"],"outcomes":[0,0,0],"key":37,"choice":0,"rt":282.1350000449456,"outcome":0,"trial":42,"correct":2,"trial_type":"three-arm-trial","trial_index":53,"time_elapsed":547224,"internal_node_id":"0.0-48.0-0.0","task_version":"screening-prolific","missing":false,"accuracy":0},{"contexts":["green","red","blue"],"outcomes":[0,0,1],"key":37,"choice":0,"rt":297.18999995384365,"outcome":0,"trial":43,"correct":2,"trial_type":"three-arm-trial","trial_index":54,"time_elapsed":548726,"internal_node_id":"0.0-49.0-0.0","task_version":"screening-prolific","missing":false,"accuracy":0},{"contexts":["green","red","blue"],"outcomes":[0,0,1],"key":38,"choice":1,"rt":285.2149999816902,"outcome":0,"trial":44,"correct":2,"trial_type":"three-arm-trial","trial_index":55,"time_elapsed":550214,"internal_node_id":"0.0-50.0-0.0","task_version":"screening-prolific","missing":false,"accuracy":0},{"contexts":["green","red","blue"],"outcomes":[0,0,1],"key":38,"choice":1,"rt":155.61499999603257,"outcome":0,"trial":45,"correct":2,"trial_type":"three-arm-trial","trial_index":56,"time_elapsed":551574,"internal_node_id":"0.0-51.0-0.0","task_version":"screening-prolific","missing":false,"accuracy":0},{"contexts":["green","red","blue"],"outcomes":[1,0,0],"key":39,"choice":2,"rt":276.46000002278015,"outcome":0,"trial":46,"correct":0,"trial_type":"three-arm-trial","trial_index":57,"time_elapsed":553055,"internal_node_id":"0.0-52.0-0.0","task_version":"screening-prolific","missing":false,"accuracy":0},{"contexts":["green","red","blue"],"outcomes":[1,0,0],"key":39,"choice":2,"rt":322.83999997889623,"outcome":0,"trial":47,"correct":0,"trial_type":"three-arm-trial","trial_index":58,"time_elapsed":554582,"internal_node_id":"0.0-53.0-0.0","task_version":"screening-prolific","missing":false,"accuracy":0},{"contexts":["green","red","blue"],"outcomes":[1,1,0],"key":37,"choice":0,"rt":292.7849999978207,"outcome":1,"trial":48,"correct":0,"trial_type":"three-arm-trial","trial_index":59,"time_elapsed":556080,"internal_node_id":"0.0-54.0-0.0","task_version":"screening-prolific","missing":false,"accuracy":1},{"contexts":["green","red","blue"],"outcomes":[0,0,0],"key":37,"choice":0,"rt":279.4749999884516,"outcome":0,"trial":49,"correct":0,"trial_type":"three-arm-trial","trial_index":60,"time_elapsed":557566,"internal_node_id":"0.0-55.0-0.0","task_version":"screening-prolific","missing":false,"accuracy":1},{"contexts":["green","red","blue"],"outcomes":[1,0,1],"key":39,"choice":2,"rt":307.21499997889623,"outcome":1,"trial":50,"correct":0,"trial_type":"three-arm-trial","trial_index":61,"time_elapsed":559079,"internal_node_id":"0.0-56.0-0.0","task_version":"screening-prolific","missing":false,"accuracy":0},{"contexts":["green","red","blue"],"outcomes":[1,0,0],"key":39,"choice":2,"rt":395.1799999922514,"outcome":0,"trial":51,"correct":0,"trial_type":"three-arm-trial","trial_index":62,"time_elapsed":560680,"internal_node_id":"0.0-57.0-0.0","task_version":"screening-prolific","missing":false,"accuracy":0},{"contexts":["green","red","blue"],"outcomes":[1,0,1],"key":38,"choice":1,"rt":296.99499998241663,"outcome":0,"trial":52,"correct":0,"trial_type":"three-arm-trial","trial_index":63,"time_elapsed":562181,"internal_node_id":"0.0-58.0-0.0","task_version":"screening-prolific","missing":false,"accuracy":0},{"contexts":["green","red","blue"],"outcomes":[0,1,0],"key":38,"choice":1,"rt":276.2900000088848,"outcome":1,"trial":53,"correct":0,"trial_type":"three-arm-trial","trial_index":64,"time_elapsed":563663,"internal_node_id":"0.0-59.0-0.0","task_version":"screening-prolific","missing":false,"accuracy":0},{"contexts":["green","red","blue"],"outcomes":[1,0,0],"key":38,"choice":1,"rt":336.8700000573881,"outcome":0,"trial":54,"correct":0,"trial_type":"three-arm-trial","trial_index":65,"time_elapsed":565207,"internal_node_id":"0.0-60.0-0.0","task_version":"screening-prolific","missing":false,"accuracy":0},{"contexts":["green","red","blue"],"outcomes":[1,0,0],"key":39,"choice":2,"rt":283.40499999467283,"outcome":0,"trial":55,"correct":0,"trial_type":"three-arm-trial","trial_index":66,"time_elapsed":566695,"internal_node_id":"0.0-61.0-0.0","task_version":"screening-prolific","missing":false,"accuracy":0},{"contexts":["green","red","blue"],"outcomes":[1,1,0],"key":37,"choice":0,"rt":234.86999998567626,"outcome":1,"trial":56,"correct":0,"trial_type":"three-arm-trial","trial_index":67,"time_elapsed":568135,"internal_node_id":"0.0-62.0-0.0","task_version":"screening-prolific","missing":false,"accuracy":1},{"contexts":["green","red","blue"],"outcomes":[0,1,0],"key":37,"choice":0,"rt":314.9800000246614,"outcome":0,"trial":57,"correct":0,"trial_type":"three-arm-trial","trial_index":68,"time_elapsed":569679,"internal_node_id":"0.0-63.0-0.0","task_version":"screening-prolific","missing":false,"accuracy":1},{"contexts":["green","red","blue"],"outcomes":[0,0,0],"key":39,"choice":2,"rt":313.2100000511855,"outcome":0,"trial":58,"correct":0,"trial_type":"three-arm-trial","trial_index":69,"time_elapsed":571199,"internal_node_id":"0.0-64.0-0.0","task_version":"screening-prolific","missing":false,"accuracy":0},{"contexts":["green","red","blue"],"outcomes":[1,0,0],"key":38,"choice":1,"rt":295.77500000596046,"outcome":0,"trial":59,"correct":0,"trial_type":"three-arm-trial","trial_index":70,"time_elapsed":572701,"internal_node_id":"0.0-65.0-0.0","task_version":"screening-prolific","missing":false,"accuracy":0},{"contexts":["green","red","blue"],"outcomes":[0,1,0],"key":38,"choice":1,"rt":320.1550000230782,"outcome":1,"trial":60,"correct":0,"trial_type":"three-arm-trial","trial_index":71,"time_elapsed":574228,"internal_node_id":"0.0-66.0-0.0","task_version":"screening-prolific","missing":false,"accuracy":0},{"contexts":["green","red","blue"],"outcomes":[0,0,1],"key":39,"choice":2,"rt":291.03999998187646,"outcome":1,"trial":61,"correct":2,"trial_type":"three-arm-trial","trial_index":72,"time_elapsed":575724,"internal_node_id":"0.0-67.0-0.0","task_version":"screening-prolific","missing":false,"accuracy":1},{"contexts":["green","red","blue"],"outcomes":[1,1,0],"key":39,"choice":2,"rt":369.87500003306195,"outcome":0,"trial":62,"correct":2,"trial_type":"three-arm-trial","trial_index":73,"time_elapsed":577301,"internal_node_id":"0.0-68.0-0.0","task_version":"screening-prolific","missing":false,"accuracy":1},{"contexts":["green","red","blue"],"outcomes":[0,0,1],"key":37,"choice":0,"rt":371.7000000178814,"outcome":0,"trial":63,"correct":2,"trial_type":"three-arm-trial","trial_index":74,"time_elapsed":578878,"internal_node_id":"0.0-69.0-0.0","task_version":"screening-prolific","missing":false,"accuracy":0},{"contexts":["green","red","blue"],"outcomes":[0,0,1],"key":37,"choice":0,"rt":289.27000000840053,"outcome":0,"trial":64,"correct":2,"trial_type":"three-arm-trial","trial_index":75,"time_elapsed":580373,"internal_node_id":"0.0-70.0-0.0","task_version":"screening-prolific","missing":false,"accuracy":0},{"contexts":["green","red","blue"],"outcomes":[1,0,1],"key":38,"choice":1,"rt":353.6999999778345,"outcome":0,"trial":65,"correct":2,"trial_type":"three-arm-trial","trial_index":76,"time_elapsed":581931,"internal_node_id":"0.0-71.0-0.0","task_version":"screening-prolific","missing":false,"accuracy":0},{"contexts":["green","red","blue"],"outcomes":[0,0,0],"key":39,"choice":2,"rt":275.6250000093132,"outcome":0,"trial":66,"correct":2,"trial_type":"three-arm-trial","trial_index":77,"time_elapsed":583412,"internal_node_id":"0.0-72.0-0.0","task_version":"screening-prolific","missing":false,"accuracy":1},{"contexts":["green","red","blue"],"outcomes":[1,1,1],"key":39,"choice":2,"rt":259.39000002108514,"outcome":1,"trial":67,"correct":2,"trial_type":"three-arm-trial","trial_index":78,"time_elapsed":584876,"internal_node_id":"0.0-73.0-0.0","task_version":"screening-prolific","missing":false,"accuracy":1},{"contexts":["green","red","blue"],"outcomes":[0,0,1],"key":39,"choice":2,"rt":267.2000000020489,"outcome":1,"trial":68,"correct":2,"trial_type":"three-arm-trial","trial_index":79,"time_elapsed":586348,"internal_node_id":"0.0-74.0-0.0","task_version":"screening-prolific","missing":false,"accuracy":1},{"contexts":["green","red","blue"],"outcomes":[0,0,1],"key":38,"choice":1,"rt":289.1550000058487,"outcome":0,"trial":69,"correct":2,"trial_type":"three-arm-trial","trial_index":80,"time_elapsed":587844,"internal_node_id":"0.0-75.0-0.0","task_version":"screening-prolific","missing":false,"accuracy":0},{"contexts":["green","red","blue"],"outcomes":[0,0,1],"key":38,"choice":1,"rt":163.10999996494502,"outcome":0,"trial":70,"correct":2,"trial_type":"three-arm-trial","trial_index":81,"time_elapsed":589214,"internal_node_id":"0.0-76.0-0.0","task_version":"screening-prolific","missing":false,"accuracy":0},{"contexts":["green","red","blue"],"outcomes":[1,0,1],"key":37,"choice":0,"rt":270.79999999841675,"outcome":1,"trial":71,"correct":2,"trial_type":"three-arm-trial","trial_index":82,"time_elapsed":590691,"internal_node_id":"0.0-77.0-0.0","task_version":"screening-prolific","missing":false,"accuracy":0},{"contexts":["green","red","blue"],"outcomes":[0,0,0],"key":39,"choice":2,"rt":212.71500003058463,"outcome":0,"trial":72,"correct":2,"trial_type":"three-arm-trial","trial_index":83,"time_elapsed":592107,"internal_node_id":"0.0-78.0-0.0","task_version":"screening-prolific","missing":false,"accuracy":1},{"contexts":["green","red","blue"],"outcomes":[0,1,1],"key":37,"choice":0,"rt":235.60499999439344,"outcome":0,"trial":73,"correct":2,"trial_type":"three-arm-trial","trial_index":84,"time_elapsed":593547,"internal_node_id":"0.0-79.0-0.0","task_version":"screening-prolific","missing":false,"accuracy":0},{"contexts":["green","red","blue"],"outcomes":[0,0,0],"key":39,"choice":2,"rt":277.1000000066124,"outcome":0,"trial":74,"correct":2,"trial_type":"three-arm-trial","trial_index":85,"time_elapsed":595029,"internal_node_id":"0.0-80.0-0.0","task_version":"screening-prolific","missing":false,"accuracy":1},{"contexts":["green","red","blue"],"outcomes":[0,0,1],"key":38,"choice":1,"rt":258.11500003328547,"outcome":0,"trial":75,"correct":2,"trial_type":"three-arm-trial","trial_index":86,"time_elapsed":596494,"internal_node_id":"0.0-81.0-0.0","task_version":"screening-prolific","missing":false,"accuracy":0},{"contexts":["green","red","blue"],"outcomes":[0,1,0],"key":38,"choice":1,"rt":321.62499998230487,"outcome":1,"trial":76,"correct":1,"trial_type":"three-arm-trial","trial_index":87,"time_elapsed":598020,"internal_node_id":"0.0-82.0-0.0","task_version":"screening-prolific","missing":false,"accuracy":1},{"contexts":["green","red","blue"],"outcomes":[0,1,1],"key":37,"choice":0,"rt":353.54999999981374,"outcome":0,"trial":77,"correct":1,"trial_type":"three-arm-trial","trial_index":88,"time_elapsed":599581,"internal_node_id":"0.0-83.0-0.0","task_version":"screening-prolific","missing":false,"accuracy":0},{"contexts":["green","red","blue"],"outcomes":[0,1,1],"key":37,"choice":0,"rt":356.84500000206754,"outcome":0,"trial":78,"correct":1,"trial_type":"three-arm-trial","trial_index":89,"time_elapsed":601148,"internal_node_id":"0.0-84.0-0.0","task_version":"screening-prolific","missing":false,"accuracy":0},{"contexts":["green","red","blue"],"outcomes":[0,0,0],"key":39,"choice":2,"rt":267.0349999680184,"outcome":0,"trial":79,"correct":1,"trial_type":"three-arm-trial","trial_index":90,"time_elapsed":602620,"internal_node_id":"0.0-85.0-0.0","task_version":"screening-prolific","missing":false,"accuracy":0},{"contexts":["green","red","blue"],"outcomes":[0,1,0],"key":39,"choice":2,"rt":316.3300000014715,"outcome":0,"trial":80,"correct":1,"trial_type":"three-arm-trial","trial_index":91,"time_elapsed":604143,"internal_node_id":"0.0-86.0-0.0","task_version":"screening-prolific","missing":false,"accuracy":0},{"contexts":["green","red","blue"],"outcomes":[1,1,0],"key":38,"choice":1,"rt":319.8199999751523,"outcome":1,"trial":81,"correct":1,"trial_type":"three-arm-trial","trial_index":92,"time_elapsed":605668,"internal_node_id":"0.0-87.0-0.0","task_version":"screening-prolific","missing":false,"accuracy":1},{"contexts":["green","red","blue"],"outcomes":[1,1,0],"key":38,"choice":1,"rt":379.6849999926053,"outcome":1,"trial":82,"correct":1,"trial_type":"three-arm-trial","trial_index":93,"time_elapsed":607252,"internal_node_id":"0.0-88.0-0.0","task_version":"screening-prolific","missing":false,"accuracy":1},{"contexts":["green","red","blue"],"outcomes":[0,1,0],"key":38,"choice":1,"rt":386.11500000115484,"outcome":1,"trial":83,"correct":1,"trial_type":"three-arm-trial","trial_index":94,"time_elapsed":608844,"internal_node_id":"0.0-89.0-0.0","task_version":"screening-prolific","missing":false,"accuracy":1},{"contexts":["green","red","blue"],"outcomes":[0,1,0],"key":38,"choice":1,"rt":442.9849999723956,"outcome":1,"trial":84,"correct":1,"trial_type":"three-arm-trial","trial_index":95,"time_elapsed":610493,"internal_node_id":"0.0-90.0-0.0","task_version":"screening-prolific","missing":false,"accuracy":1},{"contexts":["green","red","blue"],"outcomes":[0,1,0],"key":38,"choice":1,"rt":360.5000000097789,"outcome":1,"trial":85,"correct":1,"trial_type":"three-arm-trial","trial_index":96,"time_elapsed":612060,"internal_node_id":"0.0-91.0-0.0","task_version":"screening-prolific","missing":false,"accuracy":1},{"contexts":["green","red","blue"],"outcomes":[0,1,0],"key":38,"choice":1,"rt":377.9550000326708,"outcome":1,"trial":86,"correct":1,"trial_type":"three-arm-trial","trial_index":97,"time_elapsed":613645,"internal_node_id":"0.0-92.0-0.0","task_version":"screening-prolific","missing":false,"accuracy":1},{"contexts":["green","red","blue"],"outcomes":[0,1,0],"key":38,"choice":1,"rt":322.21000001300126,"outcome":1,"trial":87,"correct":1,"trial_type":"three-arm-trial","trial_index":98,"time_elapsed":615173,"internal_node_id":"0.0-93.0-0.0","task_version":"screening-prolific","missing":false,"accuracy":1},{"contexts":["green","red","blue"],"outcomes":[0,1,0],"key":38,"choice":1,"rt":347.2649999894202,"outcome":1,"trial":88,"correct":1,"trial_type":"three-arm-trial","trial_index":99,"time_elapsed":616724,"internal_node_id":"0.0-94.0-0.0","task_version":"screening-prolific","missing":false,"accuracy":1},{"contexts":["green","red","blue"],"outcomes":[0,0,1],"key":38,"choice":1,"rt":362.3399999924004,"outcome":0,"trial":89,"correct":1,"trial_type":"three-arm-trial","trial_index":100,"time_elapsed":618291,"internal_node_id":"0.0-95.0-0.0","task_version":"screening-prolific","missing":false,"accuracy":1},{"contexts":["green","red","blue"],"outcomes":[1,1,0],"key":39,"choice":2,"rt":348.6549999797717,"outcome":0,"trial":90,"correct":1,"trial_type":"three-arm-trial","trial_index":101,"time_elapsed":619844,"internal_node_id":"0.0-96.0-0.0","task_version":"screening-prolific","missing":false,"accuracy":0},{"rt":26343.664999993052,"responses":{"age":"32","gender-categorical":"Female","gender-free-response":"","ethnicity":"Not Hispanic or Latino","race":["White"],"language":"Yes","fluency":"Very well","mturk":"No","mturk-this-study":"No"},"survey":"demographics","trial_type":"survey-demo","trial_index":102,"time_elapsed":646219,"internal_node_id":"0.0-97.0","task_version":"screening-prolific","interactions":"[{\"event\":\"blur\",\"trial\":0,\"time\":4145},{\"event\":\"focus\",\"trial\":0,\"time\":26716},{\"event\":\"blur\",\"trial\":3,\"time\":209755},{\"event\":\"focus\",\"trial\":3,\"time\":216946},{\"event\":\"blur\",\"trial\":6,\"time\":338579},{\"event\":\"focus\",\"trial\":6,\"time\":388291}]"}]