[{"success":true,"timeout":false,"failed_images":[],"failed_audio":[],"failed_video":[],"trial_type":"preload","trial_index":0,"time_elapsed":616,"internal_node_id":"0.0-0.0","task_version":"1.0","jspsych_version":"6.3.1"},{"success":true,"trial_type":"fullscreen","trial_index":1,"time_elapsed":2718,"internal_node_id":"0.0-1.0","task_version":"1.0","jspsych_version":"6.3.1"},{"view_history":[{"page_index":0,"viewing_time":2297.4000000953674}],"rt":2297.800000190735,"trial_type":"instructions","trial_index":2,"time_elapsed":5024,"internal_node_id":"0.0-2.0","task_version":"1.0","jspsych_version":"6.3.1"},{"responses":{"Q06":"5","Q03":"5","Q02":"5","Q04":"5","Q01":"5","Q05":"5","Q07":"3"},"rt":16336.900000095367,"item_order":[5,2,1,3,0,4,6],"radio_events":[3389.5999999046326,4180.599999904633,5748.200000047684,7067.700000047684,8260.5,11665.400000095367,13153.299999952316],"key_events":[],"mouse_events":[0.2999999523162842,1998.2999999523163,3389.5999999046326,4180.599999904633,5748.200000047684,7067.700000047684,8260.5,9842.200000047684,10987.299999952316,11665.400000095367,13153.299999952316,16334.700000047684],"straightlining":0.42857142857142855,"zigzagging":0,"honeypot":0,"survey":"artistic","trial_type":"survey-template","trial_index":3,"time_elapsed":21370,"internal_node_id":"0.0-3.0","task_version":"1.0","jspsych_version":"6.3.1"},{"responses":{"Q06":"1","Q07":"1","Q03":"1","Q08":"0","Q05":"1","Q02":"1","Q04":"1","Q01":"1"},"rt":15498.300000190735,"item_order":[5,6,2,7,4,1,3,0],"radio_events":[2006.4000000953674,5109.600000143051,6284.400000095367,8277.400000095367,10419,12066.5,12705.5,13569],"key_events":[],"mouse_events":[2006.4000000953674,4189.5,5109.600000143051,6284.400000095367,8277.400000095367,10419,12066.5,12705.5,13569,15496.400000095367],"straightlining":0.875,"zigzagging":0.2857142857142857,"honeypot":0,"survey":"anxiety","trial_type":"survey-template","trial_index":4,"time_elapsed":36877,"internal_node_id":"0.0-4.0","task_version":"1.0","jspsych_version":"6.3.1"},{"responses":{"Q04":"0","Q05":"0","Q02":"0","Q01":"0","Q07":"0","Q03":"0","Q06":"0","Q08":"0"},"rt":35233.90000009537,"item_order":[3,4,1,0,6,2,5,7],"radio_events":[5173.200000047684,9891.100000143051,13218.100000143051,16905.400000095367,19311.700000047684,23470.700000047684,27979.300000190735,31034.800000190735],"key_events":[],"mouse_events":[5173.200000047684,9891.100000143051,13218.100000143051,16905.400000095367,18688,19311.700000047684,23470.700000047684,27979.300000190735,31034.800000190735,35232.60000014305],"straightlining":1,"zigzagging":0,"honeypot":0,"survey":"depression","trial_type":"survey-template","trial_index":5,"time_elapsed":72117,"internal_node_id":"0.0-5.0","task_version":"1.0","jspsych_version":"6.3.1"},{"responses":{"Q05":"0","Q08":"3","Q04":"0","Q03":"0","Q01":"1","Q07":"0","Q02":"0","Q06":"1"},"rt":43137.700000047684,"item_order":[4,7,3,2,0,6,1,5],"radio_events":[5582.400000095367,8574.5,17258,20729.10000014305,24158.900000095367,30755.900000095367,33842.799999952316,38024.700000047684,40847.799999952316,42183.5],"key_events":[],"mouse_events":[5582.400000095367,8574.5,17258,20096.5,20729.10000014305,24158.900000095367,30108.10000014305,30755.900000095367,33842.799999952316,38024.700000047684,40847.799999952316,42183.5,43135.200000047684],"straightlining":0.625,"zigzagging":0.7142857142857143,"honeypot":0,"survey":"mania","trial_type":"survey-template","trial_index":6,"time_elapsed":115262,"internal_node_id":"0.0-6.0","task_version":"1.0","jspsych_version":"6.3.1"},{"responses":{"Q03":"2","Q02":"1","Q06":"1","Q07":"6","Q04":"4","Q01":"3","Q05":"3"},"rt":16532.200000047684,"item_order":[2,1,5,6,3,0,4],"radio_events":[3743.9000000953674,5606.5,6494.700000047684,8239.099999904633,10396.599999904633,11907.5,14777.799999952316],"key_events":[],"mouse_events":[3743.9000000953674,5085.799999952316,5606.5,6494.700000047684,8239.099999904633,10396.599999904633,11907.5,14777.799999952316,16530.400000095367],"straightlining":0.2857142857142857,"zigzagging":0.3333333333333333,"honeypot":0,"survey":"greed","trial_type":"survey-template","trial_index":7,"time_elapsed":131807,"internal_node_id":"0.0-7.0","task_version":"1.0","jspsych_version":"6.3.1"},{"view_history":"[{\"page_index\":0,\"viewing_time\":6162},{\"page_index\":1,\"viewing_time\":2584.5},{\"page_index\":2,\"viewing_time\":2390.7999999523163},{\"page_index\":3,\"viewing_time\":4113},{\"page_index\":4,\"viewing_time\":4467.5},{\"page_index\":5,\"viewing_time\":2173.800000190735},{\"page_index\":6,\"viewing_time\":2381.5},{\"page_index\":7,\"viewing_time\":3249.2999999523163},{\"page_index\":8,\"viewing_time\":3389.0999999046326},{\"page_index\":9,\"viewing_time\":4322.799999952316},{\"page_index\":10,\"viewing_time\":2046.8000001907349}]","rt":37282.10000014305,"trial_type":"two-step-instructions","trial_index":8,"time_elapsed":169099,"internal_node_id":"0.0-8.0-1.0","task_version":"1.0","jspsych_version":"6.3.1"},{"responses":["left/right arrow keys","True","True"],"num_errors":0,"rt":11150.800000190735,"quiz":1,"trial_type":"two-step-comprehension","trial_index":9,"time_elapsed":180256,"internal_node_id":"0.0-8.0-2.0","task_version":"1.0","jspsych_version":"6.3.1"},{"view_history":"[{\"page_index\":0,\"viewing_time\":5173.099999904633}]","rt":5173.900000095367,"phase":"instructions_1b","trial_type":"two-step-instructions","trial_index":10,"time_elapsed":185439,"internal_node_id":"0.0-9.0-0.0-0.0","task_version":"1.0","jspsych_version":"6.3.1"},{"state_2_ids":[0,1],"state_2_key":0,"state_2_choice":0,"state_2_rt":1000.4000000953674,"outcome":0,"screen_resolution":[1280,720],"minimum_resolution":1,"trial_type":"alien-practice","trial_index":11,"time_elapsed":188660,"internal_node_id":"0.0-9.0-1.0-0.0","task_version":"1.0","jspsych_version":"6.3.1"},{"state_2_ids":[0,1],"state_2_key":1,"state_2_choice":1,"state_2_rt":600.7999999523163,"outcome":0,"screen_resolution":[1280,720],"minimum_resolution":1,"trial_type":"alien-practice","trial_index":12,"time_elapsed":191476,"internal_node_id":"0.0-9.0-2.0-0.0","task_version":"1.0","jspsych_version":"6.3.1"},{"state_2_ids":[0,1],"state_2_key":1,"state_2_choice":1,"state_2_rt":561.1000001430511,"outcome":1,"screen_resolution":[1280,720],"minimum_resolution":1,"trial_type":"alien-practice","trial_index":13,"time_elapsed":194251,"internal_node_id":"0.0-9.0-3.0-0.0","task_version":"1.0","jspsych_version":"6.3.1"},{"state_2_ids":[0,1],"state_2_key":1,"state_2_choice":1,"state_2_rt":542,"outcome":1,"screen_resolution":[1280,720],"minimum_resolution":1,"trial_type":"alien-practice","trial_index":14,"time_elapsed":197009,"internal_node_id":"0.0-9.0-4.0-0.0","task_version":"1.0","jspsych_version":"6.3.1"},{"state_2_ids":[0,1],"state_2_key":1,"state_2_choice":1,"state_2_rt":435.30000019073486,"outcome":1,"screen_resolution":[1280,720],"minimum_resolution":1,"trial_type":"alien-practice","trial_index":15,"time_elapsed":199662,"internal_node_id":"0.0-9.0-5.0-0.0","task_version":"1.0","jspsych_version":"6.3.1"},{"view_history":"[{\"page_index\":0,\"viewing_time\":3316.7000000476837},{\"page_index\":1,\"viewing_time\":1297.2000000476837},{\"page_index\":2,\"viewing_time\":4604.099999904633},{\"page_index\":3,\"viewing_time\":3988.2000000476837},{\"page_index\":4,\"viewing_time\":2247.0999999046326},{\"page_index\":5,\"viewing_time\":2056.4000000953674}]","rt":17511.599999904633,"trial_type":"two-step-instructions","trial_index":16,"time_elapsed":217212,"internal_node_id":"0.0-10.0-1.0","task_version":"1.0","jspsych_version":"6.3.1"},{"responses":["left/right arrow keys","False","True"],"num_errors":0,"rt":7556.099999904633,"quiz":2,"trial_type":"two-step-comprehension","trial_index":17,"time_elapsed":224781,"internal_node_id":"0.0-10.0-2.0","task_version":"1.0","jspsych_version":"6.3.1"},{"view_history":"[{\"page_index\":0,\"viewing_time\":7401.599999904633},{\"page_index\":1,\"viewing_time\":3590},{\"page_index\":2,\"viewing_time\":3436.7999999523163}]","rt":14430,"trial_type":"two-step-instructions","trial_index":18,"time_elapsed":239219,"internal_node_id":"0.0-11.0-0.0","task_version":"1.0","jspsych_version":"6.3.1"},{"state_1_ids":[1,0],"state_1_key":0,"state_1_choice":1,"state_1_rt":924.2000000476837,"transition":1,"state":1,"state_2_ids":[2,3],"state_2_key":1,"state_2_choice":3,"state_2_rt":1628.6999998092651,"outcome":1,"rocket_colors":["#955db9","#48a782"],"planet_colors":["#5f6f81","#7f5d5d"],"screen_resolution":[1280,720],"minimum_resolution":1,"trial":0,"trial_type":"two-step-trial","trial_index":19,"time_elapsed":243797,"internal_node_id":"0.0-11.0-1.0-0.0","task_version":"1.0","jspsych_version":"6.3.1","missing":false},{"state_1_ids":[0,1],"state_1_key":1,"state_1_choice":1,"state_1_rt":1240.0999999046326,"transition":1,"state":1,"state_2_ids":[2,3],"state_2_key":1,"state_2_choice":3,"state_2_rt":670.6999998092651,"outcome":1,"rocket_colors":["#955db9","#48a782"],"planet_colors":["#5f6f81","#7f5d5d"],"screen_resolution":[1280,720],"minimum_resolution":1,"trial":0,"trial_type":"two-step-trial","trial_index":20,"time_elapsed":247725,"internal_node_id":"0.0-11.0-1.0-0.1","task_version":"1.0","jspsych_version":"6.3.1","missing":false},{"state_1_ids":[0,1],"state_1_key":1,"state_1_choice":1,"state_1_rt":827.8000001907349,"transition":1,"state":1,"state_2_ids":[2,3],"state_2_key":1,"state_2_choice":3,"state_2_rt":638.4000000953674,"outcome":0,"rocket_colors":["#955db9","#48a782"],"planet_colors":["#5f6f81","#7f5d5d"],"screen_resolution":[1280,720],"minimum_resolution":1,"trial":0,"trial_type":"two-step-trial","trial_index":21,"time_elapsed":251218,"internal_node_id":"0.0-11.0-1.0-0.2","task_version":"1.0","jspsych_version":"6.3.1","missing":false},{"state_1_ids":[1,0],"state_1_key":0,"state_1_choice":1,"state_1_rt":769.7000000476837,"transition":1,"state":1,"state_2_ids":[2,3],"state_2_key":1,"state_2_choice":3,"state_2_rt":673.2000000476837,"outcome":1,"rocket_colors":["#955db9","#48a782"],"planet_colors":["#5f6f81","#7f5d5d"],"screen_resolution":[1280,720],"minimum_resolution":1,"trial":0,"trial_type":"two-step-trial","trial_index":22,"time_elapsed":254672,"internal_node_id":"0.0-11.0-1.0-0.3","task_version":"1.0","jspsych_version":"6.3.1","missing":false},{"state_1_ids":[1,0],"state_1_key":0,"state_1_choice":1,"state_1_rt":787.7000000476837,"transition":1,"state":1,"state_2_ids":[2,3],"state_2_key":1,"state_2_choice":3,"state_2_rt":637.8999998569489,"outcome":1,"rocket_colors":["#955db9","#48a782"],"planet_colors":["#5f6f81","#7f5d5d"],"screen_resolution":[1280,720],"minimum_resolution":1,"trial":0,"trial_type":"two-step-trial","trial_index":23,"time_elapsed":258120,"internal_node_id":"0.0-11.0-1.0-0.4","task_version":"1.0","jspsych_version":"6.3.1","missing":false},{"state_1_ids":[0,1],"state_1_key":1,"state_1_choice":1,"state_1_rt":1204,"transition":1,"state":1,"state_2_ids":[2,3],"state_2_key":1,"state_2_choice":3,"state_2_rt":671.5,"outcome":1,"rocket_colors":["#955db9","#48a782"],"planet_colors":["#5f6f81","#7f5d5d"],"screen_resolution":[1280,720],"minimum_resolution":1,"trial":0,"trial_type":"two-step-trial","trial_index":24,"time_elapsed":262021,"internal_node_id":"0.0-11.0-1.0-0.5","task_version":"1.0","jspsych_version":"6.3.1","missing":false},{"state_1_ids":[0,1],"state_1_key":1,"state_1_choice":1,"state_1_rt":692.5,"transition":1,"state":1,"state_2_ids":[2,3],"state_2_key":1,"state_2_choice":3,"state_2_rt":598.8000001907349,"outcome":1,"rocket_colors":["#955db9","#48a782"],"planet_colors":["#5f6f81","#7f5d5d"],"screen_resolution":[1280,720],"minimum_resolution":1,"trial":0,"trial_type":"two-step-trial","trial_index":25,"time_elapsed":265336,"internal_node_id":"0.0-11.0-1.0-0.6","task_version":"1.0","jspsych_version":"6.3.1","missing":false},{"state_1_ids":[0,1],"state_1_key":1,"state_1_choice":1,"state_1_rt":682.2000000476837,"transition":1,"state":1,"state_2_ids":[2,3],"state_2_key":1,"state_2_choice":3,"state_2_rt":602.9000000953674,"outcome":1,"rocket_colors":["#955db9","#48a782"],"planet_colors":["#5f6f81","#7f5d5d"],"screen_resolution":[1280,720],"minimum_resolution":1,"trial":0,"trial_type":"two-step-trial","trial_index":26,"time_elapsed":268642,"internal_node_id":"0.0-11.0-1.0-0.7","task_version":"1.0","jspsych_version":"6.3.1","missing":false},{"state_1_ids":[1,0],"state_1_key":0,"state_1_choice":1,"state_1_rt":708.0999999046326,"transition":1,"state":1,"state_2_ids":[2,3],"state_2_key":1,"state_2_choice":3,"state_2_rt":626.7999999523163,"outcome":1,"rocket_colors":["#955db9","#48a782"],"planet_colors":["#5f6f81","#7f5d5d"],"screen_resolution":[1280,720],"minimum_resolution":1,"trial":0,"trial_type":"two-step-trial","trial_index":27,"time_elapsed":271999,"internal_node_id":"0.0-11.0-1.0-0.8","task_version":"1.0","jspsych_version":"6.3.1","missing":false},{"state_1_ids":[0,1],"state_1_key":1,"state_1_choice":1,"state_1_rt":724,"transition":0,"state":0,"state_2_ids":[0,1],"state_2_key":1,"state_2_choice":1,"state_2_rt":758.5,"outcome":0,"rocket_colors":["#955db9","#48a782"],"planet_colors":["#5f6f81","#7f5d5d"],"screen_resolution":[1280,720],"minimum_resolution":1,"trial":0,"trial_type":"two-step-trial","trial_index":28,"time_elapsed":275516,"internal_node_id":"0.0-11.0-1.0-0.9","task_version":"1.0","jspsych_version":"6.3.1","missing":false},{"view_history":"[{\"page_index\":0,\"viewing_time\":2658.7999999523163},{\"page_index\":1,\"viewing_time\":2424.300000190735},{\"page_index\":2,\"viewing_time\":1224.2999999523163},{\"page_index\":3,\"viewing_time\":2589.2000000476837},{\"page_index\":4,\"viewing_time\":6642.599999904633},{\"page_index\":5,\"viewing_time\":6328.700000047684},{\"page_index\":6,\"viewing_time\":3494.399999856949}]","rt":25364.60000014305,"trial_type":"two-step-instructions","trial_index":29,"time_elapsed":300898,"internal_node_id":"0.0-12.0-1.0","task_version":"1.0","jspsych_version":"6.3.1"},{"responses":["True","False","True"],"num_errors":0,"rt":9195.600000143051,"quiz":3,"trial_type":"two-step-comprehension","trial_index":30,"time_elapsed":310106,"internal_node_id":"0.0-12.0-2.0","task_version":"1.0","jspsych_version":"6.3.1"},{"view_history":"[{\"page_index\":0,\"viewing_time\":1824},{\"page_index\":1,\"viewing_time\":3422.5999999046326},{\"page_index\":2,\"viewing_time\":1882}]","rt":7129.200000047684,"trial_type":"two-step-instructions","trial_index":31,"time_elapsed":317243,"internal_node_id":"0.0-13.0","task_version":"1.0","jspsych_version":"6.3.1"},{"state_1_ids":[0,1],"state_1_key":0,"state_1_choice":0,"state_1_rt":951.8000001907349,"transition":1,"state":0,"state_2_ids":[0,1],"state_2_key":0,"state_2_choice":0,"state_2_rt":1106.7000000476837,"outcome":1,"rocket_colors":["#486ea7","#a75248"],"planet_colors":["#706081","#5b7c65"],"screen_resolution":[1280,720],"minimum_resolution":1,"trial":1,"drifts":[0.6,0.51,0.387,0.388],"drift_ix":0,"trial_type":"two-step-trial","trial_index":32,"time_elapsed":321315,"internal_node_id":"0.0-14.0-0.0","task_version":"1.0","jspsych_version":"6.3.1","browser_interactions":0,"missing":false},{"state_1_ids":[1,0],"state_1_key":1,"state_1_choice":0,"state_1_rt":770.8999998569489,"transition":1,"state":0,"state_2_ids":[0,1],"state_2_key":0,"state_2_choice":0,"state_2_rt":678.5,"outcome":1,"rocket_colors":["#486ea7","#a75248"],"planet_colors":["#706081","#5b7c65"],"screen_resolution":[1280,720],"minimum_resolution":1,"trial":2,"drifts":[0.6,0.49,0.376,0.364],"drift_ix":0,"trial_type":"two-step-trial","trial_index":33,"time_elapsed":324785,"internal_node_id":"0.0-15.0-0.0","task_version":"1.0","jspsych_version":"6.3.1","browser_interactions":0,"missing":false},{"state_1_ids":[0,1],"state_1_key":0,"state_1_choice":0,"state_1_rt":748.5999999046326,"transition":1,"state":0,"state_2_ids":[0,1],"state_2_key":0,"state_2_choice":0,"state_2_rt":634.9000000953674,"outcome":1,"rocket_colors":["#486ea7","#a75248"],"planet_colors":["#706081","#5b7c65"],"screen_resolution":[1280,720],"minimum_resolution":1,"trial":3,"drifts":[0.612,0.488,0.376,0.385],"drift_ix":0,"trial_type":"two-step-trial","trial_index":34,"time_elapsed":328187,"internal_node_id":"0.0-16.0-0.0","task_version":"1.0","jspsych_version":"6.3.1","browser_interactions":0,"missing":false},{"state_1_ids":[0,1],"state_1_key":0,"state_1_choice":0,"state_1_rt":571.3999998569489,"transition":1,"state":0,"state_2_ids":[0,1],"state_2_key":0,"state_2_choice":0,"state_2_rt":659.4000000953674,"outcome":1,"rocket_colors":["#486ea7","#a75248"],"planet_colors":["#706081","#5b7c65"],"screen_resolution":[1280,720],"minimum_resolution":1,"trial":4,"drifts":[0.659,0.517,0.37,0.352],"drift_ix":0,"trial_type":"two-step-trial","trial_index":35,"time_elapsed":331436,"internal_node_id":"0.0-17.0-0.0","task_version":"1.0","jspsych_version":"6.3.1","browser_interactions":0,"missing":false},{"state_1_ids":[1,0],"state_1_key":1,"state_1_choice":0,"state_1_rt":639.8999998569489,"transition":0,"state":1,"state_2_ids":[2,3],"state_2_key":1,"state_2_choice":3,"state_2_rt":1709.5,"outcome":1,"rocket_colors":["#486ea7","#a75248"],"planet_colors":["#706081","#5b7c65"],"screen_resolution":[1280,720],"minimum_resolution":1,"trial":5,"drifts":[0.676,0.497,0.349,0.378],"drift_ix":0,"trial_type":"two-step-trial","trial_index":36,"time_elapsed":335802,"internal_node_id":"0.0-18.0-0.0","task_version":"1.0","jspsych_version":"6.3.1","browser_interactions":0,"missing":false},{"state_1_ids":[0,1],"state_1_key":0,"state_1_choice":0,"state_1_rt":721.1000001430511,"transition":0,"state":1,"state_2_ids":[2,3],"state_2_key":1,"state_2_choice":3,"state_2_rt":844.5,"outcome":0,"rocket_colors":["#486ea7","#a75248"],"planet_colors":["#706081","#5b7c65"],"screen_resolution":[1280,720],"minimum_resolution":1,"trial":6,"drifts":[0.682,0.475,0.347,0.386],"drift_ix":0,"trial_type":"two-step-trial","trial_index":37,"time_elapsed":339385,"internal_node_id":"0.0-19.0-0.0","task_version":"1.0","jspsych_version":"6.3.1","browser_interactions":0,"missing":false},{"state_1_ids":[0,1],"state_1_key":0,"state_1_choice":0,"state_1_rt":639.8999998569489,"transition":1,"state":0,"state_2_ids":[0,1],"state_2_key":0,"state_2_choice":0,"state_2_rt":872.2999999523163,"outcome":1,"rocket_colors":["#486ea7","#a75248"],"planet_colors":["#706081","#5b7c65"],"screen_resolution":[1280,720],"minimum_resolution":1,"trial":7,"drifts":[0.65,0.473,0.346,0.344],"drift_ix":0,"trial_type":"two-step-trial","trial_index":38,"time_elapsed":342915,"internal_node_id":"0.0-20.0-0.0","task_version":"1.0","jspsych_version":"6.3.1","browser_interactions":0,"missing":false},{"state_1_ids":[0,1],"state_1_key":0,"state_1_choice":0,"state_1_rt":632.2999999523163,"transition":0,"state":1,"state_2_ids":[2,3],"state_2_key":1,"state_2_choice":3,"state_2_rt":620.1999998092651,"outcome":0,"rocket_colors":["#486ea7","#a75248"],"planet_colors":["#706081","#5b7c65"],"screen_resolution":[1280,720],"minimum_resolution":1,"trial":8,"drifts":[0.637,0.456,0.371,0.318],"drift_ix":0,"trial_type":"two-step-trial","trial_index":39,"time_elapsed":346187,"internal_node_id":"0.0-21.0-0.0","task_version":"1.0","jspsych_version":"6.3.1","browser_interactions":0,"missing":false},{"state_1_ids":[0,1],"state_1_key":0,"state_1_choice":0,"state_1_rt":743,"transition":1,"state":0,"state_2_ids":[0,1],"state_2_key":0,"state_2_choice":0,"state_2_rt":646.3999998569489,"outcome":0,"rocket_colors":["#486ea7","#a75248"],"planet_colors":["#706081","#5b7c65"],"screen_resolution":[1280,720],"minimum_resolution":1,"trial":9,"drifts":[0.637,0.443,0.354,0.311],"drift_ix":0,"trial_type":"two-step-trial","trial_index":40,"time_elapsed":349592,"internal_node_id":"0.0-22.0-0.0","task_version":"1.0","jspsych_version":"6.3.1","browser_interactions":0,"missing":false},{"state_1_ids":[0,1],"state_1_key":0,"state_1_choice":0,"state_1_rt":500.59999990463257,"transition":1,"state":0,"state_2_ids":[0,1],"state_2_key":0,"state_2_choice":0,"state_2_rt":580.7999999523163,"outcome":1,"rocket_colors":["#486ea7","#a75248"],"planet_colors":["#706081","#5b7c65"],"screen_resolution":[1280,720],"minimum_resolution":1,"trial":10,"drifts":[0.63,0.435,0.315,0.32],"drift_ix":0,"trial_type":"two-step-trial","trial_index":41,"time_elapsed":352691,"internal_node_id":"0.0-23.0-0.0","task_version":"1.0","jspsych_version":"6.3.1","browser_interactions":0,"missing":false},{"state_1_ids":[1,0],"state_1_key":1,"state_1_choice":0,"state_1_rt":719.7999999523163,"transition":1,"state":0,"state_2_ids":[0,1],"state_2_key":0,"state_2_choice":0,"state_2_rt":615.0999999046326,"outcome":0,"rocket_colors":["#486ea7","#a75248"],"planet_colors":["#706081","#5b7c65"],"screen_resolution":[1280,720],"minimum_resolution":1,"trial":11,"drifts":[0.599,0.48,0.291,0.32],"drift_ix":0,"trial_type":"two-step-trial","trial_index":42,"time_elapsed":356042,"internal_node_id":"0.0-24.0-0.0","task_version":"1.0","jspsych_version":"6.3.1","browser_interactions":0,"missing":false},{"state_1_ids":[1,0],"state_1_key":1,"state_1_choice":0,"state_1_rt":638,"transition":1,"state":0,"state_2_ids":[0,1],"state_2_key":0,"state_2_choice":0,"state_2_rt":572.5,"outcome":0,"rocket_colors":["#486ea7","#a75248"],"planet_colors":["#706081","#5b7c65"],"screen_resolution":[1280,720],"minimum_resolution":1,"trial":12,"drifts":[0.573,0.445,0.3,0.33],"drift_ix":0,"trial_type":"two-step-trial","trial_index":43,"time_elapsed":359282,"internal_node_id":"0.0-25.0-0.0","task_version":"1.0","jspsych_version":"6.3.1","browser_interactions":0,"missing":false},{"state_1_ids":[1,0],"state_1_key":1,"state_1_choice":0,"state_1_rt":632.5,"transition":0,"state":1,"state_2_ids":[2,3],"state_2_key":1,"state_2_choice":3,"state_2_rt":1654,"outcome":1,"rocket_colors":["#486ea7","#a75248"],"planet_colors":["#706081","#5b7c65"],"screen_resolution":[1280,720],"minimum_resolution":1,"trial":13,"drifts":[0.6,0.4,0.3,0.32],"drift_ix":0,"trial_type":"two-step-trial","trial_index":44,"time_elapsed":363585,"internal_node_id":"0.0-26.0-0.0","task_version":"1.0","jspsych_version":"6.3.1","browser_interactions":0,"missing":false},{"state_1_ids":[1,0],"state_1_key":1,"state_1_choice":0,"state_1_rt":585,"transition":1,"state":0,"state_2_ids":[0,1],"state_2_key":0,"state_2_choice":0,"state_2_rt":701.1000001430511,"outcome":1,"rocket_colors":["#486ea7","#a75248"],"planet_colors":["#706081","#5b7c65"],"screen_resolution":[1280,720],"minimum_resolution":1,"trial":14,"drifts":[0.601,0.428,0.308,0.274],"drift_ix":0,"trial_type":"two-step-trial","trial_index":45,"time_elapsed":366891,"internal_node_id":"0.0-27.0-0.0","task_version":"1.0","jspsych_version":"6.3.1","browser_interactions":0,"missing":false},{"state_1_ids":[0,1],"state_1_key":0,"state_1_choice":0,"state_1_rt":653.5,"transition":0,"state":1,"state_2_ids":[2,3],"state_2_key":1,"state_2_choice":3,"state_2_rt":1021.8999998569489,"outcome":0,"rocket_colors":["#486ea7","#a75248"],"planet_colors":["#706081","#5b7c65"],"screen_resolution":[1280,720],"minimum_resolution":1,"trial":15,"drifts":[0.588,0.441,0.345,0.295],"drift_ix":0,"trial_type":"two-step-trial","trial_index":46,"time_elapsed":370585,"internal_node_id":"0.0-28.0-0.0","task_version":"1.0","jspsych_version":"6.3.1","browser_interactions":0,"missing":false},{"state_1_ids":[0,1],"state_1_key":0,"state_1_choice":0,"state_1_rt":799.5,"transition":1,"state":0,"state_2_ids":[0,1],"state_2_key":0,"state_2_choice":0,"state_2_rt":768,"outcome":0,"rocket_colors":["#486ea7","#a75248"],"planet_colors":["#706081","#5b7c65"],"screen_resolution":[1280,720],"minimum_resolution":1,"trial":16,"drifts":[0.641,0.463,0.39,0.301],"drift_ix":0,"trial_type":"two-step-trial","trial_index":47,"time_elapsed":374172,"internal_node_id":"0.0-29.0-0.0","task_version":"1.0","jspsych_version":"6.3.1","browser_interactions":0,"missing":false},{"state_1_ids":[0,1],"state_1_key":0,"state_1_choice":0,"state_1_rt":678,"transition":1,"state":0,"state_2_ids":[0,1],"state_2_key":0,"state_2_choice":0,"state_2_rt":821.5,"outcome":1,"rocket_colors":["#486ea7","#a75248"],"planet_colors":["#706081","#5b7c65"],"screen_resolution":[1280,720],"minimum_resolution":1,"trial":17,"drifts":[0.649,0.465,0.413,0.325],"drift_ix":0,"trial_type":"two-step-trial","trial_index":48,"time_elapsed":377691,"internal_node_id":"0.0-30.0-0.0","task_version":"1.0","jspsych_version":"6.3.1","browser_interactions":0,"missing":false},{"state_1_ids":[1,0],"state_1_key":1,"state_1_choice":0,"state_1_rt":679.8000001907349,"transition":1,"state":0,"state_2_ids":[0,1],"state_2_key":0,"state_2_choice":0,"state_2_rt":615.3999998569489,"outcome":1,"rocket_colors":["#486ea7","#a75248"],"planet_colors":["#706081","#5b7c65"],"screen_resolution":[1280,720],"minimum_resolution":1,"trial":18,"drifts":[0.627,0.478,0.397,0.324],"drift_ix":0,"trial_type":"two-step-trial","trial_index":49,"time_elapsed":381003,"internal_node_id":"0.0-31.0-0.0","task_version":"1.0","jspsych_version":"6.3.1","browser_interactions":0,"missing":false},{"state_1_ids":[1,0],"state_1_key":1,"state_1_choice":0,"state_1_rt":559.4000000953674,"transition":0,"state":1,"state_2_ids":[2,3],"state_2_key":1,"state_2_choice":3,"state_2_rt":1138.2999999523163,"outcome":0,"rocket_colors":["#486ea7","#a75248"],"planet_colors":["#706081","#5b7c65"],"screen_resolution":[1280,720],"minimum_resolution":1,"trial":19,"drifts":[0.656,0.491,0.375,0.348],"drift_ix":0,"trial_type":"two-step-trial","trial_index":50,"time_elapsed":384715,"internal_node_id":"0.0-32.0-0.0","task_version":"1.0","jspsych_version":"6.3.1","browser_interactions":0,"missing":false},{"state_1_ids":[1,0],"state_1_key":1,"state_1_choice":0,"state_1_rt":890,"transition":1,"state":0,"state_2_ids":[0,1],"state_2_key":0,"state_2_choice":0,"state_2_rt":682.7999999523163,"outcome":0,"rocket_colors":["#486ea7","#a75248"],"planet_colors":["#706081","#5b7c65"],"screen_resolution":[1280,720],"minimum_resolution":1,"trial":20,"drifts":[0.64,0.468,0.396,0.335],"drift_ix":0,"trial_type":"two-step-trial","trial_index":51,"time_elapsed":388304,"internal_node_id":"0.0-33.0-0.0","task_version":"1.0","jspsych_version":"6.3.1","browser_interactions":0,"missing":false},{"state_1_ids":[1,0],"state_1_key":1,"state_1_choice":0,"state_1_rt":626.9000000953674,"transition":1,"state":0,"state_2_ids":[0,1],"state_2_key":0,"state_2_choice":0,"state_2_rt":782.5999999046326,"outcome":1,"rocket_colors":["#486ea7","#a75248"],"planet_colors":["#706081","#5b7c65"],"screen_resolution":[1280,720],"minimum_resolution":1,"trial":21,"drifts":[0.633,0.467,0.352,0.33],"drift_ix":0,"trial_type":"two-step-trial","trial_index":52,"time_elapsed":391730,"internal_node_id":"0.0-34.0-0.0","task_version":"1.0","jspsych_version":"6.3.1","browser_interactions":0,"missing":false},{"state_1_ids":[1,0],"state_1_key":1,"state_1_choice":0,"state_1_rt":526.5,"transition":0,"state":1,"state_2_ids":[2,3],"state_2_key":0,"state_2_choice":2,"state_2_rt":564.7000000476837,"outcome":1,"rocket_colors":["#486ea7","#a75248"],"planet_colors":["#706081","#5b7c65"],"screen_resolution":[1280,720],"minimum_resolution":1,"trial":22,"drifts":[0.591,0.462,0.379,0.373],"drift_ix":0,"trial_type":"two-step-trial","trial_index":53,"time_elapsed":394838,"internal_node_id":"0.0-35.0-0.0","task_version":"1.0","jspsych_version":"6.3.1","browser_interactions":0,"missing":false},{"state_1_ids":[0,1],"state_1_key":0,"state_1_choice":0,"state_1_rt":846.1000001430511,"transition":1,"state":0,"state_2_ids":[0,1],"state_2_key":0,"state_2_choice":0,"state_2_rt":745.0999999046326,"outcome":0,"rocket_colors":["#486ea7","#a75248"],"planet_colors":["#706081","#5b7c65"],"screen_resolution":[1280,720],"minimum_resolution":1,"trial":23,"drifts":[0.612,0.436,0.44,0.331],"drift_ix":0,"trial_type":"two-step-trial","trial_index":54,"time_elapsed":398447,"internal_node_id":"0.0-36.0-0.0","task_version":"1.0","jspsych_version":"6.3.1","browser_interactions":0,"missing":false},{"state_1_ids":[0,1],"state_1_key":1,"state_1_choice":1,"state_1_rt":940.5,"transition":0,"state":0,"state_2_ids":[0,1],"state_2_key":0,"state_2_choice":0,"state_2_rt":1382.2999999523163,"outcome":0,"rocket_colors":["#486ea7","#a75248"],"planet_colors":["#706081","#5b7c65"],"screen_resolution":[1280,720],"minimum_resolution":1,"trial":24,"drifts":[0.612,0.434,0.473,0.352],"drift_ix":0,"trial_type":"two-step-trial","trial_index":55,"time_elapsed":402786,"internal_node_id":"0.0-37.0-0.0","task_version":"1.0","jspsych_version":"6.3.1","browser_interactions":0,"missing":false},{"state_1_ids":[1,0],"state_1_key":0,"state_1_choice":1,"state_1_rt":1255.7000000476837,"transition":1,"state":1,"state_2_ids":[2,3],"state_2_key":0,"state_2_choice":2,"state_2_rt":684.3000001907349,"outcome":1,"rocket_colors":["#486ea7","#a75248"],"planet_colors":["#706081","#5b7c65"],"screen_resolution":[1280,720],"minimum_resolution":1,"trial":25,"drifts":[0.568,0.394,0.47,0.342],"drift_ix":0,"trial_type":"two-step-trial","trial_index":56,"time_elapsed":406744,"internal_node_id":"0.0-38.0-0.0","task_version":"1.0","jspsych_version":"6.3.1","browser_interactions":0,"missing":false},{"state_1_ids":[1,0],"state_1_key":0,"state_1_choice":1,"state_1_rt":586.0999999046326,"transition":0,"state":0,"state_2_ids":[0,1],"state_2_key":1,"state_2_choice":1,"state_2_rt":1318.6000001430511,"outcome":0,"rocket_colors":["#486ea7","#a75248"],"planet_colors":["#706081","#5b7c65"],"screen_resolution":[1280,720],"minimum_resolution":1,"trial":26,"drifts":[0.601,0.434,0.455,0.342],"drift_ix":0,"trial_type":"two-step-trial","trial_index":57,"time_elapsed":410665,"internal_node_id":"0.0-39.0-0.0","task_version":"1.0","jspsych_version":"6.3.1","browser_interactions":0,"missing":false},{"state_1_ids":[1,0],"state_1_key":0,"state_1_choice":1,"state_1_rt":513.2999999523163,"transition":0,"state":0,"state_2_ids":[0,1],"state_2_key":0,"state_2_choice":0,"state_2_rt":1238.5,"outcome":1,"rocket_colors":["#486ea7","#a75248"],"planet_colors":["#706081","#5b7c65"],"screen_resolution":[1280,720],"minimum_resolution":1,"trial":27,"drifts":[0.539,0.464,0.435,0.334],"drift_ix":0,"trial_type":"two-step-trial","trial_index":58,"time_elapsed":414433,"internal_node_id":"0.0-40.0-0.0","task_version":"1.0","jspsych_version":"6.3.1","browser_interactions":0,"missing":false},{"state_1_ids":[0,1],"state_1_key":1,"state_1_choice":1,"state_1_rt":645.2999999523163,"transition":1,"state":1,"state_2_ids":[2,3],"state_2_key":0,"state_2_choice":2,"state_2_rt":671.1000001430511,"outcome":0,"rocket_colors":["#486ea7","#a75248"],"planet_colors":["#706081","#5b7c65"],"screen_resolution":[1280,720],"minimum_resolution":1,"trial":28,"drifts":[0.523,0.476,0.415,0.352],"drift_ix":0,"trial_type":"two-step-trial","trial_index":59,"time_elapsed":417768,"internal_node_id":"0.0-41.0-0.0","task_version":"1.0","jspsych_version":"6.3.1","browser_interactions":0,"missing":false},{"state_1_ids":[1,0],"state_1_key":1,"state_1_choice":0,"state_1_rt":627.2999999523163,"transition":1,"state":0,"state_2_ids":[0,1],"state_2_key":0,"state_2_choice":0,"state_2_rt":646.2000000476837,"outcome":1,"rocket_colors":["#486ea7","#a75248"],"planet_colors":["#706081","#5b7c65"],"screen_resolution":[1280,720],"minimum_resolution":1,"trial":29,"drifts":[0.515,0.504,0.459,0.339],"drift_ix":0,"trial_type":"two-step-trial","trial_index":60,"time_elapsed":421057,"internal_node_id":"0.0-42.0-0.0","task_version":"1.0","jspsych_version":"6.3.1","browser_interactions":0,"missing":false},{"state_1_ids":[0,1],"state_1_key":0,"state_1_choice":0,"state_1_rt":729.5,"transition":1,"state":0,"state_2_ids":[0,1],"state_2_key":0,"state_2_choice":0,"state_2_rt":558.7999999523163,"outcome":0,"rocket_colors":["#486ea7","#a75248"],"planet_colors":["#706081","#5b7c65"],"screen_resolution":[1280,720],"minimum_resolution":1,"trial":30,"drifts":[0.491,0.488,0.491,0.323],"drift_ix":0,"trial_type":"two-step-trial","trial_index":61,"time_elapsed":424364,"internal_node_id":"0.0-43.0-0.0","task_version":"1.0","jspsych_version":"6.3.1","browser_interactions":0,"missing":false},{"state_1_ids":[1,0],"state_1_key":0,"state_1_choice":1,"state_1_rt":874.2000000476837,"transition":0,"state":0,"state_2_ids":[0,1],"state_2_key":0,"state_2_choice":0,"state_2_rt":849.4000000953674,"outcome":0,"rocket_colors":["#486ea7","#a75248"],"planet_colors":["#706081","#5b7c65"],"screen_resolution":[1280,720],"minimum_resolution":1,"trial":31,"drifts":[0.478,0.502,0.474,0.353],"drift_ix":0,"trial_type":"two-step-trial","trial_index":62,"time_elapsed":428103,"internal_node_id":"0.0-44.0-0.0","task_version":"1.0","jspsych_version":"6.3.1","browser_interactions":0,"missing":false},{"state_1_ids":[1,0],"state_1_key":0,"state_1_choice":1,"state_1_rt":729.5,"transition":1,"state":1,"state_2_ids":[2,3],"state_2_key":0,"state_2_choice":2,"state_2_rt":901.7000000476837,"outcome":0,"rocket_colors":["#486ea7","#a75248"],"planet_colors":["#706081","#5b7c65"],"screen_resolution":[1280,720],"minimum_resolution":1,"trial":32,"drifts":[0.459,0.453,0.457,0.338],"drift_ix":0,"trial_type":"two-step-trial","trial_index":63,"time_elapsed":431748,"internal_node_id":"0.0-45.0-0.0","task_version":"1.0","jspsych_version":"6.3.1","browser_interactions":0,"missing":false},{"state_1_ids":[0,1],"state_1_key":1,"state_1_choice":1,"state_1_rt":868.3999998569489,"transition":1,"state":1,"state_2_ids":[2,3],"state_2_key":0,"state_2_choice":2,"state_2_rt":622.7000000476837,"outcome":1,"rocket_colors":["#486ea7","#a75248"],"planet_colors":["#706081","#5b7c65"],"screen_resolution":[1280,720],"minimum_resolution":1,"trial":33,"drifts":[0.435,0.461,0.485,0.304],"drift_ix":0,"trial_type":"two-step-trial","trial_index":64,"time_elapsed":435255,"internal_node_id":"0.0-46.0-0.0","task_version":"1.0","jspsych_version":"6.3.1","browser_interactions":0,"missing":false},{"state_1_ids":[0,1],"state_1_key":1,"state_1_choice":1,"state_1_rt":637.7000000476837,"transition":1,"state":1,"state_2_ids":[2,3],"state_2_key":0,"state_2_choice":2,"state_2_rt":603.9000000953674,"outcome":0,"rocket_colors":["#486ea7","#a75248"],"planet_colors":["#706081","#5b7c65"],"screen_resolution":[1280,720],"minimum_resolution":1,"trial":34,"drifts":[0.425,0.445,0.448,0.302],"drift_ix":0,"trial_type":"two-step-trial","trial_index":65,"time_elapsed":438515,"internal_node_id":"0.0-47.0-0.0","task_version":"1.0","jspsych_version":"6.3.1","browser_interactions":0,"missing":false},{"state_1_ids":[1,0],"state_1_key":1,"state_1_choice":0,"state_1_rt":760.1999998092651,"transition":0,"state":1,"state_2_ids":[2,3],"state_2_key":1,"state_2_choice":3,"state_2_rt":1399,"outcome":0,"rocket_colors":["#486ea7","#a75248"],"planet_colors":["#706081","#5b7c65"],"screen_resolution":[1280,720],"minimum_resolution":1,"trial":35,"drifts":[0.398,0.417,0.401,0.285],"drift_ix":0,"trial_type":"two-step-trial","trial_index":66,"time_elapsed":442686,"internal_node_id":"0.0-48.0-0.0","task_version":"1.0","jspsych_version":"6.3.1","browser_interactions":0,"missing":false},{"state_1_ids":[1,0],"state_1_key":1,"state_1_choice":0,"state_1_rt":756.5999999046326,"transition":1,"state":0,"state_2_ids":[0,1],"state_2_key":1,"state_2_choice":1,"state_2_rt":949.2000000476837,"outcome":0,"rocket_colors":["#486ea7","#a75248"],"planet_colors":["#706081","#5b7c65"],"screen_resolution":[1280,720],"minimum_resolution":1,"trial":36,"drifts":[0.438,0.401,0.404,0.302],"drift_ix":0,"trial_type":"two-step-trial","trial_index":67,"time_elapsed":446407,"internal_node_id":"0.0-49.0-0.0","task_version":"1.0","jspsych_version":"6.3.1","browser_interactions":0,"missing":false},{"state_1_ids":[1,0],"state_1_key":1,"state_1_choice":0,"state_1_rt":750.0999999046326,"transition":0,"state":1,"state_2_ids":[2,3],"state_2_key":0,"state_2_choice":2,"state_2_rt":1391.5999999046326,"outcome":0,"rocket_colors":["#486ea7","#a75248"],"planet_colors":["#706081","#5b7c65"],"screen_resolution":[1280,720],"minimum_resolution":1,"trial":37,"drifts":[0.446,0.383,0.396,0.273],"drift_ix":0,"trial_type":"two-step-trial","trial_index":68,"time_elapsed":450575,"internal_node_id":"0.0-50.0-0.0","task_version":"1.0","jspsych_version":"6.3.1","browser_interactions":0,"missing":false},{"state_1_ids":[0,1],"state_1_key":1,"state_1_choice":1,"state_1_rt":573.1000001430511,"transition":1,"state":1,"state_2_ids":[2,3],"state_2_key":0,"state_2_choice":2,"state_2_rt":1043.0999999046326,"outcome":0,"rocket_colors":["#486ea7","#a75248"],"planet_colors":["#706081","#5b7c65"],"screen_resolution":[1280,720],"minimum_resolution":1,"trial":38,"drifts":[0.473,0.425,0.406,0.259],"drift_ix":0,"trial_type":"two-step-trial","trial_index":69,"time_elapsed":454205,"internal_node_id":"0.0-51.0-0.0","task_version":"1.0","jspsych_version":"6.3.1","browser_interactions":0,"missing":false},{"state_1_ids":[0,1],"state_1_key":0,"state_1_choice":0,"state_1_rt":581,"transition":1,"state":0,"state_2_ids":[0,1],"state_2_key":0,"state_2_choice":0,"state_2_rt":827.5,"outcome":1,"rocket_colors":["#486ea7","#a75248"],"planet_colors":["#706081","#5b7c65"],"screen_resolution":[1280,720],"minimum_resolution":1,"trial":39,"drifts":[0.491,0.414,0.381,0.251],"drift_ix":0,"trial_type":"two-step-trial","trial_index":70,"time_elapsed":457635,"internal_node_id":"0.0-52.0-0.0","task_version":"1.0","jspsych_version":"6.3.1","browser_interactions":0,"missing":false},{"state_1_ids":[0,1],"state_1_key":0,"state_1_choice":0,"state_1_rt":536.5999999046326,"transition":1,"state":0,"state_2_ids":[0,1],"state_2_key":0,"state_2_choice":0,"state_2_rt":552.3000001907349,"outcome":1,"rocket_colors":["#486ea7","#a75248"],"planet_colors":["#706081","#5b7c65"],"screen_resolution":[1280,720],"minimum_resolution":1,"trial":40,"drifts":[0.46,0.404,0.375,0.267],"drift_ix":0,"trial_type":"two-step-trial","trial_index":71,"time_elapsed":460741,"internal_node_id":"0.0-53.0-0.0","task_version":"1.0","jspsych_version":"6.3.1","browser_interactions":0,"missing":false},{"state_1_ids":[0,1],"state_1_key":0,"state_1_choice":0,"state_1_rt":519.2000000476837,"transition":1,"state":0,"state_2_ids":[0,1],"state_2_key":0,"state_2_choice":0,"state_2_rt":500.60000014305115,"outcome":1,"rocket_colors":["#486ea7","#a75248"],"planet_colors":["#706081","#5b7c65"],"screen_resolution":[1280,720],"minimum_resolution":1,"trial":41,"drifts":[0.47,0.46,0.37,0.279],"drift_ix":0,"trial_type":"two-step-trial","trial_index":72,"time_elapsed":463778,"internal_node_id":"0.0-54.0-0.0","task_version":"1.0","jspsych_version":"6.3.1","browser_interactions":0,"missing":false},{"state_1_ids":[0,1],"state_1_key":0,"state_1_choice":0,"state_1_rt":518.2000000476837,"transition":1,"state":0,"state_2_ids":[0,1],"state_2_key":0,"state_2_choice":0,"state_2_rt":527,"outcome":1,"rocket_colors":["#486ea7","#a75248"],"planet_colors":["#706081","#5b7c65"],"screen_resolution":[1280,720],"minimum_resolution":1,"trial":42,"drifts":[0.454,0.461,0.369,0.275],"drift_ix":0,"trial_type":"two-step-trial","trial_index":73,"time_elapsed":466842,"internal_node_id":"0.0-55.0-0.0","task_version":"1.0","jspsych_version":"6.3.1","browser_interactions":0,"missing":false},{"state_1_ids":[0,1],"state_1_key":0,"state_1_choice":0,"state_1_rt":547.6000001430511,"transition":0,"state":1,"state_2_ids":[2,3],"state_2_key":0,"state_2_choice":2,"state_2_rt":1571.9000000953674,"outcome":1,"rocket_colors":["#486ea7","#a75248"],"planet_colors":["#706081","#5b7c65"],"screen_resolution":[1280,720],"minimum_resolution":1,"trial":43,"drifts":[0.452,0.459,0.392,0.293],"drift_ix":0,"trial_type":"two-step-trial","trial_index":74,"time_elapsed":470987,"internal_node_id":"0.0-56.0-0.0","task_version":"1.0","jspsych_version":"6.3.1","browser_interactions":0,"missing":false},{"state_1_ids":[0,1],"state_1_key":0,"state_1_choice":0,"state_1_rt":487.90000009536743,"transition":0,"state":1,"state_2_ids":[2,3],"state_2_key":0,"state_2_choice":2,"state_2_rt":620.5,"outcome":0,"rocket_colors":["#486ea7","#a75248"],"planet_colors":["#706081","#5b7c65"],"screen_resolution":[1280,720],"minimum_resolution":1,"trial":44,"drifts":[0.439,0.428,0.412,0.329],"drift_ix":0,"trial_type":"two-step-trial","trial_index":75,"time_elapsed":474109,"internal_node_id":"0.0-57.0-0.0","task_version":"1.0","jspsych_version":"6.3.1","browser_interactions":0,"missing":false},{"state_1_ids":[1,0],"state_1_key":1,"state_1_choice":0,"state_1_rt":755,"transition":1,"state":0,"state_2_ids":[0,1],"state_2_key":0,"state_2_choice":0,"state_2_rt":542.7999999523163,"outcome":1,"rocket_colors":["#486ea7","#a75248"],"planet_colors":["#706081","#5b7c65"],"screen_resolution":[1280,720],"minimum_resolution":1,"trial":45,"drifts":[0.455,0.384,0.41,0.354],"drift_ix":0,"trial_type":"two-step-trial","trial_index":76,"time_elapsed":477414,"internal_node_id":"0.0-58.0-0.0","task_version":"1.0","jspsych_version":"6.3.1","browser_interactions":0,"missing":false},{"state_1_ids":[1,0],"state_1_key":1,"state_1_choice":0,"state_1_rt":544.6999998092651,"transition":1,"state":0,"state_2_ids":[0,1],"state_2_key":0,"state_2_choice":0,"state_2_rt":520,"outcome":0,"rocket_colors":["#486ea7","#a75248"],"planet_colors":["#706081","#5b7c65"],"screen_resolution":[1280,720],"minimum_resolution":1,"trial":46,"drifts":[0.471,0.375,0.394,0.336],"drift_ix":0,"trial_type":"two-step-trial","trial_index":77,"time_elapsed":480494,"internal_node_id":"0.0-59.0-0.0","task_version":"1.0","jspsych_version":"6.3.1","browser_interactions":0,"missing":false},{"state_1_ids":[1,0],"state_1_key":1,"state_1_choice":0,"state_1_rt":534.7000000476837,"transition":1,"state":0,"state_2_ids":[0,1],"state_2_key":0,"state_2_choice":0,"state_2_rt":559.0999999046326,"outcome":1,"rocket_colors":["#486ea7","#a75248"],"planet_colors":["#706081","#5b7c65"],"screen_resolution":[1280,720],"minimum_resolution":1,"trial":47,"drifts":[0.423,0.325,0.351,0.294],"drift_ix":0,"trial_type":"two-step-trial","trial_index":78,"time_elapsed":483605,"internal_node_id":"0.0-60.0-0.0","task_version":"1.0","jspsych_version":"6.3.1","browser_interactions":0,"missing":false},{"state_1_ids":[0,1],"state_1_key":0,"state_1_choice":0,"state_1_rt":578.7000000476837,"transition":1,"state":0,"state_2_ids":[0,1],"state_2_key":0,"state_2_choice":0,"state_2_rt":518.7000000476837,"outcome":0,"rocket_colors":["#486ea7","#a75248"],"planet_colors":["#706081","#5b7c65"],"screen_resolution":[1280,720],"minimum_resolution":1,"trial":48,"drifts":[0.458,0.334,0.355,0.324],"drift_ix":0,"trial_type":"two-step-trial","trial_index":79,"time_elapsed":486712,"internal_node_id":"0.0-61.0-0.0","task_version":"1.0","jspsych_version":"6.3.1","browser_interactions":0,"missing":false},{"state_1_ids":[0,1],"state_1_key":0,"state_1_choice":0,"state_1_rt":560.0999999046326,"transition":1,"state":0,"state_2_ids":[0,1],"state_2_key":0,"state_2_choice":0,"state_2_rt":543.1000001430511,"outcome":0,"rocket_colors":["#486ea7","#a75248"],"planet_colors":["#706081","#5b7c65"],"screen_resolution":[1280,720],"minimum_resolution":1,"trial":49,"drifts":[0.502,0.353,0.35,0.322],"drift_ix":0,"trial_type":"two-step-trial","trial_index":80,"time_elapsed":489834,"internal_node_id":"0.0-62.0-0.0","task_version":"1.0","jspsych_version":"6.3.1","browser_interactions":0,"missing":false},{"state_1_ids":[1,0],"state_1_key":1,"state_1_choice":0,"state_1_rt":647.6000001430511,"transition":0,"state":1,"state_2_ids":[2,3],"state_2_key":0,"state_2_choice":2,"state_2_rt":1086,"outcome":0,"rocket_colors":["#486ea7","#a75248"],"planet_colors":["#706081","#5b7c65"],"screen_resolution":[1280,720],"minimum_resolution":1,"trial":50,"drifts":[0.464,0.368,0.367,0.351],"drift_ix":0,"trial_type":"two-step-trial","trial_index":81,"time_elapsed":493585,"internal_node_id":"0.0-63.0-0.0","task_version":"1.0","jspsych_version":"6.3.1","browser_interactions":0,"missing":false},{"state_1_ids":[1,0],"state_1_key":1,"state_1_choice":0,"state_1_rt":600.4000000953674,"transition":1,"state":0,"state_2_ids":[0,1],"state_2_key":0,"state_2_choice":0,"state_2_rt":677.4000000953674,"outcome":0,"rocket_colors":["#486ea7","#a75248"],"planet_colors":["#706081","#5b7c65"],"screen_resolution":[1280,720],"minimum_resolution":1,"trial":51,"drifts":[0.459,0.421,0.341,0.301],"drift_ix":0,"trial_type":"two-step-trial","trial_index":82,"time_elapsed":496879,"internal_node_id":"0.0-64.0-0.0","task_version":"1.0","jspsych_version":"6.3.1","browser_interactions":0,"missing":false},{"state_1_ids":[0,1],"state_1_key":0,"state_1_choice":0,"state_1_rt":930.7000000476837,"transition":1,"state":0,"state_2_ids":[0,1],"state_2_key":1,"state_2_choice":1,"state_2_rt":1076.6000001430511,"outcome":0,"rocket_colors":["#486ea7","#a75248"],"planet_colors":["#706081","#5b7c65"],"screen_resolution":[1280,720],"minimum_resolution":1,"trial":52,"drifts":[0.496,0.401,0.388,0.295],"drift_ix":0,"trial_type":"two-step-trial","trial_index":83,"time_elapsed":500903,"internal_node_id":"0.0-65.0-0.0","task_version":"1.0","jspsych_version":"6.3.1","browser_interactions":0,"missing":false},{"state_1_ids":[0,1],"state_1_key":1,"state_1_choice":1,"state_1_rt":515,"transition":1,"state":1,"state_2_ids":[2,3],"state_2_key":1,"state_2_choice":3,"state_2_rt":527.0999999046326,"outcome":0,"rocket_colors":["#486ea7","#a75248"],"planet_colors":["#706081","#5b7c65"],"screen_resolution":[1280,720],"minimum_resolution":1,"trial":53,"drifts":[0.476,0.391,0.373,0.273],"drift_ix":0,"trial_type":"two-step-trial","trial_index":84,"time_elapsed":503959,"internal_node_id":"0.0-66.0-0.0","task_version":"1.0","jspsych_version":"6.3.1","browser_interactions":0,"missing":false},{"state_1_ids":[1,0],"state_1_key":0,"state_1_choice":1,"state_1_rt":569.2999999523163,"transition":1,"state":1,"state_2_ids":[2,3],"state_2_key":1,"state_2_choice":3,"state_2_rt":551.0999999046326,"outcome":0,"rocket_colors":["#486ea7","#a75248"],"planet_colors":["#706081","#5b7c65"],"screen_resolution":[1280,720],"minimum_resolution":1,"trial":54,"drifts":[0.452,0.379,0.383,0.272],"drift_ix":0,"trial_type":"two-step-trial","trial_index":85,"time_elapsed":507095,"internal_node_id":"0.0-67.0-0.0","task_version":"1.0","jspsych_version":"6.3.1","browser_interactions":0,"missing":false},{"state_1_ids":[0,1],"state_1_key":1,"state_1_choice":1,"state_1_rt":721.6999998092651,"transition":0,"state":0,"state_2_ids":[0,1],"state_2_key":1,"state_2_choice":1,"state_2_rt":1540.5999999046326,"outcome":1,"rocket_colors":["#486ea7","#a75248"],"planet_colors":["#706081","#5b7c65"],"screen_resolution":[1280,720],"minimum_resolution":1,"trial":55,"drifts":[0.448,0.393,0.401,0.289],"drift_ix":0,"trial_type":"two-step-trial","trial_index":86,"time_elapsed":511375,"internal_node_id":"0.0-68.0-0.0","task_version":"1.0","jspsych_version":"6.3.1","browser_interactions":0,"missing":false},{"state_1_ids":[1,0],"state_1_key":0,"state_1_choice":1,"state_1_rt":554.1000001430511,"transition":1,"state":1,"state_2_ids":[2,3],"state_2_key":0,"state_2_choice":2,"state_2_rt":962.5,"outcome":1,"rocket_colors":["#486ea7","#a75248"],"planet_colors":["#706081","#5b7c65"],"screen_resolution":[1280,720],"minimum_resolution":1,"trial":56,"drifts":[0.435,0.368,0.433,0.291],"drift_ix":0,"trial_type":"two-step-trial","trial_index":87,"time_elapsed":514909,"internal_node_id":"0.0-69.0-0.0","task_version":"1.0","jspsych_version":"6.3.1","browser_interactions":0,"missing":false},{"state_1_ids":[0,1],"state_1_key":1,"state_1_choice":1,"state_1_rt":532.5,"transition":1,"state":1,"state_2_ids":[2,3],"state_2_key":0,"state_2_choice":2,"state_2_rt":556.5,"outcome":1,"rocket_colors":["#486ea7","#a75248"],"planet_colors":["#706081","#5b7c65"],"screen_resolution":[1280,720],"minimum_resolution":1,"trial":57,"drifts":[0.441,0.373,0.443,0.285],"drift_ix":0,"trial_type":"two-step-trial","trial_index":88,"time_elapsed":518014,"internal_node_id":"0.0-70.0-0.0","task_version":"1.0","jspsych_version":"6.3.1","browser_interactions":0,"missing":false},{"state_1_ids":[0,1],"state_1_key":1,"state_1_choice":1,"state_1_rt":547.2000000476837,"transition":1,"state":1,"state_2_ids":[2,3],"state_2_key":0,"state_2_choice":2,"state_2_rt":590.1000001430511,"outcome":0,"rocket_colors":["#486ea7","#a75248"],"planet_colors":["#706081","#5b7c65"],"screen_resolution":[1280,720],"minimum_resolution":1,"trial":58,"drifts":[0.418,0.389,0.42,0.282],"drift_ix":0,"trial_type":"two-step-trial","trial_index":89,"time_elapsed":521166,"internal_node_id":"0.0-71.0-0.0","task_version":"1.0","jspsych_version":"6.3.1","browser_interactions":0,"missing":false},{"state_1_ids":[0,1],"state_1_key":1,"state_1_choice":1,"state_1_rt":531.2000000476837,"transition":0,"state":0,"state_2_ids":[0,1],"state_2_key":1,"state_2_choice":1,"state_2_rt":1189.4000000953674,"outcome":0,"rocket_colors":["#486ea7","#a75248"],"planet_colors":["#706081","#5b7c65"],"screen_resolution":[1280,720],"minimum_resolution":1,"trial":59,"drifts":[0.41,0.383,0.392,0.255],"drift_ix":0,"trial_type":"two-step-trial","trial_index":90,"time_elapsed":524905,"internal_node_id":"0.0-72.0-0.0","task_version":"1.0","jspsych_version":"6.3.1","browser_interactions":0,"missing":false},{"state_1_ids":[0,1],"state_1_key":1,"state_1_choice":1,"state_1_rt":817.4000000953674,"transition":1,"state":1,"state_2_ids":[2,3],"state_2_key":0,"state_2_choice":2,"state_2_rt":690.7999999523163,"outcome":1,"rocket_colors":["#486ea7","#a75248"],"planet_colors":["#706081","#5b7c65"],"screen_resolution":[1280,720],"minimum_resolution":1,"trial":60,"drifts":[0.426,0.384,0.354,0.267],"drift_ix":0,"trial_type":"two-step-trial","trial_index":91,"time_elapsed":528438,"internal_node_id":"0.0-73.0-0.0","task_version":"1.0","jspsych_version":"6.3.1","browser_interactions":0,"missing":false},{"state_1_ids":[0,1],"state_1_key":1,"state_1_choice":1,"state_1_rt":511.2000000476837,"transition":1,"state":1,"state_2_ids":[2,3],"state_2_key":0,"state_2_choice":2,"state_2_rt":549.4000000953674,"outcome":0,"rocket_colors":["#486ea7","#a75248"],"planet_colors":["#706081","#5b7c65"],"screen_resolution":[1280,720],"minimum_resolution":1,"trial":61,"drifts":[0.416,0.414,0.379,0.254],"drift_ix":0,"trial_type":"two-step-trial","trial_index":92,"time_elapsed":531511,"internal_node_id":"0.0-74.0-0.0","task_version":"1.0","jspsych_version":"6.3.1","browser_interactions":0,"missing":false},{"state_1_ids":[0,1],"state_1_key":1,"state_1_choice":1,"state_1_rt":678.6000001430511,"transition":0,"state":0,"state_2_ids":[0,1],"state_2_key":0,"state_2_choice":0,"state_2_rt":1231.5,"outcome":1,"rocket_colors":["#486ea7","#a75248"],"planet_colors":["#706081","#5b7c65"],"screen_resolution":[1280,720],"minimum_resolution":1,"trial":62,"drifts":[0.353,0.414,0.383,0.26],"drift_ix":0,"trial_type":"two-step-trial","trial_index":93,"time_elapsed":535437,"internal_node_id":"0.0-75.0-0.0","task_version":"1.0","jspsych_version":"6.3.1","browser_interactions":0,"missing":false},{"state_1_ids":[1,0],"state_1_key":1,"state_1_choice":0,"state_1_rt":751.8999998569489,"transition":1,"state":0,"state_2_ids":[0,1],"state_2_key":0,"state_2_choice":0,"state_2_rt":547,"outcome":0,"rocket_colors":["#486ea7","#a75248"],"planet_colors":["#706081","#5b7c65"],"screen_resolution":[1280,720],"minimum_resolution":1,"trial":63,"drifts":[0.293,0.383,0.425,0.266],"drift_ix":0,"trial_type":"two-step-trial","trial_index":94,"time_elapsed":538750,"internal_node_id":"0.0-76.0-0.0","task_version":"1.0","jspsych_version":"6.3.1","browser_interactions":0,"missing":false},{"state_1_ids":[1,0],"state_1_key":0,"state_1_choice":1,"state_1_rt":655.2999999523163,"transition":0,"state":0,"state_2_ids":[0,1],"state_2_key":0,"state_2_choice":0,"state_2_rt":1031.0999999046326,"outcome":0,"rocket_colors":["#486ea7","#a75248"],"planet_colors":["#706081","#5b7c65"],"screen_resolution":[1280,720],"minimum_resolution":1,"trial":64,"drifts":[0.288,0.362,0.432,0.275],"drift_ix":0,"trial_type":"two-step-trial","trial_index":95,"time_elapsed":542444,"internal_node_id":"0.0-77.0-0.0","task_version":"1.0","jspsych_version":"6.3.1","browser_interactions":0,"missing":false},{"state_1_ids":[1,0],"state_1_key":0,"state_1_choice":1,"state_1_rt":881.2000000476837,"transition":1,"state":1,"state_2_ids":[2,3],"state_2_key":0,"state_2_choice":2,"state_2_rt":1334.3000001907349,"outcome":0,"rocket_colors":["#486ea7","#a75248"],"planet_colors":["#706081","#5b7c65"],"screen_resolution":[1280,720],"minimum_resolution":1,"trial":65,"drifts":[0.297,0.363,0.457,0.29],"drift_ix":0,"trial_type":"two-step-trial","trial_index":96,"time_elapsed":546673,"internal_node_id":"0.0-78.0-0.0","task_version":"1.0","jspsych_version":"6.3.1","browser_interactions":0,"missing":false},{"state_1_ids":[1,0],"state_1_key":0,"state_1_choice":1,"state_1_rt":502.5,"transition":0,"state":0,"state_2_ids":[0,1],"state_2_key":0,"state_2_choice":0,"state_2_rt":1054.7000000476837,"outcome":1,"rocket_colors":["#486ea7","#a75248"],"planet_colors":["#706081","#5b7c65"],"screen_resolution":[1280,720],"minimum_resolution":1,"trial":66,"drifts":[0.25,0.333,0.451,0.284],"drift_ix":0,"trial_type":"two-step-trial","trial_index":97,"time_elapsed":550247,"internal_node_id":"0.0-79.0-0.0","task_version":"1.0","jspsych_version":"6.3.1","browser_interactions":0,"missing":false},{"state_1_ids":[1,0],"state_1_key":1,"state_1_choice":0,"state_1_rt":565.5,"transition":1,"state":0,"state_2_ids":[0,1],"state_2_key":0,"state_2_choice":0,"state_2_rt":528,"outcome":0,"rocket_colors":["#486ea7","#a75248"],"planet_colors":["#706081","#5b7c65"],"screen_resolution":[1280,720],"minimum_resolution":1,"trial":67,"drifts":[0.255,0.331,0.425,0.278],"drift_ix":0,"trial_type":"two-step-trial","trial_index":98,"time_elapsed":553365,"internal_node_id":"0.0-80.0-0.0","task_version":"1.0","jspsych_version":"6.3.1","browser_interactions":0,"missing":false},{"state_1_ids":[0,1],"state_1_key":0,"state_1_choice":0,"state_1_rt":1145.5,"transition":1,"state":0,"state_2_ids":[0,1],"state_2_key":0,"state_2_choice":0,"state_2_rt":415.5,"outcome":0,"rocket_colors":["#486ea7","#a75248"],"planet_colors":["#706081","#5b7c65"],"screen_resolution":[1280,720],"minimum_resolution":1,"trial":68,"drifts":[0.281,0.326,0.434,0.261],"drift_ix":0,"trial_type":"two-step-trial","trial_index":99,"time_elapsed":556936,"internal_node_id":"0.0-81.0-0.0","task_version":"1.0","jspsych_version":"6.3.1","browser_interactions":0,"missing":false},{"state_1_ids":[1,0],"state_1_key":1,"state_1_choice":0,"state_1_rt":1299.7000000476837,"transition":0,"state":1,"state_2_ids":[2,3],"state_2_key":0,"state_2_choice":2,"state_2_rt":1183.4000000953674,"outcome":1,"rocket_colors":["#486ea7","#a75248"],"planet_colors":["#706081","#5b7c65"],"screen_resolution":[1280,720],"minimum_resolution":1,"trial":69,"drifts":[0.277,0.319,0.434,0.286],"drift_ix":0,"trial_type":"two-step-trial","trial_index":100,"time_elapsed":561437,"internal_node_id":"0.0-82.0-0.0","task_version":"1.0","jspsych_version":"6.3.1","browser_interactions":0,"missing":false},{"state_1_ids":[1,0],"state_1_key":0,"state_1_choice":1,"state_1_rt":564.2000000476837,"transition":0,"state":0,"state_2_ids":[0,1],"state_2_key":1,"state_2_choice":1,"state_2_rt":943,"outcome":1,"rocket_colors":["#486ea7","#a75248"],"planet_colors":["#706081","#5b7c65"],"screen_resolution":[1280,720],"minimum_resolution":1,"trial":70,"drifts":[0.318,0.351,0.474,0.272],"drift_ix":0,"trial_type":"two-step-trial","trial_index":101,"time_elapsed":564960,"internal_node_id":"0.0-83.0-0.0","task_version":"1.0","jspsych_version":"6.3.1","browser_interactions":0,"missing":false},{"state_1_ids":[1,0],"state_1_key":1,"state_1_choice":0,"state_1_rt":757.7000000476837,"transition":0,"state":1,"state_2_ids":[2,3],"state_2_key":0,"state_2_choice":2,"state_2_rt":1075,"outcome":1,"rocket_colors":["#486ea7","#a75248"],"planet_colors":["#706081","#5b7c65"],"screen_resolution":[1280,720],"minimum_resolution":1,"trial":71,"drifts":[0.306,0.331,0.46,0.274],"drift_ix":0,"trial_type":"two-step-trial","trial_index":102,"time_elapsed":568811,"internal_node_id":"0.0-84.0-0.0","task_version":"1.0","jspsych_version":"6.3.1","browser_interactions":0,"missing":false},{"state_1_ids":[1,0],"state_1_key":1,"state_1_choice":0,"state_1_rt":678.6000001430511,"transition":1,"state":0,"state_2_ids":[0,1],"state_2_key":1,"state_2_choice":1,"state_2_rt":713,"outcome":1,"rocket_colors":["#486ea7","#a75248"],"planet_colors":["#706081","#5b7c65"],"screen_resolution":[1280,720],"minimum_resolution":1,"trial":72,"drifts":[0.35,0.329,0.432,0.251],"drift_ix":0,"trial_type":"two-step-trial","trial_index":103,"time_elapsed":572224,"internal_node_id":"0.0-85.0-0.0","task_version":"1.0","jspsych_version":"6.3.1","browser_interactions":0,"missing":false},{"state_1_ids":[0,1],"state_1_key":0,"state_1_choice":0,"state_1_rt":619.2000000476837,"transition":0,"state":1,"state_2_ids":[2,3],"state_2_key":0,"state_2_choice":2,"state_2_rt":967.0999999046326,"outcome":0,"rocket_colors":["#486ea7","#a75248"],"planet_colors":["#706081","#5b7c65"],"screen_resolution":[1280,720],"minimum_resolution":1,"trial":73,"drifts":[0.352,0.318,0.461,0.257],"drift_ix":0,"trial_type":"two-step-trial","trial_index":104,"time_elapsed":575823,"internal_node_id":"0.0-86.0-0.0","task_version":"1.0","jspsych_version":"6.3.1","browser_interactions":0,"missing":false},{"state_1_ids":[1,0],"state_1_key":1,"state_1_choice":0,"state_1_rt":489.09999990463257,"transition":1,"state":0,"state_2_ids":[0,1],"state_2_key":1,"state_2_choice":1,"state_2_rt":468,"outcome":1,"rocket_colors":["#486ea7","#a75248"],"planet_colors":["#706081","#5b7c65"],"screen_resolution":[1280,720],"minimum_resolution":1,"trial":74,"drifts":[0.374,0.315,0.514,0.262],"drift_ix":0,"trial_type":"two-step-trial","trial_index":105,"time_elapsed":578821,"internal_node_id":"0.0-87.0-0.0","task_version":"1.0","jspsych_version":"6.3.1","browser_interactions":0,"missing":false},{"state_1_ids":[1,0],"state_1_key":1,"state_1_choice":0,"state_1_rt":546.5999999046326,"transition":0,"state":1,"state_2_ids":[2,3],"state_2_key":0,"state_2_choice":2,"state_2_rt":1017.6000001430511,"outcome":0,"rocket_colors":["#486ea7","#a75248"],"planet_colors":["#706081","#5b7c65"],"screen_resolution":[1280,720],"minimum_resolution":1,"trial":75,"drifts":[0.405,0.348,0.504,0.256],"drift_ix":0,"trial_type":"two-step-trial","trial_index":106,"time_elapsed":582400,"internal_node_id":"0.0-88.0-0.0","task_version":"1.0","jspsych_version":"6.3.1","browser_interactions":0,"missing":false},{"state_1_ids":[1,0],"state_1_key":1,"state_1_choice":0,"state_1_rt":594,"transition":1,"state":0,"state_2_ids":[0,1],"state_2_key":1,"state_2_choice":1,"state_2_rt":619.8999998569489,"outcome":0,"rocket_colors":["#486ea7","#a75248"],"planet_colors":["#706081","#5b7c65"],"screen_resolution":[1280,720],"minimum_resolution":1,"trial":76,"drifts":[0.43,0.367,0.513,0.251],"drift_ix":0,"trial_type":"two-step-trial","trial_index":107,"time_elapsed":585630,"internal_node_id":"0.0-89.0-0.0","task_version":"1.0","jspsych_version":"6.3.1","browser_interactions":0,"missing":false},{"state_1_ids":[1,0],"state_1_key":1,"state_1_choice":0,"state_1_rt":513.2000000476837,"transition":1,"state":0,"state_2_ids":[0,1],"state_2_key":1,"state_2_choice":1,"state_2_rt":662.4000000953674,"outcome":1,"rocket_colors":["#486ea7","#a75248"],"planet_colors":["#706081","#5b7c65"],"screen_resolution":[1280,720],"minimum_resolution":1,"trial":77,"drifts":[0.426,0.365,0.523,0.279],"drift_ix":0,"trial_type":"two-step-trial","trial_index":108,"time_elapsed":588821,"internal_node_id":"0.0-90.0-0.0","task_version":"1.0","jspsych_version":"6.3.1","browser_interactions":0,"missing":false},{"state_1_ids":[1,0],"state_1_key":1,"state_1_choice":0,"state_1_rt":481.10000014305115,"transition":1,"state":0,"state_2_ids":[0,1],"state_2_key":1,"state_2_choice":1,"state_2_rt":742.7999999523163,"outcome":0,"rocket_colors":["#486ea7","#a75248"],"planet_colors":["#706081","#5b7c65"],"screen_resolution":[1280,720],"minimum_resolution":1,"trial":78,"drifts":[0.411,0.377,0.525,0.29],"drift_ix":0,"trial_type":"two-step-trial","trial_index":109,"time_elapsed":592102,"internal_node_id":"0.0-91.0-0.0","task_version":"1.0","jspsych_version":"6.3.1","browser_interactions":0,"missing":false},{"state_1_ids":[1,0],"state_1_key":1,"state_1_choice":0,"state_1_rt":477.7999999523163,"transition":1,"state":0,"state_2_ids":[0,1],"state_2_key":1,"state_2_choice":1,"state_2_rt":574.1999998092651,"outcome":1,"rocket_colors":["#486ea7","#a75248"],"planet_colors":["#706081","#5b7c65"],"screen_resolution":[1280,720],"minimum_resolution":1,"trial":79,"drifts":[0.413,0.36,0.538,0.31],"drift_ix":0,"trial_type":"two-step-trial","trial_index":110,"time_elapsed":595163,"internal_node_id":"0.0-92.0-0.0","task_version":"1.0","jspsych_version":"6.3.1","browser_interactions":0,"missing":false},{"state_1_ids":[0,1],"state_1_key":0,"state_1_choice":0,"state_1_rt":731.2000000476837,"transition":0,"state":1,"state_2_ids":[2,3],"state_2_key":1,"state_2_choice":3,"state_2_rt":501.60000014305115,"outcome":0,"rocket_colors":["#486ea7","#a75248"],"planet_colors":["#706081","#5b7c65"],"screen_resolution":[1280,720],"minimum_resolution":1,"trial":80,"drifts":[0.394,0.383,0.524,0.282],"drift_ix":0,"trial_type":"two-step-trial","trial_index":111,"time_elapsed":598412,"internal_node_id":"0.0-93.0-0.0","task_version":"1.0","jspsych_version":"6.3.1","browser_interactions":0,"missing":false},{"state_1_ids":[0,1],"state_1_key":0,"state_1_choice":0,"state_1_rt":519.5,"transition":0,"state":1,"state_2_ids":[2,3],"state_2_key":0,"state_2_choice":2,"state_2_rt":1182.1999998092651,"outcome":0,"rocket_colors":["#486ea7","#a75248"],"planet_colors":["#706081","#5b7c65"],"screen_resolution":[1280,720],"minimum_resolution":1,"trial":81,"drifts":[0.361,0.391,0.524,0.269],"drift_ix":0,"trial_type":"two-step-trial","trial_index":112,"time_elapsed":602123,"internal_node_id":"0.0-94.0-0.0","task_version":"1.0","jspsych_version":"6.3.1","browser_interactions":0,"missing":false},{"state_1_ids":[0,1],"state_1_key":0,"state_1_choice":0,"state_1_rt":454.5,"transition":1,"state":0,"state_2_ids":[0,1],"state_2_key":1,"state_2_choice":1,"state_2_rt":771.9000000953674,"outcome":1,"rocket_colors":["#486ea7","#a75248"],"planet_colors":["#706081","#5b7c65"],"screen_resolution":[1280,720],"minimum_resolution":1,"trial":82,"drifts":[0.354,0.377,0.535,0.274],"drift_ix":0,"trial_type":"two-step-trial","trial_index":113,"time_elapsed":605368,"internal_node_id":"0.0-95.0-0.0","task_version":"1.0","jspsych_version":"6.3.1","browser_interactions":0,"missing":false},{"state_1_ids":[0,1],"state_1_key":0,"state_1_choice":0,"state_1_rt":518.8999998569489,"transition":1,"state":0,"state_2_ids":[0,1],"state_2_key":1,"state_2_choice":1,"state_2_rt":509.5,"outcome":0,"rocket_colors":["#486ea7","#a75248"],"planet_colors":["#706081","#5b7c65"],"screen_resolution":[1280,720],"minimum_resolution":1,"trial":83,"drifts":[0.353,0.363,0.504,0.307],"drift_ix":0,"trial_type":"two-step-trial","trial_index":114,"time_elapsed":608410,"internal_node_id":"0.0-96.0-0.0","task_version":"1.0","jspsych_version":"6.3.1","browser_interactions":0,"missing":false},{"state_1_ids":[1,0],"state_1_key":1,"state_1_choice":0,"state_1_rt":545.8000001907349,"transition":1,"state":0,"state_2_ids":[0,1],"state_2_key":1,"state_2_choice":1,"state_2_rt":504.59999990463257,"outcome":0,"rocket_colors":["#486ea7","#a75248"],"planet_colors":["#706081","#5b7c65"],"screen_resolution":[1280,720],"minimum_resolution":1,"trial":84,"drifts":[0.361,0.317,0.485,0.273],"drift_ix":0,"trial_type":"two-step-trial","trial_index":115,"time_elapsed":611470,"internal_node_id":"0.0-97.0-0.0","task_version":"1.0","jspsych_version":"6.3.1","browser_interactions":0,"missing":false},{"state_1_ids":[0,1],"state_1_key":0,"state_1_choice":0,"state_1_rt":642.4000000953674,"transition":1,"state":0,"state_2_ids":[0,1],"state_2_key":1,"state_2_choice":1,"state_2_rt":429.2000000476837,"outcome":0,"rocket_colors":["#486ea7","#a75248"],"planet_colors":["#706081","#5b7c65"],"screen_resolution":[1280,720],"minimum_resolution":1,"trial":85,"drifts":[0.295,0.332,0.47,0.26],"drift_ix":0,"trial_type":"two-step-trial","trial_index":116,"time_elapsed":614557,"internal_node_id":"0.0-98.0-0.0","task_version":"1.0","jspsych_version":"6.3.1","browser_interactions":0,"missing":false},{"state_1_ids":[1,0],"state_1_key":1,"state_1_choice":0,"state_1_rt":643.4000000953674,"transition":1,"state":0,"state_2_ids":[0,1],"state_2_key":0,"state_2_choice":0,"state_2_rt":455.2999999523163,"outcome":0,"rocket_colors":["#486ea7","#a75248"],"planet_colors":["#706081","#5b7c65"],"screen_resolution":[1280,720],"minimum_resolution":1,"trial":86,"drifts":[0.287,0.344,0.46,0.32],"drift_ix":0,"trial_type":"two-step-trial","trial_index":117,"time_elapsed":617679,"internal_node_id":"0.0-99.0-0.0","task_version":"1.0","jspsych_version":"6.3.1","browser_interactions":0,"missing":false},{"state_1_ids":[0,1],"state_1_key":1,"state_1_choice":1,"state_1_rt":503.5,"transition":0,"state":0,"state_2_ids":[0,1],"state_2_key":1,"state_2_choice":1,"state_2_rt":1215.1000001430511,"outcome":1,"rocket_colors":["#486ea7","#a75248"],"planet_colors":["#706081","#5b7c65"],"screen_resolution":[1280,720],"minimum_resolution":1,"trial":87,"drifts":[0.278,0.373,0.46,0.351],"drift_ix":0,"trial_type":"two-step-trial","trial_index":118,"time_elapsed":621415,"internal_node_id":"0.0-100.0-0.0","task_version":"1.0","jspsych_version":"6.3.1","browser_interactions":0,"missing":false},{"state_1_ids":[0,1],"state_1_key":1,"state_1_choice":1,"state_1_rt":487.59999990463257,"transition":0,"state":0,"state_2_ids":[0,1],"state_2_key":1,"state_2_choice":1,"state_2_rt":805.6000001430511,"outcome":1,"rocket_colors":["#486ea7","#a75248"],"planet_colors":["#706081","#5b7c65"],"screen_resolution":[1280,720],"minimum_resolution":1,"trial":88,"drifts":[0.277,0.355,0.459,0.358],"drift_ix":0,"trial_type":"two-step-trial","trial_index":119,"time_elapsed":624727,"internal_node_id":"0.0-101.0-0.0","task_version":"1.0","jspsych_version":"6.3.1","browser_interactions":0,"missing":false},{"state_1_ids":[0,1],"state_1_key":1,"state_1_choice":1,"state_1_rt":449.7000000476837,"transition":1,"state":1,"state_2_ids":[2,3],"state_2_key":0,"state_2_choice":2,"state_2_rt":782,"outcome":0,"rocket_colors":["#486ea7","#a75248"],"planet_colors":["#706081","#5b7c65"],"screen_resolution":[1280,720],"minimum_resolution":1,"trial":89,"drifts":[0.264,0.395,0.47,0.338],"drift_ix":0,"trial_type":"two-step-trial","trial_index":120,"time_elapsed":627979,"internal_node_id":"0.0-102.0-0.0","task_version":"1.0","jspsych_version":"6.3.1","browser_interactions":0,"missing":false},{"state_1_ids":[0,1],"state_1_key":1,"state_1_choice":1,"state_1_rt":500.5,"transition":1,"state":1,"state_2_ids":[2,3],"state_2_key":0,"state_2_choice":2,"state_2_rt":611.2999999523163,"outcome":0,"rocket_colors":["#486ea7","#a75248"],"planet_colors":["#706081","#5b7c65"],"screen_resolution":[1280,720],"minimum_resolution":1,"trial":90,"drifts":[0.258,0.389,0.495,0.348],"drift_ix":0,"trial_type":"two-step-trial","trial_index":121,"time_elapsed":631110,"internal_node_id":"0.0-103.0-0.0","task_version":"1.0","jspsych_version":"6.3.1","browser_interactions":0,"missing":false},{"state_1_ids":[0,1],"state_1_key":1,"state_1_choice":1,"state_1_rt":385.30000019073486,"transition":1,"state":1,"state_2_ids":[2,3],"state_2_key":1,"state_2_choice":3,"state_2_rt":493.2000000476837,"outcome":0,"rocket_colors":["#486ea7","#a75248"],"planet_colors":["#706081","#5b7c65"],"screen_resolution":[1280,720],"minimum_resolution":1,"trial":91,"drifts":[0.325,0.363,0.524,0.356],"drift_ix":0,"trial_type":"two-step-trial","trial_index":122,"time_elapsed":634005,"internal_node_id":"0.0-104.0-0.0","task_version":"1.0","jspsych_version":"6.3.1","browser_interactions":0,"missing":false},{"state_1_ids":[1,0],"state_1_key":0,"state_1_choice":1,"state_1_rt":803.3000001907349,"transition":1,"state":1,"state_2_ids":[2,3],"state_2_key":0,"state_2_choice":2,"state_2_rt":668.0999999046326,"outcome":0,"rocket_colors":["#486ea7","#a75248"],"planet_colors":["#706081","#5b7c65"],"screen_resolution":[1280,720],"minimum_resolution":1,"trial":92,"drifts":[0.29,0.354,0.524,0.361],"drift_ix":0,"trial_type":"two-step-trial","trial_index":123,"time_elapsed":637491,"internal_node_id":"0.0-105.0-0.0","task_version":"1.0","jspsych_version":"6.3.1","browser_interactions":0,"missing":false},{"state_1_ids":[1,0],"state_1_key":1,"state_1_choice":0,"state_1_rt":503.2999999523163,"transition":1,"state":0,"state_2_ids":[0,1],"state_2_key":1,"state_2_choice":1,"state_2_rt":504.59999990463257,"outcome":0,"rocket_colors":["#486ea7","#a75248"],"planet_colors":["#706081","#5b7c65"],"screen_resolution":[1280,720],"minimum_resolution":1,"trial":93,"drifts":[0.318,0.353,0.542,0.336],"drift_ix":0,"trial_type":"two-step-trial","trial_index":124,"time_elapsed":640519,"internal_node_id":"0.0-106.0-0.0","task_version":"1.0","jspsych_version":"6.3.1","browser_interactions":0,"missing":false},{"state_1_ids":[1,0],"state_1_key":1,"state_1_choice":0,"state_1_rt":488.89999985694885,"transition":1,"state":0,"state_2_ids":[0,1],"state_2_key":1,"state_2_choice":1,"state_2_rt":597.2999999523163,"outcome":0,"rocket_colors":["#486ea7","#a75248"],"planet_colors":["#706081","#5b7c65"],"screen_resolution":[1280,720],"minimum_resolution":1,"trial":94,"drifts":[0.329,0.367,0.542,0.302],"drift_ix":0,"trial_type":"two-step-trial","trial_index":125,"time_elapsed":643620,"internal_node_id":"0.0-107.0-0.0","task_version":"1.0","jspsych_version":"6.3.1","browser_interactions":0,"missing":false},{"state_1_ids":[1,0],"state_1_key":1,"state_1_choice":0,"state_1_rt":619.7999999523163,"transition":1,"state":0,"state_2_ids":[0,1],"state_2_key":1,"state_2_choice":1,"state_2_rt":542.2999999523163,"outcome":0,"rocket_colors":["#486ea7","#a75248"],"planet_colors":["#706081","#5b7c65"],"screen_resolution":[1280,720],"minimum_resolution":1,"trial":95,"drifts":[0.348,0.33,0.586,0.265],"drift_ix":0,"trial_type":"two-step-trial","trial_index":126,"time_elapsed":646796,"internal_node_id":"0.0-108.0-0.0","task_version":"1.0","jspsych_version":"6.3.1","browser_interactions":0,"missing":false},{"state_1_ids":[1,0],"state_1_key":1,"state_1_choice":0,"state_1_rt":441.7000000476837,"transition":1,"state":0,"state_2_ids":[0,1],"state_2_key":0,"state_2_choice":0,"state_2_rt":439.7000000476837,"outcome":0,"rocket_colors":["#486ea7","#a75248"],"planet_colors":["#706081","#5b7c65"],"screen_resolution":[1280,720],"minimum_resolution":1,"trial":96,"drifts":[0.348,0.348,0.591,0.304],"drift_ix":0,"trial_type":"two-step-trial","trial_index":127,"time_elapsed":649693,"internal_node_id":"0.0-109.0-0.0","task_version":"1.0","jspsych_version":"6.3.1","browser_interactions":0,"missing":false},{"state_1_ids":[1,0],"state_1_key":1,"state_1_choice":0,"state_1_rt":1176.7000000476837,"transition":1,"state":0,"state_2_ids":[0,1],"state_2_key":0,"state_2_choice":0,"state_2_rt":391.09999990463257,"outcome":0,"rocket_colors":["#486ea7","#a75248"],"planet_colors":["#706081","#5b7c65"],"screen_resolution":[1280,720],"minimum_resolution":1,"trial":97,"drifts":[0.328,0.258,0.639,0.303],"drift_ix":0,"trial_type":"two-step-trial","trial_index":128,"time_elapsed":653288,"internal_node_id":"0.0-110.0-0.0","task_version":"1.0","jspsych_version":"6.3.1","browser_interactions":0,"missing":false},{"state_1_ids":[0,1],"state_1_key":1,"state_1_choice":1,"state_1_rt":482.10000014305115,"transition":0,"state":0,"state_2_ids":[0,1],"state_2_key":0,"state_2_choice":0,"state_2_rt":383.09999990463257,"outcome":0,"rocket_colors":["#486ea7","#a75248"],"planet_colors":["#706081","#5b7c65"],"screen_resolution":[1280,720],"minimum_resolution":1,"trial":98,"drifts":[0.381,0.256,0.661,0.29],"drift_ix":0,"trial_type":"two-step-trial","trial_index":129,"time_elapsed":656163,"internal_node_id":"0.0-111.0-0.0","task_version":"1.0","jspsych_version":"6.3.1","browser_interactions":0,"missing":false},{"state_1_ids":[1,0],"state_1_key":1,"state_1_choice":0,"state_1_rt":499.09999990463257,"transition":1,"state":0,"state_2_ids":[0,1],"state_2_key":0,"state_2_choice":0,"state_2_rt":420.60000014305115,"outcome":1,"rocket_colors":["#486ea7","#a75248"],"planet_colors":["#706081","#5b7c65"],"screen_resolution":[1280,720],"minimum_resolution":1,"trial":99,"drifts":[0.423,0.312,0.659,0.319],"drift_ix":0,"trial_type":"two-step-trial","trial_index":130,"time_elapsed":659098,"internal_node_id":"0.0-112.0-0.0","task_version":"1.0","jspsych_version":"6.3.1","browser_interactions":0,"missing":false},{"state_1_ids":[1,0],"state_1_key":1,"state_1_choice":0,"state_1_rt":488,"transition":1,"state":0,"state_2_ids":[0,1],"state_2_key":0,"state_2_choice":0,"state_2_rt":647,"outcome":0,"rocket_colors":["#486ea7","#a75248"],"planet_colors":["#706081","#5b7c65"],"screen_resolution":[1280,720],"minimum_resolution":1,"trial":100,"drifts":[0.419,0.326,0.615,0.332],"drift_ix":0,"trial_type":"two-step-trial","trial_index":131,"time_elapsed":662252,"internal_node_id":"0.0-113.0-0.0","task_version":"1.0","jspsych_version":"6.3.1","browser_interactions":0,"missing":false},{"view_history":"[{\"page_index\":0,\"viewing_time\":2034.2999999523163},{\"page_index\":1,\"viewing_time\":1941.6000001430511}]","rt":3977.4000000953674,"trial_type":"two-step-instructions","trial_index":132,"time_elapsed":666236,"internal_node_id":"0.0-114.0","task_version":"1.0","jspsych_version":"6.3.1"},{"state_1_ids":[1,0],"state_1_key":0,"state_1_choice":1,"state_1_rt":974.2000000476837,"transition":1,"state":1,"state_2_ids":[2,3],"state_2_key":0,"state_2_choice":2,"state_2_rt":733.7000000476837,"outcome":0,"rocket_colors":["#486ea7","#a75248"],"planet_colors":["#706081","#5b7c65"],"screen_resolution":[1280,720],"minimum_resolution":1,"trial":101,"drifts":[0.406,0.305,0.562,0.356],"drift_ix":0,"trial_type":"two-step-trial","trial_index":133,"time_elapsed":669966,"internal_node_id":"0.0-115.0-0.0","task_version":"1.0","jspsych_version":"6.3.1","browser_interactions":0,"missing":false},{"state_1_ids":[0,1],"state_1_key":1,"state_1_choice":1,"state_1_rt":636.9000000953674,"transition":0,"state":0,"state_2_ids":[0,1],"state_2_key":1,"state_2_choice":1,"state_2_rt":991.4000000953674,"outcome":0,"rocket_colors":["#486ea7","#a75248"],"planet_colors":["#706081","#5b7c65"],"screen_resolution":[1280,720],"minimum_resolution":1,"trial":102,"drifts":[0.412,0.303,0.532,0.328],"drift_ix":0,"trial_type":"two-step-trial","trial_index":134,"time_elapsed":673612,"internal_node_id":"0.0-116.0-0.0","task_version":"1.0","jspsych_version":"6.3.1","browser_interactions":0,"missing":false},{"state_1_ids":[1,0],"state_1_key":0,"state_1_choice":1,"state_1_rt":537.5,"transition":1,"state":1,"state_2_ids":[2,3],"state_2_key":1,"state_2_choice":3,"state_2_rt":766.4000000953674,"outcome":1,"rocket_colors":["#486ea7","#a75248"],"planet_colors":["#706081","#5b7c65"],"screen_resolution":[1280,720],"minimum_resolution":1,"trial":103,"drifts":[0.399,0.326,0.531,0.314],"drift_ix":0,"trial_type":"two-step-trial","trial_index":135,"time_elapsed":676933,"internal_node_id":"0.0-117.0-0.0","task_version":"1.0","jspsych_version":"6.3.1","browser_interactions":0,"missing":false},{"state_1_ids":[0,1],"state_1_key":1,"state_1_choice":1,"state_1_rt":591.2999999523163,"transition":1,"state":1,"state_2_ids":[2,3],"state_2_key":1,"state_2_choice":3,"state_2_rt":517.7999999523163,"outcome":1,"rocket_colors":["#486ea7","#a75248"],"planet_colors":["#706081","#5b7c65"],"screen_resolution":[1280,720],"minimum_resolution":1,"trial":104,"drifts":[0.398,0.313,0.576,0.303],"drift_ix":0,"trial_type":"two-step-trial","trial_index":136,"time_elapsed":680062,"internal_node_id":"0.0-118.0-0.0","task_version":"1.0","jspsych_version":"6.3.1","browser_interactions":0,"missing":false},{"state_1_ids":[0,1],"state_1_key":1,"state_1_choice":1,"state_1_rt":494.89999985694885,"transition":1,"state":1,"state_2_ids":[2,3],"state_2_key":1,"state_2_choice":3,"state_2_rt":479.69999980926514,"outcome":1,"rocket_colors":["#486ea7","#a75248"],"planet_colors":["#706081","#5b7c65"],"screen_resolution":[1280,720],"minimum_resolution":1,"trial":105,"drifts":[0.41,0.34,0.593,0.316],"drift_ix":0,"trial_type":"two-step-trial","trial_index":137,"time_elapsed":683048,"internal_node_id":"0.0-119.0-0.0","task_version":"1.0","jspsych_version":"6.3.1","browser_interactions":0,"missing":false},{"state_1_ids":[1,0],"state_1_key":1,"state_1_choice":0,"state_1_rt":491.59999990463257,"transition":1,"state":0,"state_2_ids":[0,1],"state_2_key":1,"state_2_choice":1,"state_2_rt":581,"outcome":0,"rocket_colors":["#486ea7","#a75248"],"planet_colors":["#706081","#5b7c65"],"screen_resolution":[1280,720],"minimum_resolution":1,"trial":106,"drifts":[0.402,0.333,0.57,0.322],"drift_ix":0,"trial_type":"two-step-trial","trial_index":138,"time_elapsed":686131,"internal_node_id":"0.0-120.0-0.0","task_version":"1.0","jspsych_version":"6.3.1","browser_interactions":0,"missing":false},{"state_1_ids":[1,0],"state_1_key":0,"state_1_choice":1,"state_1_rt":510.40000009536743,"transition":1,"state":1,"state_2_ids":[2,3],"state_2_key":1,"state_2_choice":3,"state_2_rt":603.3000001907349,"outcome":0,"rocket_colors":["#486ea7","#a75248"],"planet_colors":["#706081","#5b7c65"],"screen_resolution":[1280,720],"minimum_resolution":1,"trial":107,"drifts":[0.408,0.274,0.566,0.316],"drift_ix":0,"trial_type":"two-step-trial","trial_index":139,"time_elapsed":689267,"internal_node_id":"0.0-121.0-0.0","task_version":"1.0","jspsych_version":"6.3.1","browser_interactions":0,"missing":false},{"state_1_ids":[0,1],"state_1_key":1,"state_1_choice":1,"state_1_rt":528.9000000953674,"transition":1,"state":1,"state_2_ids":[2,3],"state_2_key":1,"state_2_choice":3,"state_2_rt":439.7999999523163,"outcome":1,"rocket_colors":["#486ea7","#a75248"],"planet_colors":["#706081","#5b7c65"],"screen_resolution":[1280,720],"minimum_resolution":1,"trial":108,"drifts":[0.426,0.262,0.552,0.283],"drift_ix":0,"trial_type":"two-step-trial","trial_index":140,"time_elapsed":692254,"internal_node_id":"0.0-122.0-0.0","task_version":"1.0","jspsych_version":"6.3.1","browser_interactions":0,"missing":false},{"state_1_ids":[0,1],"state_1_key":1,"state_1_choice":1,"state_1_rt":562.3000001907349,"transition":0,"state":0,"state_2_ids":[0,1],"state_2_key":0,"state_2_choice":0,"state_2_rt":1211,"outcome":0,"rocket_colors":["#486ea7","#a75248"],"planet_colors":["#706081","#5b7c65"],"screen_resolution":[1280,720],"minimum_resolution":1,"trial":109,"drifts":[0.4,0.265,0.503,0.284],"drift_ix":0,"trial_type":"two-step-trial","trial_index":141,"time_elapsed":696039,"internal_node_id":"0.0-123.0-0.0","task_version":"1.0","jspsych_version":"6.3.1","browser_interactions":0,"missing":false},{"state_1_ids":[0,1],"state_1_key":1,"state_1_choice":1,"state_1_rt":495.2000000476837,"transition":1,"state":1,"state_2_ids":[2,3],"state_2_key":1,"state_2_choice":3,"state_2_rt":566.7999999523163,"outcome":1,"rocket_colors":["#486ea7","#a75248"],"planet_colors":["#706081","#5b7c65"],"screen_resolution":[1280,720],"minimum_resolution":1,"trial":110,"drifts":[0.389,0.286,0.517,0.318],"drift_ix":0,"trial_type":"two-step-trial","trial_index":142,"time_elapsed":699115,"internal_node_id":"0.0-124.0-0.0","task_version":"1.0","jspsych_version":"6.3.1","browser_interactions":0,"missing":false},{"state_1_ids":[1,0],"state_1_key":0,"state_1_choice":1,"state_1_rt":480.80000019073486,"transition":1,"state":1,"state_2_ids":[2,3],"state_2_key":1,"state_2_choice":3,"state_2_rt":506.80000019073486,"outcome":1,"rocket_colors":["#486ea7","#a75248"],"planet_colors":["#706081","#5b7c65"],"screen_resolution":[1280,720],"minimum_resolution":1,"trial":111,"drifts":[0.389,0.289,0.505,0.348],"drift_ix":0,"trial_type":"two-step-trial","trial_index":143,"time_elapsed":702114,"internal_node_id":"0.0-125.0-0.0","task_version":"1.0","jspsych_version":"6.3.1","browser_interactions":0,"missing":false},{"state_1_ids":[0,1],"state_1_key":1,"state_1_choice":1,"state_1_rt":507.7000000476837,"transition":1,"state":1,"state_2_ids":[2,3],"state_2_key":1,"state_2_choice":3,"state_2_rt":616.5,"outcome":0,"rocket_colors":["#486ea7","#a75248"],"planet_colors":["#706081","#5b7c65"],"screen_resolution":[1280,720],"minimum_resolution":1,"trial":112,"drifts":[0.387,0.265,0.506,0.329],"drift_ix":0,"trial_type":"two-step-trial","trial_index":144,"time_elapsed":705257,"internal_node_id":"0.0-126.0-0.0","task_version":"1.0","jspsych_version":"6.3.1","browser_interactions":0,"missing":false},{"state_1_ids":[0,1],"state_1_key":1,"state_1_choice":1,"state_1_rt":519.5999999046326,"transition":0,"state":0,"state_2_ids":[0,1],"state_2_key":0,"state_2_choice":0,"state_2_rt":1053.5999999046326,"outcome":0,"rocket_colors":["#486ea7","#a75248"],"planet_colors":["#706081","#5b7c65"],"screen_resolution":[1280,720],"minimum_resolution":1,"trial":113,"drifts":[0.384,0.256,0.524,0.353],"drift_ix":0,"trial_type":"two-step-trial","trial_index":145,"time_elapsed":708858,"internal_node_id":"0.0-127.0-0.0","task_version":"1.0","jspsych_version":"6.3.1","browser_interactions":0,"missing":false},{"state_1_ids":[1,0],"state_1_key":0,"state_1_choice":1,"state_1_rt":806.9000000953674,"transition":0,"state":0,"state_2_ids":[0,1],"state_2_key":1,"state_2_choice":1,"state_2_rt":704.1000001430511,"outcome":0,"rocket_colors":["#486ea7","#a75248"],"planet_colors":["#706081","#5b7c65"],"screen_resolution":[1280,720],"minimum_resolution":1,"trial":114,"drifts":[0.367,0.273,0.512,0.348],"drift_ix":0,"trial_type":"two-step-trial","trial_index":146,"time_elapsed":712380,"internal_node_id":"0.0-128.0-0.0","task_version":"1.0","jspsych_version":"6.3.1","browser_interactions":0,"missing":false},{"state_1_ids":[0,1],"state_1_key":1,"state_1_choice":1,"state_1_rt":675.6000001430511,"transition":1,"state":1,"state_2_ids":[2,3],"state_2_key":1,"state_2_choice":3,"state_2_rt":564.2999999523163,"outcome":0,"rocket_colors":["#486ea7","#a75248"],"planet_colors":["#706081","#5b7c65"],"screen_resolution":[1280,720],"minimum_resolution":1,"trial":115,"drifts":[0.323,0.276,0.502,0.358],"drift_ix":0,"trial_type":"two-step-trial","trial_index":147,"time_elapsed":715641,"internal_node_id":"0.0-129.0-0.0","task_version":"1.0","jspsych_version":"6.3.1","browser_interactions":0,"missing":false},{"state_1_ids":[1,0],"state_1_key":0,"state_1_choice":1,"state_1_rt":507.2000000476837,"transition":1,"state":1,"state_2_ids":[2,3],"state_2_key":1,"state_2_choice":3,"state_2_rt":533.0999999046326,"outcome":0,"rocket_colors":["#486ea7","#a75248"],"planet_colors":["#706081","#5b7c65"],"screen_resolution":[1280,720],"minimum_resolution":1,"trial":116,"drifts":[0.327,0.301,0.482,0.366],"drift_ix":0,"trial_type":"two-step-trial","trial_index":148,"time_elapsed":718698,"internal_node_id":"0.0-130.0-0.0","task_version":"1.0","jspsych_version":"6.3.1","browser_interactions":0,"missing":false},{"state_1_ids":[0,1],"state_1_key":1,"state_1_choice":1,"state_1_rt":557,"transition":1,"state":1,"state_2_ids":[2,3],"state_2_key":1,"state_2_choice":3,"state_2_rt":574.7999999523163,"outcome":0,"rocket_colors":["#486ea7","#a75248"],"planet_colors":["#706081","#5b7c65"],"screen_resolution":[1280,720],"minimum_resolution":1,"trial":117,"drifts":[0.356,0.324,0.447,0.405],"drift_ix":0,"trial_type":"two-step-trial","trial_index":149,"time_elapsed":721845,"internal_node_id":"0.0-131.0-0.0","task_version":"1.0","jspsych_version":"6.3.1","browser_interactions":0,"missing":false},{"state_1_ids":[1,0],"state_1_key":0,"state_1_choice":1,"state_1_rt":598.6000001430511,"transition":0,"state":0,"state_2_ids":[0,1],"state_2_key":0,"state_2_choice":0,"state_2_rt":991,"outcome":1,"rocket_colors":["#486ea7","#a75248"],"planet_colors":["#706081","#5b7c65"],"screen_resolution":[1280,720],"minimum_resolution":1,"trial":118,"drifts":[0.346,0.346,0.451,0.456],"drift_ix":0,"trial_type":"two-step-trial","trial_index":150,"time_elapsed":725449,"internal_node_id":"0.0-132.0-0.0","task_version":"1.0","jspsych_version":"6.3.1","browser_interactions":0,"missing":false},{"state_1_ids":[0,1],"state_1_key":0,"state_1_choice":0,"state_1_rt":926.6000001430511,"transition":1,"state":0,"state_2_ids":[0,1],"state_2_key":0,"state_2_choice":0,"state_2_rt":546.6000001430511,"outcome":1,"rocket_colors":["#486ea7","#a75248"],"planet_colors":["#706081","#5b7c65"],"screen_resolution":[1280,720],"minimum_resolution":1,"trial":119,"drifts":[0.307,0.341,0.511,0.496],"drift_ix":0,"trial_type":"two-step-trial","trial_index":151,"time_elapsed":728938,"internal_node_id":"0.0-133.0-0.0","task_version":"1.0","jspsych_version":"6.3.1","browser_interactions":0,"missing":false},{"state_1_ids":[0,1],"state_1_key":0,"state_1_choice":0,"state_1_rt":496.7000000476837,"transition":0,"state":1,"state_2_ids":[2,3],"state_2_key":0,"state_2_choice":2,"state_2_rt":1246.2999999523163,"outcome":1,"rocket_colors":["#486ea7","#a75248"],"planet_colors":["#706081","#5b7c65"],"screen_resolution":[1280,720],"minimum_resolution":1,"trial":120,"drifts":[0.301,0.307,0.523,0.5],"drift_ix":0,"trial_type":"two-step-trial","trial_index":152,"time_elapsed":732690,"internal_node_id":"0.0-134.0-0.0","task_version":"1.0","jspsych_version":"6.3.1","browser_interactions":0,"missing":false},{"state_1_ids":[1,0],"state_1_key":1,"state_1_choice":0,"state_1_rt":623.7999999523163,"transition":1,"state":0,"state_2_ids":[0,1],"state_2_key":0,"state_2_choice":0,"state_2_rt":648.8000001907349,"outcome":0,"rocket_colors":["#486ea7","#a75248"],"planet_colors":["#706081","#5b7c65"],"screen_resolution":[1280,720],"minimum_resolution":1,"trial":121,"drifts":[0.288,0.297,0.519,0.491],"drift_ix":0,"trial_type":"two-step-trial","trial_index":153,"time_elapsed":735981,"internal_node_id":"0.0-135.0-0.0","task_version":"1.0","jspsych_version":"6.3.1","browser_interactions":0,"missing":false},{"state_1_ids":[1,0],"state_1_key":1,"state_1_choice":0,"state_1_rt":751.4000000953674,"transition":0,"state":1,"state_2_ids":[2,3],"state_2_key":0,"state_2_choice":2,"state_2_rt":795.7999999523163,"outcome":0,"rocket_colors":["#486ea7","#a75248"],"planet_colors":["#706081","#5b7c65"],"screen_resolution":[1280,720],"minimum_resolution":1,"trial":122,"drifts":[0.275,0.313,0.525,0.507],"drift_ix":0,"trial_type":"two-step-trial","trial_index":154,"time_elapsed":739547,"internal_node_id":"0.0-136.0-0.0","task_version":"1.0","jspsych_version":"6.3.1","browser_interactions":0,"missing":false},{"state_1_ids":[0,1],"state_1_key":1,"state_1_choice":1,"state_1_rt":1025.5999999046326,"transition":0,"state":0,"state_2_ids":[0,1],"state_2_key":0,"state_2_choice":0,"state_2_rt":834.9000000953674,"outcome":0,"rocket_colors":["#486ea7","#a75248"],"planet_colors":["#706081","#5b7c65"],"screen_resolution":[1280,720],"minimum_resolution":1,"trial":123,"drifts":[0.288,0.279,0.473,0.464],"drift_ix":0,"trial_type":"two-step-trial","trial_index":155,"time_elapsed":743426,"internal_node_id":"0.0-137.0-0.0","task_version":"1.0","jspsych_version":"6.3.1","browser_interactions":0,"missing":false},{"state_1_ids":[1,0],"state_1_key":0,"state_1_choice":1,"state_1_rt":554.7999999523163,"transition":0,"state":0,"state_2_ids":[0,1],"state_2_key":1,"state_2_choice":1,"state_2_rt":964.5,"outcome":0,"rocket_colors":["#486ea7","#a75248"],"planet_colors":["#706081","#5b7c65"],"screen_resolution":[1280,720],"minimum_resolution":1,"trial":124,"drifts":[0.287,0.296,0.496,0.443],"drift_ix":0,"trial_type":"two-step-trial","trial_index":156,"time_elapsed":746962,"internal_node_id":"0.0-138.0-0.0","task_version":"1.0","jspsych_version":"6.3.1","browser_interactions":0,"missing":false},{"state_1_ids":[0,1],"state_1_key":1,"state_1_choice":1,"state_1_rt":602.4000000953674,"transition":1,"state":1,"state_2_ids":[2,3],"state_2_key":0,"state_2_choice":2,"state_2_rt":757.0999999046326,"outcome":1,"rocket_colors":["#486ea7","#a75248"],"planet_colors":["#706081","#5b7c65"],"screen_resolution":[1280,720],"minimum_resolution":1,"trial":125,"drifts":[0.26,0.276,0.477,0.451],"drift_ix":0,"trial_type":"two-step-trial","trial_index":157,"time_elapsed":750336,"internal_node_id":"0.0-139.0-0.0","task_version":"1.0","jspsych_version":"6.3.1","browser_interactions":0,"missing":false},{"state_1_ids":[1,0],"state_1_key":0,"state_1_choice":1,"state_1_rt":549.1000001430511,"transition":0,"state":0,"state_2_ids":[0,1],"state_2_key":0,"state_2_choice":0,"state_2_rt":1040.0999999046326,"outcome":0,"rocket_colors":["#486ea7","#a75248"],"planet_colors":["#706081","#5b7c65"],"screen_resolution":[1280,720],"minimum_resolution":1,"trial":126,"drifts":[0.283,0.285,0.494,0.477],"drift_ix":0,"trial_type":"two-step-trial","trial_index":158,"time_elapsed":753940,"internal_node_id":"0.0-140.0-0.0","task_version":"1.0","jspsych_version":"6.3.1","browser_interactions":0,"missing":false},{"state_1_ids":[1,0],"state_1_key":0,"state_1_choice":1,"state_1_rt":513.6000001430511,"transition":1,"state":1,"state_2_ids":[2,3],"state_2_key":0,"state_2_choice":2,"state_2_rt":838.2000000476837,"outcome":0,"rocket_colors":["#486ea7","#a75248"],"planet_colors":["#706081","#5b7c65"],"screen_resolution":[1280,720],"minimum_resolution":1,"trial":127,"drifts":[0.285,0.251,0.493,0.518],"drift_ix":0,"trial_type":"two-step-trial","trial_index":159,"time_elapsed":757307,"internal_node_id":"0.0-141.0-0.0","task_version":"1.0","jspsych_version":"6.3.1","browser_interactions":0,"missing":false},{"state_1_ids":[1,0],"state_1_key":0,"state_1_choice":1,"state_1_rt":504.5,"transition":0,"state":0,"state_2_ids":[0,1],"state_2_key":0,"state_2_choice":0,"state_2_rt":848.1999998092651,"outcome":0,"rocket_colors":["#486ea7","#a75248"],"planet_colors":["#706081","#5b7c65"],"screen_resolution":[1280,720],"minimum_resolution":1,"trial":128,"drifts":[0.285,0.278,0.495,0.479],"drift_ix":0,"trial_type":"two-step-trial","trial_index":160,"time_elapsed":760678,"internal_node_id":"0.0-142.0-0.0","task_version":"1.0","jspsych_version":"6.3.1","browser_interactions":0,"missing":false},{"state_1_ids":[1,0],"state_1_key":0,"state_1_choice":1,"state_1_rt":492.59999990463257,"transition":0,"state":0,"state_2_ids":[0,1],"state_2_key":1,"state_2_choice":1,"state_2_rt":584,"outcome":0,"rocket_colors":["#486ea7","#a75248"],"planet_colors":["#706081","#5b7c65"],"screen_resolution":[1280,720],"minimum_resolution":1,"trial":129,"drifts":[0.304,0.316,0.486,0.459],"drift_ix":0,"trial_type":"two-step-trial","trial_index":161,"time_elapsed":763773,"internal_node_id":"0.0-143.0-0.0","task_version":"1.0","jspsych_version":"6.3.1","browser_interactions":0,"missing":false},{"state_1_ids":[0,1],"state_1_key":1,"state_1_choice":1,"state_1_rt":1188.9000000953674,"transition":0,"state":0,"state_2_ids":[0,1],"state_2_key":1,"state_2_choice":1,"state_2_rt":780,"outcome":0,"rocket_colors":["#486ea7","#a75248"],"planet_colors":["#706081","#5b7c65"],"screen_resolution":[1280,720],"minimum_resolution":1,"trial":130,"drifts":[0.279,0.291,0.485,0.452],"drift_ix":0,"trial_type":"two-step-trial","trial_index":162,"time_elapsed":767763,"internal_node_id":"0.0-144.0-0.0","task_version":"1.0","jspsych_version":"6.3.1","browser_interactions":0,"missing":false},{"state_1_ids":[1,0],"state_1_key":0,"state_1_choice":1,"state_1_rt":614.8999998569489,"transition":1,"state":1,"state_2_ids":[2,3],"state_2_key":0,"state_2_choice":2,"state_2_rt":781.2999999523163,"outcome":1,"rocket_colors":["#486ea7","#a75248"],"planet_colors":["#706081","#5b7c65"],"screen_resolution":[1280,720],"minimum_resolution":1,"trial":131,"drifts":[0.257,0.293,0.476,0.442],"drift_ix":0,"trial_type":"two-step-trial","trial_index":163,"time_elapsed":771172,"internal_node_id":"0.0-145.0-0.0","task_version":"1.0","jspsych_version":"6.3.1","browser_interactions":0,"missing":false},{"state_1_ids":[0,1],"state_1_key":1,"state_1_choice":1,"state_1_rt":863.8999998569489,"transition":1,"state":1,"state_2_ids":[2,3],"state_2_key":0,"state_2_choice":2,"state_2_rt":550.2999999523163,"outcome":0,"rocket_colors":["#486ea7","#a75248"],"planet_colors":["#706081","#5b7c65"],"screen_resolution":[1280,720],"minimum_resolution":1,"trial":132,"drifts":[0.267,0.335,0.408,0.456],"drift_ix":0,"trial_type":"two-step-trial","trial_index":164,"time_elapsed":774603,"internal_node_id":"0.0-146.0-0.0","task_version":"1.0","jspsych_version":"6.3.1","browser_interactions":0,"missing":false},{"state_1_ids":[0,1],"state_1_key":1,"state_1_choice":1,"state_1_rt":508.90000009536743,"transition":0,"state":0,"state_2_ids":[0,1],"state_2_key":1,"state_2_choice":1,"state_2_rt":1342.2999999523163,"outcome":0,"rocket_colors":["#486ea7","#a75248"],"planet_colors":["#706081","#5b7c65"],"screen_resolution":[1280,720],"minimum_resolution":1,"trial":133,"drifts":[0.254,0.359,0.444,0.42],"drift_ix":0,"trial_type":"two-step-trial","trial_index":165,"time_elapsed":778474,"internal_node_id":"0.0-147.0-0.0","task_version":"1.0","jspsych_version":"6.3.1","browser_interactions":0,"missing":false},{"state_1_ids":[1,0],"state_1_key":0,"state_1_choice":1,"state_1_rt":601.2000000476837,"transition":1,"state":1,"state_2_ids":[2,3],"state_2_key":0,"state_2_choice":2,"state_2_rt":666.9000000953674,"outcome":0,"rocket_colors":["#486ea7","#a75248"],"planet_colors":["#706081","#5b7c65"],"screen_resolution":[1280,720],"minimum_resolution":1,"trial":134,"drifts":[0.265,0.371,0.443,0.419],"drift_ix":0,"trial_type":"two-step-trial","trial_index":166,"time_elapsed":781755,"internal_node_id":"0.0-148.0-0.0","task_version":"1.0","jspsych_version":"6.3.1","browser_interactions":0,"missing":false},{"state_1_ids":[1,0],"state_1_key":0,"state_1_choice":1,"state_1_rt":544.6000001430511,"transition":0,"state":0,"state_2_ids":[0,1],"state_2_key":0,"state_2_choice":0,"state_2_rt":1216.4000000953674,"outcome":0,"rocket_colors":["#486ea7","#a75248"],"planet_colors":["#706081","#5b7c65"],"screen_resolution":[1280,720],"minimum_resolution":1,"trial":135,"drifts":[0.272,0.34,0.465,0.386],"drift_ix":0,"trial_type":"two-step-trial","trial_index":167,"time_elapsed":785531,"internal_node_id":"0.0-149.0-0.0","task_version":"1.0","jspsych_version":"6.3.1","browser_interactions":0,"missing":false},{"state_1_ids":[0,1],"state_1_key":1,"state_1_choice":1,"state_1_rt":530.2000000476837,"transition":1,"state":1,"state_2_ids":[2,3],"state_2_key":1,"state_2_choice":3,"state_2_rt":675.2999999523163,"outcome":0,"rocket_colors":["#486ea7","#a75248"],"planet_colors":["#706081","#5b7c65"],"screen_resolution":[1280,720],"minimum_resolution":1,"trial":136,"drifts":[0.291,0.34,0.503,0.372],"drift_ix":0,"trial_type":"two-step-trial","trial_index":168,"time_elapsed":788753,"internal_node_id":"0.0-150.0-0.0","task_version":"1.0","jspsych_version":"6.3.1","browser_interactions":0,"missing":false},{"state_1_ids":[1,0],"state_1_key":0,"state_1_choice":1,"state_1_rt":582.5999999046326,"transition":1,"state":1,"state_2_ids":[2,3],"state_2_key":1,"state_2_choice":3,"state_2_rt":537,"outcome":1,"rocket_colors":["#486ea7","#a75248"],"planet_colors":["#706081","#5b7c65"],"screen_resolution":[1280,720],"minimum_resolution":1,"trial":137,"drifts":[0.25,0.307,0.498,0.357],"drift_ix":0,"trial_type":"two-step-trial","trial_index":169,"time_elapsed":791892,"internal_node_id":"0.0-151.0-0.0","task_version":"1.0","jspsych_version":"6.3.1","browser_interactions":0,"missing":false},{"state_1_ids":[0,1],"state_1_key":1,"state_1_choice":1,"state_1_rt":711,"transition":1,"state":1,"state_2_ids":[2,3],"state_2_key":1,"state_2_choice":3,"state_2_rt":594.1000001430511,"outcome":0,"rocket_colors":["#486ea7","#a75248"],"planet_colors":["#706081","#5b7c65"],"screen_resolution":[1280,720],"minimum_resolution":1,"trial":138,"drifts":[0.265,0.293,0.462,0.319],"drift_ix":0,"trial_type":"two-step-trial","trial_index":170,"time_elapsed":795217,"internal_node_id":"0.0-152.0-0.0","task_version":"1.0","jspsych_version":"6.3.1","browser_interactions":0,"missing":false},{"state_1_ids":[1,0],"state_1_key":0,"state_1_choice":1,"state_1_rt":534.2999999523163,"transition":1,"state":1,"state_2_ids":[2,3],"state_2_key":1,"state_2_choice":3,"state_2_rt":438.2000000476837,"outcome":0,"rocket_colors":["#486ea7","#a75248"],"planet_colors":["#706081","#5b7c65"],"screen_resolution":[1280,720],"minimum_resolution":1,"trial":139,"drifts":[0.268,0.317,0.494,0.325],"drift_ix":0,"trial_type":"two-step-trial","trial_index":171,"time_elapsed":798203,"internal_node_id":"0.0-153.0-0.0","task_version":"1.0","jspsych_version":"6.3.1","browser_interactions":0,"missing":false},{"state_1_ids":[0,1],"state_1_key":1,"state_1_choice":1,"state_1_rt":557.5,"transition":0,"state":0,"state_2_ids":[0,1],"state_2_key":0,"state_2_choice":0,"state_2_rt":1016.5,"outcome":1,"rocket_colors":["#486ea7","#a75248"],"planet_colors":["#706081","#5b7c65"],"screen_resolution":[1280,720],"minimum_resolution":1,"trial":140,"drifts":[0.276,0.319,0.471,0.343],"drift_ix":0,"trial_type":"two-step-trial","trial_index":172,"time_elapsed":801799,"internal_node_id":"0.0-154.0-0.0","task_version":"1.0","jspsych_version":"6.3.1","browser_interactions":0,"missing":false},{"state_1_ids":[0,1],"state_1_key":0,"state_1_choice":0,"state_1_rt":985.1000001430511,"transition":0,"state":1,"state_2_ids":[2,3],"state_2_key":1,"state_2_choice":3,"state_2_rt":887.7999999523163,"outcome":0,"rocket_colors":["#486ea7","#a75248"],"planet_colors":["#706081","#5b7c65"],"screen_resolution":[1280,720],"minimum_resolution":1,"trial":141,"drifts":[0.261,0.318,0.465,0.338],"drift_ix":0,"trial_type":"two-step-trial","trial_index":173,"time_elapsed":805691,"internal_node_id":"0.0-155.0-0.0","task_version":"1.0","jspsych_version":"6.3.1","browser_interactions":0,"missing":false},{"state_1_ids":[0,1],"state_1_key":0,"state_1_choice":0,"state_1_rt":1202.5999999046326,"transition":0,"state":1,"state_2_ids":[2,3],"state_2_key":1,"state_2_choice":3,"state_2_rt":987.9000000953674,"outcome":1,"rocket_colors":["#486ea7","#a75248"],"planet_colors":["#706081","#5b7c65"],"screen_resolution":[1280,720],"minimum_resolution":1,"trial":142,"drifts":[0.269,0.269,0.465,0.359],"drift_ix":0,"trial_type":"two-step-trial","trial_index":174,"time_elapsed":809898,"internal_node_id":"0.0-156.0-0.0","task_version":"1.0","jspsych_version":"6.3.1","browser_interactions":0,"missing":false},{"state_1_ids":[0,1],"state_1_key":0,"state_1_choice":0,"state_1_rt":649.7000000476837,"transition":1,"state":0,"state_2_ids":[0,1],"state_2_key":0,"state_2_choice":0,"state_2_rt":574.3999998569489,"outcome":1,"rocket_colors":["#486ea7","#a75248"],"planet_colors":["#706081","#5b7c65"],"screen_resolution":[1280,720],"minimum_resolution":1,"trial":143,"drifts":[0.288,0.255,0.464,0.364],"drift_ix":0,"trial_type":"two-step-trial","trial_index":175,"time_elapsed":813136,"internal_node_id":"0.0-157.0-0.0","task_version":"1.0","jspsych_version":"6.3.1","browser_interactions":0,"missing":false},{"state_1_ids":[1,0],"state_1_key":1,"state_1_choice":0,"state_1_rt":738.7999999523163,"transition":1,"state":0,"state_2_ids":[0,1],"state_2_key":0,"state_2_choice":0,"state_2_rt":525.4000000953674,"outcome":0,"rocket_colors":["#486ea7","#a75248"],"planet_colors":["#706081","#5b7c65"],"screen_resolution":[1280,720],"minimum_resolution":1,"trial":144,"drifts":[0.311,0.284,0.439,0.335],"drift_ix":0,"trial_type":"two-step-trial","trial_index":176,"time_elapsed":816417,"internal_node_id":"0.0-158.0-0.0","task_version":"1.0","jspsych_version":"6.3.1","browser_interactions":0,"missing":false},{"state_1_ids":[0,1],"state_1_key":0,"state_1_choice":0,"state_1_rt":561,"transition":1,"state":0,"state_2_ids":[0,1],"state_2_key":0,"state_2_choice":0,"state_2_rt":684.1999998092651,"outcome":1,"rocket_colors":["#486ea7","#a75248"],"planet_colors":["#706081","#5b7c65"],"screen_resolution":[1280,720],"minimum_resolution":1,"trial":145,"drifts":[0.291,0.284,0.413,0.345],"drift_ix":0,"trial_type":"two-step-trial","trial_index":177,"time_elapsed":819682,"internal_node_id":"0.0-159.0-0.0","task_version":"1.0","jspsych_version":"6.3.1","browser_interactions":0,"missing":false},{"state_1_ids":[0,1],"state_1_key":0,"state_1_choice":0,"state_1_rt":525.8000001907349,"transition":1,"state":0,"state_2_ids":[0,1],"state_2_key":0,"state_2_choice":0,"state_2_rt":519.2999999523163,"outcome":0,"rocket_colors":["#48