[{"success":true,"timeout":false,"failed_images":[],"failed_audio":[],"failed_video":[],"trial_type":"preload","trial_index":0,"time_elapsed":140,"internal_node_id":"0.0-0.0","task_version":"1.0","jspsych_version":"6.3.1"},{"success":true,"trial_type":"fullscreen","trial_index":1,"time_elapsed":2753,"internal_node_id":"0.0-1.0","task_version":"1.0","jspsych_version":"6.3.1"},{"view_history":[{"page_index":0,"viewing_time":2644.5}],"rt":2644.699999988079,"trial_type":"instructions","trial_index":2,"time_elapsed":5399,"internal_node_id":"0.0-2.0","task_version":"1.0","jspsych_version":"6.3.1"},{"responses":{"Q01":"1","Q03":"2","Q07":"2","Q02":"2","Q05":"3","Q08":"0","Q06":"2","Q04":"2"},"rt":18451.599999964237,"item_order":[0,2,6,1,4,7,5,3],"radio_events":[3972.800000011921,4874.599999964237,8522.300000011921,9475.5,11195.300000011921,12841.699999988079,13747.099999964237,17666.399999976158],"key_events":[],"mouse_events":[0.09999996423721313,3972.800000011921,4874.599999964237,6755.599999964237,8035.399999976158,8522.300000011921,9475.5,10210.300000011921,11195.300000011921,12841.699999988079,13180.199999988079,13282.800000011921,13747.099999964237,14491.199999988079,16018.099999964237,17353.599999964237,17666.399999976158,18450.5],"straightlining":0.625,"zigzagging":0.42857142857142855,"honeypot":0,"survey":"anxiety","trial_type":"survey-template","trial_index":3,"time_elapsed":23856,"internal_node_id":"0.0-3.0","task_version":"1.0","jspsych_version":"6.3.1"},{"responses":{"Q02":"1","Q04":"1","Q03":"2","Q05":"2","Q06":"1","Q01":"0","Q07":"1","Q08":"3"},"rt":42246,"item_order":[1,3,2,4,5,0,6,7],"radio_events":[7393.800000011921,13129.199999988079,17089.30000001192,19849.19999998808,23944.69999998808,25793.600000023842,26016.600000023842,28240.5,33799.40000003576,34655.60000002384,36079.19999998808,39734.69999998808],"key_events":[],"mouse_events":[6883,7393.800000011921,9616.900000035763,10472.699999988079,11377.900000035763,13129.199999988079,15610.600000023842,17089.30000001192,18777.80000001192,19849.19999998808,22872.80000001192,23944.69999998808,24960.30000001192,25793.600000023842,26016.600000023842,27568.900000035763,27656.5,28240.5,29448,32143.80000001192,32534,33799.40000003576,34655.60000002384,35540.40000003576,36079.19999998808,39734.69999998808,42245.30000001192],"straightlining":0.5,"zigzagging":0.5714285714285714,"honeypot":0,"survey":"mania","trial_type":"survey-template","trial_index":4,"time_elapsed":66104,"internal_node_id":"0.0-4.0","task_version":"1.0","jspsych_version":"6.3.1"},{"responses":{"Q01":"1","Q05":"2","Q02":"1","Q03":"1","Q04":"1","Q08":"0","Q06":"0","Q07":"0"},"rt":26261,"item_order":[0,4,1,2,3,7,5,6],"radio_events":[4171.5,6557.100000023842,8868.300000011921,11170.800000011921,12756.100000023842,17690,24246.900000035763,25670],"key_events":[],"mouse_events":[4171.5,6557.100000023842,7948.400000035763,8868.300000011921,10524.800000011921,11170.800000011921,12756.100000023842,14241.699999988079,15499.900000035763,16676,17227.400000035763,17690,23558.900000035763,24246.900000035763,25670,26260.5],"straightlining":0.5,"zigzagging":0.42857142857142855,"honeypot":0,"survey":"depression","trial_type":"survey-template","trial_index":5,"time_elapsed":92368,"internal_node_id":"0.0-5.0","task_version":"1.0","jspsych_version":"6.3.1"},{"responses":{"Q01":"5","Q04":"2","Q03":"1","Q05":"1","Q06":"0","Q02":"4","Q07":"3"},"rt":14726.399999976158,"item_order":[0,3,2,4,5,1,6],"radio_events":[3582.800000011921,4863.199999988079,7997.600000023842,8358.399999976158,9692.899999976158,12171.699999988079,13923.5],"key_events":[],"mouse_events":[3582.800000011921,4863.199999988079,6500.800000011921,7997.600000023842,8358.399999976158,9302.100000023842,9692.899999976158,10301.199999988079,11286.100000023842,12171.699999988079,13923.5,14725.100000023842],"straightlining":0.42857142857142855,"zigzagging":0.3333333333333333,"honeypot":0,"survey":"artistic","trial_type":"survey-template","trial_index":6,"time_elapsed":107096,"internal_node_id":"0.0-6.0","task_version":"1.0","jspsych_version":"6.3.1"},{"responses":{"Q04":"2","Q07":"4","Q03":"2","Q02":"3","Q06":"3","Q01":"3","Q05":"3"},"rt":14178.800000011921,"item_order":[3,6,2,1,5,0,4],"radio_events":[3179.5,4345.900000035763,6099.5,8665.600000023842,10186.400000035763,10794.199999988079,13433.800000011921],"key_events":[],"mouse_events":[3179.5,4345.900000035763,6099.5,7539,8665.600000023842,10186.400000035763,10794.199999988079,13170.400000035763,13433.800000011921,14177.400000035763],"straightlining":0.5714285714285714,"zigzagging":0.16666666666666666,"honeypot":0,"survey":"greed","trial_type":"survey-template","trial_index":7,"time_elapsed":121277,"internal_node_id":"0.0-7.0","task_version":"1.0","jspsych_version":"6.3.1"},{"view_history":"[{\"page_index\":0,\"viewing_time\":3958.5},{\"page_index\":1,\"viewing_time\":2774.2000000476837},{\"page_index\":2,\"viewing_time\":2072.5},{\"page_index\":3,\"viewing_time\":4292.299999952316},{\"page_index\":4,\"viewing_time\":3298.2000000476837},{\"page_index\":5,\"viewing_time\":2087.099999964237},{\"page_index\":6,\"viewing_time\":1503.699999988079},{\"page_index\":7,\"viewing_time\":3069.2000000476837},{\"page_index\":8,\"viewing_time\":1835.2999999523163},{\"page_index\":9,\"viewing_time\":2723.900000035763},{\"page_index\":10,\"viewing_time\":1399.5}]","rt":29015,"trial_type":"two-step-instructions","trial_index":8,"time_elapsed":150295,"internal_node_id":"0.0-8.0-1.0","task_version":"1.0","jspsych_version":"6.3.1"},{"responses":["left/right arrow keys","True","True"],"num_errors":0,"rt":14076.399999976158,"quiz":1,"trial_type":"two-step-comprehension","trial_index":9,"time_elapsed":164373,"internal_node_id":"0.0-8.0-2.0","task_version":"1.0","jspsych_version":"6.3.1"},{"view_history":"[{\"page_index\":0,\"viewing_time\":5311.199999988079}]","rt":5311.599999964237,"phase":"instructions_1b","trial_type":"two-step-instructions","trial_index":10,"time_elapsed":169687,"internal_node_id":"0.0-9.0-0.0-0.0","task_version":"1.0","jspsych_version":"6.3.1"},{"state_2_ids":[0,1],"state_2_key":0,"state_2_choice":0,"state_2_rt":1268.699999988079,"outcome":0,"screen_resolution":[1792,1120],"minimum_resolution":1,"trial_type":"alien-practice","trial_index":11,"time_elapsed":173164,"internal_node_id":"0.0-9.0-1.0-0.0","task_version":"1.0","jspsych_version":"6.3.1"},{"state_2_ids":[0,1],"state_2_key":1,"state_2_choice":1,"state_2_rt":657.4000000357628,"outcome":0,"screen_resolution":[1792,1120],"minimum_resolution":1,"trial_type":"alien-practice","trial_index":12,"time_elapsed":176028,"internal_node_id":"0.0-9.0-2.0-0.0","task_version":"1.0","jspsych_version":"6.3.1"},{"state_2_ids":[0,1],"state_2_key":1,"state_2_choice":1,"state_2_rt":455.0999999642372,"outcome":1,"screen_resolution":[1792,1120],"minimum_resolution":1,"trial_type":"alien-practice","trial_index":13,"time_elapsed":178689,"internal_node_id":"0.0-9.0-3.0-0.0","task_version":"1.0","jspsych_version":"6.3.1"},{"state_2_ids":[0,1],"state_2_key":1,"state_2_choice":1,"state_2_rt":371.89999997615814,"outcome":1,"screen_resolution":[1792,1120],"minimum_resolution":1,"trial_type":"alien-practice","trial_index":14,"time_elapsed":181265,"internal_node_id":"0.0-9.0-4.0-0.0","task_version":"1.0","jspsych_version":"6.3.1"},{"state_2_ids":[0,1],"state_2_key":1,"state_2_choice":1,"state_2_rt":263,"outcome":1,"screen_resolution":[1792,1120],"minimum_resolution":1,"trial_type":"alien-practice","trial_index":15,"time_elapsed":183734,"internal_node_id":"0.0-9.0-5.0-0.0","task_version":"1.0","jspsych_version":"6.3.1"},{"view_history":"[{\"page_index\":0,\"viewing_time\":4389.300000011921},{\"page_index\":1,\"viewing_time\":1207.800000011921},{\"page_index\":2,\"viewing_time\":3907.199999988079},{\"page_index\":3,\"viewing_time\":5199.100000023842},{\"page_index\":4,\"viewing_time\":11142},{\"page_index\":5,\"viewing_time\":1830.699999988079}]","rt":27676.69999998808,"trial_type":"two-step-instructions","trial_index":16,"time_elapsed":211413,"internal_node_id":"0.0-10.0-1.0","task_version":"1.0","jspsych_version":"6.3.1"},{"responses":["left/right arrow keys","False","True"],"num_errors":0,"rt":6825.800000011921,"quiz":2,"trial_type":"two-step-comprehension","trial_index":17,"time_elapsed":218241,"internal_node_id":"0.0-10.0-2.0","task_version":"1.0","jspsych_version":"6.3.1"},{"view_history":"[{\"page_index\":0,\"viewing_time\":4172.5},{\"page_index\":1,\"viewing_time\":2343.5},{\"page_index\":2,\"viewing_time\":6114.599999964237}]","rt":12631.099999964237,"trial_type":"two-step-instructions","trial_index":18,"time_elapsed":230875,"internal_node_id":"0.0-11.0-0.0","task_version":"1.0","jspsych_version":"6.3.1"},{"state_1_ids":[0,1],"state_1_key":1,"state_1_choice":1,"state_1_rt":914.8999999761581,"transition":1,"state":1,"state_2_ids":[2,3],"state_2_key":1,"state_2_choice":3,"state_2_rt":3745.300000011921,"outcome":1,"rocket_colors":["#486ea7","#a75248"],"planet_colors":["#5b7c65","#706081"],"screen_resolution":[1792,1120],"minimum_resolution":1,"trial":0,"trial_type":"two-step-trial","trial_index":19,"time_elapsed":237543,"internal_node_id":"0.0-11.0-1.0-0.0","task_version":"1.0","jspsych_version":"6.3.1","missing":false},{"state_1_ids":[1,0],"state_1_key":0,"state_1_choice":1,"state_1_rt":659.5999999642372,"transition":1,"state":1,"state_2_ids":[2,3],"state_2_key":0,"state_2_choice":2,"state_2_rt":685.1999999880791,"outcome":0,"rocket_colors":["#486ea7","#a75248"],"planet_colors":["#5b7c65","#706081"],"screen_resolution":[1792,1120],"minimum_resolution":1,"trial":0,"trial_type":"two-step-trial","trial_index":20,"time_elapsed":240892,"internal_node_id":"0.0-11.0-1.0-0.1","task_version":"1.0","jspsych_version":"6.3.1","missing":false},{"state_1_ids":[0,1],"state_1_key":0,"state_1_choice":0,"state_1_rt":611.5,"transition":1,"state":0,"state_2_ids":[0,1],"state_2_key":1,"state_2_choice":1,"state_2_rt":796.1999999880791,"outcome":0,"rocket_colors":["#486ea7","#a75248"],"planet_colors":["#5b7c65","#706081"],"screen_resolution":[1792,1120],"minimum_resolution":1,"trial":0,"trial_type":"two-step-trial","trial_index":21,"time_elapsed":244305,"internal_node_id":"0.0-11.0-1.0-0.2","task_version":"1.0","jspsych_version":"6.3.1","missing":false},{"state_1_ids":[1,0],"state_1_key":1,"state_1_choice":0,"state_1_rt":515.3000000119209,"transition":1,"state":0,"state_2_ids":[0,1],"state_2_key":1,"state_2_choice":1,"state_2_rt":374.39999997615814,"outcome":0,"rocket_colors":["#486ea7","#a75248"],"planet_colors":["#5b7c65","#706081"],"screen_resolution":[1792,1120],"minimum_resolution":1,"trial":0,"trial_type":"two-step-trial","trial_index":22,"time_elapsed":247200,"internal_node_id":"0.0-11.0-1.0-0.3","task_version":"1.0","jspsych_version":"6.3.1","missing":false},{"state_1_ids":[1,0],"state_1_key":1,"state_1_choice":0,"state_1_rt":612.1999999880791,"transition":1,"state":0,"state_2_ids":[0,1],"state_2_key":0,"state_2_choice":0,"state_2_rt":486.39999997615814,"outcome":1,"rocket_colors":["#486ea7","#a75248"],"planet_colors":["#5b7c65","#706081"],"screen_resolution":[1792,1120],"minimum_resolution":1,"trial":0,"trial_type":"two-step-trial","trial_index":23,"time_elapsed":250305,"internal_node_id":"0.0-11.0-1.0-0.4","task_version":"1.0","jspsych_version":"6.3.1","missing":false},{"state_1_ids":[1,0],"state_1_key":1,"state_1_choice":0,"state_1_rt":276.80000001192093,"transition":1,"state":0,"state_2_ids":[0,1],"state_2_key":0,"state_2_choice":0,"state_2_rt":327.7000000476837,"outcome":0,"rocket_colors":["#486ea7","#a75248"],"planet_colors":["#5b7c65","#706081"],"screen_resolution":[1792,1120],"minimum_resolution":1,"trial":0,"trial_type":"two-step-trial","trial_index":24,"time_elapsed":252915,"internal_node_id":"0.0-11.0-1.0-0.5","task_version":"1.0","jspsych_version":"6.3.1","missing":false},{"state_1_ids":[1,0],"state_1_key":1,"state_1_choice":0,"state_1_rt":350,"transition":1,"state":0,"state_2_ids":[0,1],"state_2_key":1,"state_2_choice":1,"state_2_rt":235.0999999642372,"outcome":0,"rocket_colors":["#486ea7","#a75248"],"planet_colors":["#5b7c65","#706081"],"screen_resolution":[1792,1120],"minimum_resolution":1,"trial":0,"trial_type":"two-step-trial","trial_index":25,"time_elapsed":255510,"internal_node_id":"0.0-11.0-1.0-0.6","task_version":"1.0","jspsych_version":"6.3.1","missing":false},{"state_1_ids":[1,0],"state_1_key":0,"state_1_choice":1,"state_1_rt":371.89999997615814,"transition":1,"state":1,"state_2_ids":[2,3],"state_2_key":0,"state_2_choice":2,"state_2_rt":294,"outcome":0,"rocket_colors":["#486ea7","#a75248"],"planet_colors":["#5b7c65","#706081"],"screen_resolution":[1792,1120],"minimum_resolution":1,"trial":0,"trial_type":"two-step-trial","trial_index":26,"time_elapsed":258182,"internal_node_id":"0.0-11.0-1.0-0.7","task_version":"1.0","jspsych_version":"6.3.1","missing":false},{"state_1_ids":[0,1],"state_1_key":0,"state_1_choice":0,"state_1_rt":368.5,"transition":1,"state":0,"state_2_ids":[0,1],"state_2_key":1,"state_2_choice":1,"state_2_rt":270.5999999642372,"outcome":1,"rocket_colors":["#486ea7","#a75248"],"planet_colors":["#5b7c65","#706081"],"screen_resolution":[1792,1120],"minimum_resolution":1,"trial":0,"trial_type":"two-step-trial","trial_index":27,"time_elapsed":260828,"internal_node_id":"0.0-11.0-1.0-0.8","task_version":"1.0","jspsych_version":"6.3.1","missing":false},{"state_1_ids":[1,0],"state_1_key":0,"state_1_choice":1,"state_1_rt":296.2999999523163,"transition":1,"state":1,"state_2_ids":[2,3],"state_2_key":1,"state_2_choice":3,"state_2_rt":417.2999999523163,"outcome":1,"rocket_colors":["#486ea7","#a75248"],"planet_colors":["#5b7c65","#706081"],"screen_resolution":[1792,1120],"minimum_resolution":1,"trial":0,"trial_type":"two-step-trial","trial_index":28,"time_elapsed":263548,"internal_node_id":"0.0-11.0-1.0-0.9","task_version":"1.0","jspsych_version":"6.3.1","missing":false},{"view_history":"[{\"page_index\":0,\"viewing_time\":1676.4000000357628},{\"page_index\":1,\"viewing_time\":1415.199999988079},{\"page_index\":2,\"viewing_time\":806.3999999761581},{\"page_index\":3,\"viewing_time\":2042.199999988079},{\"page_index\":4,\"viewing_time\":4078.2000000476837},{\"page_index\":5,\"viewing_time\":3943.199999988079},{\"page_index\":6,\"viewing_time\":2280.300000011921}]","rt":16242.199999988079,"trial_type":"two-step-instructions","trial_index":29,"time_elapsed":279793,"internal_node_id":"0.0-12.0-1.0","task_version":"1.0","jspsych_version":"6.3.1"},{"responses":["True","True","True"],"num_errors":1,"rt":7021.400000035763,"quiz":3,"trial_type":"two-step-comprehension","trial_index":30,"time_elapsed":286816,"internal_node_id":"0.0-12.0-2.0","task_version":"1.0","jspsych_version":"6.3.1"},{"view_history":"[{\"page_index\":0,\"viewing_time\":2236}]","rt":2236.300000011921,"trial_type":"two-step-instructions","trial_index":31,"time_elapsed":289055,"internal_node_id":"0.0-12.1-0.1-0.1","task_version":"1.0","jspsych_version":"6.3.1"},{"view_history":"[{\"page_index\":0,\"viewing_time\":1341.1000000238419},{\"page_index\":1,\"viewing_time\":1158.6000000238419},{\"page_index\":2,\"viewing_time\":912.6999999880791},{\"page_index\":3,\"viewing_time\":4415.199999988079},{\"page_index\":4,\"viewing_time\":2959.399999976158},{\"page_index\":5,\"viewing_time\":1151.7000000476837}]","rt":11939,"trial_type":"two-step-instructions","trial_index":32,"time_elapsed":300997,"internal_node_id":"0.0-12.1-1.1","task_version":"1.0","jspsych_version":"6.3.1"},{"responses":["True","False","True"],"num_errors":0,"rt":9908.5,"quiz":3,"trial_type":"two-step-comprehension","trial_index":33,"time_elapsed":310907,"internal_node_id":"0.0-12.1-2.1","task_version":"1.0","jspsych_version":"6.3.1"},{"view_history":"[{\"page_index\":0,\"viewing_time\":1496.5999999642372},{\"page_index\":1,\"viewing_time\":2087.400000035763},{\"page_index\":2,\"viewing_time\":1799.5}]","rt":5384,"trial_type":"two-step-instructions","trial_index":34,"time_elapsed":316294,"internal_node_id":"0.0-13.0","task_version":"1.0","jspsych_version":"6.3.1"},{"state_1_ids":[0,1],"state_1_key":1,"state_1_choice":1,"state_1_rt":1092.9000000357628,"transition":1,"state":1,"state_2_ids":[2,3],"state_2_key":1,"state_2_choice":3,"state_2_rt":849.5,"outcome":0,"rocket_colors":["#48a782","#955db9"],"planet_colors":["#5f6f81","#7f5d5d"],"screen_resolution":[1792,1120],"minimum_resolution":1,"trial":1,"drifts":[0.305,0.438,0.598,0.713],"drift_ix":3,"trial_type":"two-step-trial","trial_index":35,"time_elapsed":320243,"internal_node_id":"0.0-14.0-0.0","task_version":"1.0","jspsych_version":"6.3.1","browser_interactions":0,"missing":false},{"state_1_ids":[1,0],"state_1_key":1,"state_1_choice":0,"state_1_rt":370.80000001192093,"transition":1,"state":0,"state_2_ids":[0,1],"state_2_key":0,"state_2_choice":0,"state_2_rt":400,"outcome":0,"rocket_colors":["#48a782","#955db9"],"planet_colors":["#5f6f81","#7f5d5d"],"screen_resolution":[1792,1120],"minimum_resolution":1,"trial":2,"drifts":[0.326,0.396,0.598,0.702],"drift_ix":3,"trial_type":"two-step-trial","trial_index":36,"time_elapsed":323019,"internal_node_id":"0.0-15.0-0.0","task_version":"1.0","jspsych_version":"6.3.1","browser_interactions":0,"missing":false},{"state_1_ids":[0,1],"state_1_key":1,"state_1_choice":1,"state_1_rt":301.80000001192093,"transition":1,"state":1,"state_2_ids":[2,3],"state_2_key":1,"state_2_choice":3,"state_2_rt":469.2000000476837,"outcome":1,"rocket_colors":["#48a782","#955db9"],"planet_colors":["#5f6f81","#7f5d5d"],"screen_resolution":[1792,1120],"minimum_resolution":1,"trial":3,"drifts":[0.302,0.426,0.576,0.736],"drift_ix":3,"trial_type":"two-step-trial","trial_index":37,"time_elapsed":325798,"internal_node_id":"0.0-16.0-0.0","task_version":"1.0","jspsych_version":"6.3.1","browser_interactions":0,"missing":false},{"state_1_ids":[0,1],"state_1_key":0,"state_1_choice":0,"state_1_rt":788.6999999880791,"transition":1,"state":0,"state_2_ids":[0,1],"state_2_key":1,"state_2_choice":1,"state_2_rt":675,"outcome":1,"rocket_colors":["#48a782","#955db9"],"planet_colors":["#5f6f81","#7f5d5d"],"screen_resolution":[1792,1120],"minimum_resolution":1,"trial":4,"drifts":[0.362,0.43,0.582,0.702],"drift_ix":3,"trial_type":"two-step-trial","trial_index":38,"time_elapsed":329270,"internal_node_id":"0.0-17.0-0.0","task_version":"1.0","jspsych_version":"6.3.1","browser_interactions":0,"missing":false},{"state_1_ids":[0,1],"state_1_key":1,"state_1_choice":1,"state_1_rt":384.5999999642372,"transition":0,"state":0,"state_2_ids":[0,1],"state_2_key":1,"state_2_choice":1,"state_2_rt":440.89999997615814,"outcome":0,"rocket_colors":["#48a782","#955db9"],"planet_colors":["#5f6f81","#7f5d5d"],"screen_resolution":[1792,1120],"minimum_resolution":1,"trial":5,"drifts":[0.368,0.485,0.615,0.711],"drift_ix":3,"trial_type":"two-step-trial","trial_index":39,"time_elapsed":332102,"internal_node_id":"0.0-18.0-0.0","task_version":"1.0","jspsych_version":"6.3.1","browser_interactions":0,"missing":false},{"state_1_ids":[0,1],"state_1_key":0,"state_1_choice":0,"state_1_rt":94.60000002384186,"transition":0,"state":1,"state_2_ids":[2,3],"state_2_key":1,"state_2_choice":3,"state_2_rt":738.5,"outcome":1,"rocket_colors":["#48a782","#955db9"],"planet_colors":["#5f6f81","#7f5d5d"],"screen_resolution":[1792,1120],"minimum_resolution":1,"trial":6,"drifts":[0.404,0.486,0.616,0.744],"drift_ix":3,"trial_type":"two-step-trial","trial_index":40,"time_elapsed":334939,"internal_node_id":"0.0-19.0-0.0","task_version":"1.0","jspsych_version":"6.3.1","browser_interactions":0,"missing":false},{"state_1_ids":[0,1],"state_1_key":1,"state_1_choice":1,"state_1_rt":671.6999999880791,"transition":1,"state":1,"state_2_ids":[2,3],"state_2_key":1,"state_2_choice":3,"state_2_rt":459.5,"outcome":1,"rocket_colors":["#48a782","#955db9"],"planet_colors":["#5f6f81","#7f5d5d"],"screen_resolution":[1792,1120],"minimum_resolution":1,"trial":7,"drifts":[0.387,0.453,0.558,0.725],"drift_ix":3,"trial_type":"two-step-trial","trial_index":41,"time_elapsed":338075,"internal_node_id":"0.0-20.0-0.0","task_version":"1.0","jspsych_version":"6.3.1","browser_interactions":0,"missing":false},{"state_1_ids":[1,0],"state_1_key":1,"state_1_choice":0,"state_1_rt":300.7000000476837,"transition":1,"state":0,"state_2_ids":[0,1],"state_2_key":0,"state_2_choice":0,"state_2_rt":978.2000000476837,"outcome":0,"rocket_colors":["#48a782","#955db9"],"planet_colors":["#5f6f81","#7f5d5d"],"screen_resolution":[1792,1120],"minimum_resolution":1,"trial":8,"drifts":[0.438,0.474,0.539,0.737],"drift_ix":3,"trial_type":"two-step-trial","trial_index":42,"time_elapsed":341360,"internal_node_id":"0.0-21.0-0.0","task_version":"1.0","jspsych_version":"6.3.1","browser_interactions":0,"missing":false},{"state_1_ids":[1,0],"state_1_key":1,"state_1_choice":0,"state_1_rt":924.3999999761581,"transition":1,"state":0,"state_2_ids":[0,1],"state_2_key":1,"state_2_choice":1,"state_2_rt":296.10000002384186,"outcome":0,"rocket_colors":["#48a782","#955db9"],"planet_colors":["#5f6f81","#7f5d5d"],"screen_resolution":[1792,1120],"minimum_resolution":1,"trial":9,"drifts":[0.459,0.489,0.53,0.714],"drift_ix":3,"trial_type":"two-step-trial","trial_index":43,"time_elapsed":344587,"internal_node_id":"0.0-22.0-0.0","task_version":"1.0","jspsych_version":"6.3.1","browser_interactions":0,"missing":false},{"state_1_ids":[0,1],"state_1_key":0,"state_1_choice":0,"state_1_rt":3438.300000011921,"transition":1,"state":0,"state_2_ids":[0,1],"state_2_key":0,"state_2_choice":0,"state_2_rt":780.3000000119209,"outcome":1,"rocket_colors":["#48a782","#955db9"],"planet_colors":["#5f6f81","#7f5d5d"],"screen_resolution":[1792,1120],"minimum_resolution":1,"trial":10,"drifts":[0.45,0.506,0.534,0.707],"drift_ix":3,"trial_type":"two-step-trial","trial_index":44,"time_elapsed":350813,"internal_node_id":"0.0-23.0-0.0","task_version":"1.0","jspsych_version":"6.3.1","browser_interactions":0,"missing":false},{"state_1_ids":[0,1],"state_1_key":0,"state_1_choice":0,"state_1_rt":1498.800000011921,"transition":1,"state":0,"state_2_ids":[0,1],"state_2_key":0,"state_2_choice":0,"state_2_rt":613,"outcome":0,"rocket_colors":["#48a782","#955db9"],"planet_colors":["#5f6f81","#7f5d5d"],"screen_resolution":[1792,1120],"minimum_resolution":1,"trial":11,"drifts":[0.425,0.476,0.477,0.71],"drift_ix":3,"trial_type":"two-step-trial","trial_index":45,"time_elapsed":354934,"internal_node_id":"0.0-24.0-0.0","task_version":"1.0","jspsych_version":"6.3.1","browser_interactions":0,"missing":false},{"state_1_ids":[0,1],"state_1_key":0,"state_1_choice":0,"state_1_rt":457.5,"transition":1,"state":0,"state_2_ids":[0,1],"state_2_key":1,"state_2_choice":1,"state_2_rt":367.30000001192093,"outcome":1,"rocket_colors":["#48a782","#955db9"],"planet_colors":["#5f6f81","#7f5d5d"],"screen_resolution":[1792,1120],"minimum_resolution":1,"trial":12,"drifts":[0.397,0.483,0.492,0.681],"drift_ix":3,"trial_type":"two-step-trial","trial_index":46,"time_elapsed":357766,"internal_node_id":"0.0-25.0-0.0","task_version":"1.0","jspsych_version":"6.3.1","browser_interactions":0,"missing":false},{"state_1_ids":[0,1],"state_1_key":0,"state_1_choice":0,"state_1_rt":403.80000001192093,"transition":1,"state":0,"state_2_ids":[0,1],"state_2_key":1,"state_2_choice":1,"state_2_rt":459.5,"outcome":1,"rocket_colors":["#48a782","#955db9"],"planet_colors":["#5f6f81","#7f5d5d"],"screen_resolution":[1792,1120],"minimum_resolution":1,"trial":13,"drifts":[0.407,0.496,0.476,0.697],"drift_ix":3,"trial_type":"two-step-trial","trial_index":47,"time_elapsed":360635,"internal_node_id":"0.0-26.0-0.0","task_version":"1.0","jspsych_version":"6.3.1","browser_interactions":0,"missing":false},{"state_1_ids":[1,0],"state_1_key":0,"state_1_choice":1,"state_1_rt":309.39999997615814,"transition":1,"state":1,"state_2_ids":[2,3],"state_2_key":1,"state_2_choice":3,"state_2_rt":247,"outcome":0,"rocket_colors":["#48a782","#955db9"],"planet_colors":["#5f6f81","#7f5d5d"],"screen_resolution":[1792,1120],"minimum_resolution":1,"trial":14,"drifts":[0.369,0.494,0.493,0.747],"drift_ix":3,"trial_type":"two-step-trial","trial_index":48,"time_elapsed":363195,"internal_node_id":"0.0-27.0-0.0","task_version":"1.0","jspsych_version":"6.3.1","browser_interactions":0,"missing":false},{"state_1_ids":[1,0],"state_1_key":0,"state_1_choice":1,"state_1_rt":500.30000001192093,"transition":1,"state":1,"state_2_ids":[2,3],"state_2_key":1,"state_2_choice":3,"state_2_rt":929.6999999880791,"outcome":1,"rocket_colors":["#48a782","#955db9"],"planet_colors":["#5f6f81","#7f5d5d"],"screen_resolution":[1792,1120],"minimum_resolution":1,"trial":15,"drifts":[0.342,0.537,0.465,0.735],"drift_ix":3,"trial_type":"two-step-trial","trial_index":49,"time_elapsed":366629,"internal_node_id":"0.0-28.0-0.0","task_version":"1.0","jspsych_version":"6.3.1","browser_interactions":0,"missing":false},{"state_1_ids":[0,1],"state_1_key":0,"state_1_choice":0,"state_1_rt":390,"transition":0,"state":1,"state_2_ids":[2,3],"state_2_key":1,"state_2_choice":3,"state_2_rt":361.19999998807907,"outcome":1,"rocket_colors":["#48a782","#955db9"],"planet_colors":["#5f6f81","#7f5d5d"],"screen_resolution":[1792,1120],"minimum_resolution":1,"trial":16,"drifts":[0.313,0.512,0.467,0.743],"drift_ix":3,"trial_type":"two-step-trial","trial_index":50,"time_elapsed":369387,"internal_node_id":"0.0-29.0-0.0","task_version":"1.0","jspsych_version":"6.3.1","browser_interactions":0,"missing":false},{"state_1_ids":[0,1],"state_1_key":0,"state_1_choice":0,"state_1_rt":432.19999998807907,"transition":0,"state":1,"state_2_ids":[2,3],"state_2_key":1,"state_2_choice":3,"state_2_rt":386.80000001192093,"outcome":1,"rocket_colors":["#48a782","#955db9"],"planet_colors":["#5f6f81","#7f5d5d"],"screen_resolution":[1792,1120],"minimum_resolution":1,"trial":17,"drifts":[0.313,0.504,0.486,0.73],"drift_ix":3,"trial_type":"two-step-trial","trial_index":51,"time_elapsed":372213,"internal_node_id":"0.0-30.0-0.0","task_version":"1.0","jspsych_version":"6.3.1","browser_interactions":0,"missing":false},{"state_1_ids":[0,1],"state_1_key":0,"state_1_choice":0,"state_1_rt":337,"transition":1,"state":0,"state_2_ids":[0,1],"state_2_key":1,"state_2_choice":1,"state_2_rt":476,"outcome":0,"rocket_colors":["#48a782","#955db9"],"planet_colors":["#5f6f81","#7f5d5d"],"screen_resolution":[1792,1120],"minimum_resolution":1,"trial":18,"drifts":[0.334,0.526,0.501,0.707],"drift_ix":3,"trial_type":"two-step-trial","trial_index":52,"time_elapsed":375034,"internal_node_id":"0.0-31.0-0.0","task_version":"1.0","jspsych_version":"6.3.1","browser_interactions":0,"missing":false},{"state_1_ids":[0,1],"state_1_key":0,"state_1_choice":0,"state_1_rt":433.19999998807907,"transition":1,"state":0,"state_2_ids":[0,1],"state_2_key":0,"state_2_choice":0,"state_2_rt":428.30000001192093,"outcome":1,"rocket_colors":["#48a782","#955db9"],"planet_colors":["#5f6f81","#7f5d5d"],"screen_resolution":[1792,1120],"minimum_resolution":1,"trial":19,"drifts":[0.312,0.543,0.473,0.695],"drift_ix":3,"trial_type":"two-step-trial","trial_index":53,"time_elapsed":377899,"internal_node_id":"0.0-32.0-0.0","task_version":"1.0","jspsych_version":"6.3.1","browser_interactions":0,"missing":false},{"state_1_ids":[1,0],"state_1_key":0,"state_1_choice":1,"state_1_rt":272.10000002384186,"transition":1,"state":1,"state_2_ids":[2,3],"state_2_key":1,"state_2_choice":3,"state_2_rt":716.4000000357628,"outcome":1,"rocket_colors":["#48a782","#955db9"],"planet_colors":["#5f6f81","#7f5d5d"],"screen_resolution":[1792,1120],"minimum_resolution":1,"trial":20,"drifts":[0.304,0.536,0.482,0.668],"drift_ix":3,"trial_type":"two-step-trial","trial_index":54,"time_elapsed":380891,"internal_node_id":"0.0-33.0-0.0","task_version":"1.0","jspsych_version":"6.3.1","browser_interactions":0,"missing":false},{"state_1_ids":[1,0],"state_1_key":0,"state_1_choice":1,"state_1_rt":348.5,"transition":1,"state":1,"state_2_ids":[2,3],"state_2_key":1,"state_2_choice":3,"state_2_rt":822.4000000357628,"outcome":1,"rocket_colors":["#48a782","#955db9"],"planet_colors":["#5f6f81","#7f5d5d"],"screen_resolution":[1792,1120],"minimum_resolution":1,"trial":21,"drifts":[0.309,0.543,0.477,0.682],"drift_ix":3,"trial_type":"two-step-trial","trial_index":55,"time_elapsed":384069,"internal_node_id":"0.0-34.0-0.0","task_version":"1.0","jspsych_version":"6.3.1","browser_interactions":0,"missing":false},{"state_1_ids":[1,0],"state_1_key":0,"state_1_choice":1,"state_1_rt":450.7999999523163,"transition":1,"state":1,"state_2_ids":[2,3],"state_2_key":1,"state_2_choice":3,"state_2_rt":457.69999998807907,"outcome":0,"rocket_colors":["#48a782","#955db9"],"planet_colors":["#5f6f81","#7f5d5d"],"screen_resolution":[1792,1120],"minimum_resolution":1,"trial":22,"drifts":[0.301,0.563,0.45,0.702],"drift_ix":3,"trial_type":"two-step-trial","trial_index":56,"time_elapsed":386983,"internal_node_id":"0.0-35.0-0.0","task_version":"1.0","jspsych_version":"6.3.1","browser_interactions":0,"missing":false},{"state_1_ids":[1,0],"state_1_key":0,"state_1_choice":1,"state_1_rt":509.89999997615814,"transition":1,"state":1,"state_2_ids":[2,3],"state_2_key":1,"state_2_choice":3,"state_2_rt":788.8000000119209,"outcome":1,"rocket_colors":["#48a782","#955db9"],"planet_colors":["#5f6f81","#7f5d5d"],"screen_resolution":[1792,1120],"minimum_resolution":1,"trial":23,"drifts":[0.322,0.569,0.42,0.742],"drift_ix":3,"trial_type":"two-step-trial","trial_index":57,"time_elapsed":390288,"internal_node_id":"0.0-36.0-0.0","task_version":"1.0","jspsych_version":"6.3.1","browser_interactions":0,"missing":false},{"state_1_ids":[0,1],"state_1_key":0,"state_1_choice":0,"state_1_rt":543.1999999880791,"transition":1,"state":0,"state_2_ids":[0,1],"state_2_key":1,"state_2_choice":1,"state_2_rt":418.0999999642372,"outcome":0,"rocket_colors":["#48a782","#955db9"],"planet_colors":["#5f6f81","#7f5d5d"],"screen_resolution":[1792,1120],"minimum_resolution":1,"trial":24,"drifts":[0.298,0.566,0.43,0.74],"drift_ix":3,"trial_type":"two-step-trial","trial_index":58,"time_elapsed":393259,"internal_node_id":"0.0-37.0-0.0","task_version":"1.0","jspsych_version":"6.3.1","browser_interactions":0,"missing":false},{"state_1_ids":[1,0],"state_1_key":0,"state_1_choice":1,"state_1_rt":373.89999997615814,"transition":1,"state":1,"state_2_ids":[2,3],"state_2_key":1,"state_2_choice":3,"state_2_rt":1069.5999999642372,"outcome":1,"rocket_colors":["#48a782","#955db9"],"planet_colors":["#5f6f81","#7f5d5d"],"screen_resolution":[1792,1120],"minimum_resolution":1,"trial":25,"drifts":[0.293,0.552,0.394,0.669],"drift_ix":3,"trial_type":"two-step-trial","trial_index":59,"time_elapsed":396711,"internal_node_id":"0.0-38.0-0.0","task_version":"1.0","jspsych_version":"6.3.1","browser_interactions":0,"missing":false},{"state_1_ids":[1,0],"state_1_key":1,"state_1_choice":0,"state_1_rt":606.8000000119209,"transition":0,"state":1,"state_2_ids":[2,3],"state_2_key":1,"state_2_choice":3,"state_2_rt":746.8000000119209,"outcome":0,"rocket_colors":["#48a782","#955db9"],"planet_colors":["#5f6f81","#7f5d5d"],"screen_resolution":[1792,1120],"minimum_resolution":1,"trial":26,"drifts":[0.285,0.566,0.393,0.625],"drift_ix":3,"trial_type":"two-step-trial","trial_index":60,"time_elapsed":400075,"internal_node_id":"0.0-39.0-0.0","task_version":"1.0","jspsych_version":"6.3.1","browser_interactions":0,"missing":false},{"state_1_ids":[1,0],"state_1_key":1,"state_1_choice":0,"state_1_rt":281.5,"transition":1,"state":0,"state_2_ids":[0,1],"state_2_key":0,"state_2_choice":0,"state_2_rt":705.7000000476837,"outcome":1,"rocket_colors":["#48a782","#955db9"],"planet_colors":["#5f6f81","#7f5d5d"],"screen_resolution":[1792,1120],"minimum_resolution":1,"trial":27,"drifts":[0.303,0.511,0.422,0.685],"drift_ix":3,"trial_type":"two-step-trial","trial_index":61,"time_elapsed":403072,"internal_node_id":"0.0-40.0-0.0","task_version":"1.0","jspsych_version":"6.3.1","browser_interactions":0,"missing":false},{"state_1_ids":[1,0],"state_1_key":0,"state_1_choice":1,"state_1_rt":454.69999998807907,"transition":1,"state":1,"state_2_ids":[2,3],"state_2_key":1,"state_2_choice":3,"state_2_rt":298.60000002384186,"outcome":1,"rocket_colors":["#48a782","#955db9"],"planet_colors":["#5f6f81","#7f5d5d"],"screen_resolution":[1792,1120],"minimum_resolution":1,"trial":28,"drifts":[0.301,0.517,0.418,0.733],"drift_ix":3,"trial_type":"two-step-trial","trial_index":62,"time_elapsed":405829,"internal_node_id":"0.0-41.0-0.0","task_version":"1.0","jspsych_version":"6.3.1","browser_interactions":0,"missing":false},{"state_1_ids":[0,1],"state_1_key":0,"state_1_choice":0,"state_1_rt":425,"transition":1,"state":0,"state_2_ids":[0,1],"state_2_key":0,"state_2_choice":0,"state_2_rt":785.0999999642372,"outcome":0,"rocket_colors":["#48a782","#955db9"],"planet_colors":["#5f6f81","#7f5d5d"],"screen_resolution":[1792,1120],"minimum_resolution":1,"trial":29,"drifts":[0.345,0.508,0.373,0.733],"drift_ix":3,"trial_type":"two-step-trial","trial_index":63,"time_elapsed":409045,"internal_node_id":"0.0-42.0-0.0","task_version":"1.0","jspsych_version":"6.3.1","browser_interactions":0,"missing":false},{"state_1_ids":[1,0],"state_1_key":0,"state_1_choice":1,"state_1_rt":530.0999999642372,"transition":0,"state":0,"state_2_ids":[0,1],"state_2_key":0,"state_2_choice":0,"state_2_rt":510.80000001192093,"outcome":1,"rocket_colors":["#48a782","#955db9"],"planet_colors":["#5f6f81","#7f5d5d"],"screen_resolution":[1792,1120],"minimum_resolution":1,"trial":30,"drifts":[0.33,0.509,0.425,0.737],"drift_ix":3,"trial_type":"two-step-trial","trial_index":64,"time_elapsed":412090,"internal_node_id":"0.0-43.0-0.0","task_version":"1.0","jspsych_version":"6.3.1","browser_interactions":0,"missing":false},{"state_1_ids":[1,0],"state_1_key":0,"state_1_choice":1,"state_1_rt":723.0999999642372,"transition":0,"state":0,"state_2_ids":[0,1],"state_2_key":0,"state_2_choice":0,"state_2_rt":582.8999999761581,"outcome":0,"rocket_colors":["#48a782","#955db9"],"planet_colors":["#5f6f81","#7f5d5d"],"screen_resolution":[1792,1120],"minimum_resolution":1,"trial":31,"drifts":[0.33,0.475,0.428,0.706],"drift_ix":3,"trial_type":"two-step-trial","trial_index":65,"time_elapsed":415403,"internal_node_id":"0.0-44.0-0.0","task_version":"1.0","jspsych_version":"6.3.1","browser_interactions":0,"missing":false},{"state_1_ids":[1,0],"state_1_key":0,"state_1_choice":1,"state_1_rt":639.2000000476837,"transition":0,"state":0,"state_2_ids":[0,1],"state_2_key":0,"state_2_choice":0,"state_2_rt":492.4000000357628,"outcome":0,"rocket_colors":["#48a782","#955db9"],"planet_colors":["#5f6f81","#7f5d5d"],"screen_resolution":[1792,1120],"minimum_resolution":1,"trial":32,"drifts":[0.332,0.492,0.442,0.701],"drift_ix":3,"trial_type":"two-step-trial","trial_index":66,"time_elapsed":418544,"internal_node_id":"0.0-45.0-0.0","task_version":"1.0","jspsych_version":"6.3.1","browser_interactions":0,"missing":false},{"state_1_ids":[0,1],"state_1_key":null,"state_1_choice":null,"state_1_rt":null,"transition":1,"state":null,"state_2_ids":[0,1],"state_2_key":null,"state_2_choice":null,"state_2_rt":null,"outcome":null,"rocket_colors":["#48a782","#955db9"],"planet_colors":["#5f6f81","#7f5d5d"],"screen_resolution":[1792,1120],"minimum_resolution":1,"trial":33,"drifts":[0.306,0.461,0.388,0.724],"drift_ix":3,"trial_type":"two-step-trial","trial_index":67,"time_elapsed":433555,"internal_node_id":"0.0-46.0-0.0","task_version":"1.0","jspsych_version":"6.3.1","browser_interactions":0,"missing":true},{"state_1_ids":[0,1],"state_1_key":0,"state_1_choice":0,"state_1_rt":938.5,"transition":1,"state":0,"state_2_ids":[0,1],"state_2_key":0,"state_2_choice":0,"state_2_rt":666.0999999642372,"outcome":0,"rocket_colors":["#48a782","#955db9"],"planet_colors":["#5f6f81","#7f5d5d"],"screen_resolution":[1792,1120],"minimum_resolution":1,"trial":33,"drifts":[0.306,0.461,0.388,0.724],"drift_ix":3,"trial_type":"two-step-trial","trial_index":68,"time_elapsed":437162,"internal_node_id":"0.0-46.1-0.1","task_version":"1.0","jspsych_version":"6.3.1","browser_interactions":0,"missing":false},{"state_1_ids":[1,0],"state_1_key":0,"state_1_choice":1,"state_1_rt":432.19999998807907,"transition":1,"state":1,"state_2_ids":[2,3],"state_2_key":1,"state_2_choice":3,"state_2_rt":625.5,"outcome":1,"rocket_colors":["#48a782","#955db9"],"planet_colors":["#5f6f81","#7f5d5d"],"screen_resolution":[1792,1120],"minimum_resolution":1,"trial":34,"drifts":[0.335,0.445,0.418,0.721],"drift_ix":3,"trial_type":"two-step-trial","trial_index":69,"time_elapsed":440224,"internal_node_id":"0.0-47.0-0.0","task_version":"1.0","jspsych_version":"6.3.1","browser_interactions":0,"missing":false},{"state_1_ids":[1,0],"state_1_key":0,"state_1_choice":1,"state_1_rt":314.9000000357628,"transition":1,"state":1,"state_2_ids":[2,3],"state_2_key":1,"state_2_choice":3,"state_2_rt":363.7000000476837,"outcome":0,"rocket_colors":["#48a782","#955db9"],"planet_colors":["#5f6f81","#7f5d5d"],"screen_resolution":[1792,1120],"minimum_resolution":1,"trial":35,"drifts":[0.342,0.479,0.439,0.713],"drift_ix":3,"trial_type":"two-step-trial","trial_index":70,"time_elapsed":442912,"internal_node_id":"0.0-48.0-0.0","task_version":"1.0","jspsych_version":"6.3.1","browser_interactions":0,"missing":false},{"state_1_ids":[1,0],"state_1_key":0,"state_1_choice":1,"state_1_rt":263.5,"transition":1,"state":1,"state_2_ids":[2,3],"state_2_key":1,"state_2_choice":3,"state_2_rt":271.7000000476837,"outcome":1,"rocket_colors":["#48a782","#955db9"],"planet_colors":["#5f6f81","#7f5d5d"],"screen_resolution":[1792,1120],"minimum_resolution":1,"trial":36,"drifts":[0.323,0.462,0.51,0.711],"drift_ix":3,"trial_type":"two-step-trial","trial_index":71,"time_elapsed":445451,"internal_node_id":"0.0-49.0-0.0","task_version":"1.0","jspsych_version":"6.3.1","browser_interactions":0,"missing":false},{"state_1_ids":[0,1],"state_1_key":0,"state_1_choice":0,"state_1_rt":559.4000000357628,"transition":0,"state":1,"state_2_ids":[2,3],"state_2_key":1,"state_2_choice":3,"state_2_rt":314.80000001192093,"outcome":1,"rocket_colors":["#48a782","#955db9"],"planet_colors":["#5f6f81","#7f5d5d"],"screen_resolution":[1792,1120],"minimum_resolution":1,"trial":37,"drifts":[0.323,0.441,0.493,0.674],"drift_ix":3,"trial_type":"two-step-trial","trial_index":72,"time_elapsed":448330,"internal_node_id":"0.0-50.0-0.0","task_version":"1.0","jspsych_version":"6.3.1","browser_interactions":0,"missing":false},{"state_1_ids":[0,1],"state_1_key":0,"state_1_choice":0,"state_1_rt":319.2000000476837,"transition":1,"state":0,"state_2_ids":[0,1],"state_2_key":1,"state_2_choice":1,"state_2_rt":261,"outcome":0,"rocket_colors":["#48a782","#955db9"],"planet_colors":["#5f6f81","#7f5d5d"],"screen_resolution":[1792,1120],"minimum_resolution":1,"trial":38,"drifts":[0.361,0.419,0.482,0.648],"drift_ix":3,"trial_type":"two-step-trial","trial_index":73,"time_elapsed":450917,"internal_node_id":"0.0-51.0-0.0","task_version":"1.0","jspsych_version":"6.3.1","browser_interactions":0,"missing":false},{"state_1_ids":[0,1],"state_1_key":0,"state_1_choice":0,"state_1_rt":331.5,"transition":1,"state":0,"state_2_ids":[0,1],"state_2_key":0,"state_2_choice":0,"state_2_rt":236.19999998807907,"outcome":1,"rocket_colors":["#48a782","#955db9"],"planet_colors":["#5f6f81","#7f5d5d"],"screen_resolution":[1792,1120],"minimum_resolution":1,"trial":39,"drifts":[0.386,0.389,0.441,0.619],"drift_ix":3,"trial_type":"two-step-trial","trial_index":74,"time_elapsed":453493,"internal_node_id":"0.0-52.0-0.0","task_version":"1.0","jspsych_version":"6.3.1","browser_interactions":0,"missing":false},{"state_1_ids":[1,0],"state_1_key":0,"state_1_choice":1,"state_1_rt":312.69999998807907,"transition":0,"state":0,"state_2_ids":[0,1],"state_2_key":0,"state_2_choice":0,"state_2_rt":386.10000002384186,"outcome":1,"rocket_colors":["#48a782","#955db9"],"planet_colors":["#5f6f81","#7f5d5d"],"screen_resolution":[1792,1120],"minimum_resolution":1,"trial":40,"drifts":[0.384,0.374,0.431,0.605],"drift_ix":3,"trial_type":"two-step-trial","trial_index":75,"time_elapsed":456197,"internal_node_id":"0.0-53.0-0.0","task_version":"1.0","jspsych_version":"6.3.1","browser_interactions":0,"missing":false},{"state_1_ids":[0,1],"state_1_key":0,"state_1_choice":0,"state_1_rt":353.5999999642372,"transition":1,"state":0,"state_2_ids":[0,1],"state_2_key":0,"state_2_choice":0,"state_2_rt":254.39999997615814,"outcome":0,"rocket_colors":["#48a782","#955db9"],"planet_colors":["#5f6f81","#7f5d5d"],"screen_resolution":[1792,1120],"minimum_resolution":1,"trial":41,"drifts":[0.382,0.413,0.442,0.617],"drift_ix":3,"trial_type":"two-step-trial","trial_index":76,"time_elapsed":458810,"internal_node_id":"0.0-54.0-0.0","task_version":"1.0","jspsych_version":"6.3.1","browser_interactions":0,"missing":false},{"state_1_ids":[1,0],"state_1_key":0,"state_1_choice":1,"state_1_rt":261,"transition":0,"state":0,"state_2_ids":[0,1],"state_2_key":0,"state_2_choice":0,"state_2_rt":390.60000002384186,"outcome":0,"rocket_colors":["#48a782","#955db9"],"planet_colors":["#5f6f81","#7f5d5d"],"screen_resolution":[1792,1120],"minimum_resolution":1,"trial":42,"drifts":[0.398,0.39,0.424,0.641],"drift_ix":3,"trial_type":"two-step-trial","trial_index":77,"time_elapsed":461466,"internal_node_id":"0.0-55.0-0.0","task_version":"1.0","jspsych_version":"6.3.1","browser_interactions":0,"missing":false},{"state_1_ids":[1,0],"state_1_key":0,"state_1_choice":1,"state_1_rt":273.0999999642372,"transition":0,"state":0,"state_2_ids":[0,1],"state_2_key":0,"state_2_choice":0,"state_2_rt":274.5999999642372,"outcome":1,"rocket_colors":["#48a782","#955db9"],"planet_colors":["#5f6f81","#7f5d5d"],"screen_resolution":[1792,1120],"minimum_resolution":1,"trial":43,"drifts":[0.37,0.404,0.412,0.63],"drift_ix":3,"trial_type":"two-step-trial","trial_index":78,"time_elapsed":464021,"internal_node_id":"0.0-56.0-0.0","task_version":"1.0","jspsych_version":"6.3.1","browser_interactions":0,"missing":false},{"state_1_ids":[1,0],"state_1_key":1,"state_1_choice":0,"state_1_rt":260,"transition":0,"state":1,"state_2_ids":[2,3],"state_2_key":1,"state_2_choice":3,"state_2_rt":418.2000000476837,"outcome":1,"rocket_colors":["#48a782","#955db9"],"planet_colors":["#5f6f81","#7f5d5d"],"screen_resolution":[1792,1120],"minimum_resolution":1,"trial":44,"drifts":[0.417,0.444,0.403,0.613],"drift_ix":3,"trial_type":"two-step-trial","trial_index":79,"time_elapsed":466708,"internal_node_id":"0.0-57.0-0.0","task_version":"1.0","jspsych_version":"6.3.1","browser_interactions":0,"missing":false},{"state_1_ids":[1,0],"state_1_key":1,"state_1_choice":0,"state_1_rt":300.7000000476837,"transition":1,"state":0,"state_2_ids":[0,1],"state_2_key":0,"state_2_choice":0,"state_2_rt":712.9000000357628,"outcome":0,"rocket_colors":["#48a782","#955db9"],"planet_colors":["#5f6f81","#7f5d5d"],"screen_resolution":[1792,1120],"minimum_resolution":1,"trial":45,"drifts":[0.439,0.427,0.37,0.612],"drift_ix":3,"trial_type":"two-step-trial","trial_index":80,"time_elapsed":469728,"internal_node_id":"0.0-58.0-0.0","task_version":"1.0","jspsych_version":"6.3.1","browser_interactions":0,"missing":false},{"state_1_ids":[0,1],"state_1_key":1,"state_1_choice":1,"state_1_rt":331.5999999642372,"transition":1,"state":1,"state_2_ids":[2,3],"state_2_key":1,"state_2_choice":3,"state_2_rt":327.69999998807907,"outcome":0,"rocket_colors":["#48a782","#955db9"],"planet_colors":["#5f6f81","#7f5d5d"],"screen_resolution":[1792,1120],"minimum_resolution":1,"trial":46,"drifts":[0.459,0.416,0.369,0.621],"drift_ix":3,"trial_type":"two-step-trial","trial_index":81,"time_elapsed":472394,"internal_node_id":"0.0-59.0-0.0","task_version":"1.0","jspsych_version":"6.3.1","browser_interactions":0,"missing":false},{"state_1_ids":[1,0],"state_1_key":1,"state_1_choice":0,"state_1_rt":484.80000001192093,"transition":1,"state":0,"state_2_ids":[0,1],"state_2_key":0,"state_2_choice":0,"state_2_rt":482.9000000357628,"outcome":0,"rocket_colors":["#48a782","#955db9"],"planet_colors":["#5f6f81","#7f5d5d"],"screen_resolution":[1792,1120],"minimum_resolution":1,"trial":47,"drifts":[0.475,0.425,0.384,0.6],"drift_ix":3,"trial_type":"two-step-trial","trial_index":82,"time_elapsed":475365,"internal_node_id":"0.0-60.0-0.0","task_version":"1.0","jspsych_version":"6.3.1","browser_interactions":0,"missing":false},{"state_1_ids":[1,0],"state_1_key":1,"state_1_choice":0,"state_1_rt":406.2999999523163,"transition":1,"state":0,"state_2_ids":[0,1],"state_2_key":1,"state_2_choice":1,"state_2_rt":462.39999997615814,"outcome":0,"rocket_colors":["#48a782","#955db9"],"planet_colors":["#5f6f81","#7f5d5d"],"screen_resolution":[1792,1120],"minimum_resolution":1,"trial":48,"drifts":[0.438,0.4,0.412,0.606],"drift_ix":3,"trial_type":"two-step-trial","trial_index":83,"time_elapsed":478240,"internal_node_id":"0.0-61.0-0.0","task_version":"1.0","jspsych_version":"6.3.1","browser_interactions":0,"missing":false},{"state_1_ids":[0,1],"state_1_key":1,"state_1_choice":1,"state_1_rt":463.19999998807907,"transition":0,"state":0,"state_2_ids":[0,1],"state_2_key":1,"state_2_choice":1,"state_2_rt":579.1999999880791,"outcome":1,"rocket_colors":["#48a782","#955db9"],"planet_colors":["#5f6f81","#7f5d5d"],"screen_resolution":[1792,1120],"minimum_resolution":1,"trial":49,"drifts":[0.47,0.408,0.421,0.598],"drift_ix":3,"trial_type":"two-step-trial","trial_index":84,"time_elapsed":481290,"internal_node_id":"0.0-62.0-0.0","task_version":"1.0","jspsych_version":"6.3.1","browser_interactions":0,"missing":false},{"state_1_ids":[1,0],"state_1_key":1,"state_1_choice":0,"state_1_rt":448.19999998807907,"transition":0,"state":1,"state_2_ids":[2,3],"state_2_key":0,"state_2_choice":2,"state_2_rt":1060.1000000238419,"outcome":0,"rocket_colors":["#48a782","#955db9"],"planet_colors":["#5f6f81","#7f5d5d"],"screen_resolution":[1792,1120],"minimum_resolution":1,"trial":50,"drifts":[0.41,0.42,0.42,0.6],"drift_ix":3,"trial_type":"two-step-trial","trial_index":85,"time_elapsed":484805,"internal_node_id":"0.0-63.0-0.0","task_version":"1.0","jspsych_version":"6.3.1","browser_interactions":0,"missing":false},{"state_1_ids":[0,1],"state_1_key":0,"state_1_choice":0,"state_1_rt":495.0999999642372,"transition":1,"state":0,"state_2_ids":[0,1],"state_2_key":1,"state_2_choice":1,"state_2_rt":1068.5,"outcome":0,"rocket_colors":["#48a782","#955db9"],"planet_colors":["#5f6f81","#7f5d5d"],"screen_resolution":[1792,1120],"minimum_resolution":1,"trial":51,"drifts":[0.412,0.415,0.461,0.564],"drift_ix":3,"trial_type":"two-step-trial","trial_index":86,"time_elapsed":488373,"internal_node_id":"0.0-64.0-0.0","task_version":"1.0","jspsych_version":"6.3.1","browser_interactions":0,"missing":false},{"state_1_ids":[0,1],"state_1_key":0,"state_1_choice":0,"state_1_rt":860.6999999880791,"transition":1,"state":0,"state_2_ids":[0,1],"state_2_key":1,"state_2_choice":1,"state_2_rt":467.10000002384186,"outcome":1,"rocket_colors":["#48a782","#955db9"],"planet_colors":["#5f6f81","#7f5d5d"],"screen_resolution":[1792,1120],"minimum_resolution":1,"trial":52,"drifts":[0.424,0.4,0.482,0.568],"drift_ix":3,"trial_type":"two-step-trial","trial_index":87,"time_elapsed":491706,"internal_node_id":"0.0-65.0-0.0","task_version":"1.0","jspsych_version":"6.3.1","browser_interactions":0,"missing":false},{"state_1_ids":[1,0],"state_1_key":0,"state_1_choice":1,"state_1_rt":717.8000000119209,"transition":0,"state":0,"state_2_ids":[0,1],"state_2_key":1,"state_2_choice":1,"state_2_rt":468.39999997615814,"outcome":1,"rocket_colors":["#48a782","#955db9"],"planet_colors":["#5f6f81","#7f5d5d"],"screen_resolution":[1792,1120],"minimum_resolution":1,"trial":53,"drifts":[0.449,0.35,0.448,0.582],"drift_ix":3,"trial_type":"two-step-trial","trial_index":88,"time_elapsed":494895,"internal_node_id":"0.0-66.0-0.0","task_version":"1.0","jspsych_version":"6.3.1","browser_interactions":0,"missing":false},{"state_1_ids":[1,0],"state_1_key":0,"state_1_choice":1,"state_1_rt":625,"transition":1,"state":1,"state_2_ids":[2,3],"state_2_key":1,"state_2_choice":3,"state_2_rt":313,"outcome":0,"rocket_colors":["#48a782","#955db9"],"planet_colors":["#5f6f81","#7f5d5d"],"screen_resolution":[1792,1120],"minimum_resolution":1,"trial":54,"drifts":[0.409,0.381,0.436,0.573],"drift_ix":3,"trial_type":"two-step-trial","trial_index":89,"time_elapsed":497839,"internal_node_id":"0.0-67.0-0.0","task_version":"1.0","jspsych_version":"6.3.1","browser_interactions":0,"missing":false},{"state_1_ids":[0,1],"state_1_key":1,"state_1_choice":1,"state_1_rt":562.7999999523163,"transition":1,"state":1,"state_2_ids":[2,3],"state_2_key":0,"state_2_choice":2,"state_2_rt":490.9000000357628,"outcome":0,"rocket_colors":["#48a782","#955db9"],"planet_colors":["#5f6f81","#7f5d5d"],"screen_resolution":[1792,1120],"minimum_resolution":1,"trial":55,"drifts":[0.408,0.407,0.428,0.609],"drift_ix":3,"trial_type":"two-step-trial","trial_index":90,"time_elapsed":500901,"internal_node_id":"0.0-68.0-0.0","task_version":"1.0","jspsych_version":"6.3.1","browser_interactions":0,"missing":false},{"state_1_ids":[1,0],"state_1_key":1,"state_1_choice":0,"state_1_rt":385.5,"transition":1,"state":0,"state_2_ids":[0,1],"state_2_key":0,"state_2_choice":0,"state_2_rt":354.19999998807907,"outcome":0,"rocket_colors":["#48a782","#955db9"],"planet_colors":["#5f6f81","#7f5d5d"],"screen_resolution":[1792,1120],"minimum_resolution":1,"trial":56,"drifts":[0.417,0.354,0.381,0.598],"drift_ix":3,"trial_type":"two-step-trial","trial_index":91,"time_elapsed":503647,"internal_node_id":"0.0-69.0-0.0","task_version":"1.0","jspsych_version":"6.3.1","browser_interactions":0,"missing":false},{"state_1_ids":[0,1],"state_1_key":1,"state_1_choice":1,"state_1_rt":318.69999998807907,"transition":0,"state":0,"state_2_ids":[0,1],"state_2_key":1,"state_2_choice":1,"state_2_rt":475.30000001192093,"outcome":0,"rocket_colors":["#48a782","#955db9"],"planet_colors":["#5f6f81","#7f5d5d"],"screen_resolution":[1792,1120],"minimum_resolution":1,"trial":57,"drifts":[0.462,0.35,0.396,0.55],"drift_ix":3,"trial_type":"two-step-trial","trial_index":92,"time_elapsed":506447,"internal_node_id":"0.0-70.0-0.0","task_version":"1.0","jspsych_version":"6.3.1","browser_interactions":0,"missing":false},{"state_1_ids":[1,0],"state_1_key":1,"state_1_choice":0,"state_1_rt":346.5,"transition":1,"state":0,"state_2_ids":[0,1],"state_2_key":1,"state_2_choice":1,"state_2_rt":428.89999997615814,"outcome":0,"rocket_colors":["#48a782","#955db9"],"planet_colors":["#5f6f81","#7f5d5d"],"screen_resolution":[1792,1120],"minimum_resolution":1,"trial":58,"drifts":[0.474,0.332,0.382,0.55],"drift_ix":3,"trial_type":"two-step-trial","trial_index":93,"time_elapsed":509226,"internal_node_id":"0.0-71.0-0.0","task_version":"1.0","jspsych_version":"6.3.1","browser_interactions":0,"missing":false},{"state_1_ids":[0,1],"state_1_key":1,"state_1_choice":1,"state_1_rt":504.69999998807907,"transition":1,"state":1,"state_2_ids":[2,3],"state_2_key":1,"state_2_choice":3,"state_2_rt":1456.6000000238419,"outcome":1,"rocket_colors":["#48a782","#955db9"],"planet_colors":["#5f6f81","#7f5d5d"],"screen_resolution":[1792,1120],"minimum_resolution":1,"trial":59,"drifts":[0.462,0.326,0.376,0.559],"drift_ix":3,"trial_type":"two-step-trial","trial_index":94,"time_elapsed":513194,"internal_node_id":"0.0-72.0-0.0","task_version":"1.0","jspsych_version":"6.3.1","browser_interactions":0,"missing":false},{"state_1_ids":[1,0],"state_1_key":1,"state_1_choice":0,"state_1_rt":333.19999998807907,"transition":1,"state":0,"state_2_ids":[0,1],"state_2_key":1,"state_2_choice":1,"state_2_rt":330.60000002384186,"outcome":0,"rocket_colors":["#48a782","#955db9"],"planet_colors":["#5f6f81","#7f5d5d"],"screen_resolution":[1792,1120],"minimum_resolution":1,"trial":60,"drifts":[0.432,0.348,0.372,0.56],"drift_ix":3,"trial_type":"two-step-trial","trial_index":95,"time_elapsed":515866,"internal_node_id":"0.0-73.0-0.0","task_version":"1.0","jspsych_version":"6.3.1","browser_interactions":0,"missing":false},{"state_1_ids":[0,1],"state_1_key":1,"state_1_choice":1,"state_1_rt":421.69999998807907,"transition":1,"state":1,"state_2_ids":[2,3],"state_2_key":1,"state_2_choice":3,"state_2_rt":591.5999999642372,"outcome":1,"rocket_colors":["#48a782","#955db9"],"planet_colors":["#5f6f81","#7f5d5d"],"screen_resolution":[1792,1120],"minimum_resolution":1,"trial":61,"drifts":[0.43,0.371,0.389,0.587],"drift_ix":3,"trial_type":"two-step-trial","trial_index":96,"time_elapsed":518885,"internal_node_id":"0.0-74.0-0.0","task_version":"1.0","jspsych_version":"6.3.1","browser_interactions":0,"missing":false},{"state_1_ids":[0,1],"state_1_key":1,"state_1_choice":1,"state_1_rt":836.1000000238419,"transition":0,"state":0,"state_2_ids":[0,1],"state_2_key":1,"state_2_choice":1,"state_2_rt":483.30000001192093,"outcome":0,"rocket_colors":["#48a782","#955db9"],"planet_colors":["#5f6f81","#7f5d5d"],"screen_resolution":[1792,1120],"minimum_resolution":1,"trial":62,"drifts":[0.426,0.371,0.382,0.585],"drift_ix":3,"trial_type":"two-step-trial","trial_index":97,"time_elapsed":522207,"internal_node_id":"0.0-75.0-0.0","task_version":"1.0","jspsych_version":"6.3.1","browser_interactions":0,"missing":false},{"state_1_ids":[0,1],"state_1_key":1,"state_1_choice":1,"state_1_rt":399.69999998807907,"transition":1,"state":1,"state_2_ids":[2,3],"state_2_key":0,"state_2_choice":2,"state_2_rt":419.2999999523163,"outcome":1,"rocket_colors":["#48a782","#955db9"],"planet_colors":["#5f6f81","#7f5d5d"],"screen_resolution":[1792,1120],"minimum_resolution":1,"trial":63,"drifts":[0.431,0.358,0.396,0.59],"drift_ix":3,"trial_type":"two-step-trial","trial_index":98,"time_elapsed":525034,"internal_node_id":"0.0-76.0-0.0","task_version":"1.0","jspsych_version":"6.3.1","browser_interactions":0,"missing":false},{"state_1_ids":[1,0],"state_1_key":1,"state_1_choice":0,"state_1_rt":596.3999999761581,"transition":0,"state":1,"state_2_ids":[2,3],"state_2_key":0,"state_2_choice":2,"state_2_rt":328.69999998807907,"outcome":1,"rocket_colors":["#48a782","#955db9"],"planet_colors":["#5f6f81","#7f5d5d"],"screen_resolution":[1792,1120],"minimum_resolution":1,"trial":64,"drifts":[0.392,0.299,0.415,0.581],"drift_ix":3,"trial_type":"two-step-trial","trial_index":99,"time_elapsed":527967,"internal_node_id":"0.0-77.0-0.0","task_version":"1.0","jspsych_version":"6.3.1","browser_interactions":0,"missing":false},{"state_1_ids":[0,1],"state_1_key":1,"state_1_choice":1,"state_1_rt":295.5999999642372,"transition":1,"state":1,"state_2_ids":[2,3],"state_2_key":0,"state_2_choice":2,"state_2_rt":340.10000002384186,"outcome":0,"rocket_colors":["#48a782","#955db9"],"planet_colors":["#5f6f81","#7f5d5d"],"screen_resolution":[1792,1120],"minimum_resolution":1,"trial":65,"drifts":[0.371,0.329,0.405,0.589],"drift_ix":3,"trial_type":"two-step-trial","trial_index":100,"time_elapsed":530606,"internal_node_id":"0.0-78.0-0.0","task_version":"1.0","jspsych_version":"6.3.1","browser_interactions":0,"missing":false},{"state_1_ids":[0,1],"state_1_key":1,"state_1_choice":1,"state_1_rt":390.60000002384186,"transition":0,"state":0,"state_2_ids":[0,1],"state_2_key":1,"state_2_choice":1,"state_2_rt":708.0999999642372,"outcome":1,"rocket_colors":["#48a782","#955db9"],"planet_colors":["#5f6f81","#7f5d5d"],"screen_resolution":[1792,1120],"minimum_resolution":1,"trial":66,"drifts":[0.354,0.287,0.413,0.591],"drift_ix":3,"trial_type":"two-step-trial","trial_index":101,"time_elapsed":533712,"internal_node_id":"0.0-79.0-0.0","task_version":"1.0","jspsych_version":"6.3.1","browser_interactions":0,"missing":false},{"state_1_ids":[0,1],"state_1_key":1,"state_1_choice":1,"state_1_rt":282.80000001192093,"transition":1,"state":1,"state_2_ids":[2,3],"state_2_key":0,"state_2_choice":2,"state_2_rt":971.3000000119209,"outcome":0,"rocket_colors":["#48a782","#955db9"],"planet_colors":["#5f6f81","#7f5d5d"],"screen_resolution":[1792,1120],"minimum_resolution":1,"trial":67,"drifts":[0.398,0.254,0.426,0.603],"drift_ix":3,"trial_type":"two-step-trial","trial_index":102,"time_elapsed":536970,"internal_node_id":"0.0-80.0-0.0","task_version":"1.0","jspsych_version":"6.3.1","browser_interactions":0,"missing":false},{"state_1_ids":[0,1],"state_1_key":1,"state_1_choice":1,"state_1_rt":394,"transition":0,"state":0,"state_2_ids":[0,1],"state_2_key":1,"state_2_choice":1,"state_2_rt":660.3999999761581,"outcome":0,"rocket_colors":["#48a782","#955db9"],"planet_colors":["#5f6f81","#7f5d5d"],"screen_resolution":[1792,1120],"minimum_resolution":1,"trial":68,"drifts":[0.425,0.254,0.441,0.582],"drift_ix":3,"trial_type":"two-step-trial","trial_index":103,"time_elapsed":540031,"internal_node_id":"0.0-81.0-0.0","task_version":"1.0","jspsych_version":"6.3.1","browser_interactions":0,"missing":false},{"state_1_ids":[1,0],"state_1_key":1,"state_1_choice":0,"state_1_rt":294.60000002384186,"transition":1,"state":0,"state_2_ids":[0,1],"state_2_key":0,"state_2_choice":0,"state_2_rt":515.8999999761581,"outcome":0,"rocket_colors":["#48a782","#955db9"],"planet_colors":["#5f6f81","#7f5d5d"],"screen_resolution":[1792,1120],"minimum_resolution":1,"trial":69,"drifts":[0.474,0.287,0.392,0.531],"drift_ix":3,"trial_type":"two-step-trial","trial_index":104,"time_elapsed":542847,"internal_node_id":"0.0-82.0-0.0","task_version":"1.0","jspsych_version":"6.3.1","browser_interactions":0,"missing":false},{"state_1_ids":[1,0],"state_1_key":1,"state_1_choice":0,"state_1_rt":267.69999998807907,"transition":1,"state":0,"state_2_ids":[0,1],"state_2_key":1,"state_2_choice":1,"state_2_rt":520.6000000238419,"outcome":1,"rocket_colors":["#48a782","#955db9"],"planet_colors":["#5f6f81","#7f5d5d"],"screen_resolution":[1792,1120],"minimum_resolution":1,"trial":70,"drifts":[0.51,0.279,0.378,0.487],"drift_ix":3,"trial_type":"two-step-trial","trial_index":105,"time_elapsed":545642,"internal_node_id":"0.0-83.0-0.0","task_version":"1.0","jspsych_version":"6.3.1","browser_interactions":0,"missing":false},{"state_1_ids":[1,0],"state_1_key":1,"state_1_choice":0,"state_1_rt":371.10000002384186,"transition":1,"state":0,"state_2_ids":[0,1],"state_2_key":1,"state_2_choice":1,"state_2_rt":444.89999997615814,"outcome":0,"rocket_colors":["#48a782","#955db9"],"planet_colors":["#5f6f81","#7f5d5d"],"screen_resolution":[1792,1120],"minimum_resolution":1,"trial":71,"drifts":[0.506,0.269,0.381,0.477],"drift_ix":3,"trial_type":"two-step-trial","trial_index":106,"time_elapsed":548463,"internal_node_id":"0.0-84.0-0.0","task_version":"1.0","jspsych_version":"6.3.1","browser_interactions":0,"missing":false},{"state_1_ids":[1,0],"state_1_key":1,"state_1_choice":0,"state_1_rt":328.89999997615814,"transition":1,"state":0,"state_2_ids":[0,1],"state_2_key":1,"state_2_choice":1,"state_2_rt":267.10000002384186,"outcome":1,"rocket_colors":["#48a782","#955db9"],"planet_colors":["#5f6f81","#7f5d5d"],"screen_resolution":[1792,1120],"minimum_resolution":1,"trial":72,"drifts":[0.541,0.263,0.39,0.466],"drift_ix":3,"trial_type":"two-step-trial","trial_index":107,"time_elapsed":551066,"internal_node_id":"0.0-85.0-0.0","task_version":"1.0","jspsych_version":"6.3.1","browser_interactions":0,"missing":false},{"state_1_ids":[0,1],"state_1_key":1,"state_1_choice":1,"state_1_rt":393.2000000476837,"transition":1,"state":1,"state_2_ids":[2,3],"state_2_key":1,"state_2_choice":3,"state_2_rt":389.89999997615814,"outcome":1,"rocket_colors":["#48a782","#955db9"],"planet_colors":["#5f6f81","#7f5d5d"],"screen_resolution":[1792,1120],"minimum_resolution":1,"trial":73,"drifts":[0.49,0.271,0.373,0.466],"drift_ix":3,"trial_type":"two-step-trial","trial_index":108,"time_elapsed":553855,"internal_node_id":"0.0-86.0-0.0","task_version":"1.0","jspsych_version":"6.3.1","browser_interactions":0,"missing":false},{"state_1_ids":[0,1],"state_1_key":1,"state_1_choice":1,"state_1_rt":225.39999997615814,"transition":1,"state":1,"state_2_ids":[2,3],"state_2_key":1,"state_2_choice":3,"state_2_rt":309.69999998807907,"outcome":1,"rocket_colors":["#48a782","#955db9"],"planet_colors":["#5f6f81","#7f5d5d"],"screen_resolution":[1792,1120],"minimum_resolution":1,"trial":74,"drifts":[0.512,0.277,0.41,0.457],"drift_ix":3,"trial_type":"two-step-trial","trial_index":109,"time_elapsed":556399,"internal_node_id":"0.0-87.0-0.0","task_version":"1.0","jspsych_version":"6.3.1","browser_interactions":0,"missing":false},{"state_1_ids":[0,1],"state_1_key":1,"state_1_choice":1,"state_1_rt":263.80000001192093,"transition":0,"state":0,"state_2_ids":[0,1],"state_2_key":1,"state_2_choice":1,"state_2_rt":620.1999999880791,"outcome":0,"rocket_colors":["#48a782","#955db9"],"planet_colors":["#5f6f81","#7f5d5d"],"screen_resolution":[1792,1120],"minimum_resolution":1,"trial":75,"drifts":[0.537,0.271,0.42,0.478],"drift_ix":3,"trial_type":"two-step-trial","trial_index":110,"time_elapsed":559290,"internal_node_id":"0.0-88.0-0.0","task_version":"1.0","jspsych_version":"6.3.1","browser_interactions":0,"missing":false},{"state_1_ids":[1,0],"state_1_key":1,"state_1_choice":0,"state_1_rt":577.5,"transition":0,"state":1,"state_2_ids":[2,3],"state_2_key":1,"state_2_choice":3,"state_2_rt":454.7999999523163,"outcome":0,"rocket_colors":["#48a782","#955db9"],"planet_colors":["#5f6f81","#7f5d5d"],"screen_resolution":[1792,1120],"minimum_resolution":1,"trial":76,"drifts":[0.539,0.257,0.455,0.448],"drift_ix":3,"trial_type":"two-step-trial","trial_index":111,"time_elapsed":562329,"internal_node_id":"0.0-89.0-0.0","task_version":"1.0","jspsych_version":"6.3.1","browser_interactions":0,"missing":false},{"state_1_ids":[0,1],"state_1_key":1,"state_1_choice":1,"state_1_rt":197.89999997615814,"transition":1,"state":1,"state_2_ids":[2,3],"state_2_key":1,"state_2_choice":3,"state_2_rt":396.9000000357628,"outcome":0,"rocket_colors":["#48a782","#955db9"],"planet_colors":["#5f6f81","#7f5d5d"],"screen_resolution":[1792,1120],"minimum_resolution":1,"trial":77,"drifts":[0.56,0.261,0.459,0.423],"drift_ix":3,"trial_type":"two-step-trial","trial_index":112,"time_elapsed":564932,"internal_node_id":"0.0-90.0-0.0","task_version":"1.0","jspsych_version":"6.3.1","browser_interactions":0,"missing":false},{"state_1_ids":[1,0],"state_1_key":1,"state_1_choice":0,"state_1_rt":444.30000001192093,"transition":1,"state":0,"state_2_ids":[0,1],"state_2_key":1,"state_2_choice":1,"state_2_rt":441.0999999642372,"outcome":0,"rocket_colors":["#48a782","#955db9"],"planet_colors":["#5f6f81","#7f5d5d"],"screen_resolution":[1792,1120],"minimum_resolution":1,"trial":78,"drifts":[0.543,0.26,0.436,0.441],"drift_ix":3,"trial_type":"two-step-trial","trial_index":113,"time_elapsed":567823,"internal_node_id":"0.0-91.0-0.0","task_version":"1.0","jspsych_version":"6.3.1","browser_interactions":0,"missing":false},{"state_1_ids":[1,0],"state_1_key":1,"state_1_choice":0,"state_1_rt":56.5,"transition":1,"state":0,"state_2_ids":[0,1],"state_2_key":0,"state_2_choice":0,"state_2_rt":372.7999999523163,"outcome":0,"rocket_colors":["#48a782","#955db9"],"planet_colors":["#5f6f81","#7f5d5d"],"screen_resolution":[1792,1120],"minimum_resolution":1,"trial":79,"drifts":[0.536,0.268,0.465,0.475],"drift_ix":3,"trial_type":"two-step-trial","trial_index":114,"time_elapsed":570259,"internal_node_id":"0.0-92.0-0.0","task_version":"1.0","jspsych_version":"6.3.1","browser_interactions":0,"missing":false},{"state_1_ids":[1,0],"state_1_key":1,"state_1_choice":0,"state_1_rt":228.80000001192093,"transition":1,"state":0,"state_2_ids":[0,1],"state_2_key":1,"state_2_choice":1,"state_2_rt":316.80000001192093,"outcome":0,"rocket_colors":["#48a782","#955db9"],"planet_colors":["#5f6f81","#7f5d5d"],"screen_resolution":[1792,1120],"minimum_resolution":1,"trial":80,"drifts":[0.534,0.324,0.464,0.482],"drift_ix":3,"trial_type":"two-step-trial","trial_index":115,"time_elapsed":572810,"internal_node_id":"0.0-93.0-0.0","task_version":"1.0","jspsych_version":"6.3.1","browser_interactions":0,"missing":false},{"state_1_ids":[0,1],"state_1_key":1,"state_1_choice":1,"state_1_rt":219.20000004768372,"transition":1,"state":1,"state_2_ids":[2,3],"state_2_key":1,"state_2_choice":3,"state_2_rt":324.80000001192093,"outcome":1,"rocket_colors":["#48a782","#955db9"],"planet_colors":["#5f6f81","#7f5d5d"],"screen_resolution":[1792,1120],"minimum_resolution":1,"trial":81,"drifts":[0.553,0.309,0.445,0.465],"drift_ix":3,"trial_type":"two-step-trial","trial_index":116,"time_elapsed":575359,"internal_node_id":"0.0-94.0-0.0","task_version":"1.0","jspsych_version":"6.3.1","browser_interactions":0,"missing":false},{"state_1_ids":[1,0],"state_1_key":1,"state_1_choice":0,"state_1_rt":476.19999998807907,"transition":1,"state":0,"state_2_ids":[0,1],"state_2_key":1,"state_2_choice":1,"state_2_rt":392.19999998807907,"outcome":0,"rocket_colors":["#48a782","#955db9"],"planet_colors":["#5f6f81","#7f5d5d"],"screen_resolution":[1792,1120],"minimum_resolution":1,"trial":82,"drifts":[0.563,0.291,0.404,0.437],"drift_ix":3,"trial_type":"two-step-trial","trial_index":117,"time_elapsed":578234,"internal_node_id":"0.0-95.0-0.0","task_version":"1.0","jspsych_version":"6.3.1","browser_interactions":0,"missing":false},{"state_1_ids":[1,0],"state_1_key":1,"state_1_choice":0,"state_1_rt":970.6000000238419,"transition":0,"state":1,"state_2_ids":[2,3],"state_2_key":1,"state_2_choice":3,"state_2_rt":3760.699999988079,"outcome":0,"rocket_colors":["#48a782","#955db9"],"planet_colors":["#5f6f81","#7f5d5d"],"screen_resolution":[1792,1120],"minimum_resolution":1,"trial":83,"drifts":[0.563,0.298,0.442,0.474],"drift_ix":3,"trial_type":"two-step-trial","trial_index":118,"time_elapsed":584970,"internal_node_id":"0.0-96.0-0.0","task_version":"1.0","jspsych_version":"6.3.1","browser_interactions":2,"missing":false},{"state_1_ids":[0,1],"state_1_key":1,"state_1_choice":1,"state_1_rt":599.1000000238419,"transition":1,"state":1,"state_2_ids":[2,3],"state_2_key":0,"state_2_choice":2,"state_2_rt":526.8999999761581,"outcome":0,"rocket_colors":["#48a782","#955db9"],"planet_colors":["#5f6f81","#7f5d5d"],"screen_resolution":[1792,1120],"minimum_resolution":1,"trial":84,"drifts":[0.591,0.316,0.454,0.449],"drift_ix":3,"trial_type":"two-step-trial","trial_index":119,"time_elapsed":588101,"internal_node_id":"0.0-97.0-0.0","task_version":"1.0","jspsych_version":"6.3.1","browser_interactions":0,"missing":false},{"state_1_ids":[0,1],"state_1_key":1,"state_1_choice":1,"state_1_rt":286.7999999523163,"transition":1,"state":1,"state_2_ids":[2,3],"state_2_key":1,"state_2_choice":3,"state_2_rt":234.5,"outcome":1,"rocket_colors":["#48a782","#955db9"],"planet_colors":["#5f6f81","#7f5d5d"],"screen_resolution":[1792,1120],"minimum_resolution":1,"trial":85,"drifts":[0.57,0.324,0.436,0.421],"drift_ix":3,"trial_type":"two-step-trial","trial_index":120,"time_elapsed":590628,"internal_node_id":"0.0-98.0-0.0","task_version":"1.0","jspsych_version":"6.3.1","browser_interactions":0,"missing":false},{"state_1_ids":[1,0],"state_1_key":1,"state_1_choice":0,"state_1_rt":305.80000001192093,"transition":1,"state":0,"state_2_ids":[0,1],"state_2_key":1,"state_2_choice":1,"state_2_rt":544.5,"outcome":0,"rocket_colors":["#48a782","#955db9"],"planet_colors":["#5f6f81","#7f5d5d"],"screen_resolution":[1792,1120],"minimum_resolution":1,"trial":86,"drifts":[0.531,0.336,0.408,0.378],"drift_ix":3,"trial_type":"two-step-trial","trial_index":121,"time_elapsed":593485,"internal_node_id":"0.0-99.0-0.0","task_version":"1.0","jspsych_version":"6.3.1","browser_interactions":0,"missing":false},{"state_1_ids":[0,1],"state_1_key":1,"state_1_choice":1,"state_1_rt":445.30000001192093,"transition":1,"state":1,"state_2_ids":[2,3],"state_2_key":0,"state_2_choice":2,"state_2_rt":382.4000000357628,"outcome":1,"rocket_colors":["#48a782","#955db9"],"planet_colors":["#5f6f81","#7f5d5d"],"screen_resolution":[1792,1120],"minimum_resolution":1,"trial":87,"drifts":[0.529,0.309,0.432,0.403],"drift_ix":3,"trial_type":"two-step-trial","trial_index":122,"time_elapsed":596320,"internal_node_id":"0.0-100.0-0.0","task_version":"1.0","jspsych_version":"6.3.1","browser_interactions":0,"missing":false},{"state_1_ids":[1,0],"state_1_key":1,"state_1_choice":0,"state_1_rt":319.2999999523163,"transition":1,"state":0,"state_2_ids":[0,1],"state_2_key":0,"state_2_choice":0,"state_2_rt":385,"outcome":1,"rocket_colors":["#48a782","#955db9"],"planet_colors":["#5f6f81","#7f5d5d"],"screen_resolution":[1792,1120],"minimum_resolution":1,"trial":88,"drifts":[0.532,0.296,0.431,0.406],"drift_ix":3,"trial_type":"two-step-trial","trial_index":123,"time_elapsed":599028,"internal_node_id":"0.0-101.0-0.0","task_version":"1.0","jspsych_version":"6.3.1","browser_interactions":0,"missing":false},{"state_1_ids":[0,1],"state_1_key":1,"state_1_choice":1,"state_1_rt":269.9000000357628,"transition":0,"state":0,"state_2_ids":[0,1],"state_2_key":0,"state_2_choice":0,"state_2_rt":382.5999999642372,"outcome":1,"rocket_colors":["#48a782","#955db9"],"planet_colors":["#5f6f81","#7f5d5d"],"screen_resolution":[1792,1120],"minimum_resolution":1,"trial":89,"drifts":[0.553,0.328,0.456,0.411],"drift_ix":3,"trial_type":"two-step-trial","trial_index":124,"time_elapsed":601690,"internal_node_id":"0.0-102.0-0.0","task_version":"1.0","jspsych_version":"6.3.1","browser_interactions":0,"missing":false},{"state_1_ids":[1,0],"state_1_key":1,"state_1_choice":0,"state_1_rt":283.89999997615814,"transition":0,"state":1,"state_2_ids":[2,3],"state_2_key":0,"state_2_choice":2,"state_2_rt":423,"outcome":1,"rocket_colors":["#48a782","#955db9"],"planet_colors":["#5f6f81","#7f5d5d"],"screen_resolution":[1792,1120],"minimum_resolution":1,"trial":90,"drifts":[0.542,0.3,0.493,0.409],"drift_ix":3,"trial_type":"two-step-trial","trial_index":125,"time_elapsed":604404,"internal_node_id":"0.0-103.0-0.0","task_version":"1.0","jspsych_version":"6.3.1","browser_interactions":0,"missing":false},{"state_1_ids":[0,1],"state_1_key":1,"state_1_choice":1,"state_1_rt":111.59999996423721,"transition":1,"state":1,"state_2_ids":[2,3],"state_2_key":0,"state_2_choice":2,"state_2_rt":205.5,"outcome":0,"rocket_colors":["#48a782","#955db9"],"planet_colors":["#5f6f81","#7f5d5d"],"screen_resolution":[1792,1120],"minimum_resolution":1,"trial":91,"drifts":[0.54,0.298,0.512,0.437],"drift_ix":3,"trial_type":"two-step-trial","trial_index":126,"time_elapsed":606729,"internal_node_id":"0.0-104.0-0.0","task_version":"1.0","jspsych_version":"6.3.1","browser_interactions":0,"missing":false},{"state_1_ids":[0,1],"state_1_key":1,"state_1_choice":1,"state_1_rt":305.30000001192093,"transition":0,"state":0,"state_2_ids":[0,1],"state_2_key":0,"state_2_choice":0,"state_2_rt":681.8000000119209,"outcome":0,"rocket_colors":["#48a782","#955db9"],"planet_colors":["#5f6f81","#7f5d5d"],"screen_resolution":[1792,1120],"minimum_resolution":1,"trial":92,"drifts":[0.564,0.281,0.499,0.45],"drift_ix":3,"trial_type":"two-step-trial","trial_index":127,"time_elapsed":609722,"internal_node_id":"0.0-105.0-0.0","task_version":"1.0","jspsych_version":"6.3.1","browser_interactions":0,"missing":false},{"state_1_ids":[1,0],"state_1_key":1,"state_1_choice":0,"state_1_rt":366.89999997615814,"transition":1,"state":0,"state_2_ids":[0,1],"state_2_key":1,"state_2_choice":1,"state_2_rt":331.2999999523163,"outcome":0,"rocket_colors":["#48a782","#955db9"],"planet_colors":["#5f6f81","#7f5d5d"],"screen_resolution":[1792,1120],"minimum_resolution":1,"trial":93,"drifts":[0.542,0.268,0.44,0.42],"drift_ix":3,"trial_type":"two-step-trial","trial_index":128,"time_elapsed":612425,"internal_node_id":"0.0-106.0-0.0","task_version":"1.0","jspsych_version":"6.3.1","browser_interactions":0,"missing":false},{"state_1_ids":[1,0],"state_1_key":1,"state_1_choice":0,"state_1_rt":850.3000000119209,"transition":0,"state":1,"state_2_ids":[2,3],"state_2_key":1,"state_2_choice":3,"state_2_rt":214.70000004768372,"outcome":0,"rocket_colors":["#48a782","#955db9"],"planet_colors":["#5f6f81","#7f5d5d"],"screen_resolution":[1792,1120],"minimum_resolution":1,"trial":94,"drifts":[0.539,0.26,0.421,0.438],"drift_ix":3,"trial_type":"two-step-trial","trial_index":129,"time_elapsed":615497,"internal_node_id":"0.0-107.0-0.0","task_version":"1.0","jspsych_version":"6.3.1","browser_interactions":0,"missing":false},{"state_1_ids":[1,0],"state_1_key":1,"state_1_choice":0,"state_1_rt":674.8000000119209,"transition":0,"state":1,"state_2_ids":[2,3],"state_2_key":0,"state_2_choice":2,"state_2_rt":199.69999998807907,"outcome":0,"rocket_colors":["#48a782","#955db9"],"planet_colors":["#5f6f81","#7f5d5d"],"screen_resolution":[1792,1120],"minimum_resolution":1,"trial":95,"drifts":[0.583,0.272,0.407,0.449],"drift_ix":3,"trial_type":"two-step-trial","trial_index":130,"time_elapsed":618377,"internal_node_id":"0.0-108.0-0.0","task_version":"1.0","jspsych_version":"6.3.1","browser_interactions":0,"missing":false},{"state_1_ids":[1,0],"state_1_key":1,"state_1_choice":0,"state_1_rt":382.10000002384186,"transition":1,"state":0,"state_2_ids":[0,1],"state_2_key":0,"state_2_choice":0,"state_2_rt":301.2000000476837,"outcome":0,"rocket_colors":["#48a782","#955db9"],"planet_colors":["#5f6f81","#7f5d5d"],"screen_resolution":[1792,1120],"minimum_resolution":1,"trial":96,"drifts":[0.596,0.257,0.37,0.508],"drift_ix":3,"trial_type":"two-step-trial","trial_index":131,"time_elapsed":621065,"internal_node_id":"0.0-109.0-0.0","task_version":"1.0","jspsych_version":"6.3.1","browser_interactions":0,"missing":false},{"state_1_ids":[1,0],"state_1_key":1,"state_1_choice":0,"state_1_rt":157.80000001192093,"transition":1,"state":0,"state_2_ids":[0,1],"state_2_key":1,"state_2_choice":1,"state_2_rt":547.5999999642372,"outcome":0,"rocket_colors":["#48a782","#955db9"],"planet_colors":["#5f6f81","#7f5d5d"],"screen_resolution":[1792,1120],"minimum_resolution":1,"trial":97,"drifts":[0.6,0.317,0.384,0.526],"drift_ix":3,"trial_type":"two-step-trial","trial_index":132,"time_elapsed":623775,"internal_node_id":"0.0-110.0-0.0","task_version":"1.0","jspsych_version":"6.3.1","browser_interactions":0,"missing":false},{"state_1_ids":[1,0],"state_1_key":1,"state_1_choice":0,"state_1_rt":504.5,"transition":0,"state":1,"state_2_ids":[2,3],"state_2_key":0,"state_2_choice":2,"state_2_rt":880.1999999880791,"outcome":1,"rocket_colors":["#48a782","#955db9"],"planet_colors":["#5f6f81","#7f5d5d"],"screen_resolution":[1792,1120],"minimum_resolution":1,"trial":98,"drifts":[0.573,0.304,0.387,0.504],"drift_ix":3,"trial_type":"two-step-trial","trial_index":133,"time_elapsed":627167,"internal_node_id":"0.0-111.0-0.0","task_version":"1.0","jspsych_version":"6.3.1","browser_interactions":0,"missing":false},{"state_1_ids":[0,1],"state_1_key":1,"state_1_choice":1,"state_1_rt":266.39999997615814,"transition":0,"state":0,"state_2_ids":[0,1],"state_2_key":0,"state_2_choice":0,"state_2_rt":1166.699999988079,"outcome":1,"rocket_colors":["#48a782","#955db9"],"planet_colors":["#5f6f81","#7f5d5d"],"screen_resolution":[1792,1120],"minimum_resolution":1,"trial":99,"drifts":[0.567,0.288,0.405,0.531],"drift_ix":3,"trial_type":"two-step-trial","trial_index":134,"time_elapsed":630607,"internal_node_id":"0.0-112.0-0.0","task_version":"1.0","jspsych_version":"6.3.1","browser_interactions":0,"missing":false},{"state_1_ids":[0,1],"state_1_key":1,"state_1_choice":1,"state_1_rt":501.30000001192093,"transition":0,"state":0,"state_2_ids":[0,1],"state_2_key":0,"state_2_choice":0,"state_2_rt":502.2000000476837,"outcome":1,"rocket_colors":["#48a782","#955db9"],"planet_colors":["#5f6f81","#7f5d5d"],"screen_resolution":[1792,1120],"minimum_resolution":1,"trial":100,"drifts":[0.535,0.255,0.402,0.526],"drift_ix":3,"trial_type":"two-step-trial","trial_index":135,"time_elapsed":633620,"internal_node_id":"0.0-113.0-0.0","task_version":"1.0","jspsych_version":"6.3.1","browser_interactions":0,"missing":false},{"view_history":"[{\"page_index\":0,\"viewing_time\":150.30000001192093},{\"page_index\":1,\"viewing_time\":957.1999999880791},{\"page_index\":0,\"viewing_time\":1583.199999988079},{\"page_index\":1,\"viewing_time\":734617.1000000238}]","rt":737308.1999999881,"trial_type":"two-step-instructions","trial_index":136,"time_elapsed":1370963,"internal_node_id":"0.0-114.0","task_version":"1.0","jspsych_version":"6.3.1"},{"state_1_ids":[1,0],"state_1_key":1,"state_1_choice":0,"state_1_rt":1429.699999988079,"transition":0,"state":1,"state_2_ids":[2,3],"state_2_key":1,"state_2_choice":3,"state_2_rt":607.5999999642372,"outcome":0,"rocket_colors":["#48a782","#955db9"],"planet_colors":["#5f6f81","#7f5d5d"],"screen_resolution":[1792,1120],"minimum_resolution":1,"trial":101,"drifts":[0.52,0.27,0.348,0.507],"drift_ix":3,"trial_type":"two-step-trial","trial_index":137,"time_elapsed":1375008,"internal_node_id":"0.0-115.0-0.0","task_version":"1.0","jspsych_version":"6.3.1","browser_interactions":0,"missing":false},{"state_1_ids":[0,1],"state_1_key":1,"state_1_choice":1,"state_1_rt":339.4000000357628,"transition":1,"state":1,"state_2_ids":[2,3],"state_2_key":0,"state_2_choice":2,"state_2_rt":241.89999997615814,"outcome":0,"rocket_colors":["#48a782","#955db9"],"planet_colors":["#5f6f81","#7f5d5d"],"screen_resolution":[1792,1120],"minimum_resolution":1,"trial":102,"drifts":[0.518,0.277,0.374,0.503],"drift_ix":3,"trial_type":"two-step-trial","trial_index":138,"time_elapsed":1377594,"internal_node_id":"0.0-116.0-0.0","task_version":"1.0","jspsych_version":"6.3.1","browser_interactions":0,"missing":false},{"state_1_ids":[0,1],"state_1_key":1,"state_1_choice":1,"state_1_rt":273.7999999523163,"transition":1,"state":1,"state_2_ids":[2,3],"state_2_key":1,"state_2_choice":3,"state_2_rt":383.80000001192093,"outcome":0,"rocket_colors":["#48a782","#955db9"],"planet_colors":["#5f6f81","#7f5d5d"],"screen_resolution":[1792,1120],"minimum_resolution":1,"trial":103,"drifts":[0.492,0.318,0.345,0.483],"drift_ix":3,"trial_type":"two-step-trial","trial_index":139,"time_elapsed":1380261,"internal_node_id":"0.0-117.0-0.0","task_version":"1.0","jspsych_version":"6.3.1","browser_interactions":0,"missing":false},{"state_1_ids":[0,1],"state_1_key":1,"state_1_choice":1,"state_1_rt":274.89999997615814,"transition":1,"state":1,"state_2_ids":[2,3],"state_2_key":0,"state_2_choice":2,"state_2_rt":254.5,"outcome":0,"rocket_colors":["#48a782","#955db9"],"planet_colors":["#5f6f81","#7f5d5d"],"screen_resolution":[1792,1120],"minimum_resolution":1,"trial":104,"drifts":[0.494,0.305,0.344,0.485],"drift_ix":3,"trial_type":"two-step-trial","trial_index":140,"time_elapsed":1382794,"internal_node_id":"0.0-118.0-0.0","task_version":"1.0","jspsych_version":"6.3.1","browser_interactions":0,"missing":false},{"state_1_ids":[1,0],"state_1_key":0,"state_1_choice":1,"state_1_rt":250.70000004768372,"transition":1,"state":1,"state_2_ids":[2,3],"state_2_key":1,"state_2_choice":3,"state_2_rt":323.7000000476837,"outcome":1,"rocket_colors":["#48a782","#955db9"],"planet_colors":["#5f6f81","#7f5d5d"],"screen_resolution":[1792,1120],"minimum_resolution":1,"trial":105,"drifts":[0.496,0.279,0.36,0.503],"drift_ix":3,"trial_type":"two-step-trial","trial_index":141,"time_elapsed":1385375,"internal_node_id":"0.0-119.0-0.0","task_version":"1.0","jspsych_version":"6.3.1","browser_interactions":0,"missing":false},{"state_1_ids":[0,1],"state_1_key":0,"state_1_choice":0,"state_1_rt":264.9000000357628,"transition":0,"state":1,"state_2_ids":[2,3],"state_2_key":1,"state_2_choice":3,"state_2_rt":388.19999998807907,"outcome":1,"rocket_colors":["#48a782","#955db9"],"planet_colors":["#5f6f81","#7f5d5d"],"screen_resolution":[1792,1120],"minimum_resolution":1,"trial":106,"drifts":[0.522,0.291,0.358,0.537],"drift_ix":3,"trial_type":"two-step-trial","trial_index":142,"time_elapsed":1388032,"internal_node_id":"0.0-120.0-0.0","task_version":"1.0","jspsych_version":"6.3.1","browser_interactions":0,"missing":false},{"state_1_ids":[0,1],"state_1_key":0,"state_1_choice":0,"state_1_rt":264.5,"transition":1,"state":0,"state_2_ids":[0,1],"state_2_key":0,"state_2_choice":0,"state_2_rt":881.1000000238419,"outcome":1,"rocket_colors":["#48a782","#955db9"],"planet_colors":["#5f6f81","#7f5d5d"],"screen_resolution":[1792,1120],"minimum_resolution":1,"trial":107,"drifts":[0.481,0.324,0.357,0.499],"drift_ix":3,"trial_type":"two-step-trial","trial_index":143,"time_elapsed":1391184,"internal_node_id":"0.0-121.0-0.0","task_version":"1.0","jspsych_version":"6.3.1","browser_interactions":0,"missing":false},{"state_1_ids":[0,1],"state_1_key":0,"state_1_choice":0,"state_1_rt":271.80000001192093,"transition":1,"state":0,"state_2_ids":[0,1],"state_2_key":0,"state_2_choice":0,"state_2_rt":417.2000000476837,"outcome":1,"rocket_colors":["#48a782","#955db9"],"planet_colors":["#5f6f81","#7f5d5d"],"screen_resolution":[1792,1120],"minimum_resolution":1,"trial":108,"drifts":[0.504,0.334,0.327,0.481],"drift_ix":3,"trial_type":"two-step-trial","trial_index":144,"time_elapsed":1393877,"internal_node_id":"0.0-122.0-0.0","task_version":"1.0","jspsych_version":"6.3.1","browser_interactions":0,"missing":false},{"state_1_ids":[0,1],"state_1_key":0,"state_1_choice":0,"state_1_rt":1033.6000000238419,"transition":1,"state":0,"state_2_ids":[0,1],"state_2_key":0,"state_2_choice":0,"state_2_rt":388.80000001192093,"outcome":0,"rocket_colors":["#48a782","#955db9"],"planet_colors":["#5f6f81","#7f5d5d"],"screen_resolution":[1792,1120],"minimum_resolution":1,"trial":109,"drifts":[0.526,0.339,0.308,0.485],"drift_ix":3,"trial_type":"two-step-trial","trial_index":145,"time_elapsed":1397309,"internal_node_id":"0.0-123.0-0.0","task_version":"1.0","jspsych_version":"6.3.1","browser_interactions":0,"missing":false},{"state_1_ids":[0,1],"state_1_key":0,"state_1_choice":0,"state_1_rt":468.69999998807907,"transition":1,"state":0,"state_2_ids":[0,1],"state_2_key":1,"state_2_choice":1,"state_2_rt":317.80000001192093,"outcome":0,"rocket_colors":["#48a782","#955db9"],"planet_colors":["#5f6f81","#7f5d5d"],"screen_resolution":[1792,1120],"minimum_resolution":1,"trial":110,"drifts":[0.551,0.358,0.295,0.444],"drift_ix":3,"trial_type":"two-step-trial","trial_index":146,"time_elapsed":1400101,"internal_node_id":"0.0-124.0-0.0","task_version":"1.0","jspsych_version":"6.3.1","browser_interactions":0,"missing":false},{"state_1_ids":[0,1],"state_1_key":0,"state_1_choice":0,"state_1_rt":260.89999997615814,"transition":1,"state":0,"state_2_ids":[0,1],"state_2_key":1,"state_2_choice":1,"state_2_rt":288.10000002384186,"outcome":1,"rocket_colors":["#48a782","#955db9"],"planet_colors":["#5f6f81","#7f5d5d"],"screen_resolution":[1792,1120],"minimum_resolution":1,"trial":111,"drifts":[0.517,0.359,0.323,0.417],"drift_ix":3,"trial_type":"two-step-trial","trial_index":147,"time_elapsed":1402656,"internal_node_id":"0.0-125.0-0.0","task_version":"1.0","jspsych_version":"6.3.1","browser_interactions":0,"missing":false},{"state_1_ids":[0,1],"state_1_key":0,"state_1_choice":0,"state_1_rt":295,"transition":1,"state":0,"state_2_ids":[0,1],"state_2_key":0,"state_2_choice":0,"state_2_rt":228.10000002384186,"outcome":0,"rocket_colors":["#48a782","#955db9"],"planet_colors":["#5f6f81","#7f5d5d"],"screen_resolution":[1792,1120],"minimum_resolution":1,"trial":112,"drifts":[0.506,0.34,0.322,0.412],"drift_ix":3,"trial_type":"two-step-trial","trial_index":148,"time_elapsed":1405184,"internal_node_id":"0.0-126.0-0.0","task_version":"1.0","jspsych_version":"6.3.1","browser_interactions":0,"missing":false},{"state_1_ids":[0,1],"state_1_key":0,"state_1_choice":0,"state_1_rt":226.69999998807907,"transition":1,"state":0,"state_2_ids":[0,1],"state_2_key":0,"state_2_choice":0,"state_2_rt":255,"outcome":0,"rocket_colors":["#48a782","#955db9"],"planet_colors":["#5f6f81","#7f5d5d"],"screen_resolution":[1792,1120],"minimum_resolution":1,"trial":113,"drifts":[0.467,0.28,0.348,0.413],"drift_ix":3,"trial_type":"two-step-trial","trial_index":149,"time_elapsed":1407671,"internal_node_id":"0.0-127.0-0.0","task_version":"1.0","jspsych_version":"6.3.1","browser_interactions":0,"missing":false},{"state_1_ids":[0,1],"state_1_key":0,"state_1_choice":0,"state_1_rt":446.69999998807907,"transition":0,"state":1,"state_2_ids":[2,3],"state_2_key":0,"state_2_choice":2,"state_2_rt":133.19999998807907,"outcome":0,"rocket_colors":["#48a782","#955db9"],"planet_colors":["#5f6f81","#7f5d5d"],"screen_resolution":[1792,1120],"minimum_resolution":1,"trial":114,"drifts":[0.494,0.276,0.373,0.43],"drift_ix":3,"trial_type":"two-step-trial","trial_index":150,"time_elapsed":1410256,"internal_node_id":"0.0-128.0-0.0","task_version":"1.0","jspsych_version":"6.3.1","browser_interactions":0,"missing":false},{"state_1_ids":[0,1],"state_1_key":0,"state_1_choice":0,"state_1_rt":400.0999999642372,"transition":1,"state":0,"state_2_ids":[0,1],"state_2_key":0,"state_2_choice":0,"state_2_rt":604,"outcome":0,"rocket_colors":["#48a782","#955db9"],"planet_colors":["#5f6f81","#7f5d5d"],"screen_resolution":[1792,1120],"minimum_resolution":1,"trial":115,"drifts":[0.493,0.258,0.428,0.412],"drift_ix":3,"trial_type":"two-step-trial","trial_index":151,"time_elapsed":1413269,"internal_node_id":"0.0-129.0-0.0","task_version":"1.0","jspsych_version":"6.3.1","browser_interactions":0,"missing":false},{"state_1_ids":[0,1],"state_1_key":0,"state_1_choice":0,"state_1_rt":232.69999998807907,"transition":1,"state":0,"state_2_ids":[0,1],"state_2_key":1,"state_2_choice":1,"state_2_rt":428.10000002384186,"outcome":0,"rocket_colors":["#48a782","#955db9"],"planet_colors":["#5f6f81","#7f5d5d"],"screen_resolution":[1792,1120],"minimum_resolution":1,"trial":116,"drifts":[0.492,0.266,0.447,0.466],"drift_ix":3,"trial_type":"two-step-trial","trial_index":152,"time_elapsed":1415936,"internal_node_id":"0.0-130.0-0.0","task_version":"1.0","jspsych_version":"6.3.1","browser_interactions":0,"missing":false},{"state_1_ids":[1,0],"state_1_key":0,"state_1_choice":1,"state_1_rt":333.69999998807907,"transition":1,"state":1,"state_2_ids":[2,3],"state_2_key":0,"state_2_choice":2,"state_2_rt":160,"outcome":0,"rocket_colors":["#48a782","#955db9"],"planet_colors":["#5f6f81","#7f5d5d"],"screen_resolution":[1792,1120],"minimum_resolution":1,"trial":117,"drifts":[0.512,0.269,0.457,0.471],"drift_ix":3,"trial_type":"two-step-trial","trial_index":153,"time_elapsed":1418437,"internal_node_id":"0.0-131.0-0.0","task_version":"1.0","jspsych_version":"6.3.1","browser_interactions":0,"missing":false},{"state_1_ids":[0,1],"state_1_key":0,"state_1_choice":0,"state_1_rt":228.69999998807907,"transition":1,"state":0,"state_2_ids":[0,1],"state_2_key":1,"state_2_choice":1,"state_2_rt":634.6999999880791,"outcome":0,"rocket_colors":["#48a782","#955db9"],"planet_colors":["#5f6f81","#7f5d5d"],"screen_resolution":[1792,1120],"minimum_resolution":1,"trial":118,"drifts":[0.551,0.283,0.506,0.484],"drift_ix":3,"trial_type":"two-step-trial","trial_index":154,"time_elapsed":1421306,"internal_node_id":"0.0-132.0-0.0","task_version":"1.0","jspsych_version":"6.3.1","browser_interactions":0,"missing":false},{"state_1_ids":[1,0],"state_1_key":1,"state_1_choice":0,"state_1_rt":323.19999998807907,"transition":1,"state":0,"state_2_ids":[0,1],"state_2_key":0,"state_2_choice":0,"state_2_rt":841.5999999642372,"outcome":0,"rocket_colors":["#48a782","#955db9"],"planet_colors":["#5f6f81","#7f5d5d"],"screen_resolution":[1792,1120],"minimum_resolution":1,"trial":119,"drifts":[0.537,0.273,0.462,0.473],"drift_ix":3,"trial_type":"two-step-trial","trial_index":155,"time_elapsed":1424480,"internal_node_id":"0.0-133.0-0.0","task_version":"1.0","jspsych_version":"6.3.1","browser_interactions":0,"missing":false},{"state_1_ids":[1,0],"state_1_key":1,"state_1_choice":0,"state_1_rt":371.19999998807907,"transition":0,"state":1,"state_2_ids":[2,3],"state_2_key":1,"state_2_choice":3,"state_2_rt":417.89999997615814,"outcome":1,"rocket_colors":["#48a782","#955db9"],"planet_colors":["#5f6f81","#7f5d5d"],"screen_resolution":[1792,1120],"minimum_resolution":1,"trial":120,"drifts":[0.49,0.26,0.46,0.477],"drift_ix":3,"trial_type":"two-step-trial","trial_index":156,"time_elapsed":1427274,"internal_node_id":"0.0-134.0-0.0","task_version":"1.0","jspsych_version":"6.3.1","browser_interactions":0,"missing":false},{"state_1_ids":[0,1],"state_1_key":1,"state_1_choice":1,"state_1_rt":511.39999997615814,"transition":1,"state":1,"state_2_ids":[2,3],"state_2_key":1,"state_2_choice":3,"state_2_rt":382.69999998807907,"outcome":1,"rocket_colors":["#48a782","#955db9"],"planet_colors":["#5f6f81","#7f5d5d"],"screen_resolution":[1792,1120],"minimum_resolution":1,"trial":121,"drifts":[0.547,0.275,0.457,0.431],"drift_ix":3,"trial_type":"two-step-trial","trial_index":157,"time_elapsed":1430176,"internal_node_id":"0.0-135.0-0.0","task_version":"1.0","jspsych_version":"6.3.1","browser_interactions":0,"missing":false},{"state_1_ids":[0,1],"state_1_key":1,"state_1_choice":1,"state_1_rt":69.80000001192093,"transition":0,"state":0,"state_2_ids":[0,1],"state_2_key":1,"state_2_choice":1,"state_2_rt":237.5,"outcome":1,"rocket_colors":["#48a782","#955db9"],"planet_colors":["#5f6f81","#7f5d5d"],"screen_resolution":[1792,1120],"minimum_resolution":1,"trial":122,"drifts":[0.578,0.269,0.386,0.411],"drift_ix":3,"trial_type":"two-step-trial","trial_index":158,"time_elapsed":1432488,"internal_node_id":"0.0-136.0-0.0","task_version":"1.0","jspsych_version":"6.3.1","browser_interactions":0,"missing":false},{"state_1_ids":[1,0],"state_1_key":1,"state_1_choice":0,"state_1_rt":459.19999998807907,"transition":1,"state":0,"state_2_ids":[0,1],"state_2_key":1,"state_2_choice":1,"state_2_rt":437.4000000357628,"outcome":0,"rocket_colors":["#48a782","#955db9"],"planet_colors":["#5f6f81","#7f5d5d"],"screen_resolution":[1792,1120],"minimum_resolution":1,"trial":123,"drifts":[0.639,0.269,0.384,0.429],"drift_ix":3,"trial_type":"two-step-trial","trial_index":159,"time_elapsed":1435391,"internal_node_id":"0.0-137.0-0.0","task_version":"1.0","jspsych_version":"6.3.1","browser_interactions":0,"missing":false},{"state_1_ids":[0,1],"state_1_key":1,"state_1_choice":1,"state_1_rt":271.80000001192093,"transition":1,"state":1,"state_2_ids":[2,3],"state_2_key":1,"state_2_choice":3,"state_2_rt":255.5999999642372,"outcome":0,"rocket_colors":["#48a782","#955db9"],"planet_colors":["#5f6f81","#7f5d5d"],"screen_resolution":[1792,1120],"minimum_resolution":1,"trial":124,"drifts":[0.636,0.254,0.416,0.449],"drift_ix":3,"trial_type":"two-step-trial","trial_index":160,"time_elapsed":1437925,"internal_node_id":"0.0-138.0-0.0","task_version":"1.0","jspsych_version":"6.3.1","browser_interactions":0,"missing":false},{"state_1_ids":[1,0],"state_1_key":1,"state_1_choice":0,"state_1_rt":49.19999998807907,"transition":1,"state":0,"state_2_ids":[0,1],"state_2_key":1,"state_2_choice":1,"state_2_rt":135,"outcome":1,"rocket_colors":["#48a782","#955db9"],"planet_colors":["#5f6f81","#7f5d5d"],"screen_resolution":[1792,1120],"minimum_resolution":1,"trial":125,"drifts":[0.665,0.257,0.44,0.433],"drift_ix":3,"trial_type":"two-step-trial","trial_index":161,"time_elapsed":1440117,"internal_node_id":"0.0-139.0-0.0","task_version":"1.0","jspsych_version":"6.3.1","browser_interactions":0,"missing":false},{"state_1_ids":[0,1],"state_1_key":1,"state_1_choice":1,"state_1_rt":247.4000000357628,"transition":1,"state":1,"state_2_ids":[2,3],"state_2_key":1,"state_2_choice":3,"state_2_rt":31.69999998807907,"outcome":0,"rocket_colors":["#48a782","#955db9"],"planet_colors":["#5f6f81","#7f5d5d"],"screen_resolution":[1792,1120],"minimum_resolution":1,"trial":126,"drifts":[0.694,0.25,0.453,0.414],"drift_ix":3,"trial_type":"two-step-trial","trial_index":162,"time_elapsed":1442400,"internal_node_id":"0.0-140.0-0.0","task_version":"1.0","jspsych_version":"6.3.1","browser_interactions":0,"missing":false},{"state_1_ids":[1,0],"state_1_key":1,"state_1_choice":0,"state_1_rt":136.89999997615814,"transition":1,"state":0,"state_2_ids":[0,1],"state_2_key":1,"state_2_choice":1,"state_2_rt":96.39999997615814,"outcome":0,"rocket_colors":["#48a782","#955db9"],"planet_colors":["#5f6f81","#7f5d5d"],"screen_resolution":[1792,1120],"minimum_resolution":1,"trial":127,"drifts":[0.666,0.266,0.449,0.399],"drift_ix":3,"trial_type":"two-step-trial","trial_index":163,"time_elapsed":1444640,"internal_node_id":"0.0-141.0-0.0","task_version":"1.0","jspsych_version":"6.3.1","browser_interactions":0,"missing":false},{"state_1_ids":[1,0],"state_1_key":1,"state_1_choice":0,"state_1_rt":118.80000001192093,"transition":1,"state":0,"state_2_ids":[0,1],"state_2_key":1,"state_2_choice":1,"state_2_rt":296.5,"outcome":1,"rocket_colors":["#48a782","#955db9"],"planet_colors":["#5f6f81","#7f5d5d"],"screen_resolution":[1792,1120],"minimum_resolution":1,"trial":128,"drifts":[0.66,0.272,0.461,0.39],"drift_ix":3,"trial_type":"two-step-trial","trial_index":164,"time_elapsed":1447061,"internal_node_id":"0.0-142.0-0.0","task_version":"1.0","jspsych_version":"6.3.1","browser_interactions":0,"missing":false},{"state_1_ids":[0,1],"state_1_key":1,"state_1_choice":1,"state_1_rt":167.69999998807907,"transition":0,"state":0,"state_2_ids":[0,1],"state_2_key":1,"state_2_choice":1,"state_2_rt":108.20000004768372,"outcome":0,"rocket_colors":["#48a782","#955db9"],"planet_colors":["#5f6f81","#7f5d5d"],"screen_resolution":[1792,1120],"minimum_resolution":1,"trial":129,"drifts":[0.677,0.288,0.452,0.388],"drift_ix":3,"trial_type":"two-step-trial","trial_index":165,"time_elapsed":1449343,"internal_node_id":"0.0-143.0-0.0","task_version":"1.0","jspsych_version":"6.3.1","browser_interactions":0,"missing":false},{"state_1_ids":[1,0],"state_1_key":1,"state_1_choice":0,"state_1_rt":2.699999988079071,"transition":0,"state":1,"state_2_ids":[2,3],"state_2_key":1,"state_2_choice":3,"state_2_rt":352.30000001192093,"outcome":1,"rocket_colors":["#48a782","#955db9"],"planet_colors":["#5f6f81","#7f5d5d"],"screen_resolution":[1792,1120],"minimum_resolution":1,"trial":130,"drifts":[0.654,0.252,0.415,0.434],"drift_ix":3,"trial_type":"two-step-trial","trial_index":166,"time_elapsed":1451702,"internal_node_id":"0.0-144.0-0.0","task_version":"1.0","jspsych_version":"6.3.1","browser_interactions":0,"missing":false},{"state_1_ids":[0,1],"state_1_key":1,"state_1_choice":1,"state_1_rt":107.70000004768372,"transition":0,"state":0,"state_2_ids":[0,1],"state_2_key":1,"state_2_choice":1,"state_2_rt":427.5999999642372,"outcome":1,"rocket_colors":["#48a782","#955db9"],"planet_colors":["#5f6f81","#7f5d5d"],"screen_resolution":[1792,1120],"minimum_resolution":1,"trial":131,"drifts":[0.662,0.271,0.398,0.411],"drift_ix":3,"trial_type":"two-step-trial","trial_index":167,"time_elapsed":1454245,"internal_node_id":"0.0-145.0-0.0","task_version":"1.0","jspsych_version":"6.3.1","browser_interactions":0,"missing":false},{"state_1_ids":[0,1],"state_1_key":1,"state_1_choice":1,"state_1_rt":141.4000000357628,"transition":0,"state":0,"state_2_ids":[0,1],"state_2_key":1,"state_2_choice":1,"state_2_rt":121.19999998807907,"outcome":0,"rocket_colors":["#48a782","#955db9"],"planet_colors":["#5f6f81","#7f5d5d"],"screen_resolution":[1792,1120],"minimum_resolution":1,"trial":132,"drifts":[0.661,0.29,0.402,0.435],"drift_ix":3,"trial_type":"two-step-trial","trial_index":168,"time_elapsed":1456513,"internal_node_id":"0.0-146.0-0.0","task_version":"1.0","jspsych_version":"6.3.1","browser_interactions":0,"missing":false},{"state_1_ids":[1,0],"state_1_key":1,"state_1_choice":0,"state_1_rt":262.80000001192093,"transition":1,"state":0,"state_2_ids":[0,1],"state_2_key":0,"state_2_choice":0,"state_2_rt":313.39999997615814,"outcome":1,"rocket_colors":["#48a782","#955db9"],"planet_colors":["#5f6f81","#7f5d5d"],"screen_resolution":[1792,1120],"minimum_resolution":1,"trial":133,"drifts":[0.665,0.307,0.385,0.395],"drift_ix":3,"trial_type":"two-step-trial","trial_index":169,"time_elapsed":1459093,"internal_node_id":"0.0-147.0-0.0","task_version":"1.0","jspsych_version":"6.3.1","browser_interactions":0,"missing":false},{"state_1_ids":[0,1],"state_1_key":1,"state_1_choice":1,"state_1_rt":258,"transition":1,"state":1,"state_2_ids":[2,3],"state_2_key":0,"state_2_choice":2,"state_2_rt":273.39999997615814,"outcome":1,"rocket_colors":["#48a782","#955db9"],"planet_colors":["#5f6f81","#7f5d5d"],"screen_resolution":[1792,1120],"minimum_resolution":1,"trial":134,"drifts":[0.696,0.308,0.332,0.425],"drift_ix":3,"trial_type":"two-step-trial","trial_index":170,"time_elapsed":1461632,"internal_node_id":"0.0-148.0-0.0","task_version":"1.0","jspsych_version":"6.3.1","browser_interactions":0,"missing":false},{"state_1_ids":[0,1],"state_1_key":1,"state_1_choice":1,"state_1_rt":100.09999996423721,"transition":0,"state":0,"state_2_ids":[0,1],"state_2_key":0,"state_2_choice":0,"state_2_rt":94.30000001192093,"outcome":1,"rocket_colors":["#48a782","#955db9"],"planet_colors":["#5f6f81","#7f5d5d"],"screen_resolution":[1792,1120],"minimum_resolution":1,"trial":135,"drifts":[0.68,0.339,0.346,0.425],"drift_ix":3,"trial_type":"two-step-trial","trial_index":171,"time_elapsed":1463832,"internal_node_id":"0.0-149.0-0.0","task_version":"1.0","jspsych_version":"6.3.1","browser_interactions":0,"missing":false},{"state_1_ids":[1,0],"state_1_key":1,"state_1_choice":0,"state_1_rt":168.19999998807907,"transition":1,"state":0,"state_2_ids":[0,1],"state_2_key":0,"state_2_choice":0,"state_2_rt":181,"outcome":1,"rocket_colors":["#48a782","#955db9"],"planet_colors":["#5f6f81","#7f5d5d"],"screen_resolution":[1792,1120],"minimum_resolution":1,"trial":136,"drifts":[0.674,0.33,0.342,0.403],"drift_ix":3,"trial_type":"two-step-trial","trial_index":172,"time_elapsed":1466186,"internal_node_id":"0.0-150.0-0.0","task_version":"1.0","jspsych_version":"6.3.1","browser_interactions":0,"missing":false},{"state_1_ids":[1,0],"state_1_key":1,"state_1_choice":0,"state_1_rt":203.19999998807907,"transition":1,"state":0,"state_2_ids":[0,1],"state_2_key":0,"state_2_choice":0,"state_2_rt":17.399999976158142,"outcome":1,"rocket_colors":["#48a782","#955db9"],"planet_colors":["#5f6f81","#7f5d5d"],"screen_resolution":[1792,1120],"minimum_resolution":1,"trial":137,"drifts":[0.699,0.293,0.329,0.403],"drift_ix":3,"trial_type":"two-step-trial","trial_index":173,"time_elapsed":1468410,"internal_node_id":"0.0-151.0-0.0","task_version":"1.0","jspsych_version":"6.3.1","browser_interactions":0,"missing":false},{"state_1_ids":[1,0],"state_1_key":1,"state_1_choice":0,"state_1_rt":147.89999997615814,"transition":1,"state":0,"state_2_ids":[0,1],"state_2_key":0,"state_2_choice":0,"state_2_rt":559.8999999761581,"outcome":1,"rocket_colors":["#48a782","#955db9"],"planet_colors":["#5f6f81","#7f5d5d"],"screen_resolution":[1792,1120],"minimum_resolution":1,"trial":138,"drifts":[0.734,0.332,0.387,0.413],"drift_ix":3,"trial_type":"two-step-trial","trial_index":174,"time_elapsed":1471125,"internal_node_id":"0.0-152.0-0.0","task_version":"1.0","jspsych_version":"6.3.1","browser_interactions":0,"missing":false},{"state_1_ids":[1,0],"state_1_key":1,"state_1_choice":0,"state_1_rt":195.10000002384186,"transition":1,"state":0,"state_2_ids":[0,1],"state_2_key":0,"state_2_choice":0,"state_2_rt":39.60000002384186,"outcome":1,"rocket_colors":["#48a782","#955db9"],"planet_colors":["#5f6f81","#7f5d5d"],"screen_resolution":[1792,1120],"minimum_resolution":1,"trial":139,"drifts":[0.692,0.301,0.41,0.413],"drift_ix":3,"trial_type":"two-step-trial","trial_index":175,"time_elapsed":1473363,"internal_node_id":"0.0-153.0-0.0","task_version":"1.0","jspsych_version":"6.3.1","browser_interactions":0,"missing":false},{"state_1_ids":[0,1],"state_1_key":1,"state_1_choice":1,"state_1_rt":217.39999997615814,"transition":1,"state":1,"state_2_ids":[2,3],"state_2_key":0,"state_2_choice":2,"state_2_rt":175.80000001192093,"outcome":1,"rocket_colors":["#48a782","#955db9"],"planet_colors":["#5f6f81","#7f5d5d"],"screen_resolution":[1792,1120],"minimum_resolution":1,"trial":140,"drifts":[0.722,0.286,0.408,0.406],"drift_ix":3,"trial_type":"two-step-trial","trial_index":176,"time_elapsed":1475760,"internal_node_id":"0.0-154.0-0.0","task_version":"1.0","jspsych_version":"6.3.1","browser_interactions":0,"missing":false},{"state_1_ids":[1,0],"state_1_key":1,"state_1_choice":0,"state_1_rt":46.69999998807907,"transition":1,"state":0,"state_2_ids":[0,1],"state_2_key":0,"state_2_choice":0,"state_2_rt":558.6999999880791,"outcome":0,"rocket_colors":["#48a782","#955db9"],"planet_colors":["#5f6f81","#7f5d5d"],"screen_resolution":[1792,1120],"minimum_resolution":1,"trial":141,"drifts":[0.748,0.253,0.428,0.403],"drift_ix":3,"trial_type":"two-step-trial","trial_i