[{"success":true,"timeout":false,"failed_images":[],"failed_audio":[],"failed_video":[],"trial_type":"preload","trial_index":0,"time_elapsed":683,"internal_node_id":"0.0-0.0","task_version":"1.0","jspsych_version":"6.3.1"},{"success":true,"trial_type":"fullscreen","trial_index":1,"time_elapsed":173864,"internal_node_id":"0.0-1.0","task_version":"1.0","jspsych_version":"6.3.1"},{"view_history":[{"page_index":0,"viewing_time":4818.299999952316}],"rt":4819.399999976158,"trial_type":"instructions","trial_index":2,"time_elapsed":178687,"internal_node_id":"0.0-2.0","task_version":"1.0","jspsych_version":"6.3.1"},{"responses":{"Q05":"2","Q07":"3","Q06":"3","Q03":"3","Q01":"3","Q08":"0","Q02":"2","Q04":"3"},"rt":54468.10000002384,"item_order":[4,6,5,2,0,7,1,3],"radio_events":[28392.399999976158,30399.399999976158,35075.700000047684,39110.799999952316,41328.39999997616,42325.89999997616,45933.799999952316,48314.799999952316,51108.299999952316],"key_events":[],"mouse_events":[1.7000000476837158,26894.299999952316,28392.399999976158,30399.399999976158,35075.700000047684,39110.799999952316,40156.10000002384,41328.39999997616,42325.89999997616,45933.799999952316,48314.799999952316,51108.299999952316,54466],"straightlining":0.625,"zigzagging":0.42857142857142855,"honeypot":0,"survey":"anxiety","trial_type":"survey-template","trial_index":3,"time_elapsed":233169,"internal_node_id":"0.0-3.0","task_version":"1.0","jspsych_version":"6.3.1"},{"responses":{"Q04":"6","Q02":"6","Q03":"6","Q01":"6","Q05":"6","Q06":"6","Q07":"3"},"rt":19203.800000071526,"item_order":[3,1,2,0,4,5,6],"radio_events":[4839.100000023842,6955,8955.200000047684,11346.700000047684,13557.700000047684,16438.700000047684,18203.100000023842],"key_events":[],"mouse_events":[4839.100000023842,6955,8955.200000047684,11346.700000047684,13557.700000047684,16438.700000047684,18203.100000023842,19201.300000071526],"straightlining":0.42857142857142855,"zigzagging":0.5,"honeypot":0,"survey":"artistic","trial_type":"survey-template","trial_index":4,"time_elapsed":252380,"internal_node_id":"0.0-4.0","task_version":"1.0","jspsych_version":"6.3.1"},{"responses":{"Q01":"2","Q04":"2","Q08":"0","Q06":"2","Q07":"1","Q02":"2","Q03":"1","Q05":"2"},"rt":66008,"item_order":[0,3,7,5,6,1,2,4],"radio_events":[15642.799999952316,19364.5,23556.399999976158,31856.299999952316,40802.299999952316,46328.199999928474,51002.5,54672.299999952316,57670.5,64632.5],"key_events":[],"mouse_events":[15642.799999952316,19364.5,22010.299999952316,23556.399999976158,31856.299999952316,40364.199999928474,40802.299999952316,46328.199999928474,50427,51002.5,54672.299999952316,56109.89999997616,57670.5,64632.5,66006.39999997616],"straightlining":0.625,"zigzagging":0.5714285714285714,"honeypot":0,"survey":"depression","trial_type":"survey-template","trial_index":5,"time_elapsed":318394,"internal_node_id":"0.0-5.0","task_version":"1.0","jspsych_version":"6.3.1"},{"responses":{"Q07":"2","Q06":"1","Q02":"0","Q03":"1","Q01":"2","Q05":"1","Q04":"1","Q08":"3"},"rt":76729.70000004768,"item_order":[6,5,1,2,0,4,3,7],"radio_events":[9641.5,17433.700000047684,30749.700000047684,38034.300000071526,40797.700000047684,47003.700000047684,57907.10000002384,62247.800000071526,66783.5,74869.89999997616],"key_events":[],"mouse_events":[9641.5,16293.700000047684,17433.700000047684,29276.100000023842,30749.700000047684,38034.300000071526,40797.700000047684,47003.700000047684,57907.10000002384,62247.800000071526,66783.5,74869.89999997616,76727.80000007153],"straightlining":0.5,"zigzagging":0.7142857142857143,"honeypot":0,"survey":"mania","trial_type":"survey-template","trial_index":6,"time_elapsed":395128,"internal_node_id":"0.0-6.0","task_version":"1.0","jspsych_version":"6.3.1"},{"responses":{"Q01":"3","Q07":"6","Q02":"1","Q04":"1","Q06":"3","Q03":"1","Q05":"0"},"rt":37437.200000047684,"item_order":[0,6,1,3,5,2,4],"radio_events":[13198.700000047684,15796.399999976158,17790.399999976158,21432.399999976158,26264.899999976158,29504.399999976158,35834.800000071526],"key_events":[],"mouse_events":[12510.600000023842,13198.700000047684,15796.399999976158,17790.399999976158,19380.5,21432.399999976158,26264.899999976158,29504.399999976158,34062.800000071526,35834.800000071526,37434.39999997616],"straightlining":0.42857142857142855,"zigzagging":0.16666666666666666,"honeypot":0,"survey":"greed","trial_type":"survey-template","trial_index":7,"time_elapsed":432573,"internal_node_id":"0.0-7.0","task_version":"1.0","jspsych_version":"6.3.1"},{"view_history":"[{\"page_index\":0,\"viewing_time\":5965.800000071526},{\"page_index\":1,\"viewing_time\":4993},{\"page_index\":2,\"viewing_time\":7085.399999976158},{\"page_index\":3,\"viewing_time\":6614.600000023842},{\"page_index\":4,\"viewing_time\":8572.099999904633},{\"page_index\":5,\"viewing_time\":3528.4000000953674},{\"page_index\":6,\"viewing_time\":2225.5},{\"page_index\":7,\"viewing_time\":5526.199999928474},{\"page_index\":8,\"viewing_time\":6272.700000047684},{\"page_index\":9,\"viewing_time\":7483.399999976158},{\"page_index\":10,\"viewing_time\":4988.100000023842}]","rt":63256.700000047684,"trial_type":"two-step-instructions","trial_index":8,"time_elapsed":495840,"internal_node_id":"0.0-8.0-1.0","task_version":"1.0","jspsych_version":"6.3.1"},{"responses":["left/right arrow keys","True","True"],"num_errors":0,"rt":18086.5,"quiz":1,"trial_type":"two-step-comprehension","trial_index":9,"time_elapsed":513933,"internal_node_id":"0.0-8.0-2.0","task_version":"1.0","jspsych_version":"6.3.1"},{"view_history":"[{\"page_index\":0,\"viewing_time\":8131.100000023842}]","rt":8132,"phase":"instructions_1b","trial_type":"two-step-instructions","trial_index":10,"time_elapsed":522074,"internal_node_id":"0.0-9.0-0.0-0.0","task_version":"1.0","jspsych_version":"6.3.1"},{"state_2_ids":[0,1],"state_2_key":1,"state_2_choice":1,"state_2_rt":3295.6999999284744,"outcome":1,"screen_resolution":[1366,768],"minimum_resolution":1,"trial_type":"alien-practice","trial_index":11,"time_elapsed":527578,"internal_node_id":"0.0-9.0-1.0-0.0","task_version":"1.0","jspsych_version":"6.3.1"},{"state_2_ids":[0,1],"state_2_key":1,"state_2_choice":1,"state_2_rt":565.6000000238419,"outcome":0,"screen_resolution":[1366,768],"minimum_resolution":1,"trial_type":"alien-practice","trial_index":12,"time_elapsed":530352,"internal_node_id":"0.0-9.0-2.0-0.0","task_version":"1.0","jspsych_version":"6.3.1"},{"state_2_ids":[0,1],"state_2_key":1,"state_2_choice":1,"state_2_rt":444.2000000476837,"outcome":1,"screen_resolution":[1366,768],"minimum_resolution":1,"trial_type":"alien-practice","trial_index":13,"time_elapsed":533003,"internal_node_id":"0.0-9.0-3.0-0.0","task_version":"1.0","jspsych_version":"6.3.1"},{"state_2_ids":[0,1],"state_2_key":1,"state_2_choice":1,"state_2_rt":458.5,"outcome":1,"screen_resolution":[1366,768],"minimum_resolution":1,"trial_type":"alien-practice","trial_index":14,"time_elapsed":535669,"internal_node_id":"0.0-9.0-4.0-0.0","task_version":"1.0","jspsych_version":"6.3.1"},{"state_2_ids":[0,1],"state_2_key":1,"state_2_choice":1,"state_2_rt":551.6000000238419,"outcome":1,"screen_resolution":[1366,768],"minimum_resolution":1,"trial_type":"alien-practice","trial_index":15,"time_elapsed":538428,"internal_node_id":"0.0-9.0-5.0-0.0","task_version":"1.0","jspsych_version":"6.3.1"},{"view_history":"[{\"page_index\":0,\"viewing_time\":5225.700000047684},{\"page_index\":1,\"viewing_time\":2139.899999976158},{\"page_index\":2,\"viewing_time\":6128},{\"page_index\":3,\"viewing_time\":7344.100000023842},{\"page_index\":4,\"viewing_time\":3426.100000023842},{\"page_index\":5,\"viewing_time\":3699.6999999284744}]","rt":27964.400000095367,"trial_type":"two-step-instructions","trial_index":16,"time_elapsed":566436,"internal_node_id":"0.0-10.0-1.0","task_version":"1.0","jspsych_version":"6.3.1"},{"responses":["left/right arrow keys","False","True"],"num_errors":0,"rt":25498.900000095367,"quiz":2,"trial_type":"two-step-comprehension","trial_index":17,"time_elapsed":591940,"internal_node_id":"0.0-10.0-2.0","task_version":"1.0","jspsych_version":"6.3.1"},{"view_history":"[{\"page_index\":0,\"viewing_time\":11945.5},{\"page_index\":1,\"viewing_time\":4862.799999952316},{\"page_index\":2,\"viewing_time\":20379.200000047684}]","rt":37188.39999997616,"trial_type":"two-step-instructions","trial_index":18,"time_elapsed":629141,"internal_node_id":"0.0-11.0-0.0","task_version":"1.0","jspsych_version":"6.3.1"},{"state_1_ids":[0,1],"state_1_key":0,"state_1_choice":0,"state_1_rt":4788,"transition":1,"state":0,"state_2_ids":[0,1],"state_2_key":0,"state_2_choice":0,"state_2_rt":1305.3999999761581,"outcome":0,"rocket_colors":["#486ea7","#a75248"],"planet_colors":["#706081","#5b7c65"],"screen_resolution":[1366,768],"minimum_resolution":1,"trial":0,"trial_type":"two-step-trial","trial_index":19,"time_elapsed":637243,"internal_node_id":"0.0-11.0-1.0-0.0","task_version":"1.0","jspsych_version":"6.3.1","missing":false},{"state_1_ids":[0,1],"state_1_key":0,"state_1_choice":0,"state_1_rt":943.7999999523163,"transition":1,"state":0,"state_2_ids":[0,1],"state_2_key":1,"state_2_choice":1,"state_2_rt":1086.6999999284744,"outcome":0,"rocket_colors":["#486ea7","#a75248"],"planet_colors":["#706081","#5b7c65"],"screen_resolution":[1366,768],"minimum_resolution":1,"trial":0,"trial_type":"two-step-trial","trial_index":20,"time_elapsed":641286,"internal_node_id":"0.0-11.0-1.0-0.1","task_version":"1.0","jspsych_version":"6.3.1","missing":false},{"state_1_ids":[0,1],"state_1_key":1,"state_1_choice":1,"state_1_rt":785.3999999761581,"transition":1,"state":1,"state_2_ids":[2,3],"state_2_key":0,"state_2_choice":2,"state_2_rt":791.6999999284744,"outcome":0,"rocket_colors":["#486ea7","#a75248"],"planet_colors":["#706081","#5b7c65"],"screen_resolution":[1366,768],"minimum_resolution":1,"trial":0,"trial_type":"two-step-trial","trial_index":21,"time_elapsed":644873,"internal_node_id":"0.0-11.0-1.0-0.2","task_version":"1.0","jspsych_version":"6.3.1","missing":false},{"state_1_ids":[0,1],"state_1_key":1,"state_1_choice":1,"state_1_rt":699.2000000476837,"transition":1,"state":1,"state_2_ids":[2,3],"state_2_key":1,"state_2_choice":3,"state_2_rt":871.7000000476837,"outcome":1,"rocket_colors":["#486ea7","#a75248"],"planet_colors":["#706081","#5b7c65"],"screen_resolution":[1366,768],"minimum_resolution":1,"trial":0,"trial_type":"two-step-trial","trial_index":22,"time_elapsed":648451,"internal_node_id":"0.0-11.0-1.0-0.3","task_version":"1.0","jspsych_version":"6.3.1","missing":false},{"state_1_ids":[1,0],"state_1_key":1,"state_1_choice":0,"state_1_rt":591.5999999046326,"transition":1,"state":0,"state_2_ids":[0,1],"state_2_key":1,"state_2_choice":1,"state_2_rt":719.7999999523163,"outcome":0,"rocket_colors":["#486ea7","#a75248"],"planet_colors":["#706081","#5b7c65"],"screen_resolution":[1366,768],"minimum_resolution":1,"trial":0,"trial_type":"two-step-trial","trial_index":23,"time_elapsed":651768,"internal_node_id":"0.0-11.0-1.0-0.4","task_version":"1.0","jspsych_version":"6.3.1","missing":false},{"state_1_ids":[1,0],"state_1_key":1,"state_1_choice":0,"state_1_rt":596.1000000238419,"transition":1,"state":0,"state_2_ids":[0,1],"state_2_key":0,"state_2_choice":0,"state_2_rt":690.5,"outcome":0,"rocket_colors":["#486ea7","#a75248"],"planet_colors":["#706081","#5b7c65"],"screen_resolution":[1366,768],"minimum_resolution":1,"trial":0,"trial_type":"two-step-trial","trial_index":24,"time_elapsed":655063,"internal_node_id":"0.0-11.0-1.0-0.5","task_version":"1.0","jspsych_version":"6.3.1","missing":false},{"state_1_ids":[0,1],"state_1_key":1,"state_1_choice":1,"state_1_rt":1564.8999999761581,"transition":1,"state":1,"state_2_ids":[2,3],"state_2_key":1,"state_2_choice":3,"state_2_rt":2495.899999976158,"outcome":0,"rocket_colors":["#486ea7","#a75248"],"planet_colors":["#706081","#5b7c65"],"screen_resolution":[1366,768],"minimum_resolution":1,"trial":0,"trial_type":"two-step-trial","trial_index":25,"time_elapsed":661129,"internal_node_id":"0.0-11.0-1.0-0.6","task_version":"1.0","jspsych_version":"6.3.1","missing":false},{"state_1_ids":[0,1],"state_1_key":1,"state_1_choice":1,"state_1_rt":486.8000000715256,"transition":1,"state":1,"state_2_ids":[2,3],"state_2_key":0,"state_2_choice":2,"state_2_rt":494,"outcome":0,"rocket_colors":["#486ea7","#a75248"],"planet_colors":["#706081","#5b7c65"],"screen_resolution":[1366,768],"minimum_resolution":1,"trial":0,"trial_type":"two-step-trial","trial_index":26,"time_elapsed":664117,"internal_node_id":"0.0-11.0-1.0-0.7","task_version":"1.0","jspsych_version":"6.3.1","missing":false},{"state_1_ids":[0,1],"state_1_key":0,"state_1_choice":0,"state_1_rt":1337.7999999523163,"transition":1,"state":0,"state_2_ids":[0,1],"state_2_key":1,"state_2_choice":1,"state_2_rt":657.2999999523163,"outcome":0,"rocket_colors":["#486ea7","#a75248"],"planet_colors":["#706081","#5b7c65"],"screen_resolution":[1366,768],"minimum_resolution":1,"trial":0,"trial_type":"two-step-trial","trial_index":27,"time_elapsed":668121,"internal_node_id":"0.0-11.0-1.0-0.8","task_version":"1.0","jspsych_version":"6.3.1","missing":false},{"state_1_ids":[1,0],"state_1_key":0,"state_1_choice":1,"state_1_rt":527.2999999523163,"transition":1,"state":1,"state_2_ids":[2,3],"state_2_key":0,"state_2_choice":2,"state_2_rt":648.5,"outcome":0,"rocket_colors":["#486ea7","#a75248"],"planet_colors":["#706081","#5b7c65"],"screen_resolution":[1366,768],"minimum_resolution":1,"trial":0,"trial_type":"two-step-trial","trial_index":28,"time_elapsed":671306,"internal_node_id":"0.0-11.0-1.0-0.9","task_version":"1.0","jspsych_version":"6.3.1","missing":false},{"view_history":"[{\"page_index\":0,\"viewing_time\":4805.299999952316},{\"page_index\":1,\"viewing_time\":4284.400000095367},{\"page_index\":2,\"viewing_time\":1889.7999999523163},{\"page_index\":3,\"viewing_time\":3963.899999976158},{\"page_index\":4,\"viewing_time\":12310.200000047684},{\"page_index\":5,\"viewing_time\":22323},{\"page_index\":6,\"viewing_time\":5070.399999976158}]","rt":54648.10000002384,"trial_type":"two-step-instructions","trial_index":29,"time_elapsed":725963,"internal_node_id":"0.0-12.0-1.0","task_version":"1.0","jspsych_version":"6.3.1"},{"responses":["True","False","True"],"num_errors":0,"rt":12601.100000023842,"quiz":3,"trial_type":"two-step-comprehension","trial_index":30,"time_elapsed":738568,"internal_node_id":"0.0-12.0-2.0","task_version":"1.0","jspsych_version":"6.3.1"},{"view_history":"[{\"page_index\":0,\"viewing_time\":10771.399999976158},{\"page_index\":1,\"viewing_time\":3675.7999999523163},{\"page_index\":2,\"viewing_time\":6798.5}]","rt":21246.399999976158,"trial_type":"two-step-instructions","trial_index":31,"time_elapsed":759820,"internal_node_id":"0.0-13.0","task_version":"1.0","jspsych_version":"6.3.1"},{"state_1_ids":[1,0],"state_1_key":0,"state_1_choice":1,"state_1_rt":2495.2999999523163,"transition":1,"state":1,"state_2_ids":[2,3],"state_2_key":0,"state_2_choice":2,"state_2_rt":601.9000000953674,"outcome":1,"rocket_colors":["#955db9","#48a782"],"planet_colors":["#5f6f81","#7f5d5d"],"screen_resolution":[1366,768],"minimum_resolution":1,"trial":1,"drifts":[0.44,0.385,0.62,0.421],"drift_ix":1,"trial_type":"two-step-trial","trial_index":32,"time_elapsed":764927,"internal_node_id":"0.0-14.0-0.0","task_version":"1.0","jspsych_version":"6.3.1","browser_interactions":0,"missing":false},{"state_1_ids":[0,1],"state_1_key":0,"state_1_choice":0,"state_1_rt":474.60000002384186,"transition":1,"state":0,"state_2_ids":[0,1],"state_2_key":0,"state_2_choice":0,"state_2_rt":851.2999999523163,"outcome":0,"rocket_colors":["#955db9","#48a782"],"planet_colors":["#5f6f81","#7f5d5d"],"screen_resolution":[1366,768],"minimum_resolution":1,"trial":2,"drifts":[0.427,0.383,0.623,0.388],"drift_ix":1,"trial_type":"two-step-trial","trial_index":33,"time_elapsed":768258,"internal_node_id":"0.0-15.0-0.0","task_version":"1.0","jspsych_version":"6.3.1","browser_interactions":0,"missing":false},{"state_1_ids":[1,0],"state_1_key":0,"state_1_choice":1,"state_1_rt":538.9000000953674,"transition":1,"state":1,"state_2_ids":[2,3],"state_2_key":0,"state_2_choice":2,"state_2_rt":1193.2999999523163,"outcome":1,"rocket_colors":["#955db9","#48a782"],"planet_colors":["#5f6f81","#7f5d5d"],"screen_resolution":[1366,768],"minimum_resolution":1,"trial":3,"drifts":[0.366,0.399,0.638,0.394],"drift_ix":1,"trial_type":"two-step-trial","trial_index":34,"time_elapsed":771997,"internal_node_id":"0.0-16.0-0.0","task_version":"1.0","jspsych_version":"6.3.1","browser_interactions":0,"missing":false},{"state_1_ids":[1,0],"state_1_key":0,"state_1_choice":1,"state_1_rt":750.3999999761581,"transition":1,"state":1,"state_2_ids":[2,3],"state_2_key":0,"state_2_choice":2,"state_2_rt":772.2000000476837,"outcome":1,"rocket_colors":["#955db9","#48a782"],"planet_colors":["#5f6f81","#7f5d5d"],"screen_resolution":[1366,768],"minimum_resolution":1,"trial":4,"drifts":[0.352,0.371,0.644,0.424],"drift_ix":1,"trial_type":"two-step-trial","trial_index":35,"time_elapsed":775524,"internal_node_id":"0.0-17.0-0.0","task_version":"1.0","jspsych_version":"6.3.1","browser_interactions":0,"missing":false},{"state_1_ids":[1,0],"state_1_key":0,"state_1_choice":1,"state_1_rt":723.1000000238419,"transition":1,"state":1,"state_2_ids":[2,3],"state_2_key":0,"state_2_choice":2,"state_2_rt":607.6000000238419,"outcome":1,"rocket_colors":["#955db9","#48a782"],"planet_colors":["#5f6f81","#7f5d5d"],"screen_resolution":[1366,768],"minimum_resolution":1,"trial":5,"drifts":[0.387,0.418,0.671,0.445],"drift_ix":1,"trial_type":"two-step-trial","trial_index":36,"time_elapsed":778876,"internal_node_id":"0.0-18.0-0.0","task_version":"1.0","jspsych_version":"6.3.1","browser_interactions":0,"missing":false},{"state_1_ids":[0,1],"state_1_key":1,"state_1_choice":1,"state_1_rt":1501,"transition":1,"state":1,"state_2_ids":[2,3],"state_2_key":0,"state_2_choice":2,"state_2_rt":690.8000000715256,"outcome":1,"rocket_colors":["#955db9","#48a782"],"planet_colors":["#5f6f81","#7f5d5d"],"screen_resolution":[1366,768],"minimum_resolution":1,"trial":6,"drifts":[0.376,0.44,0.655,0.477],"drift_ix":1,"trial_type":"two-step-trial","trial_index":37,"time_elapsed":783079,"internal_node_id":"0.0-19.0-0.0","task_version":"1.0","jspsych_version":"6.3.1","browser_interactions":0,"missing":false},{"state_1_ids":[0,1],"state_1_key":1,"state_1_choice":1,"state_1_rt":950.3999999761581,"transition":0,"state":0,"state_2_ids":[0,1],"state_2_key":1,"state_2_choice":1,"state_2_rt":3046.8000000715256,"outcome":1,"rocket_colors":["#955db9","#48a782"],"planet_colors":["#5f6f81","#7f5d5d"],"screen_resolution":[1366,768],"minimum_resolution":1,"trial":7,"drifts":[0.376,0.46,0.674,0.453],"drift_ix":1,"trial_type":"two-step-trial","trial_index":38,"time_elapsed":789084,"internal_node_id":"0.0-20.0-0.0","task_version":"1.0","jspsych_version":"6.3.1","browser_interactions":0,"missing":false},{"state_1_ids":[0,1],"state_1_key":1,"state_1_choice":1,"state_1_rt":1054.8000000715256,"transition":1,"state":1,"state_2_ids":[2,3],"state_2_key":1,"state_2_choice":3,"state_2_rt":1395.8999999761581,"outcome":1,"rocket_colors":["#955db9","#48a782"],"planet_colors":["#5f6f81","#7f5d5d"],"screen_resolution":[1366,768],"minimum_resolution":1,"trial":8,"drifts":[0.37,0.476,0.645,0.47],"drift_ix":1,"trial_type":"two-step-trial","trial_index":39,"time_elapsed":793557,"internal_node_id":"0.0-21.0-0.0","task_version":"1.0","jspsych_version":"6.3.1","browser_interactions":0,"missing":false},{"state_1_ids":[0,1],"state_1_key":1,"state_1_choice":1,"state_1_rt":663.1999999284744,"transition":1,"state":1,"state_2_ids":[2,3],"state_2_key":1,"state_2_choice":3,"state_2_rt":868.2000000476837,"outcome":1,"rocket_colors":["#955db9","#48a782"],"planet_colors":["#5f6f81","#7f5d5d"],"screen_resolution":[1366,768],"minimum_resolution":1,"trial":9,"drifts":[0.349,0.439,0.653,0.482],"drift_ix":1,"trial_type":"two-step-trial","trial_index":40,"time_elapsed":797096,"internal_node_id":"0.0-22.0-0.0","task_version":"1.0","jspsych_version":"6.3.1","browser_interactions":0,"missing":false},{"state_1_ids":[1,0],"state_1_key":0,"state_1_choice":1,"state_1_rt":1006.8999999761581,"transition":1,"state":1,"state_2_ids":[2,3],"state_2_key":1,"state_2_choice":3,"state_2_rt":1954.5,"outcome":1,"rocket_colors":["#955db9","#48a782"],"planet_colors":["#5f6f81","#7f5d5d"],"screen_resolution":[1366,768],"minimum_resolution":1,"trial":10,"drifts":[0.347,0.471,0.629,0.478],"drift_ix":1,"trial_type":"two-step-trial","trial_index":41,"time_elapsed":802066,"internal_node_id":"0.0-23.0-0.0","task_version":"1.0","jspsych_version":"6.3.1","browser_interactions":0,"missing":false},{"state_1_ids":[1,0],"state_1_key":0,"state_1_choice":1,"state_1_rt":584,"transition":1,"state":1,"state_2_ids":[2,3],"state_2_key":1,"state_2_choice":3,"state_2_rt":642.7000000476837,"outcome":1,"rocket_colors":["#955db9","#48a782"],"planet_colors":["#5f6f81","#7f5d5d"],"screen_resolution":[1366,768],"minimum_resolution":1,"trial":11,"drifts":[0.346,0.411,0.666,0.456],"drift_ix":1,"trial_type":"two-step-trial","trial_index":42,"time_elapsed":805300,"internal_node_id":"0.0-24.0-0.0","task_version":"1.0","jspsych_version":"6.3.1","browser_interactions":0,"missing":false},{"state_1_ids":[1,0],"state_1_key":0,"state_1_choice":1,"state_1_rt":1506.3999999761581,"transition":1,"state":1,"state_2_ids":[2,3],"state_2_key":1,"state_2_choice":3,"state_2_rt":706.4000000953674,"outcome":1,"rocket_colors":["#955db9","#48a782"],"planet_colors":["#5f6f81","#7f5d5d"],"screen_resolution":[1366,768],"minimum_resolution":1,"trial":12,"drifts":[0.371,0.413,0.638,0.405],"drift_ix":1,"trial_type":"two-step-trial","trial_index":43,"time_elapsed":809520,"internal_node_id":"0.0-25.0-0.0","task_version":"1.0","jspsych_version":"6.3.1","browser_interactions":0,"missing":false},{"state_1_ids":[1,0],"state_1_key":0,"state_1_choice":1,"state_1_rt":1211.8000000715256,"transition":1,"state":1,"state_2_ids":[2,3],"state_2_key":1,"state_2_choice":3,"state_2_rt":601.2999999523163,"outcome":1,"rocket_colors":["#955db9","#48a782"],"planet_colors":["#5f6f81","#7f5d5d"],"screen_resolution":[1366,768],"minimum_resolution":1,"trial":13,"drifts":[0.354,0.425,0.641,0.388],"drift_ix":1,"trial_type":"two-step-trial","trial_index":44,"time_elapsed":813342,"internal_node_id":"0.0-26.0-0.0","task_version":"1.0","jspsych_version":"6.3.1","browser_interactions":0,"missing":false},{"state_1_ids":[1,0],"state_1_key":0,"state_1_choice":1,"state_1_rt":585.3999999761581,"transition":0,"state":0,"state_2_ids":[0,1],"state_2_key":1,"state_2_choice":1,"state_2_rt":1850.2999999523163,"outcome":0,"rocket_colors":["#955db9","#48a782"],"planet_colors":["#5f6f81","#7f5d5d"],"screen_resolution":[1366,768],"minimum_resolution":1,"trial":14,"drifts":[0.315,0.45,0.635,0.335],"drift_ix":1,"trial_type":"two-step-trial","trial_index":45,"time_elapsed":817784,"internal_node_id":"0.0-27.0-0.0","task_version":"1.0","jspsych_version":"6.3.1","browser_interactions":0,"missing":false},{"state_1_ids":[0,1],"state_1_key":1,"state_1_choice":1,"state_1_rt":755,"transition":1,"state":1,"state_2_ids":[2,3],"state_2_key":1,"state_2_choice":3,"state_2_rt":1340.3999999761581,"outcome":0,"rocket_colors":["#955db9","#48a782"],"planet_colors":["#5f6f81","#7f5d5d"],"screen_resolution":[1366,768],"minimum_resolution":1,"trial":15,"drifts":[0.291,0.41,0.635,0.339],"drift_ix":1,"trial_type":"two-step-trial","trial_index":46,"time_elapsed":821886,"internal_node_id":"0.0-28.0-0.0","task_version":"1.0","jspsych_version":"6.3.1","browser_interactions":0,"missing":false},{"state_1_ids":[0,1],"state_1_key":1,"state_1_choice":1,"state_1_rt":688.2999999523163,"transition":1,"state":1,"state_2_ids":[2,3],"state_2_key":0,"state_2_choice":2,"state_2_rt":475.2000000476837,"outcome":1,"rocket_colors":["#955db9","#48a782"],"planet_colors":["#5f6f81","#7f5d5d"],"screen_resolution":[1366,768],"minimum_resolution":1,"trial":16,"drifts":[0.3,0.409,0.61,0.364],"drift_ix":1,"trial_type":"two-step-trial","trial_index":47,"time_elapsed":825061,"internal_node_id":"0.0-29.0-0.0","task_version":"1.0","jspsych_version":"6.3.1","browser_interactions":0,"missing":false},{"state_1_ids":[0,1],"state_1_key":1,"state_1_choice":1,"state_1_rt":597.8999999761581,"transition":0,"state":0,"state_2_ids":[0,1],"state_2_key":0,"state_2_choice":0,"state_2_rt":2459.899999976158,"outcome":0,"rocket_colors":["#955db9","#48a782"],"planet_colors":["#5f6f81","#7f5d5d"],"screen_resolution":[1366,768],"minimum_resolution":1,"trial":17,"drifts":[0.3,0.418,0.639,0.392],"drift_ix":1,"trial_type":"two-step-trial","trial_index":48,"time_elapsed":830125,"internal_node_id":"0.0-30.0-0.0","task_version":"1.0","jspsych_version":"6.3.1","browser_interactions":0,"missing":false},{"state_1_ids":[0,1],"state_1_key":1,"state_1_choice":1,"state_1_rt":559.1000000238419,"transition":1,"state":1,"state_2_ids":[2,3],"state_2_key":1,"state_2_choice":3,"state_2_rt":1224.5999999046326,"outcome":1,"rocket_colors":["#955db9","#48a782"],"planet_colors":["#5f6f81","#7f5d5d"],"screen_resolution":[1366,768],"minimum_resolution":1,"trial":18,"drifts":[0.308,0.463,0.63,0.375],"drift_ix":1,"trial_type":"two-step-trial","trial_index":49,"time_elapsed":833917,"internal_node_id":"0.0-31.0-0.0","task_version":"1.0","jspsych_version":"6.3.1","browser_interactions":0,"missing":false},{"state_1_ids":[0,1],"state_1_key":1,"state_1_choice":1,"state_1_rt":694.2000000476837,"transition":1,"state":1,"state_2_ids":[2,3],"state_2_key":1,"state_2_choice":3,"state_2_rt":601.5999999046326,"outcome":0,"rocket_colors":["#955db9","#48a782"],"planet_colors":["#5f6f81","#7f5d5d"],"screen_resolution":[1366,768],"minimum_resolution":1,"trial":19,"drifts":[0.345,0.475,0.617,0.402],"drift_ix":1,"trial_type":"two-step-trial","trial_index":50,"time_elapsed":837219,"internal_node_id":"0.0-32.0-0.0","task_version":"1.0","jspsych_version":"6.3.1","browser_interactions":0,"missing":false},{"state_1_ids":[1,0],"state_1_key":1,"state_1_choice":0,"state_1_rt":859.2000000476837,"transition":1,"state":0,"state_2_ids":[0,1],"state_2_key":0,"state_2_choice":0,"state_2_rt":628.6999999284744,"outcome":0,"rocket_colors":["#955db9","#48a782"],"planet_colors":["#5f6f81","#7f5d5d"],"screen_resolution":[1366,768],"minimum_resolution":1,"trial":20,"drifts":[0.39,0.463,0.595,0.433],"drift_ix":1,"trial_type":"two-step-trial","trial_index":51,"time_elapsed":840713,"internal_node_id":"0.0-33.0-0.0","task_version":"1.0","jspsych_version":"6.3.1","browser_interactions":0,"missing":false},{"state_1_ids":[0,1],"state_1_key":1,"state_1_choice":1,"state_1_rt":1131.7999999523163,"transition":1,"state":1,"state_2_ids":[2,3],"state_2_key":0,"state_2_choice":2,"state_2_rt":1660.2999999523163,"outcome":1,"rocket_colors":["#955db9","#48a782"],"planet_colors":["#5f6f81","#7f5d5d"],"screen_resolution":[1366,768],"minimum_resolution":1,"trial":21,"drifts":[0.413,0.433,0.607,0.447],"drift_ix":1,"trial_type":"two-step-trial","trial_index":52,"time_elapsed":845512,"internal_node_id":"0.0-34.0-0.0","task_version":"1.0","jspsych_version":"6.3.1","browser_interactions":0,"missing":false},{"state_1_ids":[1,0],"state_1_key":0,"state_1_choice":1,"state_1_rt":1093.7000000476837,"transition":1,"state":1,"state_2_ids":[2,3],"state_2_key":0,"state_2_choice":2,"state_2_rt":970.8000000715256,"outcome":1,"rocket_colors":["#955db9","#48a782"],"planet_colors":["#5f6f81","#7f5d5d"],"screen_resolution":[1366,768],"minimum_resolution":1,"trial":22,"drifts":[0.397,0.431,0.605,0.426],"drift_ix":1,"trial_type":"two-step-trial","trial_index":53,"time_elapsed":849585,"internal_node_id":"0.0-35.0-0.0","task_version":"1.0","jspsych_version":"6.3.1","browser_interactions":0,"missing":false},{"state_1_ids":[0,1],"state_1_key":0,"state_1_choice":0,"state_1_rt":1025,"transition":1,"state":0,"state_2_ids":[0,1],"state_2_key":1,"state_2_choice":1,"state_2_rt":832.8999999761581,"outcome":0,"rocket_colors":["#955db9","#48a782"],"planet_colors":["#5f6f81","#7f5d5d"],"screen_resolution":[1366,768],"minimum_resolution":1,"trial":23,"drifts":[0.375,0.426,0.617,0.383],"drift_ix":1,"trial_type":"two-step-trial","trial_index":54,"time_elapsed":853451,"internal_node_id":"0.0-36.0-0.0","task_version":"1.0","jspsych_version":"6.3.1","browser_interactions":0,"missing":false},{"state_1_ids":[0,1],"state_1_key":1,"state_1_choice":1,"state_1_rt":1300.7999999523163,"transition":0,"state":0,"state_2_ids":[0,1],"state_2_key":0,"state_2_choice":0,"state_2_rt":2159.399999976158,"outcome":0,"rocket_colors":["#955db9","#48a782"],"planet_colors":["#5f6f81","#7f5d5d"],"screen_resolution":[1366,768],"minimum_resolution":1,"trial":24,"drifts":[0.396,0.432,0.631,0.356],"drift_ix":1,"trial_type":"two-step-trial","trial_index":55,"time_elapsed":858919,"internal_node_id":"0.0-37.0-0.0","task_version":"1.0","jspsych_version":"6.3.1","browser_interactions":0,"missing":false},{"state_1_ids":[0,1],"state_1_key":1,"state_1_choice":1,"state_1_rt":1232.2999999523163,"transition":1,"state":1,"state_2_ids":[2,3],"state_2_key":0,"state_2_choice":2,"state_2_rt":1144.9000000953674,"outcome":1,"rocket_colors":["#955db9","#48a782"],"planet_colors":["#5f6f81","#7f5d5d"],"screen_resolution":[1366,768],"minimum_resolution":1,"trial":25,"drifts":[0.352,0.393,0.634,0.357],"drift_ix":1,"trial_type":"two-step-trial","trial_index":56,"time_elapsed":863307,"internal_node_id":"0.0-38.0-0.0","task_version":"1.0","jspsych_version":"6.3.1","browser_interactions":0,"missing":false},{"state_1_ids":[1,0],"state_1_key":0,"state_1_choice":1,"state_1_rt":1514.8999999761581,"transition":1,"state":1,"state_2_ids":[2,3],"state_2_key":0,"state_2_choice":2,"state_2_rt":502.6999999284744,"outcome":1,"rocket_colors":["#955db9","#48a782"],"planet_colors":["#5f6f81","#7f5d5d"],"screen_resolution":[1366,768],"minimum_resolution":1,"trial":26,"drifts":[0.379,0.371,0.632,0.315],"drift_ix":1,"trial_type":"two-step-trial","trial_index":57,"time_elapsed":867349,"internal_node_id":"0.0-39.0-0.0","task_version":"1.0","jspsych_version":"6.3.1","browser_interactions":0,"missing":false},{"state_1_ids":[0,1],"state_1_key":0,"state_1_choice":0,"state_1_rt":1009.6000000238419,"transition":1,"state":0,"state_2_ids":[0,1],"state_2_key":1,"state_2_choice":1,"state_2_rt":1101,"outcome":1,"rocket_colors":["#955db9","#48a782"],"planet_colors":["#5f6f81","#7f5d5d"],"screen_resolution":[1366,768],"minimum_resolution":1,"trial":27,"drifts":[0.44,0.355,0.639,0.305],"drift_ix":1,"trial_type":"two-step-trial","trial_index":58,"time_elapsed":871467,"internal_node_id":"0.0-40.0-0.0","task_version":"1.0","jspsych_version":"6.3.1","browser_interactions":0,"missing":false},{"state_1_ids":[1,0],"state_1_key":0,"state_1_choice":1,"state_1_rt":2946.5,"transition":1,"state":1,"state_2_ids":[2,3],"state_2_key":0,"state_2_choice":2,"state_2_rt":799.3999999761581,"outcome":0,"rocket_colors":["#955db9","#48a782"],"planet_colors":["#5f6f81","#7f5d5d"],"screen_resolution":[1366,768],"minimum_resolution":1,"trial":28,"drifts":[0.473,0.399,0.627,0.311],"drift_ix":1,"trial_type":"two-step-trial","trial_index":59,"time_elapsed":877220,"internal_node_id":"0.0-41.0-0.0","task_version":"1.0","jspsych_version":"6.3.1","browser_interactions":0,"missing":false},{"state_1_ids":[0,1],"state_1_key":0,"state_1_choice":0,"state_1_rt":2115.100000023842,"transition":1,"state":0,"state_2_ids":[0,1],"state_2_key":1,"state_2_choice":1,"state_2_rt":539.1000000238419,"outcome":1,"rocket_colors":["#955db9","#48a782"],"planet_colors":["#5f6f81","#7f5d5d"],"screen_resolution":[1366,768],"minimum_resolution":1,"trial":29,"drifts":[0.47,0.426,0.594,0.318],"drift_ix":1,"trial_type":"two-step-trial","trial_index":60,"time_elapsed":881883,"internal_node_id":"0.0-42.0-0.0","task_version":"1.0","jspsych_version":"6.3.1","browser_interactions":0,"missing":false},{"state_1_ids":[0,1],"state_1_key":0,"state_1_choice":0,"state_1_rt":727.6999999284744,"transition":1,"state":0,"state_2_ids":[0,1],"state_2_key":1,"state_2_choice":1,"state_2_rt":696.1999999284744,"outcome":0,"rocket_colors":["#955db9","#48a782"],"planet_colors":["#5f6f81","#7f5d5d"],"screen_resolution":[1366,768],"minimum_resolution":1,"trial":30,"drifts":[0.455,0.475,0.559,0.323],"drift_ix":1,"trial_type":"two-step-trial","trial_index":61,"time_elapsed":885317,"internal_node_id":"0.0-43.0-0.0","task_version":"1.0","jspsych_version":"6.3.1","browser_interactions":0,"missing":false},{"state_1_ids":[1,0],"state_1_key":1,"state_1_choice":0,"state_1_rt":3166.8000000715256,"transition":0,"state":1,"state_2_ids":[2,3],"state_2_key":1,"state_2_choice":3,"state_2_rt":1591.5,"outcome":0,"rocket_colors":["#955db9","#48a782"],"planet_colors":["#5f6f81","#7f5d5d"],"screen_resolution":[1366,768],"minimum_resolution":1,"trial":31,"drifts":[0.435,0.51,0.608,0.321],"drift_ix":1,"trial_type":"two-step-trial","trial_index":62,"time_elapsed":892084,"internal_node_id":"0.0-44.0-0.0","task_version":"1.0","jspsych_version":"6.3.1","browser_interactions":0,"missing":false},{"state_1_ids":[1,0],"state_1_key":1,"state_1_choice":0,"state_1_rt":638,"transition":1,"state":0,"state_2_ids":[0,1],"state_2_key":0,"state_2_choice":0,"state_2_rt":591.8999999761581,"outcome":0,"rocket_colors":["#955db9","#48a782"],"planet_colors":["#5f6f81","#7f5d5d"],"screen_resolution":[1366,768],"minimum_resolution":1,"trial":32,"drifts":[0.415,0.507,0.579,0.317],"drift_ix":1,"trial_type":"two-step-trial","trial_index":63,"time_elapsed":895320,"internal_node_id":"0.0-45.0-0.0","task_version":"1.0","jspsych_version":"6.3.1","browser_interactions":0,"missing":false},{"state_1_ids":[0,1],"state_1_key":1,"state_1_choice":1,"state_1_rt":2299.399999976158,"transition":1,"state":1,"state_2_ids":[2,3],"state_2_key":0,"state_2_choice":2,"state_2_rt":725.5,"outcome":1,"rocket_colors":["#955db9","#48a782"],"planet_colors":["#5f6f81","#7f5d5d"],"screen_resolution":[1366,768],"minimum_resolution":1,"trial":33,"drifts":[0.459,0.542,0.595,0.302],"drift_ix":1,"trial_type":"two-step-trial","trial_index":64,"time_elapsed":900353,"internal_node_id":"0.0-46.0-0.0","task_version":"1.0","jspsych_version":"6.3.1","browser_interactions":0,"missing":false},{"state_1_ids":[1,0],"state_1_key":0,"state_1_choice":1,"state_1_rt":963,"transition":1,"state":1,"state_2_ids":[2,3],"state_2_key":0,"state_2_choice":2,"state_2_rt":624.9000000953674,"outcome":1,"rocket_colors":["#955db9","#48a782"],"planet_colors":["#5f6f81","#7f5d5d"],"screen_resolution":[1366,768],"minimum_resolution":1,"trial":34,"drifts":[0.491,0.491,0.597,0.309],"drift_ix":1,"trial_type":"two-step-trial","trial_index":65,"time_elapsed":903950,"internal_node_id":"0.0-47.0-0.0","task_version":"1.0","jspsych_version":"6.3.1","browser_interactions":0,"missing":false},{"state_1_ids":[1,0],"state_1_key":0,"state_1_choice":1,"state_1_rt":1092.8999999761581,"transition":1,"state":1,"state_2_ids":[2,3],"state_2_key":0,"state_2_choice":2,"state_2_rt":907.5,"outcome":1,"rocket_colors":["#955db9","#48a782"],"planet_colors":["#5f6f81","#7f5d5d"],"screen_resolution":[1366,768],"minimum_resolution":1,"trial":35,"drifts":[0.474,0.513,0.589,0.338],"drift_ix":1,"trial_type":"two-step-trial","trial_index":66,"time_elapsed":907956,"internal_node_id":"0.0-48.0-0.0","task_version":"1.0","jspsych_version":"6.3.1","browser_interactions":0,"missing":false},{"state_1_ids":[1,0],"state_1_key":0,"state_1_choice":1,"state_1_rt":1166.8999999761581,"transition":0,"state":0,"state_2_ids":[0,1],"state_2_key":1,"state_2_choice":1,"state_2_rt":3931.899999976158,"outcome":1,"rocket_colors":["#955db9","#48a782"],"planet_colors":["#5f6f81","#7f5d5d"],"screen_resolution":[1366,768],"minimum_resolution":1,"trial":36,"drifts":[0.457,0.538,0.559,0.332],"drift_ix":1,"trial_type":"two-step-trial","trial_index":67,"time_elapsed":915060,"internal_node_id":"0.0-49.0-0.0","task_version":"1.0","jspsych_version":"6.3.1","browser_interactions":0,"missing":false},{"state_1_ids":[0,1],"state_1_key":1,"state_1_choice":1,"state_1_rt":1077.3999999761581,"transition":1,"state":1,"state_2_ids":[2,3],"state_2_key":0,"state_2_choice":2,"state_2_rt":753.6000000238419,"outcome":1,"rocket_colors":["#955db9","#48a782"],"planet_colors":["#5f6f81","#7f5d5d"],"screen_resolution":[1366,768],"minimum_resolution":1,"trial":37,"drifts":[0.485,0.54,0.582,0.328],"drift_ix":1,"trial_type":"two-step-trial","trial_index":68,"time_elapsed":918897,"internal_node_id":"0.0-50.0-0.0","task_version":"1.0","jspsych_version":"6.3.1","browser_interactions":0,"missing":false},{"state_1_ids":[0,1],"state_1_key":1,"state_1_choice":1,"state_1_rt":1320.8999999761581,"transition":0,"state":0,"state_2_ids":[0,1],"state_2_key":1,"state_2_choice":1,"state_2_rt":1085.7000000476837,"outcome":0,"rocket_colors":["#955db9","#48a782"],"planet_colors":["#5f6f81","#7f5d5d"],"screen_resolution":[1366,768],"minimum_resolution":1,"trial":38,"drifts":[0.448,0.561,0.557,0.342],"drift_ix":1,"trial_type":"two-step-trial","trial_index":69,"time_elapsed":923313,"internal_node_id":"0.0-51.0-0.0","task_version":"1.0","jspsych_version":"6.3.1","browser_interactions":0,"missing":false},{"state_1_ids":[0,1],"state_1_key":1,"state_1_choice":1,"state_1_rt":795.2999999523163,"transition":0,"state":0,"state_2_ids":[0,1],"state_2_key":0,"state_2_choice":0,"state_2_rt":1311.2000000476837,"outcome":1,"rocket_colors":["#955db9","#48a782"],"planet_colors":["#5f6f81","#7f5d5d"],"screen_resolution":[1366,768],"minimum_resolution":1,"trial":39,"drifts":[0.401,0.544,0.587,0.37],"drift_ix":1,"trial_type":"two-step-trial","trial_index":70,"time_elapsed":927429,"internal_node_id":"0.0-52.0-0.0","task_version":"1.0","jspsych_version":"6.3.1","browser_interactions":0,"missing":false},{"state_1_ids":[0,1],"state_1_key":1,"state_1_choice":1,"state_1_rt":893.1000000238419,"transition":1,"state":1,"state_2_ids":[2,3],"state_2_key":0,"state_2_choice":2,"state_2_rt":796.6000000238419,"outcome":1,"rocket_colors":["#955db9","#48a782"],"planet_colors":["#5f6f81","#7f5d5d"],"screen_resolution":[1366,768],"minimum_resolution":1,"trial":40,"drifts":[0.404,0.536,0.602,0.375],"drift_ix":1,"trial_type":"two-step-trial","trial_index":71,"time_elapsed":931126,"internal_node_id":"0.0-53.0-0.0","task_version":"1.0","jspsych_version":"6.3.1","browser_interactions":0,"missing":false},{"state_1_ids":[0,1],"state_1_key":1,"state_1_choice":1,"state_1_rt":1317.7000000476837,"transition":0,"state":0,"state_2_ids":[0,1],"state_2_key":1,"state_2_choice":1,"state_2_rt":1580.8999999761581,"outcome":1,"rocket_colors":["#955db9","#48a782"],"planet_colors":["#5f6f81","#7f5d5d"],"screen_resolution":[1366,768],"minimum_resolution":1,"trial":41,"drifts":[0.396,0.535,0.6,0.41],"drift_ix":1,"trial_type":"two-step-trial","trial_index":72,"time_elapsed":936034,"internal_node_id":"0.0-54.0-0.0","task_version":"1.0","jspsych_version":"6.3.1","browser_interactions":0,"missing":false},{"state_1_ids":[0,1],"state_1_key":1,"state_1_choice":1,"state_1_rt":754.6000000238419,"transition":1,"state":1,"state_2_ids":[2,3],"state_2_key":0,"state_2_choice":2,"state_2_rt":723.6000000238419,"outcome":0,"rocket_colors":["#955db9","#48a782"],"planet_colors":["#5f6f81","#7f5d5d"],"screen_resolution":[1366,768],"minimum_resolution":1,"trial":42,"drifts":[0.406,0.554,0.6,0.432],"drift_ix":1,"trial_type":"two-step-trial","trial_index":73,"time_elapsed":939519,"internal_node_id":"0.0-55.0-0.0","task_version":"1.0","jspsych_version":"6.3.1","browser_interactions":0,"missing":false},{"state_1_ids":[0,1],"state_1_key":1,"state_1_choice":1,"state_1_rt":1070,"transition":1,"state":1,"state_2_ids":[2,3],"state_2_key":0,"state_2_choice":2,"state_2_rt":613.7000000476837,"outcome":0,"rocket_colors":["#955db9","#48a782"],"planet_colors":["#5f6f81","#7f5d5d"],"screen_resolution":[1366,768],"minimum_resolution":1,"trial":43,"drifts":[0.381,0.564,0.612,0.443],"drift_ix":1,"trial_type":"two-step-trial","trial_index":74,"time_elapsed":943211,"internal_node_id":"0.0-56.0-0.0","task_version":"1.0","jspsych_version":"6.3.1","browser_interactions":0,"missing":false},{"state_1_ids":[1,0],"state_1_key":1,"state_1_choice":0,"state_1_rt":610.1999999284744,"transition":0,"state":1,"state_2_ids":[2,3],"state_2_key":1,"state_2_choice":3,"state_2_rt":1618.1999999284744,"outcome":0,"rocket_colors":["#955db9","#48a782"],"planet_colors":["#5f6f81","#7f5d5d"],"screen_resolution":[1366,768],"minimum_resolution":1,"trial":44,"drifts":[0.375,0.564,0.659,0.454],"drift_ix":1,"trial_type":"two-step-trial","trial_index":75,"time_elapsed":947448,"internal_node_id":"0.0-57.0-0.0","task_version":"1.0","jspsych_version":"6.3.1","browser_interactions":0,"missing":false},{"state_1_ids":[0,1],"state_1_key":1,"state_1_choice":1,"state_1_rt":2370.0999999046326,"transition":0,"state":0,"state_2_ids":[0,1],"state_2_key":1,"state_2_choice":1,"state_2_rt":1338,"outcome":1,"rocket_colors":["#955db9","#48a782"],"planet_colors":["#5f6f81","#7f5d5d"],"screen_resolution":[1366,768],"minimum_resolution":1,"trial":45,"drifts":[0.37,0.592,0.676,0.446],"drift_ix":1,"trial_type":"two-step-trial","trial_index":76,"time_elapsed":953163,"internal_node_id":"0.0-58.0-0.0","task_version":"1.0","jspsych_version":"6.3.1","browser_interactions":0,"missing":false},{"state_1_ids":[1,0],"state_1_key":0,"state_1_choice":1,"state_1_rt":2615.1999999284744,"transition":0,"state":0,"state_2_ids":[0,1],"state_2_key":1,"state_2_choice":1,"state_2_rt":930,"outcome":1,"rocket_colors":["#955db9","#48a782"],"planet_colors":["#5f6f81","#7f5d5d"],"screen_resolution":[1366,768],"minimum_resolution":1,"trial":46,"drifts":[0.369,0.571,0.682,0.419],"drift_ix":1,"trial_type":"two-step-trial","trial_index":77,"time_elapsed":958722,"internal_node_id":"0.0-59.0-0.0","task_version":"1.0","jspsych_version":"6.3.1","browser_interactions":0,"missing":false},{"state_1_ids":[1,0],"state_1_key":0,"state_1_choice":1,"state_1_rt":1070.5,"transition":1,"state":1,"state_2_ids":[2,3],"state_2_key":0,"state_2_choice":2,"state_2_rt":1186,"outcome":1,"rocket_colors":["#955db9","#48a782"],"planet_colors":["#5f6f81","#7f5d5d"],"screen_resolution":[1366,768],"minimum_resolution":1,"trial":47,"drifts":[0.392,0.532,0.65,0.4],"drift_ix":1,"trial_type":"two-step-trial","trial_index":78,"time_elapsed":962988,"internal_node_id":"0.0-60.0-0.0","task_version":"1.0","jspsych_version":"6.3.1","browser_interactions":0,"missing":false},{"state_1_ids":[0,1],"state_1_key":1,"state_1_choice":1,"state_1_rt":999.7000000476837,"transition":1,"state":1,"state_2_ids":[2,3],"state_2_key":0,"state_2_choice":2,"state_2_rt":718.5,"outcome":1,"rocket_colors":["#955db9","#48a782"],"planet_colors":["#5f6f81","#7f5d5d"],"screen_resolution":[1366,768],"minimum_resolution":1,"trial":48,"drifts":[0.412,0.529,0.637,0.409],"drift_ix":1,"trial_type":"two-step-trial","trial_index":79,"time_elapsed":966713,"internal_node_id":"0.0-61.0-0.0","task_version":"1.0","jspsych_version":"6.3.1","browser_interactions":0,"missing":false},{"state_1_ids":[0,1],"state_1_key":1,"state_1_choice":1,"state_1_rt":1084.3000000715256,"transition":1,"state":1,"state_2_ids":[2,3],"state_2_key":0,"state_2_choice":2,"state_2_rt":791.7999999523163,"outcome":1,"rocket_colors":["#955db9","#48a782"],"planet_colors":["#5f6f81","#7f5d5d"],"screen_resolution":[1366,768],"minimum_resolution":1,"trial":49,"drifts":[0.41,0.533,0.637,0.402],"drift_ix":1,"trial_type":"two-step-trial","trial_index":80,"time_elapsed":970595,"internal_node_id":"0.0-62.0-0.0","task_version":"1.0","jspsych_version":"6.3.1","browser_interactions":0,"missing":false},{"state_1_ids":[0,1],"state_1_key":1,"state_1_choice":1,"state_1_rt":1159.8999999761581,"transition":1,"state":1,"state_2_ids":[2,3],"state_2_key":0,"state_2_choice":2,"state_2_rt":1053.4000000953674,"outcome":1,"rocket_colors":["#955db9","#48a782"],"planet_colors":["#5f6f81","#7f5d5d"],"screen_resolution":[1366,768],"minimum_resolution":1,"trial":50,"drifts":[0.394,0.554,0.63,0.39],"drift_ix":1,"trial_type":"two-step-trial","trial_index":81,"time_elapsed":974816,"internal_node_id":"0.0-63.0-0.0","task_version":"1.0","jspsych_version":"6.3.1","browser_interactions":0,"missing":false},{"state_1_ids":[1,0],"state_1_key":0,"state_1_choice":1,"state_1_rt":1180.2000000476837,"transition":0,"state":0,"state_2_ids":[0,1],"state_2_key":1,"state_2_choice":1,"state_2_rt":1653.3999999761581,"outcome":0,"rocket_colors":["#955db9","#48a782"],"planet_colors":["#5f6f81","#7f5d5d"],"screen_resolution":[1366,768],"minimum_resolution":1,"trial":51,"drifts":[0.351,0.543,0.599,0.412],"drift_ix":1,"trial_type":"two-step-trial","trial_index":82,"time_elapsed":979665,"internal_node_id":"0.0-64.0-0.0","task_version":"1.0","jspsych_version":"6.3.1","browser_interactions":0,"missing":false},{"state_1_ids":[0,1],"state_1_key":1,"state_1_choice":1,"state_1_rt":881.5999999046326,"transition":1,"state":1,"state_2_ids":[2,3],"state_2_key":0,"state_2_choice":2,"state_2_rt":538.6000000238419,"outcome":0,"rocket_colors":["#955db9","#48a782"],"planet_colors":["#5f6f81","#7f5d5d"],"screen_resolution":[1366,768],"minimum_resolution":1,"trial":52,"drifts":[0.355,0.541,0.573,0.402],"drift_ix":1,"trial_type":"two-step-trial","trial_index":83,"time_elapsed":983100,"internal_node_id":"0.0-65.0-0.0","task_version":"1.0","jspsych_version":"6.3.1","browser_interactions":0,"missing":false},{"state_1_ids":[1,0],"state_1_key":0,"state_1_choice":1,"state_1_rt":1231.3000000715256,"transition":0,"state":0,"state_2_ids":[0,1],"state_2_key":1,"state_2_choice":1,"state_2_rt":1005.3999999761581,"outcome":1,"rocket_colors":["#955db9","#48a782"],"planet_colors":["#5f6f81","#7f5d5d"],"screen_resolution":[1366,768],"minimum_resolution":1,"trial":53,"drifts":[0.35,0.565,0.6,0.385],"drift_ix":1,"trial_type":"two-step-trial","trial_index":84,"time_elapsed":987347,"internal_node_id":"0.0-66.0-0.0","task_version":"1.0","jspsych_version":"6.3.1","browser_interactions":0,"missing":false},{"state_1_ids":[0,1],"state_1_key":1,"state_1_choice":1,"state_1_rt":1022.5,"transition":0,"state":0,"state_2_ids":[0,1],"state_2_key":1,"state_2_choice":1,"state_2_rt":760.3999999761581,"outcome":1,"rocket_colors":["#955db9","#48a782"],"planet_colors":["#5f6f81","#7f5d5d"],"screen_resolution":[1366,768],"minimum_resolution":1,"trial":54,"drifts":[0.367,0.543,0.601,0.392],"drift_ix":1,"trial_type":"two-step-trial","trial_index":85,"time_elapsed":991137,"internal_node_id":"0.0-67.0-0.0","task_version":"1.0","jspsych_version":"6.3.1","browser_interactions":0,"missing":false},{"state_1_ids":[0,1],"state_1_key":1,"state_1_choice":1,"state_1_rt":1104.5,"transition":0,"state":0,"state_2_ids":[0,1],"state_2_key":1,"state_2_choice":1,"state_2_rt":752,"outcome":0,"rocket_colors":["#955db9","#48a782"],"planet_colors":["#5f6f81","#7f5d5d"],"screen_resolution":[1366,768],"minimum_resolution":1,"trial":55,"drifts":[0.341,0.54,0.588,0.372],"drift_ix":1,"trial_type":"two-step-trial","trial_index":86,"time_elapsed":995003,"internal_node_id":"0.0-68.0-0.0","task_version":"1.0","jspsych_version":"6.3.1","browser_interactions":0,"missing":false},{"state_1_ids":[0,1],"state_1_key":1,"state_1_choice":1,"state_1_rt":1073.6999999284744,"transition":0,"state":0,"state_2_ids":[0,1],"state_2_key":0,"state_2_choice":0,"state_2_rt":1935.2000000476837,"outcome":0,"rocket_colors":["#955db9","#48a782"],"planet_colors":["#5f6f81","#7f5d5d"],"screen_resolution":[1366,768],"minimum_resolution":1,"trial":56,"drifts":[0.388,0.584,0.641,0.394],"drift_ix":1,"trial_type":"two-step-trial","trial_index":87,"time_elapsed":1000019,"internal_node_id":"0.0-69.0-0.0","task_version":"1.0","jspsych_version":"6.3.1","browser_interactions":0,"missing":false},{"state_1_ids":[1,0],"state_1_key":0,"state_1_choice":1,"state_1_rt":888.9000000953674,"transition":1,"state":1,"state_2_ids":[2,3],"state_2_key":0,"state_2_choice":2,"state_2_rt":708.2999999523163,"outcome":1,"rocket_colors":["#955db9","#48a782"],"planet_colors":["#5f6f81","#7f5d5d"],"screen_resolution":[1366,768],"minimum_resolution":1,"trial":57,"drifts":[0.373,0.597,0.649,0.355],"drift_ix":1,"trial_type":"two-step-trial","trial_index":88,"time_elapsed":1003623,"internal_node_id":"0.0-70.0-0.0","task_version":"1.0","jspsych_version":"6.3.1","browser_interactions":0,"missing":false},{"state_1_ids":[1,0],"state_1_key":0,"state_1_choice":1,"state_1_rt":670.6000000238419,"transition":1,"state":1,"state_2_ids":[2,3],"state_2_key":0,"state_2_choice":2,"state_2_rt":844.1000000238419,"outcome":0,"rocket_colors":["#955db9","#48a782"],"planet_colors":["#5f6f81","#7f5d5d"],"screen_resolution":[1366,768],"minimum_resolution":1,"trial":58,"drifts":[0.383,0.601,0.627,0.333],"drift_ix":1,"trial_type":"two-step-trial","trial_index":89,"time_elapsed":1007145,"internal_node_id":"0.0-71.0-0.0","task_version":"1.0","jspsych_version":"6.3.1","browser_interactions":0,"missing":false},{"state_1_ids":[0,1],"state_1_key":1,"state_1_choice":1,"state_1_rt":919.3000000715256,"transition":0,"state":0,"state_2_ids":[0,1],"state_2_key":1,"state_2_choice":1,"state_2_rt":1254.3000000715256,"outcome":1,"rocket_colors":["#955db9","#48a782"],"planet_colors":["#5f6f81","#7f5d5d"],"screen_resolution":[1366,768],"minimum_resolution":1,"trial":59,"drifts":[0.401,0.574,0.656,0.323],"drift_ix":1,"trial_type":"two-step-trial","trial_index":90,"time_elapsed":1011326,"internal_node_id":"0.0-72.0-0.0","task_version":"1.0","jspsych_version":"6.3.1","browser_interactions":0,"missing":false},{"state_1_ids":[1,0],"state_1_key":0,"state_1_choice":1,"state_1_rt":858.5,"transition":1,"state":1,"state_2_ids":[2,3],"state_2_key":0,"state_2_choice":2,"state_2_rt":1022.7999999523163,"outcome":1,"rocket_colors":["#955db9","#48a782"],"planet_colors":["#5f6f81","#7f5d5d"],"screen_resolution":[1366,768],"minimum_resolution":1,"trial":60,"drifts":[0.433,0.567,0.64,0.284],"drift_ix":1,"trial_type":"two-step-trial","trial_index":91,"time_elapsed":1015215,"internal_node_id":"0.0-73.0-0.0","task_version":"1.0","jspsych_version":"6.3.1","browser_interactions":0,"missing":false},{"state_1_ids":[1,0],"state_1_key":0,"state_1_choice":1,"state_1_rt":987.8999999761581,"transition":0,"state":0,"state_2_ids":[0,1],"state_2_key":1,"state_2_choice":1,"state_2_rt":886.8999999761581,"outcome":1,"rocket_colors":["#955db9","#48a782"],"planet_colors":["#5f6f81","#7f5d5d"],"screen_resolution":[1366,768],"minimum_resolution":1,"trial":61,"drifts":[0.443,0.536,0.633,0.265],"drift_ix":1,"trial_type":"two-step-trial","trial_index":92,"time_elapsed":1019098,"internal_node_id":"0.0-74.0-0.0","task_version":"1.0","jspsych_version":"6.3.1","browser_interactions":0,"missing":false},{"state_1_ids":[1,0],"state_1_key":0,"state_1_choice":1,"state_1_rt":1095.2000000476837,"transition":0,"state":0,"state_2_ids":[0,1],"state_2_key":1,"state_2_choice":1,"state_2_rt":716.5,"outcome":1,"rocket_colors":["#955db9","#48a782"],"planet_colors":["#5f6f81","#7f5d5d"],"screen_resolution":[1366,768],"minimum_resolution":1,"trial":62,"drifts":[0.42,0.521,0.591,0.279],"drift_ix":1,"trial_type":"two-step-trial","trial_index":93,"time_elapsed":1022918,"internal_node_id":"0.0-75.0-0.0","task_version":"1.0","jspsych_version":"6.3.1","browser_interactions":0,"missing":false},{"state_1_ids":[1,0],"state_1_key":0,"state_1_choice":1,"state_1_rt":1183.1999999284744,"transition":1,"state":1,"state_2_ids":[2,3],"state_2_key":0,"state_2_choice":2,"state_2_rt":955.1000000238419,"outcome":0,"rocket_colors":["#955db9","#48a782"],"planet_colors":["#5f6f81","#7f5d5d"],"screen_resolution":[1366,768],"minimum_resolution":1,"trial":63,"drifts":[0.392,0.519,0.612,0.319],"drift_ix":1,"trial_type":"two-step-trial","trial_index":94,"time_elapsed":1027068,"internal_node_id":"0.0-76.0-0.0","task_version":"1.0","jspsych_version":"6.3.1","browser_interactions":0,"missing":false},{"state_1_ids":[1,0],"state_1_key":0,"state_1_choice":1,"state_1_rt":2307.7999999523163,"transition":0,"state":0,"state_2_ids":[0,1],"state_2_key":1,"state_2_choice":1,"state_2_rt":829.5,"outcome":0,"rocket_colors":["#955db9","#48a782"],"planet_colors":["#5f6f81","#7f5d5d"],"screen_resolution":[1366,768],"minimum_resolution":1,"trial":64,"drifts":[0.354,0.493,0.612,0.332],"drift_ix":1,"trial_type":"two-step-trial","trial_index":95,"time_elapsed":1032213,"internal_node_id":"0.0-77.0-0.0","task_version":"1.0","jspsych_version":"6.3.1","browser_interactions":0,"missing":false},{"state_1_ids":[1,0],"state_1_key":0,"state_1_choice":1,"state_1_rt":838.8999999761581,"transition":0,"state":0,"state_2_ids":[0,1],"state_2_key":1,"state_2_choice":1,"state_2_rt":1491.8000000715256,"outcome":1,"rocket_colors":["#955db9","#48a782"],"planet_colors":["#5f6f81","#7f5d5d"],"screen_resolution":[1366,768],"minimum_resolution":1,"trial":65,"drifts":[0.379,0.495,0.568,0.327],"drift_ix":1,"trial_type":"two-step-trial","trial_index":96,"time_elapsed":1036552,"internal_node_id":"0.0-78.0-0.0","task_version":"1.0","jspsych_version":"6.3.1","browser_interactions":0,"missing":false},{"state_1_ids":[0,1],"state_1_key":1,"state_1_choice":1,"state_1_rt":938.2999999523163,"transition":1,"state":1,"state_2_ids":[2,3],"state_2_key":0,"state_2_choice":2,"state_2_rt":824.8000000715256,"outcome":0,"rocket_colors":["#955db9","#48a782"],"planet_colors":["#5f6f81","#7f5d5d"],"screen_resolution":[1366,768],"minimum_resolution":1,"trial":66,"drifts":[0.383,0.497,0.601,0.305],"drift_ix":1,"trial_type":"two-step-trial","trial_index":97,"time_elapsed":1040323,"internal_node_id":"0.0-79.0-0.0","task_version":"1.0","jspsych_version":"6.3.1","browser_interactions":0,"missing":false},{"state_1_ids":[1,0],"state_1_key":0,"state_1_choice":1,"state_1_rt":981.7000000476837,"transition":1,"state":1,"state_2_ids":[2,3],"state_2_key":1,"state_2_choice":3,"state_2_rt":1023.3999999761581,"outcome":0,"rocket_colors":["#955db9","#48a782"],"planet_colors":["#5f6f81","#7f5d5d"],"screen_resolution":[1366,768],"minimum_resolution":1,"trial":67,"drifts":[0.425,0.523,0.539,0.345],"drift_ix":1,"trial_type":"two-step-trial","trial_index":98,"time_elapsed":1044335,"internal_node_id":"0.0-80.0-0.0","task_version":"1.0","jspsych_version":"6.3.1","browser_interactions":0,"missing":false},{"state_1_ids":[0,1],"state_1_key":1,"state_1_choice":1,"state_1_rt":767.6000000238419,"transition":1,"state":1,"state_2_ids":[2,3],"state_2_key":0,"state_2_choice":2,"state_2_rt":486.39999997615814,"outcome":0,"rocket_colors":["#955db9","#48a782"],"planet_colors":["#5f6f81","#7f5d5d"],"screen_resolution":[1366,768],"minimum_resolution":1,"trial":68,"drifts":[0.432,0.482,0.523,0.353],"drift_ix":1,"trial_type":"two-step-trial","trial_index":99,"time_elapsed":1047597,"internal_node_id":"0.0-81.0-0.0","task_version":"1.0","jspsych_version":"6.3.1","browser_interactions":0,"missing":false},{"state_1_ids":[0,1],"state_1_key":1,"state_1_choice":1,"state_1_rt":1413.2999999523163,"transition":0,"state":0,"state_2_ids":[0,1],"state_2_key":1,"state_2_choice":1,"state_2_rt":1019.3999999761581,"outcome":1,"rocket_colors":["#955db9","#48a782"],"planet_colors":["#5f6f81","#7f5d5d"],"screen_resolution":[1366,768],"minimum_resolution":1,"trial":69,"drifts":[0.457,0.505,0.515,0.343],"drift_ix":1,"trial_type":"two-step-trial","trial_index":100,"time_elapsed":1052036,"internal_node_id":"0.0-82.0-0.0","task_version":"1.0","jspsych_version":"6.3.1","browser_interactions":0,"missing":false},{"state_1_ids":[0,1],"state_1_key":1,"state_1_choice":1,"state_1_rt":738.8000000715256,"transition":1,"state":1,"state_2_ids":[2,3],"state_2_key":0,"state_2_choice":2,"state_2_rt":1034,"outcome":0,"rocket_colors":["#955db9","#48a782"],"planet_colors":["#5f6f81","#7f5d5d"],"screen_resolution":[1366,768],"minimum_resolution":1,"trial":70,"drifts":[0.451,0.526,0.491,0.303],"drift_ix":1,"trial_type":"two-step-trial","trial_index":101,"time_elapsed":1055817,"internal_node_id":"0.0-83.0-0.0","task_version":"1.0","jspsych_version":"6.3.1","browser_interactions":0,"missing":false},{"state_1_ids":[0,1],"state_1_key":1,"state_1_choice":1,"state_1_rt":934.1000000238419,"transition":1,"state":1,"state_2_ids":[2,3],"state_2_key":1,"state_2_choice":3,"state_2_rt":2282.100000023842,"outcome":0,"rocket_colors":["#955db9","#48a782"],"planet_colors":["#5f6f81","#7f5d5d"],"screen_resolution":[1366,768],"minimum_resolution":1,"trial":71,"drifts":[0.425,0.552,0.478,0.262],"drift_ix":1,"trial_type":"two-step-trial","trial_index":102,"time_elapsed":1061043,"internal_node_id":"0.0-84.0-0.0","task_version":"1.0","jspsych_version":"6.3.1","browser_interactions":0,"missing":false},{"state_1_ids":[0,1],"state_1_key":1,"state_1_choice":1,"state_1_rt":700.1000000238419,"transition":1,"state":1,"state_2_ids":[2,3],"state_2_key":0,"state_2_choice":2,"state_2_rt":940.5,"outcome":1,"rocket_colors":["#955db9","#48a782"],"planet_colors":["#5f6f81","#7f5d5d"],"screen_resolution":[1366,768],"minimum_resolution":1,"trial":72,"drifts":[0.434,0.518,0.459,0.266],"drift_ix":1,"trial_type":"two-step-trial","trial_index":103,"time_elapsed":1064692,"internal_node_id":"0.0-85.0-0.0","task_version":"1.0","jspsych_version":"6.3.1","browser_interactions":0,"missing":false},{"state_1_ids":[0,1],"state_1_key":1,"state_1_choice":1,"state_1_rt":1068,"transition":1,"state":1,"state_2_ids":[2,3],"state_2_key":0,"state_2_choice":2,"state_2_rt":711.5,"outcome":1,"rocket_colors":["#955db9","#48a782"],"planet_colors":["#5f6f81","#7f5d5d"],"screen_resolution":[1366,768],"minimum_resolution":1,"trial":73,"drifts":[0.434,0.507,0.435,0.282],"drift_ix":1,"trial_type":"two-step-trial","trial_index":104,"time_elapsed":1068477,"internal_node_id":"0.0-86.0-0.0","task_version":"1.0","jspsych_version":"6.3.1","browser_interactions":0,"missing":false},{"state_1_ids":[0,1],"state_1_key":1,"state_1_choice":1,"state_1_rt":830.8999999761581,"transition":1,"state":1,"state_2_ids":[2,3],"state_2_key":0,"state_2_choice":2,"state_2_rt":593.8000000715256,"outcome":0,"rocket_colors":["#955db9","#48a782"],"planet_colors":["#5f6f81","#7f5d5d"],"screen_resolution":[1366,768],"minimum_resolution":1,"trial":74,"drifts":[0.474,0.468,0.425,0.256],"drift_ix":1,"trial_type":"two-step-trial","trial_index":105,"time_elapsed":1071910,"internal_node_id":"0.0-87.0-0.0","task_version":"1.0","jspsych_version":"6.3.1","browser_interactions":0,"missing":false},{"state_1_ids":[0,1],"state_1_key":1,"state_1_choice":1,"state_1_rt":2366.100000023842,"transition":1,"state":1,"state_2_ids":[2,3],"state_2_key":0,"state_2_choice":2,"state_2_rt":1533.3999999761581,"outcome":1,"rocket_colors":["#955db9","#48a782"],"planet_colors":["#5f6f81","#7f5d5d"],"screen_resolution":[1366,768],"minimum_resolution":1,"trial":75,"drifts":[0.46,0.495,0.398,0.253],"drift_ix":1,"trial_type":"two-step-trial","trial_index":106,"time_elapsed":1077816,"internal_node_id":"0.0-88.0-0.0","task_version":"1.0","jspsych_version":"6.3.1","browser_interactions":0,"missing":false},{"state_1_ids":[1,0],"state_1_key":0,"state_1_choice":1,"state_1_rt":1081.2999999523163,"transition":0,"state":0,"state_2_ids":[0,1],"state_2_key":1,"state_2_choice":1,"state_2_rt":1175.9000000953674,"outcome":1,"rocket_colors":["#955db9","#48a782"],"planet_colors":["#5f6f81","#7f5d5d"],"screen_resolution":[1366,768],"minimum_resolution":1,"trial":76,"drifts":[0.432,0.494,0.438,0.256],"drift_ix":1,"trial_type":"two-step-trial","trial_index":107,"time_elapsed":1082080,"internal_node_id":"0.0-89.0-0.0","task_version":"1.0","jspsych_version":"6.3.1","browser_interactions":0,"missing":false},{"state_1_ids":[1,0],"state_1_key":0,"state_1_choice":1,"state_1_rt":722.7000000476837,"transition":1,"state":1,"state_2_ids":[2,3],"state_2_key":0,"state_2_choice":2,"state_2_rt":1213.6999999284744,"outcome":0,"rocket_colors":["#955db9","#48a782"],"planet_colors":["#5f6f81","#7f5d5d"],"screen_resolution":[1366,768],"minimum_resolution":1,"trial":77,"drifts":[0.461,0.493,0.446,0.27],"drift_ix":1,"trial_type":"two-step-trial","trial_index":108,"time_elapsed":1086023,"internal_node_id":"0.0-90.0-0.0","task_version":"1.0","jspsych_version":"6.3.1","browser_interactions":0,"missing":false},{"state_1_ids":[1,0],"state_1_key":0,"state_1_choice":1,"state_1_rt":915.6000000238419,"transition":1,"state":1,"state_2_ids":[2,3],"state_2_key":1,"state_2_choice":3,"state_2_rt":556.6000000238419,"outcome":0,"rocket_colors":["#955db9","#48a782"],"planet_colors":["#5f6f81","#7f5d5d"],"screen_resolution":[1366,768],"minimum_resolution":1,"trial":78,"drifts":[0.514,0.513,0.473,0.268],"drift_ix":1,"trial_type":"two-step-trial","trial_index":109,"time_elapsed":1089504,"internal_node_id":"0.0-91.0-0.0","task_version":"1.0","jspsych_version":"6.3.1","browser_interactions":0,"missing":false},{"state_1_ids":[1,0],"state_1_key":0,"state_1_choice":1,"state_1_rt":549.2999999523163,"transition":1,"state":1,"state_2_ids":[2,3],"state_2_key":0,"state_2_choice":2,"state_2_rt":497.10000002384186,"outcome":0,"rocket_colors":["#955db9","#48a782"],"planet_colors":["#5f6f81","#7f5d5d"],"screen_resolution":[1366,768],"minimum_resolution":1,"trial":79,"drifts":[0.504,0.552,0.491,0.291],"drift_ix":1,"trial_type":"two-step-trial","trial_index":110,"time_elapsed":1092556,"internal_node_id":"0.0-92.0-0.0","task_version":"1.0","jspsych_version":"6.3.1","browser_interactions":0,"missing":false},{"state_1_ids":[0,1],"state_1_key":1,"state_1_choice":1,"state_1_rt":1703,"transition":1,"state":1,"state_2_ids":[2,3],"state_2_key":0,"state_2_choice":2,"state_2_rt":800.2999999523163,"outcome":1,"rocket_colors":["#955db9","#48a782"],"planet_colors":["#5f6f81","#7f5d5d"],"screen_resolution":[1366,768],"minimum_resolution":1,"trial":80,"drifts":[0.513,0.538,0.46,0.295],"drift_ix":1,"trial_type":"two-step-trial","trial_index":111,"time_elapsed":1097066,"internal_node_id":"0.0-93.0-0.0","task_version":"1.0","jspsych_version":"6.3.1","browser_interactions":0,"missing":false},{"state_1_ids":[0,1],"state_1_key":1,"state_1_choice":1,"state_1_rt":604.5,"transition":1,"state":1,"state_2_ids":[2,3],"state_2_key":0,"state_2_choice":2,"state_2_rt":865.6999999284744,"outcome":0,"rocket_colors":["#955db9","#48a782"],"planet_colors":["#5f6f81","#7f5d5d"],"screen_resolution":[1366,768],"minimum_resolution":1,"trial":81,"drifts":[0.523,0.491,0.47,0.326],"drift_ix":1,"trial_type":"two-step-trial","trial_index":112,"time_elapsed":1100544,"internal_node_id":"0.0-94.0-0.0","task_version":"1.0","jspsych_version":"6.3.1","browser_interactions":0,"missing":false},{"state_1_ids":[0,1],"state_1_key":0,"state_1_choice":0,"state_1_rt":960.2000000476837,"transition":1,"state":0,"state_2_ids":[0,1],"state_2_key":1,"state_2_choice":1,"state_2_rt":825,"outcome":0,"rocket_colors":["#955db9","#48a782"],"planet_colors":["#5f6f81","#7f5d5d"],"screen_resolution":[1366,768],"minimum_resolution":1,"trial":82,"drifts":[0.525,0.548,0.454,0.36],"drift_ix":1,"trial_type":"two-step-trial","trial_index":113,"time_elapsed":1104335,"internal_node_id":"0.0-95.0-0.0","task_version":"1.0","jspsych_version":"6.3.1","browser_interactions":0,"missing":false},{"state_1_ids":[1,0],"state_1_key":1,"state_1_choice":0,"state_1_rt":1057.7999999523163,"transition":1,"state":0,"state_2_ids":[0,1],"state_2_key":0,"state_2_choice":0,"state_2_rt":672.7999999523163,"outcome":0,"rocket_colors":["#955db9","#48a782"],"planet_colors":["#5f6f81","#7f5d5d"],"screen_resolution":[1366,768],"minimum_resolution":1,"trial":83,"drifts":[0.538,0.579,0.452,0.325],"drift_ix":1,"trial_type":"two-step-trial","trial_index":114,"time_elapsed":1108072,"internal_node_id":"0.0-96.0-0.0","task_version":"1.0","jspsych_version":"6.3.1","browser_interactions":0,"missing":false},{"state_1_ids":[1,0],"state_1_key":1,"state_1_choice":0,"state_1_rt":816.1000000238419,"transition":1,"state":0,"state_2_ids":[0,1],"state_2_key":1,"state_2_choice":1,"state_2_rt":1475,"outcome":1,"rocket_colors":["#955db9","#48a782"],"planet_colors":["#5f6f81","#7f5d5d"],"screen_resolution":[1366,768],"minimum_resolution":1,"trial":84,"drifts":[0.524,0.64,0.439,0.371],"drift_ix":1,"trial_type":"two-step-trial","trial_index":115,"time_elapsed":1112370,"internal_node_id":"0.0-97.0-0.0","task_version":"1.0","jspsych_version":"6.3.1","browser_interactions":0,"missing":false},{"state_1_ids":[0,1],"state_1_key":0,"state_1_choice":0,"state_1_rt":1212.7999999523163,"transition":0,"state":1,"state_2_ids":[2,3],"state_2_key":1,"state_2_choice":3,"state_2_rt":475.8000000715256,"outcome":1,"rocket_colors":["#955db9","#48a782"],"planet_colors":["#5f6f81","#7f5d5d"],"screen_resolution":[1366,768],"minimum_resolution":1,"trial":85,"drifts":[0.524,0.637,0.455,0.377],"drift_ix":1,"trial_type":"two-step-trial","trial_index":116,"time_elapsed":1116065,"internal_node_id":"0.0-98.0-0.0","task_version":"1.0","jspsych_version":"6.3.1","browser_interactions":0,"missing":false},{"state_1_ids":[0,1],"state_1_key":0,"state_1_choice":0,"state_1_rt":753.1999999284744,"transition":0,"state":1,"state_2_ids":[2,3],"state_2_key":1,"state_2_choice":3,"state_2_rt":654.3000000715256,"outcome":0,"rocket_colors":["#955db9","#48a782"],"planet_colors":["#5f6f81","#7f5d5d"],"screen_resolution":[1366,768],"minimum_resolution":1,"trial":86,"drifts":[0.535,0.666,0.471,0.392],"drift_ix":1,"trial_type":"two-step-trial","trial_index":117,"time_elapsed":1119478,"internal_node_id":"0.0-99.0-0.0","task_version":"1.0","jspsych_version":"6.3.1","browser_interactions":0,"missing":false},{"state_1_ids":[0,1],"state_1_key":0,"state_1_choice":0,"state_1_rt":626.7999999523163,"transition":1,"state":0,"state_2_ids":[0,1],"state_2_key":1,"state_2_choice":1,"state_2_rt":1036.1000000238419,"outcome":1,"rocket_colors":["#955db9","#48a782"],"planet_colors":["#5f6f81","#7f5d5d"],"screen_resolution":[1366,768],"minimum_resolution":1,"trial":87,"drifts":[0.504,0.695,0.423,0.387],"drift_ix":1,"trial_type":"two-step-trial","trial_index":118,"time_elapsed":1123148,"internal_node_id":"0.0-100.0-0.0","task_version":"1.0","jspsych_version":"6.3.1","browser_interactions":0,"missing":false},{"state_1_ids":[0,1],"state_1_key":0,"state_1_choice":0,"state_1_rt":933,"transition":1,"state":0,"state_2_ids":[0,1],"state_2_key":1,"state_2_choice":1,"state_2_rt":708.5,"outcome":0,"rocket_colors":["#955db9","#48a782"],"planet_colors":["#5f6f81","#7f5d5d"],"screen_resolution":[1366,768],"minimum_resolution":1,"trial":88,"drifts":[0.485,0.667,0.458,0.39],"drift_ix":1,"trial_type":"two-step-trial","trial_index":119,"time_elapsed":1126799,"internal_node_id":"0.0-101.0-0.0","task_version":"1.0","jspsych_version":"6.3.1","browser_interactions":0,"missing":false},{"state_1_ids":[0,1],"state_1_key":0,"state_1_choice":0,"state_1_rt":763.2000000476837,"transition":0,"state":1,"state_2_ids":[2,3],"state_2_key":1,"state_2_choice":3,"state_2_rt":1872.4000000953674,"outcome":0,"rocket_colors":["#955db9","#48a782"],"planet_colors":["#5f6f81","#7f5d5d"],"screen_resolution":[1366,768],"minimum_resolution":1,"trial":89,"drifts":[0.47,0.661,0.502,0.408],"drift_ix":1,"trial_type":"two-step-trial","trial_index":120,"time_elapsed":1131443,"internal_node_id":"0.0-102.0-0.0","task_version":"1.0","jspsych_version":"6.3.1","browser_interactions":0,"missing":false},{"state_1_ids":[0,1],"state_1_key":0,"state_1_choice":0,"state_1_rt":1157.5,"transition":1,"state":0,"state_2_ids":[0,1],"state_2_key":0,"state_2_choice":0,"state_2_rt":1581.2999999523163,"outcome":0,"rocket_colors":["#955db9","#48a782"],"planet_colors":["#5f6f81","#7f5d5d"],"screen_resolution":[1366,768],"minimum_resolution":1,"trial":90,"drifts":[0.46,0.678,0.464,0.349],"drift_ix":1,"trial_type":"two-step-trial","trial_index":121,"time_elapsed":1136191,"internal_node_id":"0.0-103.0-0.0","task_version":"1.0","jspsych_version":"6.3.1","browser_interactions":0,"missing":false},{"state_1_ids":[1,0],"state_1_key":0,"state_1_choice":1,"state_1_rt":2233.399999976158,"transition":0,"state":0,"state_2_ids":[0,1],"state_2_key":1,"state_2_choice":1,"state_2_rt":1032.7000000476837,"outcome":0,"rocket_colors":["#955db9","#48a782"],"planet_colors":["#5f6f81","#7f5d5d"],"screen_resolution":[1366,768],"minimum_resolution":1,"trial":91,"drifts":[0.46,0.655,0.459,0.313],"drift_ix":1,"trial_type":"two-step-trial","trial_index":122,"time_elapsed":1141467,"internal_node_id":"0.0-104.0-0.0","task_version":"1.0","jspsych_version":"6.3.1","browser_interactions":0,"missing":false},{"state_1_ids":[0,1],"state_1_key":1,"state_1_choice":1,"state_1_rt":1106.3999999761581,"transition":1,"state":1,"state_2_ids":[2,3],"state_2_key":0,"state_2_choice":2,"state_2_rt":790.3999999761581,"outcome":0,"rocket_colors":["#955db9","#48a782"],"planet_colors":["#5f6f81","#7f5d5d"],"screen_resolution":[1366,768],"minimum_resolution":1,"trial":92,"drifts":[0.459,0.663,0.496,0.332],"drift_ix":1,"trial_type":"two-step-trial","trial_index":123,"time_elapsed":1145370,"internal_node_id":"0.0-105.0-0.0","task_version":"1.0","jspsych_version":"6.3.1","browser_interactions":0,"missing":false},{"state_1_ids":[0,1],"state_1_key":0,"state_1_choice":0,"state_1_rt":870.7000000476837,"transition":1,"state":0,"state_2_ids":[0,1],"state_2_key":1,"state_2_choice":1,"state_2_rt":903.6000000238419,"outcome":1,"rocket_colors":["#955db9","#48a782"],"planet_colors":["#5f6f81","#7f5d5d"],"screen_resolution":[1366,768],"minimum_resolution":1,"trial":93,"drifts":[0.47,0.662,0.476,0.3],"drift_ix":1,"trial_type":"two-step-trial","trial_index":124,"time_elapsed":1149152,"internal_node_id":"0.0-106.0-0.0","task_version":"1.0","jspsych_version":"6.3.1","browser_interactions":0,"missing":false},{"state_1_ids":[1,0],"state_1_key":1,"state_1_choice":0,"state_1_rt":1475.2999999523163,"transition":0,"state":1,"state_2_ids":[2,3],"state_2_key":1,"state_2_choice":3,"state_2_rt":1157.8999999761581,"outcome":0,"rocket_colors":["#955db9","#48a782"],"planet_colors":["#5f6f81","#7f5d5d"],"screen_resolution":[1366,768],"minimum_resolution":1,"trial":94,"drifts":[0.495,0.666,0.452,0.265],"drift_ix":1,"trial_type":"two-step-trial","trial_index":125,"time_elapsed":1153792,"internal_node_id":"0.0-107.0-0.0","task_version":"1.0","jspsych_version":"6.3.1","browser_interactions":0,"missing":false},{"state_1_ids":[1,0],"state_1_key":0,"state_1_choice":1,"state_1_rt":874.1999999284744,"transition":0,"state":0,"state_2_ids":[0,1],"state_2_key":1,"state_2_choice":1,"state_2_rt":951.2999999523163,"outcome":1,"rocket_colors":["#955db9","#48a782"],"planet_colors":["#5f6f81","#7f5d5d"],"screen_resolution":[1366,768],"minimum_resolution":1,"trial":95,"drifts":[0.524,0.697,0.448,0.345],"drift_ix":1,"trial_type":"two-step-trial","trial_index":126,"time_elapsed":1157626,"internal_node_id":"0.0-108.0-0.0","task_version":"1.0","jspsych_version":"6.3.1","browser_interactions":0,"missing":false},{"state_1_ids":[0,1],"state_1_key":null,"state_1_choice":null,"state_1_rt":null,"transition":1,"state":null,"state_2_ids":[0,1],"state_2_key":null,"state_2_choice":null,"state_2_rt":null,"outcome":null,"rocket_colors":["#955db9","#48a782"],"planet_colors":["#5f6f81","#7f5d5d"],"screen_resolution":[1366,768],"minimum_resolution":1,"trial":96,"drifts":[0.524,0.681,0.435,0.338],"drift_ix":1,"trial_type":"two-step-trial","trial_index":127,"time_elapsed":1172634,"internal_node_id":"0.0-109.0-0.0","task_version":"1.0","jspsych_version":"6.3.1","browser_interactions":0,"missing":true},{"state_1_ids":[0,1],"state_1_key":0,"state_1_choice":0,"state_1_rt":2137.9000000953674,"transition":1,"state":0,"state_2_ids":[0,1],"state_2_key":1,"state_2_choice":1,"state_2_rt":734.8000000715256,"outcome":0,"rocket_colors":["#955db9","#48a782"],"planet_colors":["#5f6f81","#7f5d5d"],"screen_resolution":[1366,768],"minimum_resolution":1,"trial":96,"drifts":[0.524,0.681,0.435,0.338],"drift_ix":1,"trial_type":"two-step-trial","trial_index":128,"time_elapsed":1177523,"internal_node_id":"0.0-109.1-0.1","task_version":"1.0","jspsych_version":"6.3.1","browser_interactions":0,"missing":false},{"state_1_ids":[0,1],"state_1_key":0,"state_1_choice":0,"state_1_rt":827.2000000476837,"transition":0,"state":1,"state_2_ids":[2,3],"state_2_key":0,"state_2_choice":2,"state_2_rt":876,"outcome":1,"rocket_colors":["#955db9","#48a782"],"planet_colors":["#5f6f81","#7f5d5d"],"screen_resolution":[1366,768],"minimum_resolution":1,"trial":97,"drifts":[0.542,0.675,0.441,0.363],"drift_ix":1,"trial_type":"two-step-trial","trial_index":129,"time_elapsed":1181233,"internal_node_id":"0.0-110.0-0.0","task_version":"1.0","jspsych_version":"6.3.1","browser_interactions":0,"missing":false},{"state_1_ids":[0,1],"state_1_key":0,"state_1_choice":0,"state_1_rt":603.1000000238419,"transition":0,"state":1,"state_2_ids":[2,3],"state_2_key":0,"state_2_choice":2,"state_2_rt":702.2999999523163,"outcome":1,"rocket_colors":["#955db9","#48a782"],"planet_colors":["#5f6f81","#7f5d5d"],"screen_resolution":[1366,768],"minimum_resolution":1,"trial":98,"drifts":[0.542,0.7,0.418,0.358],"drift_ix":1,"trial_type":"two-step-trial","trial_index":130,"time_elapsed":1184547,"internal_node_id":"0.0-111.0-0.0","task_version":"1.0","jspsych_version":"6.3.1","browser_interactions":0,"missing":false},{"state_1_ids":[0,1],"state_1_key":0,"state_1_choice":0,"state_1_rt":725.2999999523163,"transition":1,"state":0,"state_2_ids":[0,1],"state_2_key":0,"state_2_choice":0,"state_2_rt":1899.5,"outcome":0,"rocket_colors":["#955db9","#48a782"],"planet_colors":["#5f6f81","#7f5d5d"],"screen_resolution":[1366,768],"minimum_resolution":1,"trial":99,"drifts":[0.586,0.735,0.41,0.338],"drift_ix":1,"trial_type":"two-step-trial","trial_index":131,"time_elapsed":1189178,"internal_node_id":"0.0-112.0-0.0","task_version":"1.0","jspsych_version":"6.3.1","browser_interactions":0,"missing":false},{"state_1_ids":[0,1],"state_1_key":0,"state_1_choice":0,"state_1_rt":831.6000000238419,"transition":1,"state":0,"state_2_ids":[0,1],"state_2_key":1,"state_2_choice":1,"state_2_rt":916.2999999523163,"outcome":0,"rocket_colors":["#955db9","#48a782"],"planet_colors":["#5f6f81","#7f5d5d"],"screen_resolution":[1366,768],"minimum_resolution":1,"trial":100,"drifts":[0.591,0.693,0.426,0.36],"drift_ix":1,"trial_type":"two-step-trial","trial_index":132,"time_elapsed":1192933,"internal_node_id":"0.0-113.0-0.0","task_version":"1.0","jspsych_version":"6.3.1","browser_interactions":0,"missing":false},{"view_history":"[{\"page_index\":0,\"viewing_time\":92841.10000002384},{\"page_index\":1,\"viewing_time\":3961.899999976158}]","rt":96803.5,"trial_type":"two-step-instructions","trial_index":133,"time_elapsed":1289739,"internal_node_id":"0.0-114.0","task_version":"1.0","jspsych_version":"6.3.1"},{"state_1_ids":[1,0],"state_1_key":0,"state_1_choice":1,"state_1_rt":951.3000000715256,"transition":1,"state":1,"state_2_ids":[2,3],"state_2_key":0,"state_2_choice":2,"state_2_rt":584.7000000476837,"outcome":0,"rocket_colors":["#955db9","#48a782"],"planet_colors":["#5f6f81","#7f5d5d"],"screen_resolution":[1366,768],"minimum_resolution":1,"trial":101,"drifts":[0.639,0.722,0.416,0.356],"drift_ix":1,"trial_type":"two-step-trial","trial_index":134,"time_elapsed":1293284,"internal_node_id":"0.0-115.0-0.0","task_version":"1.0","jspsych_version":"6.3.1","browser_interactions":0,"missing":false},{"state_1_ids":[1,0],"state_1_key":0,"state_1_choice":1,"state_1_rt":475.2000000476837,"transition":0,"state":0,"state_2_ids":[0,1],"state_2_key":0,"state_2_choice":0,"state_2_rt":982.6999999284744,"outcome":0,"rocket_colors":["#955db9","#48a782"],"planet_colors":["#5f6f81","#7f5d5d"],"screen_resolution":[1366,768],"minimum_resolution":1,"trial":102,"drifts":[0.661,0.749,0.353,0.384],"drift_ix":1,"trial_type":"two-step-trial","trial_index":135,"time_elapsed":1296748,"internal_node_id":"0.0-116.0-0.0","task_version":"1.0","jspsych_version":"6.3.1","browser_interactions":0,"missing":false},{"state_1_ids":[1,0],"state_1_key":0,"state_1_choice":1,"state_1_rt":491.89999997615814,"transition":1,"state":1,"state_2_ids":[2,3],"state_2_key":1,"state_2_choice":3,"state_2_rt":718.1000000238419,"outcome":0,"rocket_colors":["#955db9","#48a782"],"planet_colors":["#5f6f81","#7f5d5d"],"screen_resolution":[1366,768],"minimum_resolution":1,"trial":103,"drifts":[0.659,0.729,0.293,0.396],"drift_ix":1,"trial_type":"two-step-trial","trial_index":136,"time_elapsed":1299964,"internal_node_id":"0.0-117.0-0.0","task_version":"1.0","jspsych_version":"6.3.1","browser_interactions":0,"missing":false},{"state_1_ids":[0,1],"state_1_key":0,"state_1_choice":0,"state_1_rt":677.2000000476837,"transition":1,"state":0,"state_2_ids":[0,1],"state_2_key":0,"state_2_choice":0,"state_2_rt":481.3000000715256,"outcome":1,"rocket_colors":["#955db9","#48a782"],"planet_colors":["#5f6f81","#7f5d5d"],"screen_resolution":[1366,768],"minimum_resolution":1,"trial":104,"drifts":[0.615,0.721,0.288,0.378],"drift_ix":1,"trial_type":"two-step-trial","trial_index":137,"time_elapsed":1303130,"internal_node_id":"0.0-118.0-0.0","task_version":"1.0","jspsych_version":"6.3.1","browser_interactions":0,"missing":false},{"state_1_ids":[1,0],"state_1_key":1,"state_1_choice":0,"state_1_rt":840.8999999761581,"transition":1,"state":0,"state_2_ids":[0,1],"state_2_key":0,"state_2_choice":0,"state_2_rt":535.6000000238419,"outcome":1,"rocket_colors":["#955db9","#48a782"],"planet_colors":["#5f6f81","#7f5d5d"],"screen_resolution":[1366,768],"minimum_resolution":1,"trial":105,"drifts":[0.562,0.742,0.297,0.343],"drift_ix":1,"trial_type":"two-step-trial","trial_index":138,"time_elapsed":1306513,"internal_node_id":"0.0-119.0-0.0","task_version":"1.0","jspsych_version":"6.3.1","browser_interactions":0,"missing":false},{"state_1_ids":[1,0],"state_1_key":1,"state_1_choice":0,"state_1_rt":729.8000000715256,"transition":0,"state":1,"state_2_ids":[2,3],"state_2_key":1,"state_2_choice":3,"state_2_rt":1654,"outcome":0,"rocket_colors":["#955db9","#48a782"],"planet_colors":["#5f6f81","#7f5d5d"],"screen_resolution":[1366,768],"minimum_resolution":1,"trial":106,"drifts":[0.532,0.742,0.25,0.332],"drift_ix":1,"trial_type":"two-step-trial","trial_index":139,"time_elapsed":1310907,"internal_node_id":"0.0-120.0-0.0","task_version":"1.0","jspsych_version":"6.3.1","browser_interactions":0,"missing":false},{"state_1_ids":[1,0],"state_1_key":1,"state_1_choice":0,"state_1_rt":573.0999999046326,"transition":0,"state":1,"state_2_ids":[2,3],"state_2_key":0,"state_2_choice":2,"state_2_rt":649.1999999284744,"outcome":0,"rocket_colors":["#955db9","#48a782"],"planet_colors":["#5f6f81","#7f5d5d"],"screen_resolution":[1366,768],"minimum_resolution":1,"trial":107,"drifts":[0.531,0.742,0.255,0.33],"drift_ix":1,"trial_type":"two-step-trial","trial_index":140,"time_elapsed":1314135,"internal_node_id":"0.0-121.0-0.0","task_version":"1.0","jspsych_version":"6.3.1","browser_interactions":0,"missing":false},{"state_1_ids":[1,0],"state_1_key":1,"state_1_choice":0,"state_1_rt":2161.5,"transition":1,"state":0,"state_2_ids":[0,1],"state_2_key":0,"state_2_choice":0,"state_2_rt":1260.8000000715256,"outcome":0,"rocket_colors":["#955db9","#48a782"],"planet_colors":["#5f6f81","#7f5d5d"],"screen_resolution":[1366,768],"minimum_resolution":1,"trial":108,"drifts":[0.576,0.733,0.281,0.338],"drift_ix":1,"trial_type":"two-step-trial","trial_index":141,"time_elapsed":1319563,"internal_node_id":"0.0-122.0-0.0","task_version":"1.0","jspsych_version":"6.3.1","browser_interactions":0,"missing":false},{"state_1_ids":[0,1],"state_1_key":0,"state_1_choice":0,"state_1_rt":809.6000000238419,"transition":0,"state":1,"state_2_ids":[2,3],"state_2_key":1,"state_2_choice":3,"state_2_rt":1658.7999999523163,"outcome":0,"rocket_colors":["#955db9","#48a782"],"planet_colors":["#5f6f81","#7f5d5d"],"screen_resolution":[1366,768],"minimum_resolution":1,"trial":109,"drifts":[0.593,0.74,0.277,0.333],"drift_ix":1,"trial_type":"two-step-trial","trial_index":142,"time_elapsed":1324037,"internal_node_id":"0.0-123.0-0.0","task_version":"1.0","jspsych_version":"6.3.1","browser_interactions":0,"missing":false},{"state_1_ids":[0,1],"state_1_key":0,"state_1_choice":0,"state_1_rt":1035.1000000238419,"transition":0,"state":1,"state_2_ids":[2,3],"state_2_key":0,"state_2_choice":2,"state_2_rt":543,"outcome":1,"rocket_colors":["#955db9","#48a782"],"planet_colors":["#5f6f81","#7f5d5d"],"screen_resolution":[1366,768],"minimum_resolution":1,"trial":110,"drifts":[0.57,0.735,0.318,0.349],"drift_ix":1,"trial_type":"two-step-trial","trial_index":143,"time_elapsed":1327625,"internal_node_id":"0.0-124.0-0.0","task_version":"1.0","jspsych_version":"6.3.1","browser_interactions":0,"missing":false},{"state_1_ids":[0,1],"state_1_key":0,"state_1_choice":0,"state_1_rt":705.9000000953674,"transition":1,"state":0,"state_2_ids":[0,1],"state_2_key":1,"state_2_choice":1,"state_2_rt":1214.6000000238419,"outcome":1,"rocket_colors":["#955db9","#48a782"],"planet_colors":["#5f6f81","#7f5d5d"],"screen_resolution":[1366,768],"minimum_resolution":1,"trial":111,"drifts":[0.566,0.726,0.306,0.333],"drift_ix":1,"trial_type":"two-step-trial","trial_index":144,"time_elapsed":1331552,"internal_node_id":"0.0-125.0-0.0","task_version":"1.0","jspsych_version":"6.3.1","browser_interactions":0,"missing":false},{"state_1_ids":[0,1],"state_1_key":0,"state_1_choice":0,"state_1_rt":635.9000000953674,"transition":1,"state":0,"state_2_ids":[0,1],"state_2_key":1,"state_2_choice":1,"state_2_rt":660.3000000715256,"outcome":1,"rocket_colors":["#955db9","#48a782"],"planet_colors":["#5f6f81","#7f5d5d"],"screen_resolution":[1366,768],"minimum_resolution":1,"trial":112,"drifts":[0.552,0.734,0.35,0.354],"drift_ix":1,"trial_type":"two-step-trial","trial_index":145,"time_elapsed":1334855,"internal_node_id":"0.0-126.0-0.0","task_version":"1.0","jspsych_version":"6.3.1","browser_interactions":0,"missing":false},{"state_1_ids":[1,0],"state_1_key":1,"state_1_choice":0,"state_1_rt":999.7000000476837,"transition":1,"state":0,"state_2_ids":[0,1],"state_2_key":1,"state_2_choice":1,"state_2_rt":600.8999999761581,"outcome":1,"rocket_colors":["#955db9","#48a782"],"planet_colors":["#5f6f81","#7f5d5d"],"screen_resolution":[1366,768],"minimum_resolution":1,"trial":113,"drifts":[0.503,0.684,0.352,0.329],"drift_ix":1,"trial_type":"two-step-trial","trial_index":146,"time_elapsed":1338464,"internal_node_id":"0.0-127.0-0.0","task_version":"1.0","jspsych_version":"6.3.1","browser_interactions":0,"missing":false},{"state_1_ids":[1,0],"state_1_key":1,"state_1_choice":0,"state_1_rt":840,"transition":1,"state":0,"state_2_ids":[0,1],"state_2_key":1,"state_2_choice":1,"state_2_rt":697.5,"outcome":1,"rocket_colors":["#955db9","#48a782"],"planet_colors":["#5f6f81","#7f5d5d"],"screen_resolution":[1366,768],"minimum_resolution":1,"trial":114,"drifts":[0.517,0.664,0.374,0.314],"drift_ix":1,"trial_type":"two-step-trial","trial_index":147,"time_elapsed":1342007,"internal_node_id":"0.0-128.0-0.0","task_version":"1.0","jspsych_version":"6.3.1","browser_interactions":0,"missing":false},{"state_1_ids":[0,1],"state_1_key":0,"state_1_choice":0,"state_1_rt":2093.600000023842,"transition":1,"state":0,"state_2_ids":[0,1],"state_2_key":1,"state_2_choice":1,"state_2_rt":1001.5,"outcome":0,"rocket_colors":["#955db9","#48a782"],"planet_colors":["#5f6f81","#7f5d5d"],"screen_resolution":[1366,768],"minimum_resolution":1,"trial":115,"drifts":[0.505,0.635,0.405,0.281],"drift_ix":1,"trial_type":"two-step-trial","trial_index":148,"time_elapsed":1347108,"internal_node_id":"0.0-129.0-0.0","task_version":"1.0","jspsych_version":"6.3.1","browser_interactions":0,"missing":false},{"state_1_ids":[0,1],"state_1_key":0,"state_1_choice":0,"state_1_rt":830.3999999761581,"transition":1,"state":0,"state_2_ids":[0,1],"state_2_key":0,"state_2_choice":0,"state_2_rt":1896.2999999523163,"outcome":0,"rocket_colors":["#955db9","#48a782"],"planet_colors":["#5f6f81","#7f5d5d"],"screen_resolution":[1366,768],"minimum_resolution":1,"trial":116,"drifts":[0.506,0.651,0.43,0.328],"drift_ix":1,"trial_type":"two-step-trial","trial_index":149,"time_elapsed":1351842,"internal_node_id":"0.0-130.0-0.0","task_version":"1.0","jspsych_version":"6.3.1","browser_interactions":0,"missing":false},{"state_1_ids":[1,0],"state_1_key":0,"state_1_choice":1,"state_1_rt":2761,"transition":1,"state":1,"state_2_ids":[2,3],"state_2_key":0,"state_2_choice":2,"state_2_rt":1033.8999999761581,"outcome":0,"rocket_colors":["#955db9","#48a782"],"planet_colors":["#5f6f81","#7f5d5d"],"screen_resolution":[1366,768],"minimum_resolution":1,"trial":117,"drifts":[0.524,0.623,0.426,0.298],"drift_ix":1,"trial_type":"two-step-trial","trial_index":150,"time_elapsed":1357643,"internal_node_id":"0.0-131.0-0.0","task_version":"1.0","jspsych_version":"6.3.1","browser_interactions":0,"missing":false},{"state_1_ids":[0,1],"state_1_key":1,"state_1_choice":1,"state_1_rt":861.8999999761581,"transition":1,"state":1,"state_2_ids":[2,3],"state_2_key":1,"state_2_choice":3,"state_2_rt":1132.6000000238419,"outcome":1,"rocket_colors":["#955db9","#48a782"],"planet_colors":["#5f6f81","#7f5d5d"],"screen_resolution":[1366,768],"minimum_resolution":1,"trial":118,"drifts":[0.512,0.652,0.411,0.294],"drift_ix":1,"trial_type":"two-step-trial","trial_index":151,"time_elapsed":1361646,"internal_node_id":"0.0-132.0-0.0","task_version":"1.0","jspsych_version":"6.3.1","browser_interactions":0,"missing":false},{"state_1_ids":[1,0],"state_1_key":0,"state_1_choice":1,"state_1_rt":725.6000000238419,"transition":1,"state":1,"state_2_ids":[2,3],"state_2_key":1,"state_2_choice":3,"state_2_rt":497.39999997615814,"outcome":0,"rocket_colors":["#955db9","#48a782"],"planet_colors":["#5f6f81","#7f5d5d"],"screen_resolution":[1366,768],"minimum_resolution":1,"trial":119,"drifts":[0.502,0.652,0.413,0.344],"drift_ix":1,"trial_type":"two-step-trial","trial_index":152,"time_elapsed":1364875,"internal_node_id":"0.0-133.0-0.0","task_version":"1.0","jspsych_version":"6.3.1","browser_interactions":0,"missing":false},{"state_1_ids":[1,0],"state_1_key":0,"state_1_choice":1,"state_1_rt":809.5,"transition":0,"state":0,"state_2_ids":[0,1],"state_2_key":0,"state_2_choice":0,"state_2_rt":831.8999999761581,"outcome":1,"rocket_colors":["#955db9","#48a782"],"planet_colors":["#5f6f81","#7f5d5d"],"screen_resolution":[1366,768],"minimum_resolution":1,"trial":120,"drifts":[0.482,0.631,0.394,0.33],"drift_ix":1,"trial_type":"two-step-trial","trial_index":153,"time_elapsed":1368526,"internal_node_id":"0.0-134.0-0.0","task_version":"1.0","jspsych_version":"6.3.1","browser_interactions":0,"missing":false},{"state_1_ids":[1,0],"state_1_key":0,"state_1_choice":1,"state_1_rt":838.3999999761581,"transition":1,"state":1,"state_2_ids":[2,3],"state_2_key":1,"state_2_choice":3,"state_2_rt":2607.600000023842,"outcome":1,"rocket_colors":["#955db9","#48a782"],"planet_colors":["#5f6f81","#7f5d5d"],"screen_resolution":[1366,768],"minimum_resolution":1,"trial":121,"drifts":[0.447,0.633,0.361,0.325],"drift_ix":1,"trial_type":"two-step-trial","trial_index":154,"time_elapsed":1373984,"internal_node_id":"0.0-135.0-0.0","task_version":"1.0","jspsych_version":"6.3.1","browser_interactions":0,"missing":false},{"state_1_ids":[1,0],"state_1_key":0,"state_1_choice":1,"state_1_rt":849.8999999761581,"transition":1,"state":1,"state_2_ids":[2,3],"state_2_key":1,"state_2_choice":3,"state_2_rt":568.5,"outcome":1,"rocket_colors":["#955db9","#48a782"],"planet_colors":["#5f6f81","#7f5d5d"],"screen_resolution":[1366,768],"minimum_resolution":1,"trial":122,"drifts":[0.451,0.597,0.354,0.284],"drift_ix":1,"trial_type":"two-step-trial","trial_index":155,"time_elapsed":1377411,"internal_node_id":"0.0-136.0-0.0","task_version":"1.0","jspsych_version":"6.3.1","browser_interactions":0,"missing":false},{"state_1_ids":[1,0],"state_1_key":0,"state_1_choice":1,"state_1_rt":682.3999999761581,"transition":1,"state":1,"state_2_ids":[2,3],"state_2_key":1,"state_2_choice":3,"state_2_rt":677.3999999761581,"outcome":1,"rocket_colors":["#955db9","#48a782"],"planet_colors":["#5f6f81","#7f5d5d"],"screen_resolution":[1366,768],"minimum_resolution":1,"trial":123,"drifts":[0.511,0.55,0.353,0.29],"drift_ix":1,"trial_type":"two-step-trial","trial_index":156,"time_elapsed":1380780,"internal_node_id":"0.0-137.0-0.0","task_version":"1.0","jspsych_version":"6.3.1","browser_interactions":0,"missing":false},{"state_1_ids":[1,0],"state_1_key":0,"state_1_choice":1,"state_1_rt":541.7999999523163,"transition":1,"state":1,"state_2_ids":[2,3],"state_2_key":1,"state_2_choice":3,"state_2_rt":673.3999999761581,"outcome":0,"rocket_colors":["#955db9","#48a782"],"planet_colors":["#5f6f81","#7f5d5d"],"screen_resolution":[1366,768],"minimum_resolution":1,"trial":124,"drifts":[0.523,0.509,0.361,0.326],"drift_ix":1,"trial_type":"two-step-trial","trial_index":157,"time_elapsed":1384003,"internal_node_id":"0.0-138.0-0.0","task_version":"1.0","jspsych_version":"6.3.1","browser_interactions":0,"missing":false},{"state_1_ids":[1,0],"state_1_key":0,"state_1_choice":1,"state_1_rt":741,"transition":1,"state":1,"state_2_ids":[2,3],"state_2_key":0,"state_2_choice":2,"state_2_rt":686,"outcome":0,"rocket_colors":["#955db9","#48a782"],"planet_colors":["#5f6f81","#7f5d5d"],"screen_resolution":[1366,768],"minimum_resolution":1,"trial":125,"drifts":[0.519,0.49,0.295,0.344],"drift_ix":1,"trial_type":"two-step-trial","trial_index":158,"time_elapsed":1387438,"internal_node_id":"0.0-139.0-0.0","task_version":"1.0","jspsych_version":"6.3.1","browser_interactions":0,"missing":false},{"state_1_ids":[1,0],"state_1_key":1,"state_1_choice":0,"state_1_rt":1136.8999999761581,"transition":0,"state":1,"state_2_ids":[2,3],"state_2_key":1,"state_2_choice":3,"state_2_rt":1132.6000000238419,"outcome":0,"rocket_colors":["#955db9","#48a782"],"planet_colors":["#5f6f81","#7f5d5d"],"screen_resolution":[1366,768],"minimum_resolution":1,"trial":126,"drifts":[0.525,0.444,0.287,0.34],"drift_ix":1,"trial_type":"two-step-trial","trial_index":159,"time_elapsed":1391714,"internal_node_id":"0.0-140.0-0.0","task_version":"1.0","jspsych_version":"6.3.1","browser_interactions":0,"missing":false},{"state_1_ids":[0,1],"state_1_key":1,"state_1_choice":1,"state_1_rt":532.6000000238419,"transition":1,"state":1,"state_2_ids":[2,3],"state_2_key":0,"state_2_choice":2,"state_2_rt":670.5,"outcome":1,"rocket_colors":["#955db9","#48a782"],"planet_colors":["#5f6f81","#7f5d5d"],"screen_resolution":[1366,768],"minimum_resolution":1,"trial":127,"drifts":[0.473,0.463,0.278,0.293],"drift_ix":1,"trial_type":"two-step-trial","trial_index":160,"time_elapsed":1394929,"internal_node_id":"0.0-141.0-0.0","task_version":"1.0","jspsych_version":"6.3.1","browser_interactions":0,"missing":false},{"state_1_ids":[0,1],"state_1_key":1,"state_1_choice":1,"state_1_rt":502.6999999284744,"transition":1,"state":1,"state_2_ids":[2,3],"state_2_key":0,"state_2_choice":2,"state_2_rt":678.7999999523163,"outcome":1,"rocket_colors":["#955db9","#48a782"],"planet_colors":["#5f6f81","#7f5d5d"],"screen_resolution":[1366,768],"minimum_resolution":1,"trial":128,"drifts":[0.496,0.47,0.277,0.271],"drift_ix":1,"trial_type":"two-step-trial","trial_index":161,"time_elapsed":1398117,"internal_node_id":"0.0-142.0-0.0","task_version":"1.0","jspsych_version":"6.3.1","browser_interactions":0,"missing":false},{"state_1_ids":[1,0],"state_1_key":0,"state_1_choice":1,"state_1_rt":1043.3000000715256,"transition":1,"state":1,"state_2_ids":[2,3],"state_2_key":0,"state_2_choice":2,"state_2_rt":616.3999999761581,"outcome":0,"rocket_colors":["#955db9","#48a782"],"planet_colors":["#5f6f81","#7f5d5d"],"screen_resolution":[1366,768],"minimum_resolution":1,"trial":129,"drifts":[0.477,0.48,0.264,0.281],"drift_ix":1,"trial_type":"two-step-trial","trial_index":162,"time_elapsed":1401782,"internal_node_id":"0.0-143.0-0.0","task_version":"1.0","jspsych_version":"6.3.1","browser_interactions":0,"missing":false},{"state_1_ids":[1,0],"state_1_key":0,"state_1_choice":1,"state_1_rt":931.9000000953674,"transition":1,"state":1,"state_2_ids":[2,3],"state_2_key":1,"state_2_choice":3,"state_2_rt":634.8999999761581,"outcome":0,"rocket_colors":["#955db9","#48a782"],"planet_colors":["#5f6f81","#7f5d5d"],"screen_resolution":[1366,768],"minimum_resolution":1,"trial":130,"drifts":[0.494,0.486,0.258,0.258],"drift_ix":1,"trial_type":"two-step-trial","trial_index":163,"time_elapsed":1405395,"internal_node_id":"0.0-144.0-0.0","task_version":"1.0","jspsych_version":"6.3.1","browser_interactions":0,"missing":false},{"state_1_ids":[1,0],"state_1_key":1,"state_1_choice":0,"state_1_rt":554.2000000476837,"transition":1,"state":0,"state_2_ids":[0,1],"state_2_key":1,"state_2_choice":1,"state_2_rt":923,"outcome":1,"rocket_colors":["#955db9","#48a782"],"planet_colors":["#5f6f81","#7f5d5d"],"screen_resolution":[1366,768],"minimum_resolution":1,"trial":131,"drifts":[0.493,0.471,0.325,0.274],"drift_ix":1,"trial_type":"two-step-trial","trial_index":164,"time_elapsed":1408878,"internal_node_id":"0.0-145.0-0.0","task_version":"1.0","jspsych_version":"6.3.1","browser_interactions":0,"missing":false},{"state_1_ids":[1,0],"state_1_key":1,"state_1_choice":0,"state_1_rt":715,"transition":1,"state":0,"state_2_ids":[0,1],"state_2_key":1,"state_2_choice":1,"state_2_rt":793.3000000715256,"outcome":1,"rocket_colors":["#955db9","#48a782"],"planet_colors":["#5f6f81","#7f5d5d"],"screen_resolution":[1366,768],"minimum_resolution":1,"trial":132,"drifts":[0.495,0.414,0.29,0.261],"drift_ix":1,"trial_type":"two-step-trial","trial_index":165,"time_elapsed":1412396,"internal_node_id":"0.0-146.0-0.0","task_version":"1.0","jspsych_version":"6.3.1","browser_interactions":0,"missing":false},{"state_1_ids":[0,1],"state_1_key":0,"state_1_choice":0,"state_1_rt":985.8999999761581,"transition":1,"state":0,"state_2_ids":[0,1],"state_2_key":1,"state_2_choice":1,"state_2_rt":577.6000000238419,"outcome":1,"rocket_colors":["#955db9","#48a782"],"planet_colors":["#5f6f81","#7f5d5d"],"screen_resolution":[1366,768],"minimum_resolution":1,"trial":133,"drifts":[0.486,0.393,0.318,0.253],"drift_ix":1,"trial_type":"two-step-trial","trial_index":166,"time_elapsed":1415966,"internal_node_id":"0.0-147.0-0.0","task_version":"1.0","jspsych_version":"6.3.1","browser_interactions":0,"missing":false},{"state_1_ids":[0,1],"state_1_key":0,"state_1_choice":0,"state_1_rt":4069.4000000953674,"transition":1,"state":0,"state_2_ids":[0,1],"state_2_key":1,"state_2_choice":1,"state_2_rt":477.7000000476837,"outcome":0,"rocket_colors":["#955db9","#48a782"],"planet_colors":["#5f6f81","#7f5d5d"],"screen_resolution":[1366,768],"minimum_resolution":1,"trial":134,"drifts":[0.485,0.381,0.329,0.268],"drift_ix":1,"trial_type":"two-step-trial","trial_index":167,"time_elapsed":1422519,"internal_node_id":"0.0-148.0-0.0","task_version":"1.0","jspsych_version":"6.3.1","browser_interactions":0,"missing":false},{"state_1_ids":[0,1],"state_1_key":0,"state_1_choice":0,"state_1_rt":602.4000000953674,"transition":0,"state":1,"state_2_ids":[2,3],"state_2_key":1,"state_2_choice":3,"state_2_rt":1150.1000000238419,"outcome":0,"rocket_colors":["#955db9","#48a782"],"planet_colors":["#5f6f81","#7f5d5d"],"screen_resolution":[1366,768],"minimum_resolution":1,"trial":135,"drifts":[0.476,0.33,0.348,0.266],"drift_ix":1,"trial_type":"two-step-trial","trial_index":168,"time_elapsed":1426279,"internal_node_id":"0.0-149.0-0.0","task_version":"1.0","jspsych_version":"6.3.1","browser_interactions":0,"missing":false},{"state_1_ids":[0,1],"state_1_key":0,"state_1_choice":0,"state_1_rt":593.5,"transition":1,"state":0,"state_2_ids":[0,1],"state_2_key":1,"state_2_choice":1,"state_2_rt":1054.1000000238419,"outcome":1,"rocket_colors":["#955db9","#48a782"],"planet_colors":["#5f6f81","#7f5d5d"],"screen_resolution":[1366,768],"minimum_resolution":1,"trial":136,"drifts":[0.408,0.356,0.348,0.276],"drift_ix":1,"trial_type":"two-step-trial","trial_index":169,"time_elapsed":1429935,"internal_node_id":"0.0-150.0-0.0","task_version":"1.0","jspsych_version":"6.3.1","browser_interactions":0,"missing":false},{"state_1_ids":[0,1],"state_1_key":0,"state_1_choice":0,"state_1_rt":842,"transition":1,"state":0,"state_2_ids":[0,1],"state_2_key":1,"state_2_choice":1,"state_2_rt":550.4000000953674,"outcome":0,"rocket_colors":["#955db9","#48a782"],"planet_colors":["#5f6f81","#7f5d5d"],"screen_resolution":[1366,768],"minimum_resolution":1,"trial":137,"drifts":[0.444,0.402,0.328,0.271],"drift_ix":1,"trial_type":"two-step-trial","trial_index":170,"time_elapsed":1433334,"internal_node_id":"0.0-151.0-0.0","task_version":"1.0","jspsych_version":"6.3.1","browser_interactions":0,"missing":false},{"state_1_ids":[1,0],"state_1_key":1,"state_1_choice":0,"state_1_rt":1355.7999999523163,"transition":1,"state":0,"state_2_ids":[0,1],"state_2_key":0,"state_2_choice":0,"state_2_rt":645.8000000715256,"outcome":0,"rocket_colors":["#955db9","#48a782"],"planet_colors":["#5f6f81","#7f5d5d"],"screen_resolution":[1366,768],"minimum_resolution":1,"trial":138,"drifts":[0.443,0.378,0.381,0.256],"drift_ix":1,"trial_type":"two-step-trial","trial_index":171,"time_elapsed":1437355,"internal_node_id":"0.0-152.0-0.0","task_version":"1.0","jspsych_version":"6.3.1","browser_interactions":0,"missing":false},{"state_1_ids":[0,1],"state_1_key":0,"state_1_choice":0,"state_1_rt":1023.2999999523163,"transition":1,"state":0,"state_2_ids":[0,1],"state_2_key":1,"state_2_choice":1,"state_2_rt":491.7000000476837,"outcome":0,"rocket_colors":["#955db9","#48a782"],"planet_colors":["#5f6f81","#7f5d5d"],"screen_resolution":[1366,768],"minimum_resolution":1,"trial":139,"drifts":[0.465,0.376,0.423,0.302],"drift_ix":1,"trial_type":"two-step-trial","trial_index":172,"time_elapsed":1440879,"internal_node_id":"0.0-153.0-0.0","task_version":"1.0","jspsych_version":"6.3.1","browser_interactions":0,"missing":false},{"state_1_ids":[0,1],"state_1_key":1,"state_1_choice":1,"state_1_rt":1502.6999999284744,"transition":1,"state":1,"state_2_ids":[2,3],"state_2_key":0,"state_2_choice":2,"state_2_rt":1444.6000000238419,"outcome":0,"rocket_colors":["#955db9","#48a782"],"planet_colors":["#5f6f81","#7f5d5d"],"screen_resolution":[1366,768],"minimum_resolution":1,"trial":140,"drifts":[0.503,0.356,0.419,0.307],"drift_ix":1,"trial_type":"two-step-trial","trial_index":173,"time_elapsed":1445837,"internal_node_id":"0.0-154.0-0.0","task_version":"1.0","jspsych_version":"6.3.1","browser_interactions":0,"missing":false},{"state_1_ids":[0,1],"state_1_key":1,"state_1_choice":1,"state_1_rt":533.1000000238419,"transition":1,"state":1,"state_2_ids":[2,3],"state_2_key":1,"state_2_choice":3,"state_2_rt":478.89999997615814,"outcome":1,"rocket_colors":["#955db9","#48a782"],"planet_colors":["#5f6f81","#7f5d5d"],"screen_resolution":[1366,768],"minimum_resolution":1,"trial":141,"drifts":[0.498,0.362,0.406,0.333],"drift_ix":1,"trial_type":"two-step-trial","trial_index":174,"time_elapsed":1448858,"internal_node_id":"0.0-155.0-0.0","task_version":"1.0","jspsych_version":"6.3.1","browser_interactions":0,"missing":false},{"state_1_ids":[1,0],"state_1_key":0,"state_1_choice":1,"state_1_rt":960.7999999523163,"transition":1,"state":1,"state_2_ids":[2,3],"state_2_key":1,"state_2_choice":3,"state_2_rt":745.5999999046326,"outcome":0,"rocket_colors":["#955db9","#48a782"],"planet_colors":["#5f6f81","#7f5d5d"],"screen_resolution":[1366,768],"minimum_resolution":1,"trial":142,"drifts":[0.462,0.376,0.412,0.337],"drift_ix":1,"trial_type":"two-step-trial","trial_index":175,"time_elapsed":1452572,"internal_node_id":"0.0-156.0-0.0","task_version":"1.0","jspsych_version":"6.3.1","browser_interactions":0,"missing":false},{"state_1_ids":[1,0],"state_1_key":0,"state_1_choice":1,"state_1_rt":702.1000000238419,"transition":0,"state":0,"state_2_ids":[0,1],"state_2_key":1,"state_2_choice":1,"state_2_rt":889.8999999761581,"outcome":0,"rocket_colors":["#955db9","#48a782"],"planet_colors":["#5f6f81","#7f5d5d"],"screen_resolution":[1366,768],"minimum_resolution":1,"trial":143,"drifts":[0.494,0.345,0.399,0.358],"drift_ix":1,"trial_type":"two-step-trial","trial_index":176,"time_elapsed":1456172,"internal_node_id":"0.0-157.0-0.0","task_version":"1.0","jspsych_version":"6.3.1","browser_interactions":0,"missing":false},{"state_1_ids":[0,1],"state_1_key":1,"state_1_choice":1,"state_1_rt":1251.6999999284744,"transition":0,"state":0,"state_2_ids":[0,1],"state_2_key":1,"state_2_choice":1,"state_2_rt":752.3000000715256,"outcome":0,"rocket_colors":["#955db9","