[{"success":true,"timeout":false,"failed_images":[],"failed_audio":[],"failed_video":[],"trial_type":"preload","trial_index":0,"time_elapsed":2754,"internal_node_id":"0.0-0.0","task_version":"1.0","jspsych_version":"6.3.1"},{"success":true,"trial_type":"fullscreen","trial_index":1,"time_elapsed":6200,"internal_node_id":"0.0-1.0","task_version":"1.0","jspsych_version":"6.3.1"},{"view_history":[{"page_index":0,"viewing_time":7940.100000143051}],"rt":7942.400000095367,"trial_type":"instructions","trial_index":2,"time_elapsed":14146,"internal_node_id":"0.0-2.0","task_version":"1.0","jspsych_version":"6.3.1"},{"responses":{"Q03":"1","Q07":"1","Q06":"1","Q02":"1","Q08":"0","Q01":"0","Q05":"1","Q04":"2"},"rt":56820.200000047684,"item_order":[2,6,5,1,7,0,4,3],"radio_events":[9602.299999952316,11490.599999904633,14847,15282.099999904633,18492.700000047684,19937.900000095367,20778.5,21454.200000047684,27553.700000047684,28113.799999952316,36217.40000009537,39748.90000009537,49194.40000009537],"key_events":[],"mouse_events":[0.2999999523162842,9602.299999952316,11490.599999904633,14847,15282.099999904633,18492.700000047684,19062.700000047684,19937.900000095367,20778.5,21454.200000047684,27553.700000047684,28113.799999952316,28610.599999904633,34213.5,36217.40000009537,39748.90000009537,48476.5,49194.40000009537,56817.799999952316],"straightlining":0.625,"zigzagging":0.42857142857142855,"honeypot":0,"survey":"mania","trial_type":"survey-template","trial_index":3,"time_elapsed":70982,"internal_node_id":"0.0-3.0","task_version":"1.0","jspsych_version":"6.3.1"},{"responses":{"Q03":"1","Q01":"1","Q08":"1","Q02":"0","Q04":"0","Q05":"1","Q06":"1","Q07":"1"},"rt":18360.5,"item_order":[2,0,7,1,3,4,5,6],"radio_events":[7070.700000047684,8158.700000047684,9547.700000047684,10943.900000095367,13112.100000143051,14920.100000143051,15605.700000047684,16157.299999952316,16953.700000047684],"key_events":[],"mouse_events":[7070.700000047684,7598,8158.700000047684,9055.700000047684,9547.700000047684,10943.900000095367,13112.100000143051,14295.299999952316,14920.100000143051,15605.700000047684,16157.299999952316,16953.700000047684,18357.799999952316],"straightlining":0.75,"zigzagging":0.2857142857142857,"honeypot":0,"survey":"depression","trial_type":"survey-template","trial_index":4,"time_elapsed":89349,"internal_node_id":"0.0-4.0","task_version":"1.0","jspsych_version":"6.3.1"},{"responses":{"Q05":"5","Q02":"3","Q04":"3","Q07":"3","Q01":"4","Q03":"3","Q06":"3"},"rt":18211.599999904633,"item_order":[4,1,3,6,0,2,5],"radio_events":[6394,7962.099999904633,9022.5,10326.699999809265,14158.399999856949,16200,17304.699999809265],"key_events":[],"mouse_events":[5459.699999809265,6394,7962.099999904633,9022.5,10326.699999809265,13440.599999904633,14158.399999856949,16200,17304.699999809265,18207.299999952316],"straightlining":0.7142857142857143,"zigzagging":0.3333333333333333,"honeypot":0,"survey":"artistic","trial_type":"survey-template","trial_index":5,"time_elapsed":107568,"internal_node_id":"0.0-5.0","task_version":"1.0","jspsych_version":"6.3.1"},{"responses":{"Q03":"0","Q02":"0","Q04":"0","Q05":"0","Q08":"0","Q06":"1","Q01":"1","Q07":"1"},"rt":13822.599999904633,"item_order":[2,1,3,4,7,5,0,6],"radio_events":[4892.700000047684,6123.099999904633,7268.299999952316,8446,9244.5,10309.599999904633,11413.700000047684,13202.899999856949],"key_events":[],"mouse_events":[4892.700000047684,6123.099999904633,7268.299999952316,8446,9244.5,10309.599999904633,11413.700000047684,11964.099999904633,13202.899999856949,13819.399999856949],"straightlining":0.625,"zigzagging":0.14285714285714285,"honeypot":0,"survey":"anxiety","trial_type":"survey-template","trial_index":6,"time_elapsed":121397,"internal_node_id":"0.0-6.0","task_version":"1.0","jspsych_version":"6.3.1"},{"responses":{"Q01":"3","Q02":"3","Q05":"3","Q03":"3","Q06":"3","Q04":"3","Q07":"6"},"rt":22825.400000095367,"item_order":[0,1,4,2,5,3,6],"radio_events":[5038.700000047684,6087.900000095367,7456,8447.799999952316,9103,14134.799999952316,17586.799999952316,18358,19151.299999952316],"key_events":[],"mouse_events":[4189.400000095367,5038.700000047684,6087.900000095367,7456,8447.799999952316,9103,14134.799999952316,17586.799999952316,18358,19151.299999952316,22821.799999952316],"straightlining":0.8571428571428571,"zigzagging":0,"honeypot":0,"survey":"greed","trial_type":"survey-template","trial_index":7,"time_elapsed":144231,"internal_node_id":"0.0-7.0","task_version":"1.0","jspsych_version":"6.3.1"},{"view_history":"[{\"page_index\":0,\"viewing_time\":4674.299999952316},{\"page_index\":1,\"viewing_time\":1503.6000001430511},{\"page_index\":2,\"viewing_time\":1081.5},{\"page_index\":3,\"viewing_time\":7512},{\"page_index\":4,\"viewing_time\":2215.2999999523163},{\"page_index\":5,\"viewing_time\":4071.5},{\"page_index\":6,\"viewing_time\":2427.4000000953674},{\"page_index\":7,\"viewing_time\":4684.599999904633},{\"page_index\":8,\"viewing_time\":1897.5},{\"page_index\":9,\"viewing_time\":2894.2000000476837},{\"page_index\":10,\"viewing_time\":759.5}]","rt":33722.90000009537,"trial_type":"two-step-instructions","trial_index":8,"time_elapsed":177968,"internal_node_id":"0.0-8.0-1.0","task_version":"1.0","jspsych_version":"6.3.1"},{"responses":["left/right arrow keys","True","True"],"num_errors":0,"rt":14003.800000190735,"quiz":1,"trial_type":"two-step-comprehension","trial_index":9,"time_elapsed":191983,"internal_node_id":"0.0-8.0-2.0","task_version":"1.0","jspsych_version":"6.3.1"},{"view_history":"[{\"page_index\":0,\"viewing_time\":5417.399999856949}]","rt":5420.699999809265,"phase":"instructions_1b","trial_type":"two-step-instructions","trial_index":10,"time_elapsed":197411,"internal_node_id":"0.0-9.0-0.0-0.0","task_version":"1.0","jspsych_version":"6.3.1"},{"state_2_ids":[0,1],"state_2_key":0,"state_2_choice":0,"state_2_rt":2500.2999999523163,"outcome":0,"screen_resolution":[1024,768],"minimum_resolution":1,"trial_type":"alien-practice","trial_index":11,"time_elapsed":202130,"internal_node_id":"0.0-9.0-1.0-0.0","task_version":"1.0","jspsych_version":"6.3.1"},{"state_2_ids":[0,1],"state_2_key":1,"state_2_choice":1,"state_2_rt":818,"outcome":0,"screen_resolution":[1024,768],"minimum_resolution":1,"trial_type":"alien-practice","trial_index":12,"time_elapsed":205158,"internal_node_id":"0.0-9.0-2.0-0.0","task_version":"1.0","jspsych_version":"6.3.1"},{"state_2_ids":[0,1],"state_2_key":1,"state_2_choice":1,"state_2_rt":3277.7999999523163,"outcome":1,"screen_resolution":[1024,768],"minimum_resolution":1,"trial_type":"alien-practice","trial_index":13,"time_elapsed":210658,"internal_node_id":"0.0-9.0-3.0-0.0","task_version":"1.0","jspsych_version":"6.3.1"},{"state_2_ids":[0,1],"state_2_key":1,"state_2_choice":1,"state_2_rt":1411.4000000953674,"outcome":1,"screen_resolution":[1024,768],"minimum_resolution":1,"trial_type":"alien-practice","trial_index":14,"time_elapsed":214278,"internal_node_id":"0.0-9.0-4.0-0.0","task_version":"1.0","jspsych_version":"6.3.1"},{"state_2_ids":[0,1],"state_2_key":1,"state_2_choice":1,"state_2_rt":1053.7999999523163,"outcome":1,"screen_resolution":[1024,768],"minimum_resolution":1,"trial_type":"alien-practice","trial_index":15,"time_elapsed":217552,"internal_node_id":"0.0-9.0-5.0-0.0","task_version":"1.0","jspsych_version":"6.3.1"},{"view_history":"[{\"page_index\":0,\"viewing_time\":2903.2999999523163},{\"page_index\":1,\"viewing_time\":1720.7000000476837},{\"page_index\":2,\"viewing_time\":4128.299999952316},{\"page_index\":3,\"viewing_time\":2837.9000000953674},{\"page_index\":4,\"viewing_time\":1071.7999999523163},{\"page_index\":5,\"viewing_time\":1699.5999999046326}]","rt":14363.099999904633,"trial_type":"two-step-instructions","trial_index":16,"time_elapsed":231923,"internal_node_id":"0.0-10.0-1.0","task_version":"1.0","jspsych_version":"6.3.1"},{"responses":["left/right arrow keys","True","True"],"num_errors":1,"rt":3719.4000000953674,"quiz":2,"trial_type":"two-step-comprehension","trial_index":17,"time_elapsed":235648,"internal_node_id":"0.0-10.0-2.0","task_version":"1.0","jspsych_version":"6.3.1"},{"view_history":"[{\"page_index\":0,\"viewing_time\":3918.7999999523163}]","rt":3920,"trial_type":"two-step-instructions","trial_index":18,"time_elapsed":239577,"internal_node_id":"0.0-10.1-0.1-0.1","task_version":"1.0","jspsych_version":"6.3.1"},{"view_history":"[{\"page_index\":0,\"viewing_time\":1515.1999998092651},{\"page_index\":1,\"viewing_time\":23871.700000047684},{\"page_index\":2,\"viewing_time\":10131.600000143051},{\"page_index\":3,\"viewing_time\":5493.299999952316},{\"page_index\":4,\"viewing_time\":1611.5}]","rt":42624.799999952316,"trial_type":"two-step-instructions","trial_index":19,"time_elapsed":282210,"internal_node_id":"0.0-10.1-1.1","task_version":"1.0","jspsych_version":"6.3.1"},{"responses":["left/right arrow keys","False","False"],"num_errors":1,"rt":6229.599999904633,"quiz":2,"trial_type":"two-step-comprehension","trial_index":20,"time_elapsed":288448,"internal_node_id":"0.0-10.1-2.1","task_version":"1.0","jspsych_version":"6.3.1"},{"view_history":"[{\"page_index\":0,\"viewing_time\":1312.2000000476837}]","rt":1314,"trial_type":"two-step-instructions","trial_index":21,"time_elapsed":289767,"internal_node_id":"0.0-10.2-0.2-0.2","task_version":"1.0","jspsych_version":"6.3.1"},{"view_history":"[{\"page_index\":0,\"viewing_time\":1276.5999999046326},{\"page_index\":1,\"viewing_time\":696},{\"page_index\":2,\"viewing_time\":632.5},{\"page_index\":3,\"viewing_time\":592.2000000476837},{\"page_index\":4,\"viewing_time\":553.2000000476837}]","rt":3751.7000000476837,"trial_type":"two-step-instructions","trial_index":22,"time_elapsed":293527,"internal_node_id":"0.0-10.2-1.2","task_version":"1.0","jspsych_version":"6.3.1"},{"responses":["left/right arrow keys","False","True"],"num_errors":0,"rt":4402.299999952316,"quiz":2,"trial_type":"two-step-comprehension","trial_index":23,"time_elapsed":297935,"internal_node_id":"0.0-10.2-2.2","task_version":"1.0","jspsych_version":"6.3.1"},{"view_history":"[{\"page_index\":0,\"viewing_time\":3245.0999999046326},{\"page_index\":1,\"viewing_time\":5236.099999904633},{\"page_index\":2,\"viewing_time\":1289.6000001430511}]","rt":9771.599999904633,"trial_type":"two-step-instructions","trial_index":24,"time_elapsed":307711,"internal_node_id":"0.0-11.0-0.0","task_version":"1.0","jspsych_version":"6.3.1"},{"state_1_ids":[0,1],"state_1_key":1,"state_1_choice":1,"state_1_rt":1819.3000001907349,"transition":1,"state":1,"state_2_ids":[2,3],"state_2_key":0,"state_2_choice":2,"state_2_rt":2437.0999999046326,"outcome":0,"rocket_colors":["#a75248","#486ea7"],"planet_colors":["#706081","#5b7c65"],"screen_resolution":[1024,768],"minimum_resolution":1,"trial":0,"trial_type":"two-step-trial","trial_index":25,"time_elapsed":313980,"internal_node_id":"0.0-11.0-1.0-0.0","task_version":"1.0","jspsych_version":"6.3.1","missing":false},{"state_1_ids":[1,0],"state_1_key":0,"state_1_choice":1,"state_1_rt":1361.2000000476837,"transition":1,"state":1,"state_2_ids":[2,3],"state_2_key":0,"state_2_choice":2,"state_2_rt":1259.7999999523163,"outcome":0,"rocket_colors":["#a75248","#486ea7"],"planet_colors":["#706081","#5b7c65"],"screen_resolution":[1024,768],"minimum_resolution":1,"trial":0,"trial_type":"two-step-trial","trial_index":26,"time_elapsed":318610,"internal_node_id":"0.0-11.0-1.0-0.1","task_version":"1.0","jspsych_version":"6.3.1","missing":false},{"state_1_ids":[0,1],"state_1_key":1,"state_1_choice":1,"state_1_rt":718.4000000953674,"transition":1,"state":1,"state_2_ids":[2,3],"state_2_key":1,"state_2_choice":3,"state_2_rt":503,"outcome":0,"rocket_colors":["#a75248","#486ea7"],"planet_colors":["#706081","#5b7c65"],"screen_resolution":[1024,768],"minimum_resolution":1,"trial":0,"trial_type":"two-step-trial","trial_index":27,"time_elapsed":321901,"internal_node_id":"0.0-11.0-1.0-0.2","task_version":"1.0","jspsych_version":"6.3.1","missing":false},{"state_1_ids":[1,0],"state_1_key":0,"state_1_choice":1,"state_1_rt":823.5,"transition":1,"state":1,"state_2_ids":[2,3],"state_2_key":0,"state_2_choice":2,"state_2_rt":1016.2000000476837,"outcome":0,"rocket_colors":["#a75248","#486ea7"],"planet_colors":["#706081","#5b7c65"],"screen_resolution":[1024,768],"minimum_resolution":1,"trial":0,"trial_type":"two-step-trial","trial_index":28,"time_elapsed":325749,"internal_node_id":"0.0-11.0-1.0-0.3","task_version":"1.0","jspsych_version":"6.3.1","missing":false},{"state_1_ids":[0,1],"state_1_key":0,"state_1_choice":0,"state_1_rt":976.7000000476837,"transition":1,"state":0,"state_2_ids":[0,1],"state_2_key":1,"state_2_choice":1,"state_2_rt":804.6000001430511,"outcome":0,"rocket_colors":["#a75248","#486ea7"],"planet_colors":["#706081","#5b7c65"],"screen_resolution":[1024,768],"minimum_resolution":1,"trial":0,"trial_type":"two-step-trial","trial_index":29,"time_elapsed":329538,"internal_node_id":"0.0-11.0-1.0-0.4","task_version":"1.0","jspsych_version":"6.3.1","missing":false},{"state_1_ids":[1,0],"state_1_key":1,"state_1_choice":0,"state_1_rt":937.3999998569489,"transition":0,"state":1,"state_2_ids":[2,3],"state_2_key":0,"state_2_choice":2,"state_2_rt":167.70000004768372,"outcome":0,"rocket_colors":["#a75248","#486ea7"],"planet_colors":["#706081","#5b7c65"],"screen_resolution":[1024,768],"minimum_resolution":1,"trial":0,"trial_type":"two-step-trial","trial_index":30,"time_elapsed":332650,"internal_node_id":"0.0-11.0-1.0-0.5","task_version":"1.0","jspsych_version":"6.3.1","missing":false},{"state_1_ids":[0,1],"state_1_key":1,"state_1_choice":1,"state_1_rt":1200.6000001430511,"transition":1,"state":1,"state_2_ids":[2,3],"state_2_key":1,"state_2_choice":3,"state_2_rt":1733.6000001430511,"outcome":1,"rocket_colors":["#a75248","#486ea7"],"planet_colors":["#706081","#5b7c65"],"screen_resolution":[1024,768],"minimum_resolution":1,"trial":0,"trial_type":"two-step-trial","trial_index":31,"time_elapsed":337610,"internal_node_id":"0.0-11.0-1.0-0.6","task_version":"1.0","jspsych_version":"6.3.1","missing":false},{"state_1_ids":[1,0],"state_1_key":1,"state_1_choice":0,"state_1_rt":1418.2000000476837,"transition":1,"state":0,"state_2_ids":[0,1],"state_2_key":0,"state_2_choice":0,"state_2_rt":1566.2999999523163,"outcome":1,"rocket_colors":["#a75248","#486ea7"],"planet_colors":["#706081","#5b7c65"],"screen_resolution":[1024,768],"minimum_resolution":1,"trial":0,"trial_type":"two-step-trial","trial_index":32,"time_elapsed":342788,"internal_node_id":"0.0-11.0-1.0-0.7","task_version":"1.0","jspsych_version":"6.3.1","missing":false},{"state_1_ids":[0,1],"state_1_key":1,"state_1_choice":1,"state_1_rt":2142.7000000476837,"transition":1,"state":1,"state_2_ids":[2,3],"state_2_key":1,"state_2_choice":3,"state_2_rt":2120.2999999523163,"outcome":1,"rocket_colors":["#a75248","#486ea7"],"planet_colors":["#706081","#5b7c65"],"screen_resolution":[1024,768],"minimum_resolution":1,"trial":0,"trial_type":"two-step-trial","trial_index":33,"time_elapsed":349058,"internal_node_id":"0.0-11.0-1.0-0.8","task_version":"1.0","jspsych_version":"6.3.1","missing":false},{"state_1_ids":[1,0],"state_1_key":1,"state_1_choice":0,"state_1_rt":1137.2000000476837,"transition":1,"state":0,"state_2_ids":[0,1],"state_2_key":0,"state_2_choice":0,"state_2_rt":1954,"outcome":1,"rocket_colors":["#a75248","#486ea7"],"planet_colors":["#706081","#5b7c65"],"screen_resolution":[1024,768],"minimum_resolution":1,"trial":0,"trial_type":"two-step-trial","trial_index":34,"time_elapsed":354160,"internal_node_id":"0.0-11.0-1.0-0.9","task_version":"1.0","jspsych_version":"6.3.1","missing":false},{"view_history":"[{\"page_index\":0,\"viewing_time\":2989.5},{\"page_index\":1,\"viewing_time\":1413.6000001430511},{\"page_index\":2,\"viewing_time\":3249.5},{\"page_index\":3,\"viewing_time\":2295.2000000476837},{\"page_index\":4,\"viewing_time\":1110.5999999046326},{\"page_index\":5,\"viewing_time\":1104.7000000476837},{\"page_index\":6,\"viewing_time\":903.5}]","rt":13067.300000190735,"trial_type":"two-step-instructions","trial_index":35,"time_elapsed":367236,"internal_node_id":"0.0-12.0-1.0","task_version":"1.0","jspsych_version":"6.3.1"},{"responses":["False","True","True"],"num_errors":2,"rt":11519,"quiz":3,"trial_type":"two-step-comprehension","trial_index":36,"time_elapsed":378760,"internal_node_id":"0.0-12.0-2.0","task_version":"1.0","jspsych_version":"6.3.1"},{"view_history":"[{\"page_index\":0,\"viewing_time\":1737}]","rt":1737.9000000953674,"trial_type":"two-step-instructions","trial_index":37,"time_elapsed":380502,"internal_node_id":"0.0-12.1-0.1-0.1","task_version":"1.0","jspsych_version":"6.3.1"},{"view_history":"[{\"page_index\":0,\"viewing_time\":4718.799999952316},{\"page_index\":1,\"viewing_time\":6433.200000047684},{\"page_index\":2,\"viewing_time\":4472.100000143051},{\"page_index\":3,\"viewing_time\":11687.699999809265},{\"page_index\":4,\"viewing_time\":5798.300000190735},{\"page_index\":5,\"viewing_time\":4325.299999952316}]","rt":37436.5,"trial_type":"two-step-instructions","trial_index":38,"time_elapsed":417942,"internal_node_id":"0.0-12.1-1.1","task_version":"1.0","jspsych_version":"6.3.1"},{"responses":["True","True","False"],"num_errors":2,"rt":14882.600000143051,"quiz":3,"trial_type":"two-step-comprehension","trial_index":39,"time_elapsed":432829,"internal_node_id":"0.0-12.1-2.1","task_version":"1.0","jspsych_version":"6.3.1"},{"view_history":"[{\"page_index\":0,\"viewing_time\":1228.0999999046326}]","rt":1228.8999998569489,"trial_type":"two-step-instructions","trial_index":40,"time_elapsed":434063,"internal_node_id":"0.0-12.2-0.2-0.2","task_version":"1.0","jspsych_version":"6.3.1"},{"view_history":"[{\"page_index\":0,\"viewing_time\":755.6999998092651},{\"page_index\":1,\"viewing_time\":704.3000001907349},{\"page_index\":2,\"viewing_time\":199.39999985694885},{\"page_index\":3,\"viewing_time\":226.40000009536743},{\"page_index\":4,\"viewing_time\":574.5999999046326},{\"page_index\":5,\"viewing_time\":583.4000000953674}]","rt":3044.5,"trial_type":"two-step-instructions","trial_index":41,"time_elapsed":437119,"internal_node_id":"0.0-12.2-1.2","task_version":"1.0","jspsych_version":"6.3.1"},{"responses":["False","True","False"],"num_errors":3,"rt":11726.5,"quiz":3,"trial_type":"two-step-comprehension","trial_index":42,"time_elapsed":448851,"internal_node_id":"0.0-12.2-2.2","task_version":"1.0","jspsych_version":"6.3.1"},{"view_history":"[{\"page_index\":0,\"viewing_time\":1186.7999999523163}]","rt":1187.5,"trial_type":"two-step-instructions","trial_index":43,"time_elapsed":450047,"internal_node_id":"0.0-12.3-0.3-0.3","task_version":"1.0","jspsych_version":"6.3.1"},{"view_history":"[{\"page_index\":0,\"viewing_time\":465.40000009536743},{\"page_index\":1,\"viewing_time\":1009.2999999523163},{\"page_index\":2,\"viewing_time\":423.39999985694885},{\"page_index\":3,\"viewing_time\":488.5},{\"page_index\":4,\"viewing_time\":564.1000001430511},{\"page_index\":5,\"viewing_time\":1054.2000000476837}]","rt":4006,"trial_type":"two-step-instructions","trial_index":44,"time_elapsed":454059,"internal_node_id":"0.0-12.3-1.3","task_version":"1.0","jspsych_version":"6.3.1"},{"responses":["True","True","True"],"num_errors":1,"rt":12316.299999952316,"quiz":3,"trial_type":"two-step-comprehension","trial_index":45,"time_elapsed":466380,"internal_node_id":"0.0-12.3-2.3","task_version":"1.0","jspsych_version":"6.3.1"},{"view_history":"[{\"page_index\":0,\"viewing_time\":918}]","rt":919.1000001430511,"trial_type":"two-step-instructions","trial_index":46,"time_elapsed":467304,"internal_node_id":"0.0-12.4-0.4-0.4","task_version":"1.0","jspsych_version":"6.3.1"},{"view_history":"[{\"page_index\":0,\"viewing_time\":637.4000000953674},{\"page_index\":1,\"viewing_time\":400.59999990463257},{\"page_index\":2,\"viewing_time\":633.4000000953674},{\"page_index\":3,\"viewing_time\":261.59999990463257},{\"page_index\":4,\"viewing_time\":521.3000001907349},{\"page_index\":5,\"viewing_time\":592}]","rt":3047.300000190735,"trial_type":"two-step-instructions","trial_index":47,"time_elapsed":470360,"internal_node_id":"0.0-12.4-1.4","task_version":"1.0","jspsych_version":"6.3.1"},{"responses":["False","True","False"],"num_errors":3,"rt":4670.199999809265,"quiz":3,"trial_type":"two-step-comprehension","trial_index":48,"time_elapsed":475034,"internal_node_id":"0.0-12.4-2.4","task_version":"1.0","jspsych_version":"6.3.1"},{"view_history":"[{\"page_index\":0,\"viewing_time\":918.4000000953674}]","rt":919.5,"trial_type":"two-step-instructions","trial_index":49,"time_elapsed":475959,"internal_node_id":"0.0-12.5-0.5-0.5","task_version":"1.0","jspsych_version":"6.3.1"},{"view_history":"[{\"page_index\":0,\"viewing_time\":3512.2999999523163},{\"page_index\":1,\"viewing_time\":2125},{\"page_index\":2,\"viewing_time\":1912.4000000953674},{\"page_index\":3,\"viewing_time\":11905},{\"page_index\":4,\"viewing_time\":9679.899999856949},{\"page_index\":5,\"viewing_time\":4169.800000190735}]","rt":33305.59999990463,"trial_type":"two-step-instructions","trial_index":50,"time_elapsed":509276,"internal_node_id":"0.0-12.5-1.5","task_version":"1.0","jspsych_version":"6.3.1"},{"responses":["True","False","False"],"num_errors":1,"rt":13362.799999952316,"quiz":3,"trial_type":"two-step-comprehension","trial_index":51,"time_elapsed":522644,"internal_node_id":"0.0-12.5-2.5","task_version":"1.0","jspsych_version":"6.3.1"},{"view_history":"[{\"page_index\":0,\"viewing_time\":1225.4000000953674},{\"page_index\":1,\"viewing_time\":2174.7000000476837},{\"page_index\":2,\"viewing_time\":1825}]","rt":5226,"trial_type":"two-step-instructions","trial_index":52,"time_elapsed":527875,"internal_node_id":"0.0-13.0","task_version":"1.0","jspsych_version":"6.3.1"},{"state_1_ids":[1,0],"state_1_key":1,"state_1_choice":0,"state_1_rt":2427.800000190735,"transition":0,"state":1,"state_2_ids":[2,3],"state_2_key":0,"state_2_choice":2,"state_2_rt":2455.7000000476837,"outcome":0,"rocket_colors":["#955db9","#48a782"],"planet_colors":["#7f5d5d","#5f6f81"],"screen_resolution":[1024,768],"minimum_resolution":1,"trial":1,"drifts":[0.6,0.51,0.387,0.388],"drift_ix":0,"trial_type":"two-step-trial","trial_index":53,"time_elapsed":534793,"internal_node_id":"0.0-14.0-0.0","task_version":"1.0","jspsych_version":"6.3.1","browser_interactions":0,"missing":false},{"state_1_ids":[0,1],"state_1_key":0,"state_1_choice":0,"state_1_rt":1544.2999999523163,"transition":1,"state":0,"state_2_ids":[0,1],"state_2_key":0,"state_2_choice":0,"state_2_rt":2295,"outcome":0,"rocket_colors":["#955db9","#48a782"],"planet_colors":["#7f5d5d","#5f6f81"],"screen_resolution":[1024,768],"minimum_resolution":1,"trial":2,"drifts":[0.6,0.49,0.376,0.364],"drift_ix":0,"trial_type":"two-step-trial","trial_index":54,"time_elapsed":540638,"internal_node_id":"0.0-15.0-0.0","task_version":"1.0","jspsych_version":"6.3.1","browser_interactions":0,"missing":false},{"state_1_ids":[0,1],"state_1_key":0,"state_1_choice":0,"state_1_rt":931.4000000953674,"transition":0,"state":1,"state_2_ids":[2,3],"state_2_key":1,"state_2_choice":3,"state_2_rt":989.7999999523163,"outcome":0,"rocket_colors":["#955db9","#48a782"],"planet_colors":["#7f5d5d","#5f6f81"],"screen_resolution":[1024,768],"minimum_resolution":1,"trial":3,"drifts":[0.612,0.488,0.376,0.385],"drift_ix":0,"trial_type":"two-step-trial","trial_index":55,"time_elapsed":544579,"internal_node_id":"0.0-16.0-0.0","task_version":"1.0","jspsych_version":"6.3.1","browser_interactions":0,"missing":false},{"state_1_ids":[1,0],"state_1_key":0,"state_1_choice":1,"state_1_rt":951.9000000953674,"transition":0,"state":0,"state_2_ids":[0,1],"state_2_key":1,"state_2_choice":1,"state_2_rt":1246.7000000476837,"outcome":0,"rocket_colors":["#955db9","#48a782"],"planet_colors":["#7f5d5d","#5f6f81"],"screen_resolution":[1024,768],"minimum_resolution":1,"trial":4,"drifts":[0.659,0.517,0.37,0.352],"drift_ix":0,"trial_type":"two-step-trial","trial_index":56,"time_elapsed":548785,"internal_node_id":"0.0-17.0-0.0","task_version":"1.0","jspsych_version":"6.3.1","browser_interactions":0,"missing":false},{"state_1_ids":[1,0],"state_1_key":1,"state_1_choice":0,"state_1_rt":886,"transition":0,"state":1,"state_2_ids":[2,3],"state_2_key":0,"state_2_choice":2,"state_2_rt":774,"outcome":1,"rocket_colors":["#955db9","#48a782"],"planet_colors":["#7f5d5d","#5f6f81"],"screen_resolution":[1024,768],"minimum_resolution":1,"trial":5,"drifts":[0.676,0.497,0.349,0.378],"drift_ix":0,"trial_type":"two-step-trial","trial_index":57,"time_elapsed":552463,"internal_node_id":"0.0-18.0-0.0","task_version":"1.0","jspsych_version":"6.3.1","browser_interactions":0,"missing":false},{"state_1_ids":[1,0],"state_1_key":1,"state_1_choice":0,"state_1_rt":915,"transition":1,"state":0,"state_2_ids":[0,1],"state_2_key":1,"state_2_choice":1,"state_2_rt":1401.2999999523163,"outcome":1,"rocket_colors":["#955db9","#48a782"],"planet_colors":["#7f5d5d","#5f6f81"],"screen_resolution":[1024,768],"minimum_resolution":1,"trial":6,"drifts":[0.682,0.475,0.347,0.386],"drift_ix":0,"trial_type":"two-step-trial","trial_index":58,"time_elapsed":556787,"internal_node_id":"0.0-19.0-0.0","task_version":"1.0","jspsych_version":"6.3.1","browser_interactions":0,"missing":false},{"state_1_ids":[0,1],"state_1_key":0,"state_1_choice":0,"state_1_rt":1637.3999998569489,"transition":1,"state":0,"state_2_ids":[0,1],"state_2_key":0,"state_2_choice":0,"state_2_rt":4444.299999952316,"outcome":1,"rocket_colors":["#955db9","#48a782"],"planet_colors":["#7f5d5d","#5f6f81"],"screen_resolution":[1024,768],"minimum_resolution":1,"trial":7,"drifts":[0.65,0.473,0.346,0.344],"drift_ix":0,"trial_type":"two-step-trial","trial_index":59,"time_elapsed":564962,"internal_node_id":"0.0-20.0-0.0","task_version":"1.0","jspsych_version":"6.3.1","browser_interactions":0,"missing":false},{"state_1_ids":[1,0],"state_1_key":1,"state_1_choice":0,"state_1_rt":1091.4000000953674,"transition":1,"state":0,"state_2_ids":[0,1],"state_2_key":1,"state_2_choice":1,"state_2_rt":1887.2999999523163,"outcome":0,"rocket_colors":["#955db9","#48a782"],"planet_colors":["#7f5d5d","#5f6f81"],"screen_resolution":[1024,768],"minimum_resolution":1,"trial":8,"drifts":[0.637,0.456,0.371,0.318],"drift_ix":0,"trial_type":"two-step-trial","trial_index":60,"time_elapsed":569959,"internal_node_id":"0.0-21.0-0.0","task_version":"1.0","jspsych_version":"6.3.1","browser_interactions":0,"missing":false},{"state_1_ids":[1,0],"state_1_key":0,"state_1_choice":1,"state_1_rt":1012.2999999523163,"transition":0,"state":0,"state_2_ids":[0,1],"state_2_key":0,"state_2_choice":0,"state_2_rt":1811,"outcome":1,"rocket_colors":["#955db9","#48a782"],"planet_colors":["#7f5d5d","#5f6f81"],"screen_resolution":[1024,768],"minimum_resolution":1,"trial":9,"drifts":[0.637,0.443,0.354,0.311],"drift_ix":0,"trial_type":"two-step-trial","trial_index":61,"time_elapsed":574849,"internal_node_id":"0.0-22.0-0.0","task_version":"1.0","jspsych_version":"6.3.1","browser_interactions":0,"missing":false},{"state_1_ids":[1,0],"state_1_key":0,"state_1_choice":1,"state_1_rt":758.4000000953674,"transition":0,"state":0,"state_2_ids":[0,1],"state_2_key":0,"state_2_choice":0,"state_2_rt":831.0999999046326,"outcome":0,"rocket_colors":["#955db9","#48a782"],"planet_colors":["#7f5d5d","#5f6f81"],"screen_resolution":[1024,768],"minimum_resolution":1,"trial":10,"drifts":[0.63,0.435,0.315,0.32],"drift_ix":0,"trial_type":"two-step-trial","trial_index":62,"time_elapsed":578473,"internal_node_id":"0.0-23.0-0.0","task_version":"1.0","jspsych_version":"6.3.1","browser_interactions":0,"missing":false},{"state_1_ids":[0,1],"state_1_key":1,"state_1_choice":1,"state_1_rt":1720.0999999046326,"transition":1,"state":1,"state_2_ids":[2,3],"state_2_key":0,"state_2_choice":2,"state_2_rt":1788,"outcome":0,"rocket_colors":["#955db9","#48a782"],"planet_colors":["#7f5d5d","#5f6f81"],"screen_resolution":[1024,768],"minimum_resolution":1,"trial":11,"drifts":[0.599,0.48,0.291,0.32],"drift_ix":0,"trial_type":"two-step-trial","trial_index":63,"time_elapsed":583989,"internal_node_id":"0.0-24.0-0.0","task_version":"1.0","jspsych_version":"6.3.1","browser_interactions":0,"missing":false},{"state_1_ids":[0,1],"state_1_key":0,"state_1_choice":0,"state_1_rt":1624.4000000953674,"transition":0,"state":1,"state_2_ids":[2,3],"state_2_key":0,"state_2_choice":2,"state_2_rt":1791.0999999046326,"outcome":0,"rocket_colors":["#955db9","#48a782"],"planet_colors":["#7f5d5d","#5f6f81"],"screen_resolution":[1024,768],"minimum_resolution":1,"trial":12,"drifts":[0.573,0.445,0.3,0.33],"drift_ix":0,"trial_type":"two-step-trial","trial_index":64,"time_elapsed":589421,"internal_node_id":"0.0-25.0-0.0","task_version":"1.0","jspsych_version":"6.3.1","browser_interactions":0,"missing":false},{"state_1_ids":[1,0],"state_1_key":1,"state_1_choice":0,"state_1_rt":991,"transition":0,"state":1,"state_2_ids":[2,3],"state_2_key":0,"state_2_choice":2,"state_2_rt":1237.9000000953674,"outcome":0,"rocket_colors":["#955db9","#48a782"],"planet_colors":["#7f5d5d","#5f6f81"],"screen_resolution":[1024,768],"minimum_resolution":1,"trial":13,"drifts":[0.6,0.4,0.3,0.32],"drift_ix":0,"trial_type":"two-step-trial","trial_index":65,"time_elapsed":593688,"internal_node_id":"0.0-26.0-0.0","task_version":"1.0","jspsych_version":"6.3.1","browser_interactions":0,"missing":false},{"state_1_ids":[1,0],"state_1_key":1,"state_1_choice":0,"state_1_rt":541.7000000476837,"transition":1,"state":0,"state_2_ids":[0,1],"state_2_key":0,"state_2_choice":0,"state_2_rt":2952.600000143051,"outcome":1,"rocket_colors":["#955db9","#48a782"],"planet_colors":["#7f5d5d","#5f6f81"],"screen_resolution":[1024,768],"minimum_resolution":1,"trial":14,"drifts":[0.601,0.428,0.308,0.274],"drift_ix":0,"trial_type":"two-step-trial","trial_index":66,"time_elapsed":599192,"internal_node_id":"0.0-27.0-0.0","task_version":"1.0","jspsych_version":"6.3.1","browser_interactions":0,"missing":false},{"state_1_ids":[1,0],"state_1_key":1,"state_1_choice":0,"state_1_rt":1461.7999999523163,"transition":1,"state":0,"state_2_ids":[0,1],"state_2_key":0,"state_2_choice":0,"state_2_rt":776.3000001907349,"outcome":0,"rocket_colors":["#955db9","#48a782"],"planet_colors":["#7f5d5d","#5f6f81"],"screen_resolution":[1024,768],"minimum_resolution":1,"trial":15,"drifts":[0.588,0.441,0.345,0.295],"drift_ix":0,"trial_type":"two-step-trial","trial_index":67,"time_elapsed":603438,"internal_node_id":"0.0-28.0-0.0","task_version":"1.0","jspsych_version":"6.3.1","browser_interactions":0,"missing":false},{"state_1_ids":[1,0],"state_1_key":0,"state_1_choice":1,"state_1_rt":1380,"transition":1,"state":1,"state_2_ids":[2,3],"state_2_key":1,"state_2_choice":3,"state_2_rt":1080,"outcome":0,"rocket_colors":["#955db9","#48a782"],"planet_colors":["#7f5d5d","#5f6f81"],"screen_resolution":[1024,768],"minimum_resolution":1,"trial":16,"drifts":[0.641,0.463,0.39,0.301],"drift_ix":0,"trial_type":"two-step-trial","trial_index":68,"time_elapsed":607904,"internal_node_id":"0.0-29.0-0.0","task_version":"1.0","jspsych_version":"6.3.1","browser_interactions":0,"missing":false},{"state_1_ids":[1,0],"state_1_key":1,"state_1_choice":0,"state_1_rt":865,"transition":1,"state":0,"state_2_ids":[0,1],"state_2_key":0,"state_2_choice":0,"state_2_rt":1269.7999999523163,"outcome":0,"rocket_colors":["#955db9","#48a782"],"planet_colors":["#7f5d5d","#5f6f81"],"screen_resolution":[1024,768],"minimum_resolution":1,"trial":17,"drifts":[0.649,0.465,0.413,0.325],"drift_ix":0,"trial_type":"two-step-trial","trial_index":69,"time_elapsed":612047,"internal_node_id":"0.0-30.0-0.0","task_version":"1.0","jspsych_version":"6.3.1","browser_interactions":0,"missing":false},{"state_1_ids":[0,1],"state_1_key":1,"state_1_choice":1,"state_1_rt":1363.7999999523163,"transition":1,"state":1,"state_2_ids":[2,3],"state_2_key":0,"state_2_choice":2,"state_2_rt":1795.8000001907349,"outcome":1,"rocket_colors":["#955db9","#48a782"],"planet_colors":["#7f5d5d","#5f6f81"],"screen_resolution":[1024,768],"minimum_resolution":1,"trial":18,"drifts":[0.627,0.478,0.397,0.324],"drift_ix":0,"trial_type":"two-step-trial","trial_index":70,"time_elapsed":617212,"internal_node_id":"0.0-31.0-0.0","task_version":"1.0","jspsych_version":"6.3.1","browser_interactions":0,"missing":false},{"state_1_ids":[1,0],"state_1_key":1,"state_1_choice":0,"state_1_rt":908.5999999046326,"transition":1,"state":0,"state_2_ids":[0,1],"state_2_key":0,"state_2_choice":0,"state_2_rt":2283.7000000476837,"outcome":1,"rocket_colors":["#955db9","#48a782"],"planet_colors":["#7f5d5d","#5f6f81"],"screen_resolution":[1024,768],"minimum_resolution":1,"trial":19,"drifts":[0.656,0.491,0.375,0.348],"drift_ix":0,"trial_type":"two-step-trial","trial_index":71,"time_elapsed":622425,"internal_node_id":"0.0-32.0-0.0","task_version":"1.0","jspsych_version":"6.3.1","browser_interactions":0,"missing":false},{"state_1_ids":[0,1],"state_1_key":1,"state_1_choice":1,"state_1_rt":799.6000001430511,"transition":1,"state":1,"state_2_ids":[2,3],"state_2_key":0,"state_2_choice":2,"state_2_rt":1045.7000000476837,"outcome":0,"rocket_colors":["#955db9","#48a782"],"planet_colors":["#7f5d5d","#5f6f81"],"screen_resolution":[1024,768],"minimum_resolution":1,"trial":20,"drifts":[0.64,0.468,0.396,0.335],"drift_ix":0,"trial_type":"two-step-trial","trial_index":72,"time_elapsed":626278,"internal_node_id":"0.0-33.0-0.0","task_version":"1.0","jspsych_version":"6.3.1","browser_interactions":0,"missing":false},{"state_1_ids":[0,1],"state_1_key":1,"state_1_choice":1,"state_1_rt":802.4000000953674,"transition":0,"state":0,"state_2_ids":[0,1],"state_2_key":0,"state_2_choice":0,"state_2_rt":1552.7999999523163,"outcome":0,"rocket_colors":["#955db9","#48a782"],"planet_colors":["#7f5d5d","#5f6f81"],"screen_resolution":[1024,768],"minimum_resolution":1,"trial":21,"drifts":[0.633,0.467,0.352,0.33],"drift_ix":0,"trial_type":"two-step-trial","trial_index":73,"time_elapsed":630641,"internal_node_id":"0.0-34.0-0.0","task_version":"1.0","jspsych_version":"6.3.1","browser_interactions":0,"missing":false},{"state_1_ids":[1,0],"state_1_key":1,"state_1_choice":0,"state_1_rt":823.5999999046326,"transition":0,"state":1,"state_2_ids":[2,3],"state_2_key":0,"state_2_choice":2,"state_2_rt":1517.7999999523163,"outcome":1,"rocket_colors":["#955db9","#48a782"],"planet_colors":["#7f5d5d","#5f6f81"],"screen_resolution":[1024,768],"minimum_resolution":1,"trial":22,"drifts":[0.591,0.462,0.379,0.373],"drift_ix":0,"trial_type":"two-step-trial","trial_index":74,"time_elapsed":634989,"internal_node_id":"0.0-35.0-0.0","task_version":"1.0","jspsych_version":"6.3.1","browser_interactions":0,"missing":false},{"state_1_ids":[1,0],"state_1_key":0,"state_1_choice":1,"state_1_rt":1035.3999998569489,"transition":0,"state":0,"state_2_ids":[0,1],"state_2_key":1,"state_2_choice":1,"state_2_rt":2909.7000000476837,"outcome":0,"rocket_colors":["#955db9","#48a782"],"planet_colors":["#7f5d5d","#5f6f81"],"screen_resolution":[1024,768],"minimum_resolution":1,"trial":23,"drifts":[0.612,0.436,0.44,0.331],"drift_ix":0,"trial_type":"two-step-trial","trial_index":75,"time_elapsed":640941,"internal_node_id":"0.0-36.0-0.0","task_version":"1.0","jspsych_version":"6.3.1","browser_interactions":0,"missing":false},{"state_1_ids":[1,0],"state_1_key":0,"state_1_choice":1,"state_1_rt":950,"transition":1,"state":1,"state_2_ids":[2,3],"state_2_key":1,"state_2_choice":3,"state_2_rt":1329.2999999523163,"outcome":0,"rocket_colors":["#955db9","#48a782"],"planet_colors":["#7f5d5d","#5f6f81"],"screen_resolution":[1024,768],"minimum_resolution":1,"trial":24,"drifts":[0.612,0.434,0.473,0.352],"drift_ix":0,"trial_type":"two-step-trial","trial_index":76,"time_elapsed":645238,"internal_node_id":"0.0-37.0-0.0","task_version":"1.0","jspsych_version":"6.3.1","browser_interactions":0,"missing":false},{"state_1_ids":[0,1],"state_1_key":1,"state_1_choice":1,"state_1_rt":1345.7000000476837,"transition":0,"state":0,"state_2_ids":[0,1],"state_2_key":0,"state_2_choice":0,"state_2_rt":2390.899999856949,"outcome":0,"rocket_colors":["#955db9","#48a782"],"planet_colors":["#7f5d5d","#5f6f81"],"screen_resolution":[1024,768],"minimum_resolution":1,"trial":25,"drifts":[0.568,0.394,0.47,0.342],"drift_ix":0,"trial_type":"two-step-trial","trial_index":77,"time_elapsed":650982,"internal_node_id":"0.0-38.0-0.0","task_version":"1.0","jspsych_version":"6.3.1","browser_interactions":0,"missing":false},{"state_1_ids":[0,1],"state_1_key":1,"state_1_choice":1,"state_1_rt":916.5,"transition":1,"state":1,"state_2_ids":[2,3],"state_2_key":1,"state_2_choice":3,"state_2_rt":520.4000000953674,"outcome":1,"rocket_colors":["#955db9","#48a782"],"planet_colors":["#7f5d5d","#5f6f81"],"screen_resolution":[1024,768],"minimum_resolution":1,"trial":26,"drifts":[0.601,0.434,0.455,0.342],"drift_ix":0,"trial_type":"two-step-trial","trial_index":78,"time_elapsed":654449,"internal_node_id":"0.0-39.0-0.0","task_version":"1.0","jspsych_version":"6.3.1","browser_interactions":0,"missing":false},{"state_1_ids":[0,1],"state_1_key":1,"state_1_choice":1,"state_1_rt":1502.8000001907349,"transition":1,"state":1,"state_2_ids":[2,3],"state_2_key":1,"state_2_choice":3,"state_2_rt":1765.8000001907349,"outcome":1,"rocket_colors":["#955db9","#48a782"],"planet_colors":["#7f5d5d","#5f6f81"],"screen_resolution":[1024,768],"minimum_resolution":1,"trial":27,"drifts":[0.539,0.464,0.435,0.334],"drift_ix":0,"trial_type":"two-step-trial","trial_index":79,"time_elapsed":659732,"internal_node_id":"0.0-40.0-0.0","task_version":"1.0","jspsych_version":"6.3.1","browser_interactions":0,"missing":false},{"state_1_ids":[1,0],"state_1_key":1,"state_1_choice":0,"state_1_rt":866.7000000476837,"transition":1,"state":0,"state_2_ids":[0,1],"state_2_key":0,"state_2_choice":0,"state_2_rt":914.5,"outcome":0,"rocket_colors":["#955db9","#48a782"],"planet_colors":["#7f5d5d","#5f6f81"],"screen_resolution":[1024,768],"minimum_resolution":1,"trial":28,"drifts":[0.523,0.476,0.415,0.352],"drift_ix":0,"trial_type":"two-step-trial","trial_index":80,"time_elapsed":663527,"internal_node_id":"0.0-41.0-0.0","task_version":"1.0","jspsych_version":"6.3.1","browser_interactions":0,"missing":false},{"state_1_ids":[0,1],"state_1_key":1,"state_1_choice":1,"state_1_rt":936.8999998569489,"transition":1,"state":1,"state_2_ids":[2,3],"state_2_key":1,"state_2_choice":3,"state_2_rt":668.2999999523163,"outcome":1,"rocket_colors":["#955db9","#48a782"],"planet_colors":["#7f5d5d","#5f6f81"],"screen_resolution":[1024,768],"minimum_resolution":1,"trial":29,"drifts":[0.515,0.504,0.459,0.339],"drift_ix":0,"trial_type":"two-step-trial","trial_index":81,"time_elapsed":667148,"internal_node_id":"0.0-42.0-0.0","task_version":"1.0","jspsych_version":"6.3.1","browser_interactions":0,"missing":false},{"state_1_ids":[1,0],"state_1_key":0,"state_1_choice":1,"state_1_rt":1354,"transition":1,"state":1,"state_2_ids":[2,3],"state_2_key":0,"state_2_choice":2,"state_2_rt":1380.2999999523163,"outcome":1,"rocket_colors":["#955db9","#48a782"],"planet_colors":["#7f5d5d","#5f6f81"],"screen_resolution":[1024,768],"minimum_resolution":1,"trial":30,"drifts":[0.491,0.488,0.491,0.323],"drift_ix":0,"trial_type":"two-step-trial","trial_index":82,"time_elapsed":671891,"internal_node_id":"0.0-43.0-0.0","task_version":"1.0","jspsych_version":"6.3.1","browser_interactions":0,"missing":false},{"state_1_ids":[1,0],"state_1_key":0,"state_1_choice":1,"state_1_rt":1099,"transition":1,"state":1,"state_2_ids":[2,3],"state_2_key":0,"state_2_choice":2,"state_2_rt":801.0999999046326,"outcome":0,"rocket_colors":["#955db9","#48a782"],"planet_colors":["#7f5d5d","#5f6f81"],"screen_resolution":[1024,768],"minimum_resolution":1,"trial":31,"drifts":[0.478,0.502,0.474,0.353],"drift_ix":0,"trial_type":"two-step-trial","trial_index":83,"time_elapsed":675813,"internal_node_id":"0.0-44.0-0.0","task_version":"1.0","jspsych_version":"6.3.1","browser_interactions":0,"missing":false},{"state_1_ids":[1,0],"state_1_key":1,"state_1_choice":0,"state_1_rt":1194.4000000953674,"transition":1,"state":0,"state_2_ids":[0,1],"state_2_key":1,"state_2_choice":1,"state_2_rt":948.1000001430511,"outcome":0,"rocket_colors":["#955db9","#48a782"],"planet_colors":["#7f5d5d","#5f6f81"],"screen_resolution":[1024,768],"minimum_resolution":1,"trial":32,"drifts":[0.459,0.453,0.457,0.338],"drift_ix":0,"trial_type":"two-step-trial","trial_index":84,"time_elapsed":679961,"internal_node_id":"0.0-45.0-0.0","task_version":"1.0","jspsych_version":"6.3.1","browser_interactions":0,"missing":false},{"state_1_ids":[1,0],"state_1_key":1,"state_1_choice":0,"state_1_rt":1173.6999998092651,"transition":0,"state":1,"state_2_ids":[2,3],"state_2_key":0,"state_2_choice":2,"state_2_rt":653.2999999523163,"outcome":0,"rocket_colors":["#955db9","#48a782"],"planet_colors":["#7f5d5d","#5f6f81"],"screen_resolution":[1024,768],"minimum_resolution":1,"trial":33,"drifts":[0.435,0.461,0.485,0.304],"drift_ix":0,"trial_type":"two-step-trial","trial_index":85,"time_elapsed":683795,"internal_node_id":"0.0-46.0-0.0","task_version":"1.0","jspsych_version":"6.3.1","browser_interactions":0,"missing":false},{"state_1_ids":[1,0],"state_1_key":1,"state_1_choice":0,"state_1_rt":617.5,"transition":1,"state":0,"state_2_ids":[0,1],"state_2_key":0,"state_2_choice":0,"state_2_rt":2311.600000143051,"outcome":1,"rocket_colors":["#955db9","#48a782"],"planet_colors":["#7f5d5d","#5f6f81"],"screen_resolution":[1024,768],"minimum_resolution":1,"trial":34,"drifts":[0.425,0.445,0.448,0.302],"drift_ix":0,"trial_type":"two-step-trial","trial_index":86,"time_elapsed":688733,"internal_node_id":"0.0-47.0-0.0","task_version":"1.0","jspsych_version":"6.3.1","browser_interactions":0,"missing":false},{"state_1_ids":[0,1],"state_1_key":1,"state_1_choice":1,"state_1_rt":1601.1000001430511,"transition":1,"state":1,"state_2_ids":[2,3],"state_2_key":0,"state_2_choice":2,"state_2_rt":1339,"outcome":1,"rocket_colors":["#955db9","#48a782"],"planet_colors":["#7f5d5d","#5f6f81"],"screen_resolution":[1024,768],"minimum_resolution":1,"trial":35,"drifts":[0.398,0.417,0.401,0.285],"drift_ix":0,"trial_type":"two-step-trial","trial_index":87,"time_elapsed":693730,"internal_node_id":"0.0-48.0-0.0","task_version":"1.0","jspsych_version":"6.3.1","browser_interactions":0,"missing":false},{"state_1_ids":[1,0],"state_1_key":1,"state_1_choice":0,"state_1_rt":1178.6000001430511,"transition":1,"state":0,"state_2_ids":[0,1],"state_2_key":1,"state_2_choice":1,"state_2_rt":2157.7999999523163,"outcome":0,"rocket_colors":["#955db9","#48a782"],"planet_colors":["#7f5d5d","#5f6f81"],"screen_resolution":[1024,768],"minimum_resolution":1,"trial":36,"drifts":[0.438,0.401,0.404,0.302],"drift_ix":0,"trial_type":"two-step-trial","trial_index":88,"time_elapsed":699076,"internal_node_id":"0.0-49.0-0.0","task_version":"1.0","jspsych_version":"6.3.1","browser_interactions":0,"missing":false},{"state_1_ids":[1,0],"state_1_key":1,"state_1_choice":0,"state_1_rt":1114.5,"transition":0,"state":1,"state_2_ids":[2,3],"state_2_key":1,"state_2_choice":3,"state_2_rt":1621.5,"outcome":0,"rocket_colors":["#955db9","#48a782"],"planet_colors":["#7f5d5d","#5f6f81"],"screen_resolution":[1024,768],"minimum_resolution":1,"trial":37,"drifts":[0.446,0.383,0.396,0.273],"drift_ix":0,"trial_type":"two-step-trial","trial_index":89,"time_elapsed":703824,"internal_node_id":"0.0-50.0-0.0","task_version":"1.0","jspsych_version":"6.3.1","browser_interactions":0,"missing":false},{"state_1_ids":[0,1],"state_1_key":1,"state_1_choice":1,"state_1_rt":1136.9000000953674,"transition":0,"state":0,"state_2_ids":[0,1],"state_2_key":0,"state_2_choice":0,"state_2_rt":662.6999998092651,"outcome":0,"rocket_colors":["#955db9","#48a782"],"planet_colors":["#7f5d5d","#5f6f81"],"screen_resolution":[1024,768],"minimum_resolution":1,"trial":38,"drifts":[0.473,0.425,0.406,0.259],"drift_ix":0,"trial_type":"two-step-trial","trial_index":90,"time_elapsed":707644,"internal_node_id":"0.0-51.0-0.0","task_version":"1.0","jspsych_version":"6.3.1","browser_interactions":0,"missing":false},{"state_1_ids":[1,0],"state_1_key":1,"state_1_choice":0,"state_1_rt":737.2000000476837,"transition":0,"state":1,"state_2_ids":[2,3],"state_2_key":1,"state_2_choice":3,"state_2_rt":607.2000000476837,"outcome":1,"rocket_colors":["#955db9","#48a782"],"planet_colors":["#7f5d5d","#5f6f81"],"screen_resolution":[1024,768],"minimum_resolution":1,"trial":39,"drifts":[0.491,0.414,0.381,0.251],"drift_ix":0,"trial_type":"two-step-trial","trial_index":91,"time_elapsed":710998,"internal_node_id":"0.0-52.0-0.0","task_version":"1.0","jspsych_version":"6.3.1","browser_interactions":0,"missing":false},{"state_1_ids":[1,0],"state_1_key":1,"state_1_choice":0,"state_1_rt":940.0999999046326,"transition":0,"state":1,"state_2_ids":[2,3],"state_2_key":0,"state_2_choice":2,"state_2_rt":710,"outcome":1,"rocket_colors":["#955db9","#48a782"],"planet_colors":["#7f5d5d","#5f6f81"],"screen_resolution":[1024,768],"minimum_resolution":1,"trial":40,"drifts":[0.46,0.404,0.375,0.267],"drift_ix":0,"trial_type":"two-step-trial","trial_index":92,"time_elapsed":714673,"internal_node_id":"0.0-53.0-0.0","task_version":"1.0","jspsych_version":"6.3.1","browser_interactions":0,"missing":false},{"state_1_ids":[1,0],"state_1_key":1,"state_1_choice":0,"state_1_rt":886.1000001430511,"transition":1,"state":0,"state_2_ids":[0,1],"state_2_key":1,"state_2_choice":1,"state_2_rt":2264.5999999046326,"outcome":1,"rocket_colors":["#955db9","#48a782"],"planet_colors":["#7f5d5d","#5f6f81"],"screen_resolution":[1024,768],"minimum_resolution":1,"trial":41,"drifts":[0.47,0.46,0.37,0.279],"drift_ix":0,"trial_type":"two-step-trial","trial_index":93,"time_elapsed":719878,"internal_node_id":"0.0-54.0-0.0","task_version":"1.0","jspsych_version":"6.3.1","browser_interactions":0,"missing":false},{"state_1_ids":[0,1],"state_1_key":1,"state_1_choice":1,"state_1_rt":985.4000000953674,"transition":1,"state":1,"state_2_ids":[2,3],"state_2_key":0,"state_2_choice":2,"state_2_rt":788.3999998569489,"outcome":1,"rocket_colors":["#955db9","#48a782"],"planet_colors":["#7f5d5d","#5f6f81"],"screen_resolution":[1024,768],"minimum_resolution":1,"trial":42,"drifts":[0.454,0.461,0.369,0.275],"drift_ix":0,"trial_type":"two-step-trial","trial_index":94,"time_elapsed":723660,"internal_node_id":"0.0-55.0-0.0","task_version":"1.0","jspsych_version":"6.3.1","browser_interactions":0,"missing":false},{"state_1_ids":[1,0],"state_1_key":1,"state_1_choice":0,"state_1_rt":762.8000001907349,"transition":0,"state":1,"state_2_ids":[2,3],"state_2_key":0,"state_2_choice":2,"state_2_rt":617.6999998092651,"outcome":0,"rocket_colors":["#955db9","#48a782"],"planet_colors":["#7f5d5d","#5f6f81"],"screen_resolution":[1024,768],"minimum_resolution":1,"trial":43,"drifts":[0.452,0.459,0.392,0.293],"drift_ix":0,"trial_type":"two-step-trial","trial_index":95,"time_elapsed":727051,"internal_node_id":"0.0-56.0-0.0","task_version":"1.0","jspsych_version":"6.3.1","browser_interactions":0,"missing":false},{"state_1_ids":[0,1],"state_1_key":1,"state_1_choice":1,"state_1_rt":1211.7000000476837,"transition":0,"state":0,"state_2_ids":[0,1],"state_2_key":0,"state_2_choice":0,"state_2_rt":1339.7999999523163,"outcome":0,"rocket_colors":["#955db9","#48a782"],"planet_colors":["#7f5d5d","#5f6f81"],"screen_resolution":[1024,768],"minimum_resolution":1,"trial":44,"drifts":[0.439,0.428,0.412,0.329],"drift_ix":0,"trial_type":"two-step-trial","trial_index":96,"time_elapsed":731613,"internal_node_id":"0.0-57.0-0.0","task_version":"1.0","jspsych_version":"6.3.1","browser_interactions":0,"missing":false},{"state_1_ids":[1,0],"state_1_key":1,"state_1_choice":0,"state_1_rt":874,"transition":1,"state":0,"state_2_ids":[0,1],"state_2_key":0,"state_2_choice":0,"state_2_rt":1469.4000000953674,"outcome":1,"rocket_colors":["#955db9","#48a782"],"planet_colors":["#7f5d5d","#5f6f81"],"screen_resolution":[1024,768],"minimum_resolution":1,"trial":45,"drifts":[0.455,0.384,0.41,0.354],"drift_ix":0,"trial_type":"two-step-trial","trial_index":97,"time_elapsed":735974,"internal_node_id":"0.0-58.0-0.0","task_version":"1.0","jspsych_version":"6.3.1","browser_interactions":0,"missing":false},{"state_1_ids":[1,0],"state_1_key":1,"state_1_choice":0,"state_1_rt":2547.2999999523163,"transition":0,"state":1,"state_2_ids":[2,3],"state_2_key":1,"state_2_choice":3,"state_2_rt":1415.4000000953674,"outcome":0,"rocket_colors":["#955db9","#48a782"],"planet_colors":["#7f5d5d","#5f6f81"],"screen_resolution":[1024,768],"minimum_resolution":1,"trial":46,"drifts":[0.471,0.375,0.394,0.336],"drift_ix":0,"trial_type":"two-step-trial","trial_index":98,"time_elapsed":741955,"internal_node_id":"0.0-59.0-0.0","task_version":"1.0","jspsych_version":"6.3.1","browser_interactions":0,"missing":false},{"state_1_ids":[1,0],"state_1_key":1,"state_1_choice":0,"state_1_rt":763.7999999523163,"transition":1,"state":0,"state_2_ids":[0,1],"state_2_key":0,"state_2_choice":0,"state_2_rt":1277.8000001907349,"outcome":0,"rocket_colors":["#955db9","#48a782"],"planet_colors":["#7f5d5d","#5f6f81"],"screen_resolution":[1024,768],"minimum_resolution":1,"trial":47,"drifts":[0.423,0.325,0.351,0.294],"drift_ix":0,"trial_type":"two-step-trial","trial_index":99,"time_elapsed":746003,"internal_node_id":"0.0-60.0-0.0","task_version":"1.0","jspsych_version":"6.3.1","browser_interactions":0,"missing":false},{"state_1_ids":[1,0],"state_1_key":1,"state_1_choice":0,"state_1_rt":860.5,"transition":1,"state":0,"state_2_ids":[0,1],"state_2_key":1,"state_2_choice":1,"state_2_rt":582.4000000953674,"outcome":0,"rocket_colors":["#955db9","#48a782"],"planet_colors":["#7f5d5d","#5f6f81"],"screen_resolution":[1024,768],"minimum_resolution":1,"trial":48,"drifts":[0.458,0.334,0.355,0.324],"drift_ix":0,"trial_type":"two-step-trial","trial_index":100,"time_elapsed":749456,"internal_node_id":"0.0-61.0-0.0","task_version":"1.0","jspsych_version":"6.3.1","browser_interactions":0,"missing":false},{"state_1_ids":[1,0],"state_1_key":1,"state_1_choice":0,"state_1_rt":105.40000009536743,"transition":1,"state":0,"state_2_ids":[0,1],"state_2_key":0,"state_2_choice":0,"state_2_rt":648.2999999523163,"outcome":1,"rocket_colors":["#955db9","#48a782"],"planet_colors":["#7f5d5d","#5f6f81"],"screen_resolution":[1024,768],"minimum_resolution":1,"trial":49,"drifts":[0.502,0.353,0.35,0.322],"drift_ix":0,"trial_type":"two-step-trial","trial_index":101,"time_elapsed":752219,"internal_node_id":"0.0-62.0-0.0","task_version":"1.0","jspsych_version":"6.3.1","browser_interactions":0,"missing":false},{"state_1_ids":[0,1],"state_1_key":null,"state_1_choice":null,"state_1_rt":null,"transition":1,"state":null,"state_2_ids":[0,1],"state_2_key":null,"state_2_choice":null,"state_2_rt":null,"outcome":null,"rocket_colors":["#955db9","#48a782"],"planet_colors":["#7f5d5d","#5f6f81"],"screen_resolution":[1024,768],"minimum_resolution":1,"trial":50,"drifts":[0.464,0.368,0.367,0.351],"drift_ix":0,"trial_type":"two-step-trial","trial_index":102,"time_elapsed":768158,"internal_node_id":"0.0-63.0-0.0","task_version":"1.0","jspsych_version":"6.3.1","browser_interactions":3,"missing":true},{"state_1_ids":[1,0],"state_1_key":1,"state_1_choice":0,"state_1_rt":9778.5,"transition":1,"state":0,"state_2_ids":[0,1],"state_2_key":0,"state_2_choice":0,"state_2_rt":1721.2999999523163,"outcome":1,"rocket_colors":["#955db9","#48a782"],"planet_colors":["#7f5d5d","#5f6f81"],"screen_resolution":[1024,657],"minimum_resolution":1,"trial":50,"drifts":[0.464,0.368,0.367,0.351],"drift_ix":0,"trial_type":"two-step-trial","trial_index":103,"time_elapsed":781668,"internal_node_id":"0.0-63.1-0.1","task_version":"1.0","jspsych_version":"6.3.1","browser_interactions":2,"missing":false},{"state_1_ids":[1,0],"state_1_key":0,"state_1_choice":1,"state_1_rt":2161.399999856949,"transition":1,"state":1,"state_2_ids":[2,3],"state_2_key":1,"state_2_choice":3,"state_2_rt":1797.2999999523163,"outcome":0,"rocket_colors":["#955db9","#48a782"],"planet_colors":["#7f5d5d","#5f6f81"],"screen_resolution":[1024,657],"minimum_resolution":1,"trial":51,"drifts":[0.459,0.421,0.341,0.301],"drift_ix":0,"trial_type":"two-step-trial","trial_index":104,"time_elapsed":787634,"internal_node_id":"0.0-64.0-0.0","task_version":"1.0","jspsych_version":"6.3.1","browser_interactions":0,"missing":false},{"state_1_ids":[1,0],"state_1_key":0,"state_1_choice":1,"state_1_rt":1696.8999998569489,"transition":1,"state":1,"state_2_ids":[2,3],"state_2_key":0,"state_2_choice":2,"state_2_rt":1711.4000000953674,"outcome":0,"rocket_colors":["#955db9","#48a782"],"planet_colors":["#7f5d5d","#5f6f81"],"screen_resolution":[1024,657],"minimum_resolution":1,"trial":52,"drifts":[0.496,0.401,0.388,0.295],"drift_ix":0,"trial_type":"two-step-trial","trial_index":105,"time_elapsed":793051,"internal_node_id":"0.0-65.0-0.0","task_version":"1.0","jspsych_version":"6.3.1","browser_interactions":0,"missing":false},{"state_1_ids":[1,0],"state_1_key":0,"state_1_choice":1,"state_1_rt":798.4000000953674,"transition":1,"state":1,"state_2_ids":[2,3],"state_2_key":1,"state_2_choice":3,"state_2_rt":1377.7000000476837,"outcome":1,"rocket_colors":["#955db9","#48a782"],"planet_colors":["#7f5d5d","#5f6f81"],"screen_resolution":[1024,657],"minimum_resolution":1,"trial":53,"drifts":[0.476,0.391,0.373,0.273],"drift_ix":0,"trial_type":"two-step-trial","trial_index":106,"time_elapsed":797243,"internal_node_id":"0.0-66.0-0.0","task_version":"1.0","jspsych_version":"6.3.1","browser_interactions":0,"missing":false},{"state_1_ids":[0,1],"state_1_key":0,"state_1_choice":0,"state_1_rt":1736.2999999523163,"transition":1,"state":0,"state_2_ids":[0,1],"state_2_key":0,"state_2_choice":0,"state_2_rt":2602.600000143051,"outcome":1,"rocket_colors":["#955db9","#48a782"],"planet_colors":["#7f5d5d","#5f6f81"],"screen_resolution":[1024,657],"minimum_resolution":1,"trial":54,"drifts":[0.452,0.379,0.383,0.272],"drift_ix":0,"trial_type":"two-step-trial","trial_index":107,"time_elapsed":803595,"internal_node_id":"0.0-67.0-0.0","task_version":"1.0","jspsych_version":"6.3.1","browser_interactions":0,"missing":false},{"state_1_ids":[0,1],"state_1_key":1,"state_1_choice":1,"state_1_rt":1883,"transition":1,"state":1,"state_2_ids":[2,3],"state_2_key":0,"state_2_choice":2,"state_2_rt":1484.2999999523163,"outcome":0,"rocket_colors":["#955db9","#48a782"],"planet_colors":["#7f5d5d","#5f6f81"],"screen_resolution":[1024,657],"minimum_resolution":1,"trial":55,"drifts":[0.448,0.393,0.401,0.289],"drift_ix":0,"trial_type":"two-step-trial","trial_index":108,"time_elapsed":808977,"internal_node_id":"0.0-68.0-0.0","task_version":"1.0","jspsych_version":"6.3.1","browser_interactions":0,"missing":false},{"state_1_ids":[1,0],"state_1_key":0,"state_1_choice":1,"state_1_rt":3615.7000000476837,"transition":1,"state":1,"state_2_ids":[2,3],"state_2_key":1,"state_2_choice":3,"state_2_rt":1634.9000000953674,"outcome":0,"rocket_colors":["#955db9","#48a782"],"planet_colors":["#7f5d5d","#5f6f81"],"screen_resolution":[1024,657],"minimum_resolution":1,"trial":56,"drifts":[0.435,0.368,0.433,0.291],"drift_ix":0,"trial_type":"two-step-trial","trial_index":109,"time_elapsed":816242,"internal_node_id":"0.0-69.0-0.0","task_version":"1.0","jspsych_version":"6.3.1","browser_interactions":0,"missing":false},{"state_1_ids":[0,1],"state_1_key":0,"state_1_choice":0,"state_1_rt":7015.300000190735,"transition":1,"state":0,"state_2_ids":[0,1],"state_2_key":0,"state_2_choice":0,"state_2_rt":3688.399999856949,"outcome":1,"rocket_colors":["#955db9","#48a782"],"planet_colors":["#7f5d5d","#5f6f81"],"screen_resolution":[1024,657],"minimum_resolution":1,"trial":57,"drifts":[0.441,0.373,0.443,0.285],"drift_ix":0,"trial_type":"two-step-trial","trial_index":110,"time_elapsed":828953,"internal_node_id":"0.0-70.0-0.0","task_version":"1.0","jspsych_version":"6.3.1","browser_interactions":0,"missing":false},{"state_1_ids":[0,1],"state_1_key":null,"state_1_choice":null,"state_1_rt":null,"transition":1,"state":null,"state_2_ids":[0,1],"state_2_key":null,"state_2_choice":null,"state_2_rt":null,"outcome":null,"rocket_colors":["#955db9","#48a782"],"planet_colors":["#7f5d5d","#5f6f81"],"screen_resolution":[1024,657],"minimum_resolution":1,"trial":58,"drifts":[0.418,0.389,0.42,0.282],"drift_ix":0,"trial_type":"two-step-trial","trial_index":111,"time_elapsed":843962,"internal_node_id":"0.0-71.0-0.0","task_version":"1.0","jspsych_version":"6.3.1","browser_interactions":0,"missing":true},{"state_1_ids":[1,0],"state_1_key":0,"state_1_choice":1,"state_1_rt":2386.7000000476837,"transition":1,"state":1,"state_2_ids":[2,3],"state_2_key":1,"state_2_choice":3,"state_2_rt":912.5999999046326,"outcome":1,"rocket_colors":["#955db9","#48a782"],"planet_colors":["#7f5d5d","#5f6f81"],"screen_resolution":[1024,657],"minimum_resolution":1,"trial":58,"drifts":[0.418,0.389,0.42,0.282],"drift_ix":0,"trial_type":"two-step-trial","trial_index":112,"time_elapsed":849273,"internal_node_id":"0.0-71.1-0.1","task_version":"1.0","jspsych_version":"6.3.1","browser_interactions":0,"missing":false},{"state_1_ids":[0,1],"state_1_key":0,"state_1_choice":0,"state_1_rt":805.5,"transition":1,"state":0,"state_2_ids":[0,1],"state_2_key":1,"state_2_choice":1,"state_2_rt":950.9000000953674,"outcome":0,"rocket_colors":["#955db9","#48a782"],"planet_colors":["#7f5d5d","#5f6f81"],"screen_resolution":[1024,657],"minimum_resolution":1,"trial":59,"drifts":[0.41,0.383,0.392,0.255],"drift_ix":0,"trial_type":"two-step-trial","trial_index":113,"time_elapsed":853075,"internal_node_id":"0.0-72.0-0.0","task_version":"1.0","jspsych_version":"6.3.1","browser_interactions":0,"missing":false},{"state_1_ids":[1,0],"state_1_key":0,"state_1_choice":1,"state_1_rt":848.7000000476837,"transition":1,"state":1,"state_2_ids":[2,3],"state_2_key":1,"state_2_choice":3,"state_2_rt":669.7000000476837,"outcome":0,"rocket_colors":["#955db9","#48a782"],"planet_colors":["#7f5d5d","#5f6f81"],"screen_resolution":[1024,657],"minimum_resolution":1,"trial":60,"drifts":[0.426,0.384,0.354,0.267],"drift_ix":0,"trial_type":"two-step-trial","trial_index":114,"time_elapsed":856601,"internal_node_id":"0.0-73.0-0.0","task_version":"1.0","jspsych_version":"6.3.1","browser_interactions":0,"missing":false},{"state_1_ids":[0,1],"state_1_key":0,"state_1_choice":0,"state_1_rt":439.5,"transition":1,"state":0,"state_2_ids":[0,1],"state_2_key":0,"state_2_choice":0,"state_2_rt":667.8999998569489,"outcome":0,"rocket_colors":["#955db9","#48a782"],"planet_colors":["#7f5d5d","#5f6f81"],"screen_resolution":[1024,657],"minimum_resolution":1,"trial":61,"drifts":[0.416,0.414,0.379,0.254],"drift_ix":0,"trial_type":"two-step-trial","trial_index":115,"time_elapsed":859723,"internal_node_id":"0.0-74.0-0.0","task_version":"1.0","jspsych_version":"6.3.1","browser_interactions":0,"missing":false},{"state_1_ids":[1,0],"state_1_key":0,"state_1_choice":1,"state_1_rt":394.7000000476837,"transition":1,"state":1,"state_2_ids":[2,3],"state_2_key":1,"state_2_choice":3,"state_2_rt":275.7000000476837,"outcome":0,"rocket_colors":["#955db9","#48a782"],"planet_colors":["#7f5d5d","#5f6f81"],"screen_resolution":[1024,657],"minimum_resolution":1,"trial":62,"drifts":[0.353,0.414,0.383,0.26],"drift_ix":0,"trial_type":"two-step-trial","trial_index":116,"time_elapsed":862401,"internal_node_id":"0.0-75.0-0.0","task_version":"1.0","jspsych_version":"6.3.1","browser_interactions":0,"missing":false},{"state_1_ids":[0,1],"state_1_key":1,"state_1_choice":1,"state_1_rt":745.3000001907349,"transition":1,"state":1,"state_2_ids":[2,3],"state_2_key":0,"state_2_choice":2,"state_2_rt":506.2000000476837,"outcome":0,"rocket_colors":["#955db9","#48a782"],"planet_colors":["#7f5d5d","#5f6f81"],"screen_resolution":[1024,657],"minimum_resolution":1,"trial":63,"drifts":[0.293,0.383,0.425,0.266],"drift_ix":0,"trial_type":"two-step-trial","trial_index":117,"time_elapsed":865658,"internal_node_id":"0.0-76.0-0.0","task_version":"1.0","jspsych_version":"6.3.1","browser_interactions":0,"missing":false},{"state_1_ids":[0,1],"state_1_key":0,"state_1_choice":0,"state_1_rt":604.6000001430511,"transition":1,"state":0,"state_2_ids":[0,1],"state_2_key":1,"state_2_choice":1,"state_2_rt":472.89999985694885,"outcome":0,"rocket_colors":["#955db9","#48a782"],"planet_colors":["#7f5d5d","#5f6f81"],"screen_resolution":[1024,657],"minimum_resolution":1,"trial":64,"drifts":[0.288,0.362,0.432,0.275],"drift_ix":0,"trial_type":"two-step-trial","trial_index":118,"time_elapsed":868743,"internal_node_id":"0.0-77.0-0.0","task_version":"1.0","jspsych_version":"6.3.1","browser_interactions":0,"missing":false},{"state_1_ids":[0,1],"state_1_key":0,"state_1_choice":0,"state_1_rt":1245.7000000476837,"transition":1,"state":0,"state_2_ids":[0,1],"state_2_key":1,"state_2_choice":1,"state_2_rt":443.2000000476837,"outcome":1,"rocket_colors":["#955db9","#48a782"],"planet_colors":["#7f5d5d","#5f6f81"],"screen_resolution":[1024,657],"minimum_resolution":1,"trial":65,"drifts":[0.297,0.363,0.457,0.29],"drift_ix":0,"trial_type":"two-step-trial","trial_index":119,"time_elapsed":872440,"internal_node_id":"0.0-78.0-0.0","task_version":"1.0","jspsych_version":"6.3.1","browser_interactions":0,"missing":false},{"state_1_ids":[1,0],"state_1_key":0,"state_1_choice":1,"state_1_rt":1148.4000000953674,"transition":1,"state":1,"state_2_ids":[2,3],"state_2_key":0,"state_2_choice":2,"state_2_rt":819.0999999046326,"outcome":1,"rocket_colors":["#955db9","#48a782"],"planet_colors":["#7f5d5d","#5f6f81"],"screen_resolution":[1024,657],"minimum_resolution":1,"trial":66,"drifts":[0.25,0.333,0.451,0.284],"drift_ix":0,"trial_type":"two-step-trial","trial_index":120,"time_elapsed":876417,"internal_node_id":"0.0-79.0-0.0","task_version":"1.0","jspsych_version":"6.3.1","browser_interactions":0,"missing":false},{"state_1_ids":[1,0],"state_1_key":0,"state_1_choice":1,"state_1_rt":659.7000000476837,"transition":1,"state":1,"state_2_ids":[2,3],"state_2_key":1,"state_2_choice":3,"state_2_rt":663.7999999523163,"outcome":0,"rocket_colors":["#955db9","#48a782"],"planet_colors":["#7f5d5d","#5f6f81"],"screen_resolution":[1024,657],"minimum_resolution":1,"trial":67,"drifts":[0.255,0.331,0.425,0.278],"drift_ix":0,"trial_type":"two-step-trial","trial_index":121,"time_elapsed":879765,"internal_node_id":"0.0-80.0-0.0","task_version":"1.0","jspsych_version":"6.3.1","browser_interactions":0,"missing":false},{"state_1_ids":[1,0],"state_1_key":0,"state_1_choice":1,"state_1_rt":726.6999998092651,"transition":1,"state":1,"state_2_ids":[2,3],"state_2_key":0,"state_2_choice":2,"state_2_rt":734,"outcome":0,"rocket_colors":["#955db9","#48a782"],"planet_colors":["#7f5d5d","#5f6f81"],"screen_resolution":[1024,657],"minimum_resolution":1,"trial":68,"drifts":[0.281,0.326,0.434,0.261],"drift_ix":0,"trial_type":"two-step-trial","trial_index":122,"time_elapsed":883249,"internal_node_id":"0.0-81.0-0.0","task_version":"1.0","jspsych_version":"6.3.1","browser_interactions":0,"missing":false},{"state_1_ids":[1,0],"state_1_key":0,"state_1_choice":1,"state_1_rt":628.5,"transition":1,"state":1,"state_2_ids":[2,3],"state_2_key":1,"state_2_choice":3,"state_2_rt":2852.2000000476837,"outcome":0,"rocket_colors":["#955db9","#48a782"],"planet_colors":["#7f5d5d","#5f6f81"],"screen_resolution":[1024,657],"minimum_resolution":1,"trial":69,"drifts":[0.277,0.319,0.434,0.286],"drift_ix":0,"trial_type":"two-step-trial","trial_index":123,"time_elapsed":888737,"internal_node_id":"0.0-82.0-0.0","task_version":"1.0","jspsych_version":"6.3.1","browser_interactions":0,"missing":false},{"state_1_ids":[1,0],"state_1_key":0,"state_1_choice":1,"state_1_rt":1091.5999999046326,"transition":0,"state":0,"state_2_ids":[0,1],"state_2_key":0,"state_2_choice":0,"state_2_rt":4008.899999856949,"outcome":1,"rocket_colors":["#955db9","#48a782"],"planet_colors":["#7f5d5d","#5f6f81"],"screen_resolution":[1024,657],"minimum_resolution":1,"trial":70,"drifts":[0.318,0.351,0.474,0.272],"drift_ix":0,"trial_type":"two-step-trial","trial_index":124,"time_elapsed":895856,"internal_node_id":"0.0-83.0-0.0","task_version":"1.0","jspsych_version":"6.3.1","browser_interactions":0,"missing":false},{"state_1_ids":[0,1],"state_1_key":0,"state_1_choice":0,"state_1_rt":2428.5999999046326,"transition":1,"state":0,"state_2_ids":[0,1],"state_2_key":1,"state_2_choice":1,"state_2_rt":560.6000001430511,"outcome":0,"rocket_colors":["#955db9","#48a782"],"planet_colors":["#7f5d5d","#5f6f81"],"screen_resolution":[1024,657],"minimum_resolution":1,"trial":71,"drifts":[0.306,0.331,0.46,0.274],"drift_ix":0,"trial_type":"two-step-trial","trial_index":125,"time_elapsed":900857,"internal_node_id":"0.0-84.0-0.0","task_version":"1.0","jspsych_version":"6.3.1","browser_interactions":0,"missing":false},{"state_1_ids":[1,0],"state_1_key":1,"state_1_choice":0,"state_1_rt":3095.4000000953674,"transition":1,"state":0,"state_2_ids":[0,1],"state_2_key":0,"state_2_choice":0,"state_2_rt":838.2000000476837,"outcome":1,"rocket_colors":["#955db9","#48a782"],"planet_colors":["#7f5d5d","#5f6f81"],"screen_resolution":[1024,657],"minimum_resolution":1,"trial":72,"drifts":[0.35,0.329,0.432,0.251],"drift_ix":0,"trial_type":"two-step-trial","trial_index":126,"time_elapsed":906812,"internal_node_id":"0.0-85.0-0.0","task_version":"1.0","jspsych_version":"6.3.1","browser_interactions":0,"missing":false},{"state_1_ids":[1,0],"state_1_key":0,"state_1_choice":1,"state_1_rt":775.7000000476837,"transition":1,"state":1,"state_2_ids":[2,3],"state_2_key":1,"state_2_choice":3,"state_2_rt":613.2000000476837,"outcome":0,"rocket_colors":["#955db9","#48a782"],"planet_colors":["#7f5d5d","#5f6f81"],"screen_resolution":[1024,657],"minimum_resolution":1,"trial":73,"drifts":[0.352,0.318,0.461,0.257],"drift_ix":0,"trial_type":"two-step-trial","trial_index":127,"time_elapsed":910208,"internal_node_id":"0.0-86.0-0.0","task_version":"1.0","jspsych_version":"6.3.1","browser_interactions":0,"missing":false},{"state_1_ids":[1,0],"state_1_key":1,"state_1_choice":0,"state_1_rt":805.2999999523163,"transition":0,"state":1,"state_2_ids":[2,3],"state_2_key":0,"state_2_choice":2,"state_2_rt":601.6000001430511,"outcome":1,"rocket_colors":["#955db9","#48a782"],"planet_colors":["#7f5d5d","#5f6f81"],"screen_resolution":[1024,657],"minimum_resolution":1,"trial":74,"drifts":[0.374,0.315,0.514,0.262],"drift_ix":0,"trial_type":"two-step-trial","trial_index":128,"time_elapsed":913623,"internal_node_id":"0.0-87.0-0.0","task_version":"1.0","jspsych_version":"6.3.1","browser_interactions":0,"missing":false},{"state_1_ids":[0,1],"state_1_key":0,"state_1_choice":0,"state_1_rt":2381.2000000476837,"transition":0,"state":1,"state_2_ids":[2,3],"state_2_key":1,"state_2_choice":3,"state_2_rt":523.0999999046326,"outcome":1,"rocket_colors":["#955db9","#48a782"],"planet_colors":["#7f5d5d","#5f6f81"],"screen_resolution":[1024,657],"minimum_resolution":1,"trial":75,"drifts":[0.405,0.348,0.504,0.256],"drift_ix":0,"trial_type":"two-step-trial","trial_index":129,"time_elapsed":918538,"internal_node_id":"0.0-88.0-0.0","task_version":"1.0","jspsych_version":"6.3.1","browser_interactions":0,"missing":false},{"state_1_ids":[0,1],"state_1_key":1,"state_1_choice":1,"state_1_rt":1674,"transition":1,"state":1,"state_2_ids":[2,3],"state_2_key":0,"state_2_choice":2,"state_2_rt":525.6000001430511,"outcome":1,"rocket_colors":["#955db9","#48a782"],"planet_colors":["#7f5d5d","#5f6f81"],"screen_resolution":[1024,657],"minimum_resolution":1,"trial":76,"drifts":[0.43,0.367,0.513,0.251],"drift_ix":0,"trial_type":"two-step-trial","trial_index":130,"time_elapsed":922753,"internal_node_id":"0.0-89.0-0.0","task_version":"1.0","jspsych_version":"6.3.1","browser_interactions":0,"missing":false},{"state_1_ids":[1,0],"state_1_key":0,"state_1_choice":1,"state_1_rt":2201.4000000953674,"transition":1,"state":1,"state_2_ids":[2,3],"state_2_key":0,"state_2_choice":2,"state_2_rt":575.2999999523163,"outcome":0,"rocket_colors":["#955db9","#48a782"],"planet_colors":["#7f5d5d","#5f6f81"],"screen_resolution":[1024,657],"minimum_resolution":1,"trial":77,"drifts":[0.426,0.365,0.523,0.279],"drift_ix":0,"trial_type":"two-step-trial","trial_index":131,"time_elapsed":927556,"internal_node_id":"0.0-90.0-0.0","task_version":"1.0","jspsych_version":"6.3.1","browser_interactions":0,"missing":false},{"state_1_ids":[0,1],"state_1_key":0,"state_1_choice":0,"state_1_rt":633.5,"transition":1,"state":0,"state_2_ids":[0,1],"state_2_key":1,"state_2_choice":1,"state_2_rt":1652.3999998569489,"outcome":1,"rocket_colors":["#955db9","#48a782"],"planet_colors":["#7f5d5d","#5f6f81"],"screen_resolution":[1024,657],"minimum_resolution":1,"trial":78,"drifts":[0.411,0.377,0.525,0.29],"drift_ix":0,"trial_type":"two-step-trial","trial_index":132,"time_elapsed":931851,"internal_node_id":"0.0-91.0-0.0","task_version":"1.0","jspsych_version":"6.3.1","browser_interactions":0,"missing":false},{"state_1_ids":[0,1],"state_1_key":1,"state_1_choice":1,"state_1_rt":768.0999999046326,"transition":0,"state":0,"state_2_ids":[0,1],"state_2_key":0,"state_2_choice":0,"state_2_rt":414.59999990463257,"outcome":0,"rocket_colors":["#955db9","#48a782"],"planet_colors":["#7f5d5d","#5f6f81"],"screen_resolution":[1024,657],"minimum_resolution":1,"trial":79,"drifts":[0.413,0.36,0.538,0.31],"drift_ix":0,"trial_type":"two-step-trial","trial_index":133,"time_elapsed":935043,"internal_node_id":"0.0-92.0-0.0","task_version":"1.0","jspsych_version":"6.3.1","browser_interactions":0,"missing":false},{"state_1_ids":[0,1],"state_1_key":0,"state_1_choice":0,"state_1_rt":600.2000000476837,"transition":1,"state":0,"state_2_ids":[0,1],"state_2_key":1,"state_2_choice":1,"state_2_rt":433.7000000476837,"outcome":0,"rocket_colors":["#955db9","#48a782"],"planet_colors":["#7f5d5d","#5f6f81"],"screen_resolution":[1024,657],"minimum_resolution":1,"trial":80,"drifts":[0.394,0.383,0.524,0.282],"drift_ix":0,"trial_type":"two-step-trial","trial_index":134,"time_elapsed":938084,"internal_node_id":"0.0-93.0-0.0","task_version":"1.0","jspsych_version":"6.3.1","browser_interactions":0,"missing":false},{"state_1_ids":[1,0],"state_1_key":1,"state_1_choice":0,"state_1_rt":126.39999985694885,"transition":0,"state":1,"state_2_ids":[2,3],"state_2_key":0,"state_2_choice":2,"state_2_rt":366.60000014305115,"outcome":1,"rocket_colors":["#955db9","#48a782"],"planet_colors":["#7f5d5d","#5f6f81"],"screen_resolution":[1024,657],"minimum_resolution":1,"trial":81,"drifts":[0.361,0.391,0.524,0.269],"drift_ix":0,"trial_type":"two-step-trial","trial_index":135,"time_elapsed":940586,"internal_node_id":"0.0-94.0-0.0","task_version":"1.0","jspsych_version":"6.3.1","browser_interactions":0,"missing":false},{"state_1_ids":[1,0],"state_1_key":0,"state_1_choice":1,"state_1_rt":464.89999985694885,"transition":0,"state":0,"state_2_ids":[0,1],"state_2_key":0,"state_2_choice":0,"state_2_rt":679.1999998092651,"outcome":0,"rocket_colors":["#955db9","#48a782"],"planet_colors":["#7f5d5d","#5f6f81"],"screen_resolution":[1024,657],"minimum_resolution":1,"trial":82,"drifts":[0.354,0.377,0.535,0.274],"drift_ix":0,"trial_type":"two-step-trial","trial_index":136,"time_elapsed":943737,"internal_node_id":"0.0-95.0-0.0","task_version":"1.0","jspsych_version":"6.3.1","browser_interactions":0,"missing":false},{"state_1_ids":[1,0],"state_1_key":0,"state_1_choice":1,"state_1_rt":298.40000009536743,"transition":1,"state":1,"state_2_ids":[2,3],"state_2_key":1,"state_2_choice":3,"state_2_rt":479.5,"outcome":1,"rocket_colors":["#955db9","#48a782"],"planet_colors":["#7f5d5d","#5f6f81"],"screen_resolution":[1024,657],"minimum_resolution":1,"trial":83,"drifts":[0.353,0.363,0.504,0.307],"drift_ix":0,"trial_type":"two-step-trial","trial_index":137,"time_elapsed":946530,"internal_node_id":"0.0-96.0-0.0","task_version":"1.0","jspsych_version":"6.3.1","browser_interactions":0,"missing":false},{"state_1_ids":[1,0],"state_1_key":0,"state_1_choice":1,"state_1_rt":655.8999998569489,"transition":0,"state":0,"state_2_ids":[0,1],"state_2_key":1,"state_2_choice":1,"state_2_rt":581,"outcome":0,"rocket_colors":["#955db9","#48a782"],"planet_colors":["#7f5d5d","#5f6f81"],"screen_resolution":[1024,657],"minimum_resolution":1,"trial":84,"drifts":[0.361,0.317,0.485,0.273],"drift_ix":0,"trial_type":"two-step-trial","trial_index":138,"time_elapsed":949791,"internal_node_id":"0.0-97.0-0.0","task_version":"1.0","jspsych_version":"6.3.1","browser_interactions":0,"missing":false},{"state_1_ids":[0,1],"state_1_key":1,"state_1_choice":1,"state_1_rt":723.5999999046326,"transition":1,"state":1,"state_2_ids":[2,3],"state_2_key":0,"state_2_choice":2,"state_2_rt":2557.5999999046326,"outcome":0,"rocket_colors":["#955db9","#48a782"],"planet_colors":["#7f5d5d","#5f6f81"],"screen_resolution":[1024,657],"minimum_resolution":1,"trial":85,"drifts":[0.295,0.332,0.47,0.26],"drift_ix":0,"trial_type":"two-step-trial","trial_index":139,"time_elapsed":955084,"internal_node_id":"0.0-98.0-0.0","task_version":"1.0","jspsych_version":"6.3.1","browser_interactions":0,"missing":false},{"state_1_ids":[1,0],"state_1_key":1,"state_1_choice":0,"state_1_rt":718,"transition":1,"state":0,"state_2_ids":[0,1],"state_2_key":1,"state_2_choice":1,"state_2_rt":729.5999999046326,"outcome":0,"rocket_colors":["#955db9","#48a782"],"planet_colors":["#7f5d5d","#5f6f81"],"screen_resolution":[1024,657],"minimum_resolution":1,"trial":86,"drifts":[0.287,0.344,0.46,0.32],"drift_ix":0,"trial_type":"two-step-trial","trial_index":140,"time_elapsed":958546,"internal_node_id":"0.0-99.0-0.0","task_version":"1.0","jspsych_version":"6.3.1","browser_interactions":0,"missing":false},{"state_1_ids":[1,0],"state_1_key":1,"state_1_choice":0,"state_1_rt":913.4000000953674,"transition":1,"state":0,"state_2_ids":[0,1],"state_2_key":0,"state_2_choice":0,"state_2_rt":597.8000001907349,"outcome":1,"rocket_colors":["#955db9","#48a782"],"planet_colors":["#7f5d5d","#5f6f81"],"screen_resolution":[1024,657],"minimum_resolution":1,"trial":87,"drifts":[0.278,0.373,0.46,0.351],"drift_ix":0,"trial_type":"two-step-trial","trial_index":141,"time_elapsed":962065,"internal_node_id":"0.0-100.0-0.0","task_version":"1.0","jspsych_version":"6.3.1","browser_interactions":0,"missing":false},{"state_1_ids":[1,0],"state_1_key":0,"state_1_choice":1,"state_1_rt":473.5,"transition":1,"state":1,"state_2_ids":[2,3],"state_2_key":1,"state_2_choice":3,"state_2_rt":675.0999999046326,"outcome":0,"rocket_colors":["#955db9","#48a782"],"planet_colors":["#7f5d5d","#5f6f81"],"screen_resolution":[1024,657],"minimum_resolution":1,"trial":88,"drifts":[0.277,0.355,0.459,0.358],"drift_ix":0,"trial_type":"two-step-trial","trial_index":142,"time_elapsed":965221,"internal_node_id":"0.0-101.0-0.0","task_version":"1.0","jspsych_version":"6.3.1","browser_interactions":0,"missing":false},{"state_1_ids":[1,0],"state_1_key":1,"state_1_choice":0,"state_1_rt":821.4000000953674,"transition":0,"state":1,"state_2_ids":[2,3],"state_2_key":0,"state_2_choice":2,"state_2_rt":450.7999999523163,"outcome":1,"rocket_colors":["#955db9","#48a782"],"planet_colors":["#7f5d5d","#5f6f81"],"screen_resolution":[1024,657],"minimum_resolution":1,"trial":89,"drifts":[0.264,0.395,0.47,0.338],"drift_ix":0,"trial_type":"two-step-trial","trial_index":143,"time_elapsed":968513,"internal_node_id":"0.0-102.0-0.0","task_version":"1.0","jspsych_version":"6.3.1","browser_interactions":0,"missing":false},{"state_1_ids":[1,0],"state_1_key":1,"state_1_choice":0,"state_1_rt":607.5,"transition":0,"state":1,"state_2_ids":[2,3],"state_2_key":0,"state_2_choice":2,"state_2_rt":460.09999990463257,"outcome":1,"rocket_colors":["#955db9","#48a782"],"planet_colors":["#7f5d5d","#5f6f81"],"screen_resolution":[1024,657],"minimum_resolution":1,"trial":90,"drifts":[0.258,0.389,0.495,0.348],"drift_ix":0,"trial_type":"two-step-trial","trial_index":144,"time_elapsed":971594,"internal_node_id":"0.0-103.0-0.0","task_version":"1.0","jspsych_version":"6.3.1","browser_interactions":0,"missing":false},{"state_1_ids":[0,1],"state_1_key":0,"state_1_choice":0,"state_1_rt":1169.0999999046326,"transition":1,"state":0,"state_2_ids":[0,1],"state_2_key":1,"state_2_choice":1,"state_2_rt":813.5,"outcome":0,"rocket_colors":["#955db9","#48a782"],"planet_colors":["#7f5d5d","#5f6f81"],"screen_resolution":[1024,657],"minimum_resolution":1,"trial":91,"drifts":[0.325,0.363,0.524,0.356],"drift_ix":0,"trial_type":"two-step-trial","trial_index":145,"time_elapsed":975584,"internal_node_id":"0.0-104.0-0.0","task_version":"1.0","jspsych_version":"6.3.1","browser_interactions":0,"missing":false},{"state_1_ids":[1,0],"state_1_key":1,"state_1_choice":0,"state_1_rt":513.9000000953674,"transition":1,"state":0,"state_2_ids":[0,1],"state_2_key":0,"state_2_choice":0,"state_2_rt":462.59999990463257,"outcome":1,"rocket_colors":["#955db9","#48a782"],"planet_colors":["#7f5d5d","#5f6f81"],"screen_resolution":[1024,657],"minimum_resolution":1,"trial":92,"drifts":[0.29,0.354,0.524,0.361],"drift_ix":0,"trial_type":"two-step-trial","trial_index":146,"time_elapsed":978565,"internal_node_id":"0.0-105.0-0.0","task_version":"1.0","jspsych_version":"6.3.1","browser_interactions":0,"missing":false},{"state_1_ids":[0,1],"state_1_key":1,"state_1_choice":1,"state_1_rt":570.9000000953674,"transition":1,"state":1,"state_2_ids":[2,3],"state_2_key":1,"state_2_choice":3,"state_2_rt":825.2000000476837,"outcome":1,"rocket_colors":["#955db9","#48a782"],"planet_colors":["#7f5d5d","#5f6f81"],"screen_resolution":[1024,657],"minimum_resolution":1,"trial":93,"drifts":[0.318,0.353,0.542,0.336],"drift_ix":0,"trial_type":"two-step-trial","trial_index":147,"time_elapsed":981972,"internal_node_id":"0.0-106.0-0.0","task_version":"1.0","jspsych_version":"6.3.1","browser_interactions":0,"missing":false},{"state_1_ids":[1,0],"state_1_key":1,"state_1_choice":0,"state_1_rt":508.2000000476837,"transition":0,"state":1,"state_2_ids":[2,3],"state_2_key":0,"state_2_choice":2,"state_2_rt":575.7000000476837,"outcome":0,"rocket_colors":["#955db9","#48a782"],"planet_colors":["#7f5d5d","#5f6f81"],"screen_resolution":[1024,657],"minimum_resolution":1,"trial":94,"drifts":[0.329,0.367,0.542,0.302],"drift_ix":0,"trial_type":"two-step-trial","trial_index":148,"time_elapsed":985063,"internal_node_id":"0.0-107.0-0.0","task_version":"1.0","jspsych_version":"6.3.1","browser_interactions":0,"missing":false},{"state_1_ids":[0,1],"state_1_key":1,"state_1_choice":1,"state_1_rt":462.5,"transition":1,"state":1,"state_2_ids":[2,3],"state_2_key":1,"state_2_choice":3,"state_2_rt":559.2000000476837,"outcome":0,"rocket_colors":["#955db9","#48a782"],"planet_colors":["#7f5d5d","#5f6f81"],"screen_resolution":[1024,657],"minimum_resolution":1,"trial":95,"drifts":[0.348,0.33,0.586,0.265],"drift_ix":0,"trial_type":"two-step-trial","trial_index":149,"time_elapsed":988193,"internal_node_id":"0.0-108.0-0.0","task_version":"1.0","jspsych_version":"6.3.1","browser_interactions":0,"missing":false},{"state_1_ids":[1,0],"state_1_key":1,"state_1_choice":0,"state_1_rt":225.79999995231628,"transition":1,"state":0,"state_2_ids":[0,1],"state_2_key":0,"state_2_choice":0,"state_2_rt":467.5,"outcome":0,"rocket_colors":["#955db9","#48a782"],"planet_colors":["#7f5d5d","#5f6f81"],"screen_resolution":[1024,657],"minimum_resolution":1,"trial":96,"drifts":[0.348,0.348,0.591,0.304],"drift_ix":0,"trial_type":"two-step-trial","trial_index":150,"time_elapsed":990922,"internal_node_id":"0.0-109.0-0.0","task_version":"1.0","jspsych_version":"6.3.1","browser_interactions":0,"missing":false},{"state_1_ids":[1,0],"state_1_key":1,"state_1_choice":0,"state_1_rt":2144.699999809265,"transition":1,"state":0,"state_2_ids":[0,1],"state_2_key":0,"state_2_choice":0,"state_2_rt":1931.2999999523163,"outcome":0,"rocket_colors":["#955db9","#48a782"],"planet_colors":["#7f5d5d","#5f6f81"],"screen_resolution":[1024,657],"minimum_resolution":1,"trial":97,"drifts":[0.328,0.258,0.639,0.303],"drift_ix":0,"trial_type":"two-step-trial","trial_index":151,"time_elapsed":997006,"internal_node_id":"0.0-110.0-0.0","task_version":"1.0","jspsych_version":"6.3.1","browser_interactions":0,"missing":false},{"state_1_ids":[1,0],"state_1_key":0,"state_1_choice":1,"state_1_rt":1006.6000001430511,"transition":1,"state":1,"state_2_ids":[2,3],"state_2_key":0,"state_2_choice":2,"state_2_rt":1230.8000001907349,"outcome":0,"rocket_colors":["#955db9","#48a782"],"planet_colors":["#7f5d5d","#5f6f81"],"screen_resolution":[1024,657],"minimum_resolution":1,"trial":98,"drifts":[0.381,0.256,0.661,0.29],"drift_ix":0,"trial_type":"two-step-trial","trial_index":152,"time_elapsed":1001252,"internal_node_id":"0.0-111.0-0.0","task_version":"1.0","jspsych_version":"6.3.1","browser_interactions":0,"missing":false},{"state_1_ids":[1,0],"state_1_key":1,"state_1_choice":0,"state_1_rt":486.69999980926514,"transition":1,"state":0,"state_2_ids":[0,1],"state_2_key":1,"state_2_choice":1,"state_2_rt":882.4000000953674,"outcome":0,"rocket_colors":["#955db9","#48a782"],"planet_colors":["#7f5d5d","#5f6f81"],"screen_resolution":[1024,657],"minimum_resolution":1,"trial":99,"drifts":[0.423,0.312,0.659,0.319],"drift_ix":0,"trial_type":"two-step-trial","trial_index":153,"time_elapsed":1004639,"internal_node_id":"0.0-112.0-0.0","task_version":"1.0","jspsych_version":"6.3.1","browser_interactions":0,"missing":false},{"state_1_ids":[1,0],"state_1_key":1,"state_1_choice":0,"state_1_rt":783.5,"transition":0,"state":1,"state_2_ids":[2,3],"state_2_key":0,"state_2_choice":2,"state_2_rt":713.3000001907349,"outcome":0,"rocket_colors":["#955db9","#48a782"],"planet_colors":["#7f5d5d","#5f6f81"],"screen_resolution":[1024,657],"minimum_resolution":1,"trial":100,"drifts":[0.419,0.326,0.615,0.332],"drift_ix":0,"trial_type":"two-step-trial","trial_index":154,"time_elapsed":1008160,"internal_node_id":"0.0-113.0-0.0","task_version":"1.0","jspsych_version":"6.3.1","browser_interactions":0,"missing":false},{"view_history":"[{\"page_index\":0,\"viewing_time\":29663.799999952316},{\"page_index\":1,\"viewing_time\":1401.2999999523163}]","rt":31066.200000047684,"trial_type":"two-step-instructions","trial_index":155,"time_elapsed":1039236,"internal_node_id":"0.0-114.0","task_version":"1.0","jspsych_version":"6.3.1"},{"state_1_ids":[0,1],"state_1_key":0,"state_1_choice":0,"state_1_rt":3867.2000000476837,"transition":1,"state":0,"state_2_ids":[0,1],"state_2_key":0,"state_2_choice":0,"state_2_rt":843.2000000476837,"outcome":1,"rocket_colors":["#955db9","#48a782"],"planet_colors":["#7f5d5d","#5f6f81"],"screen_resolution":[1024,657],"minimum_resolution":1,"trial":101,"drifts":[0.406,0.305,0.562,0.356],"drift_ix":0,"trial_type":"two-step-trial","trial_index":156,"time_elapsed":1045960,"internal_node_id":"0.0-115.0-0.0","task_version":"1.0","jspsych_version":"6.3.1","browser_interactions":0,"missing":false},{"state_1_ids":[0,1],"state_1_key":1,"state_1_choice":1,"state_1_rt":2071.9000000953674,"transition":1,"state":1,"state_2_ids":[2,3],"state_2_key":1,"state_2_choice":3,"state_2_rt":770.3000001907349,"outcome":0,"rocket_colors":["#955db9","#48a782"],"planet_colors":["#7f5d5d","#5f6f81"],"screen_resolution":[1024,657],"minimum_resolution":1,"trial":102,"drifts":[0.412,0.303,0.532,0.328],"drift_ix":0,"trial_type":"two-step-trial","trial_index":157,"time_elapsed":1050810,"internal_node_id":"0.0-116.0-0.0","task_version":"1.0","jspsych_version":"6.3.1","browser_interactions":0,"missing":false},{"state_1_ids":[1,0],"state_1_key":1,"state_1_choice":0,"state_1_rt":957.7000000476837,"transition":1,"state":0,"state_2_ids":[0,1],"state_2_key":0,"state_2_choice":0,"state_2_rt":661.9000000953674,"outcome":1,"rocket_colors":["#955db9","#48a782"],"planet_colors":["#7f5d5d","#5f6f81"],"screen_resolution":[1024,657],"minimum_resolution":1,"trial":103,"drifts":[0.399,0.326,0.531,0.314],"drift_ix":0,"trial_type":"two-step-trial","trial_index":158,"time_elapsed":1054437,"internal_node_id":"0.0-117.0-0.0","task_version":"1.0","jspsych_version":"6.3.1","browser_interactions":0,"missing":false},{"state_1_ids":[1,0],"state_1_key":1,"state_1_choice":0,"state_1_rt":1196.5,"transition":1,"state":0,"state_2_ids":[0,1],"state_2_key":0,"state_2_choice":0,"state_2_rt":435.09999990463257,"outcome":0,"rocket_colors":["#955db9","#48a782"],"planet_colors":["#7f5d5d","#5f6f81"],"screen_resolution":[1024,657],"minimum_resolution":1,"trial":104,"drifts":[0.398,0.313,0.576,0.303],"drift_ix":0,"trial_type":"two-step-trial","trial_index":159,"time_elapsed":1058076,"internal_node_id":"0.0-118.0-0.0","task_version":"1.0","jspsych_version":"6.3.1","browser_interactions":0,"missing":false},{"state_1_ids":[1,0],"state_1_key":1,"state_1_choice":0,"state_1_rt":905.9000000953674,"transition":0,"state":1,"state_2_ids":[2,3],"state_2_key":0,"state_2_choice":2,"state_2_rt":1268.7999999523163,"outcome":0,"rocket_colors":["#955db9","#48a782"],"planet_colors":["#7f5d5d","#5f6f81"],"screen_resolution":[1024,657],"minimum_resolution":1,"trial":105,"drifts":[0.41,0.34,0.593,0.316],"drift_ix":0,"trial_type":"two-step-trial","trial_index":160,"time_elapsed":1062263,"internal_node_id":"0.0-119.0-0.0","task_version":"1.0","jspsych_version":"6.3.1","browser_interactions":0,"missing":false},{"state_1_ids":[0,1],"state_1_key":0,"state_1_choice":0,"state_1_rt":2124.7000000476837,"transition":1,"state":0,"state_2_ids":[0,1],"state_2_key":1,"state_2_choice":1,"state_2_rt":468.5,"outcome":0,"rocket_colors":["#955db9","#48a782"],"planet_colors":["#7f5d5d","#5f6f81"],"screen_resolution":[1024,657],"minimum_resolution":1,"trial":106,"drifts":[0.402,0.333,0.57,0.322],"drift_ix":0,"trial_type":"two-step-trial","trial_index":161,"time_elapsed":1066863,"internal_node_id":"0.0-120.0-0.0","task_version":"1.0","jspsych_version":"6.3.1","browser_interactions":0,"missing":false},{"state_1_ids":[1,0],"state_1_key":1,"state_1_choice":0,"state_1_rt":1465.4000000953674,"transition":0,"state":1,"state_2_ids":[2,3],"state_2_key":1,"state_2_choice":3,"state_2_rt":1954.7000000476837,"outcome":0,"rocket_colors":["#955db9","#48a782"],"planet_colors":["#7f5d5d","#5f6f81"],"screen_resolution":[1024,657],"minimum_resolution":1,"trial":107,"drifts":[0.408,0.274,0.566,0.316],"drift_ix":0,"trial_type":"two-step-trial","trial_index":162,"time_elapsed":1072350,"internal_node_id":"0.0-121.0-0.0","task_version":"1.0","jspsych_version":"6.3.1","browser_interactions":0,"missing":false},{"state_1_ids":[0,1],"state_1_key":0,"state_1_choice":0,"state_1_rt":5813.400000095367,"transition":1,"state":0,"state_2_ids":[0,1],"state_2_key":0,"state_2_choice":0,"state_2_rt":3049.800000190735,"outcome":1,"rocket_colors":["#955db9","#48a782"],"planet_colors":["#7f5d5d","#5f6f81"],"screen_resolution":[1024,657],"minimum_resolution":1,"trial":108,"drifts":[0.426,0.262,0.552,0.283],"drift_ix":0,"trial_type":"two-step-trial","trial_index":163,"time_elapsed":1083220,"internal_node_id":"0.0-122.0-0.0","task_version":"1.0","jspsych_version":"6.3.1","browser_interactions":0,"missing":false},{"state_1_ids":[0,1],"state_1_key":0,"state_1_choice":0,"state_1_rt":1996.1000001430511,"transition":0,"state":1,"state_2_ids":[2,3],"state_2_key":0,"state_2_choice":2,"state_2_rt":1278.5,"outcome":1,"rocket_colors":["#955db9","#48a782"],"planet_colors":["#7f5d5d","#5f6f81"],"screen_resolution":[1024,657],"minimum_resolution":1,"trial":109,"drifts":[0.4,0.265,0.503,0.284],"drift_ix":0,"trial_type":"two-step-trial","trial_index":164,"time_elapsed":1088504,"internal_node_id":"0.0-123.0-0.0","task_version":"1.0","jspsych_version":"6.3.1","browser_interactions":0,"missing":false},{"state_1_ids":[1,0],"state_1_key":0,"state_1_choice":1,"state_1_rt":425.7000000476837,"transition":0,"state":0,"state_2_ids":[0,1],"state_2_key":0,"state_2_choice":0,"state_2_rt":1115.7999999523163,"outcome":1,"rocket_colors":["#955db9","#48a782"],"planet_colors":["#7f5d5d","#5f6f81"],"screen_resolution":[1024,657],"minimum_resolution":1,"trial":110,"drifts":[0.389,0.286,0.517,0.318],"drift_ix":0,"trial_type":"two-step-trial","trial_index":165,"time_elapsed":1092055,"internal_node_id":"0.0-124.0-0.0","task_version":"1.0","jspsych_version":"6.3.1","browser_interactions":0,"missing":false},{"state_1_ids":[1,0],"state_1_key":0,"state_1_choice":1,"state_1_rt":647.2999999523163,"transition":1,"state":1,"state_2_ids":[2,3],"state_2_key":0,"state_2_choice":2,"state_2_rt":1023.4000000953674,"outcome":0,"rocket_colors":["#955db9","#48a782"],"planet_colors":["#7f5d5d","#5f6f81"],"screen_resolution":[1024,657],"minimum_resolution":1,"trial":111,"drifts":[0.389,0.289,0.505,0.348],"drift_ix":0,"trial_type":"two-step-trial","trial_index":166,"time_elapsed":1095742,"internal_node_id":"0.0-125.0-0.0","task_version":"1.0","jspsych_version":"6.3.1","browser_interactions":0,"missing":false},{"state_1_ids":[1,0],"state_1_key":1,"state_1_choice":0,"state_1_rt":1978.9000000953674,"transition":1,"state":0,"state_2_ids":[0,1],"state_2_key":0,"state_2_choice":0,"state_2_rt":685.1999998092651,"outcome":0,"rocket_colors":["#955db9","#48a782"],"planet_colors":["#7f5d5d","#5f6f81"],"screen_resolution":[1024,657],"minimum_resolution":1,"trial":112,"drifts":[0.387,0.265,0.506,0.329],"drift_ix":0,"trial_type":"two-step-trial","trial_index":167,"time_elapsed":1100414,"internal_node_id":"0.0-126.0-0.0","task_version":"1.0","jspsych_version":"6.3.1","browser_interactions":0,"missing":false},{"state_1_ids":[1,0],"state_1_key":1,"state_1_choice":0,"state_1_rt":673,"transition":0,"state":1,"state_2_ids":[2,3],"state_2_key":1,"state_2_choice":3,"state_2_rt":541.3999998569489,"outcome":0,"rocket_colors":["#955db9","#48a782"],"planet_colors":["#7f5d5d","#5f6f81"],"screen_resolution":[1024,657],"minimum_resolution":1,"trial":113,"drifts":[0.384,0.256,0.524,0.353],"drift_ix":0,"trial_type":"two-step-trial","trial_index":168,"time_elapsed":1103687,"internal_node_id":"0.0-127.0-0.0","task_version":"1.0","jspsych_version":"6.3.1","browser_interactions":0,"missing":false},{"state_1_ids":[1,0],"state_1_key":1,"state_1_choice":0,"state_1_rt":1743.5999999046326,"transition":1,"state":0,"state_2_ids":[0,1],"state_2_key":0,"state_2_choice":0,"state_2_rt":750.7999999523163,"outcome":0,"rocket_colors":["#955db9","#48a782"],"planet_colors":["#7f5d5d","#5f6f81"],"screen_resolution":[1024,657],"minimum_resolution":1,"trial":114,"drifts":[0.367,0.273,0.512,0.348],"drift_ix":0,"trial_type":"two-step-trial","trial_index":169,"time_elapsed":1108190,"internal_node_id":"0.0-128.0-0.0","task_version":"1.0","jspsych_version":"6.3.1","browser_interactions":0,"missing":false},{"state_1_ids":[1,0],"state_1_key":1,"state_1_choice":0,"state_1_rt":2129.399999856949,"transition":0,"state":1,"state_2_ids":[2,3],"state_2_key":0,"state_2_choice":2,"state_2_rt":1101.7000000476837,"outcome":1,"rocket_colors":["#955db9","#48a782"],"planet_colors":["#7f5d5d","#5f6f81"],"screen_resolution":[1024,657],"minimum_resolution":1,"trial":115,"drifts":[0.323,0.276,0.502,0.358],"drift_ix":0,"trial_type":"two-step-trial","trial_index":170,"time_elapsed":1113442,"internal_node_id":"0.0-129.0-0.0","task_version":"1.0","jspsych_version":"6.3.1","browser_interactions":0,"missing":false},{"state_1_ids":[0,1],"state_1_key":1,"state_1_choice":1,"state_1_rt":838.5,"transition":1,"state":1,"state_2_ids":[2,3],"state_2_key":1,"state_2_choice":3,"state_2_rt":1708.0999999046326,"outcome":0,"rocket_colors":["#955db9","#48a782"],"planet_colors":["#7f5d5d","#5f6f81"],"screen_resolution":[1024,657],"minimum_resolution":1,"trial":116,"drifts":[0.327,0.301,0.482,0.366],"drift_ix":0,"trial_type":"two-step-trial","trial_index":171,"time_elapsed":1117998,"internal_node_id":"0.0-130.0-0.0","task_version":"1.0","jspsych_version":"6.3.1","browser_interactions":0,"missing":false},{"state_1_ids":[1,0],"state_1_key":0,"state_1_choice":1,"state_1_rt":832.5999999046326,"transition":0,"state":0,"state_2_ids":[0,1],"state_2_key":1,"state_2_choice":1,"state_2_rt":300.10000014305115,"outcome":1,"rocket_colors":["#955db9","#48a782"],"planet_colors":["#7f5d5d","#5f6f81"],"screen_resolution":[1024,657],"minimum_resolution":1,"trial":117,"drifts":[0.356,0.324,0.447,0.405],"drift_ix":0,"trial_type":"two-step-trial","trial_index":172,"time_elapsed":1121169,"internal_node_id":"0.0-131.0-0.0","task_version":"1.0","jspsych_version":"6.3.1","browser_interactions":0,"missing":false},{"state_1_ids":[1,0],"state_1_key":0,"state_1_choice":1,"state_1_rt":501.5,"transition":1,"state":1,"state_2_ids":[2,3],"state_2_key":0,"state_2_choice":2,"state_2_rt":1468.7999999523163,"outcome":0,"rocket_colors":["#955db9","#48a782"],"planet_colors":["#7f5d5d","#5f6f81"],"screen_resolution":[1024,657],"minimum_resolution":1,"trial":118,"drifts":[0.346,0.346,0.451,0.456],"drift_ix":0,"trial_type":"two-step-trial","trial_index":173,"time_elapsed":1125149,"internal_node_id":"0.0-132.0-0.0","task_version":"1.0","jspsych_version":"6.3.1","browser_interactions":0,"missing":false},{"state_1_ids":[0,1],"state_1_key":0,"state_1_choice":0,"state_1_rt":530.0999999046326,"transition":0,"state":1,"state_2_ids":[2,3],"state_2_key":1,"state_2_choice":3,"state_2_rt":434.7999999523163,"outcome":0,"rocket_colors":["#955db9","#48a782"],"planet_colors":["#7f5d5d","#5f6f81"],"screen_resolution":[1024,657],"minimum_resolution":1,"trial":119,"drifts":[0.307,0.341,0.511,0.496],"drift_ix":0,"trial_type":"two-step-trial","trial_index":174,"time_elapsed":1128124,"internal_node_id":"0.0-133.0-0.0","task_version":"1.0","jspsych_version":"6.3.1","browser_interactions":0,"missing":false},{"state_1_ids":[0,1],"state_1_key":0,"state_1_choice":0,"state_1_rt":1315.5,"transition":1,"state":0,"state_2_ids":[0,1],"state_2_key":0,"state_2_choice":0,"state_2_rt":4249.700000047684,"outcome":0,"rocket_colors":["#955db9","#48a782"],"planet_colors":["#7f5d5d","#5f6f81"],"screen_resolution":[1024,657],"minimum_resolution":1,"trial":120,"drifts":[0.301,0.307,0.523,0.5],"drift_ix":0,"trial_type":"two-step-trial","trial_index":175,"time_elapsed":1135698,"internal_node_id":"0.0-134.0-0.0","task_version":"1.0","jspsych_version":"6.3.1","browser_interactions":0,"missing":false},{"state_1_ids":[0,1],"state_1_key":0,"state_1_choice":0,"state_1_rt":699.8999998569489,"transition":1,"state":0,"state_2_ids":[0,1],"state_2_key":1,"state_2_choice":1,"state_2_rt":712.2999999523163,"outcome":0,"rocket_colors":["#955db9","#48a782"],"planet_colors":["#7f5d5d","#5f6f81"],"screen_resolution":[1024,657],"minimum_resolution":1,"trial":121,"drifts":[0.288,0.297,0.519,0.491],"drift_ix":0,"trial_type":"two-step-trial","trial_index":176,"time_elapsed":1139121,"internal_node_id":"0.0-135.0-0.0","task_version":"1.0","jspsych_version":"6.3.1","browser_interactions":0,"missing":false},{"state_1_ids":[0,1],"state_1_key":0,"state_1_choice":0,"state_1_rt":598.7999999523163,"transition":0,"state":1,"state_2_ids":[2,3],"state_2_key":0,"state_2_choice":2,"state_2_rt":398.59999990463257,"outcome":1,"rocket_colors":["#955db9","#48a782"],"planet_colors":["#7f5d5d","#5f6f81"],"screen_resolution":[1024,657],"minimum_resolution":1,"trial":122,"drifts":[0.275,0.313,0.525,0.507],"drift_ix":0,"trial_type":"two-step-trial","trial_index":177,"time_elapsed":1142126,"internal_node_id":"0.0-136.0-0.0","task_version":"1.0","jspsych_version":"6.3.1","browser_interactions":0,"missing":false},{"state_1_ids":[0,1],"state_1_key":0,"state_1_choice":0,"state_1_rt":424.2999999523163,"transition":0,"state":1,"state_2_ids":[2,3],"state_2_key":0,"state_2_choice":2,"state_2_rt":519.4000000953674,"outcome":0,"rocket_colors":["#955db9","#48a782"],"planet_colors":["#7f5d5d","#5f6f81"],"screen_resolution":[1024,657],"minimum_resolution":1,"trial":123,"drifts":[0.288,0.279,0.473,0.464],"drift_ix":0,"trial_type":"two-step-trial","trial_index":178,"time_elapsed":1145076,"internal_node_id":"0.0-137.0-0.0","task_version":"1.0","jspsych_version":"6.3.1","browser_interactions":0,"missing":false},{"state_1_ids":[0,1],"state_1_key":0,"state_1_choice":0,"state_1_rt":406.2999999523163,"transition":0,"state":1,"state_2_ids":[2,3],"state_2_key":0,"state_2_choice":2,"state_2_rt":1434.1000001430511,"outcome":1,"rocket_colors":["#955db9","#48a782"],"planet_colors":["#7f5d5d","#5f6f81"],"screen_resolution":[1024,657],"minimum_resolution":1,"trial":124,"drifts":[0.287,0.296,0.496,0.443],"drift_ix":0,"trial_type":"two-step-trial","trial_index":179,"time_elapsed":1148926,"internal_node_id":"0.0-138.0-0.0","task_version":"1.0","jspsych_version":"6.3.1","browser_interactions":0,"missing":false},{"state_1_ids":[1,0],"state_1_key":0,"state_1_choice":1,"state_1_rt":2935.2999999523163,"transition":1,"state":1,"state_2_ids":[2,3],"state_2_key":1,"state_2_choice":3,"state_2_rt":1374.6000001430511,"outcome":1,"rocket_colors":["#955db9","#48a782"],"planet_colors":["#7f5d5d","#5f6f81"],"screen_resolution":[1024,657],"minimum_resolution":1,"trial":125,"drifts":[0.26,0.276,0.477,0.451],"drift_ix":0,"trial_type":"two-step-trial","trial_index":180,"time_elapsed":1155243,"internal_node_id":"0.0-139.0-0.0","task_version":"1.0","jspsych_version":"6.3.1","browser_interactions":0,"missing":false},{"state_1_ids":[0,1],"state_1_key":0,"state_1_choice":0,"state_1_rt":1053.5999999046326,"transition":1,"state":0,"state_2_ids":[0,1],"state_2_key":0,"state_2_choice":0,"state_2_rt":1492.1000001430511,"outcome":0,"rocket_colors":["#955db9","#48a782"],"planet_colors":["#7f5d5d","#5f6f81"],"screen_resolution":[1024,657],"minimum_resolution":1,"trial":126,"drifts":[0.283,0.285,0.494,0.477],"drift_ix":0,"trial_type":"two-step-trial","trial_index":181,"time_elapsed":1159796,"internal_node_id":"0.0-140.0-0.0","task_version":"1.0","jspsych_version":"6.3.1","browser_interactions":0,"missing":false},{"state_1_ids":[0,1],"state_1_key":0,"state_1_choice":0,"state_1_rt":2400.5,"transition":1,"state":0,"state_2_ids":[0,1],"state_2_key":1,"state_2_choice":1,"state_2_rt":648.2999999523163,"outcome":0,"rocket_colors":["#955db9","#48a782"],"planet_colors":["#7f5d5d","#5f6f81"],"screen_resolution":[1024,657],"minimum_resolution":1,"trial":127,"drifts":[0.285,0.251,0.493,0.518],"drift_ix":0,"trial_type":"two-step-trial","trial_index":182,"time_elapsed":1164872,"internal_node_id":"0.0-141.0-0.0","task_version":"1.0","jspsych_version":"6.3.1","browser_interactions":0,"missing":false},{"state_1_ids":[1,0],"state_1_key":0,"state_1_choice":1,"state_1_rt":2303.2000000476837,"transition":1,"state":1,"state_2_ids":[2,3],"state_2_key":0,"state_2_choice":2,"state_2_rt":1847.5999999046326,"outcome":0,"rocket_colors":["#955db9","#48a782"],"planet_colors":["#7f5d5d","#5f6f81"],"screen_resolution":[1024,657],"minimum_resolution":1,"trial":128,"drifts":[0.285,0.278,0.495,0.479],"drift_ix":0,"trial_type":"two-step-trial","trial_index":183,"time_elapsed":1171029,"internal_node_id":"0.0-142.0-0.0","task_version":"1.0","jspsych_version":"6.3.1","browser_interactions":0,"missing":false},{"state_1_ids":[0,1],"state_1_key":0,"state_1_choice":0,"state_1_rt":706.4000000953674,"transition":1,"state":0,"state_2_ids":[0,1],"state_2_key":0,"state_2_choice":0,"state_2_rt":610.8999998569489,"outcome":1,"rocket_colors":["#955db9","#48a782"],"planet_colors":["#7f5d5d","#5f6f81"],"screen_resolution":[1024,657],"minimum_resolution":1,"trial":129,"drifts":[0.304,0.316,0.486,0.459],"drift_ix":0,"trial_type":"two-step-trial","trial_index":184,"time_elapsed":1174362,"internal_node_id":"0.0-143.0-0.0","task_version":"1.0","jspsych_version":"6.3.1","browser_interactions":0,"missing":false},{"state_1_ids":[0,1],"state_1_key":0,"state_1_choice":0,"state_1_rt":1930.1000001430511,"transition":1,"state":0,"state_2_ids":[0,1],"state_2_key":1,"state_2_choice":1,"state_2_rt":681.7000000476837,"outcome":0,"rocket_colors":["#955db9","#48a782"],"planet_colors":["#7f5d5d","#5f6f81"],"screen_resolution":[1024,657],"minimum_resolution":1,"trial":130,"drifts":[0.279,0.291,0.485,0.452],"drift_ix":0,"trial_type":"two-step-trial","trial_index":185,"time_elapsed":1178979,"internal_node_id":"0.0-144.0-0.0","task_version":"1.0","jspsych_version":"6.3.1","browser_interactions":0,"missing":false},{"state_1_ids":[1,0],"state_1_key":0,"state_1_choice":1,"state_1_rt":482,"transition":1,"state":1,"state_2_ids":[2,3],"state_2_key":0,"state_2_choice":2,"state_2_rt":814.9000000953674,"outcome":0,"rocket_colors":["#955db9","#48a782"],"planet_colors":["#7f5d5d","#5f6f81"],"screen_resolution":[1024,657],"minimum_resolution":1,"trial":131,"drifts":[0.257,0.293,0.476,0.442