[{"success":true,"timeout":false,"failed_images":[],"failed_audio":[],"failed_video":[],"trial_type":"preload","trial_index":0,"time_elapsed":665,"internal_node_id":"0.0-0.0","task_version":"1.0","jspsych_version":"6.3.1"},{"success":true,"trial_type":"fullscreen","trial_index":1,"time_elapsed":4389,"internal_node_id":"0.0-1.0","task_version":"1.0","jspsych_version":"6.3.1"},{"view_history":[{"page_index":0,"viewing_time":1270.7999999821186}],"rt":1271,"trial_type":"instructions","trial_index":2,"time_elapsed":5661,"internal_node_id":"0.0-2.0","task_version":"1.0","jspsych_version":"6.3.1"},{"responses":{"Q04":"1","Q08":"0","Q06":"0","Q03":"0","Q02":"0","Q01":"0","Q05":"0","Q07":"1"},"rt":28137.19999998808,"item_order":[3,7,5,2,1,0,4,6],"radio_events":[2866.800000011921,3808.800000011921,4479.800000011921,6192,7714.699999988079,9543.800000011921,10451.90000000596,11521.699999988079,16887.09999999404,23465.09999999404],"key_events":[],"mouse_events":[0.30000001192092896,2866.800000011921,3808.800000011921,4479.800000011921,5295.4000000059605,6192,6652,7714.699999988079,8599.90000000596,9543.800000011921,10451.90000000596,11521.699999988079,16431.19999998808,16887.09999999404,23465.09999999404,28136.30000001192],"straightlining":0.75,"zigzagging":0.2857142857142857,"honeypot":0,"survey":"anxiety","trial_type":"survey-template","trial_index":3,"time_elapsed":33804,"internal_node_id":"0.0-3.0","task_version":"1.0","jspsych_version":"6.3.1"},{"responses":{"Q07":"0","Q03":"0","Q01":"0","Q06":"1","Q02":"1","Q04":"0","Q05":"0","Q08":"3"},"rt":73192.30000001192,"item_order":[6,2,0,5,1,3,4,7],"radio_events":[13639.300000011921,18455.20000001788,25770.600000023842,29746.70000001788,30368.600000023842,30955.80000001192,37826.80000001192,46820,58208.90000000596,60535.30000001192,62126.70000001788,69590.30000001192],"key_events":[],"mouse_events":[13639.300000011921,17605.40000000596,18455.20000001788,24560.80000001192,25770.600000023842,29138.600000023842,29746.70000001788,30368.600000023842,30955.80000001192,35886.90000000596,37143.70000001788,37826.80000001192,46820,57404,57767.20000001788,58208.90000000596,60535.30000001192,62126.70000001788,67428.90000000596,69590.30000001192,73191.70000001788],"straightlining":0.625,"zigzagging":0.42857142857142855,"honeypot":0,"survey":"mania","trial_type":"survey-template","trial_index":4,"time_elapsed":106999,"internal_node_id":"0.0-4.0","task_version":"1.0","jspsych_version":"6.3.1"},{"responses":{"Q05":"1","Q03":"0","Q06":"1","Q01":"1","Q04":"1","Q02":"1","Q07":"0","Q08":"0"},"rt":32505.399999976158,"item_order":[4,2,5,0,3,1,6,7],"radio_events":[4387,7354.199999988079,8267.299999982119,10243.09999999404,10871,13784.5,14508.199999988079,18350.69999998808,19011.399999976158,23387.399999976158,26748.59999999404,31206.59999999404],"key_events":[],"mouse_events":[4387,6300.399999976158,7354.199999988079,8267.299999982119,10243.09999999404,10871,12952.299999982119,13784.5,14508.199999988079,17536.5,18350.69999998808,19011.399999976158,23387.399999976158,26748.59999999404,28625.59999999404,30333.59999999404,30818.79999998212,31206.59999999404,32504.79999998212],"straightlining":0.625,"zigzagging":0.42857142857142855,"honeypot":0,"survey":"depression","trial_type":"survey-template","trial_index":5,"time_elapsed":139507,"internal_node_id":"0.0-5.0","task_version":"1.0","jspsych_version":"6.3.1"},{"responses":{"Q01":"2","Q07":"6","Q06":"2","Q02":"1","Q03":"1","Q05":"2","Q04":"4"},"rt":27107,"item_order":[0,6,5,1,2,4,3],"radio_events":[3391.5,4133.300000011921,6322.4000000059605,10787.40000000596,12230.300000011921,13435.5,20790.30000001192,24535.70000001788,24901.70000001788,26512.70000001788],"key_events":[],"mouse_events":[2203.2000000178814,2954.300000011921,3391.5,3836.4000000059605,4133.300000011921,5818.800000011921,6322.4000000059605,10423.200000017881,10787.40000000596,12230.300000011921,13435.5,20790.30000001192,22945,24078.80000001192,24535.70000001788,24901.70000001788,25569.90000000596,26221.80000001192,26512.70000001788,27106.20000001788],"straightlining":0.42857142857142855,"zigzagging":0.3333333333333333,"honeypot":0,"survey":"greed","trial_type":"survey-template","trial_index":6,"time_elapsed":166616,"internal_node_id":"0.0-6.0","task_version":"1.0","jspsych_version":"6.3.1"},{"responses":{"Q03":"5","Q02":"5","Q07":"3","Q06":"5","Q01":"5","Q04":"5","Q05":"5"},"rt":14416.199999988079,"item_order":[2,1,6,5,0,3,4],"radio_events":[2179.9000000059605,5164,5818.699999988079,8221.59999999404,10646.699999988079,11874.699999988079,13782.800000011921],"key_events":[],"mouse_events":[2179.9000000059605,3738.699999988079,4013.5999999940395,4866.800000011921,5164,5818.699999988079,7706.699999988079,8221.59999999404,9930.699999988079,10270.800000011921,10646.699999988079,11874.699999988079,13782.800000011921,14415.300000011921],"straightlining":0.42857142857142855,"zigzagging":0,"honeypot":0,"survey":"artistic","trial_type":"survey-template","trial_index":7,"time_elapsed":181034,"internal_node_id":"0.0-7.0","task_version":"1.0","jspsych_version":"6.3.1"},{"view_history":"[{\"page_index\":0,\"viewing_time\":3611.800000011921},{\"page_index\":1,\"viewing_time\":1716.8999999761581},{\"page_index\":2,\"viewing_time\":1608},{\"page_index\":3,\"viewing_time\":3929.9000000059605},{\"page_index\":4,\"viewing_time\":4006.9000000059605},{\"page_index\":5,\"viewing_time\":1623.199999988079},{\"page_index\":6,\"viewing_time\":1504},{\"page_index\":7,\"viewing_time\":3378.100000023842},{\"page_index\":8,\"viewing_time\":6031.799999982119},{\"page_index\":9,\"viewing_time\":3895},{\"page_index\":10,\"viewing_time\":2091}]","rt":33397,"trial_type":"two-step-instructions","trial_index":8,"time_elapsed":214436,"internal_node_id":"0.0-8.0-1.0","task_version":"1.0","jspsych_version":"6.3.1"},{"responses":["left/right arrow keys","True","True"],"num_errors":0,"rt":16056.299999982119,"quiz":1,"trial_type":"two-step-comprehension","trial_index":9,"time_elapsed":230495,"internal_node_id":"0.0-8.0-2.0","task_version":"1.0","jspsych_version":"6.3.1"},{"view_history":"[{\"page_index\":0,\"viewing_time\":3075.2999999821186}]","rt":3075.5,"phase":"instructions_1b","trial_type":"two-step-instructions","trial_index":10,"time_elapsed":233573,"internal_node_id":"0.0-9.0-0.0-0.0","task_version":"1.0","jspsych_version":"6.3.1"},{"state_2_ids":[0,1],"state_2_key":0,"state_2_choice":0,"state_2_rt":836.8000000119209,"outcome":0,"screen_resolution":[1920,1080],"minimum_resolution":1,"trial_type":"alien-practice","trial_index":11,"time_elapsed":236614,"internal_node_id":"0.0-9.0-1.0-0.0","task_version":"1.0","jspsych_version":"6.3.1"},{"state_2_ids":[0,1],"state_2_key":1,"state_2_choice":1,"state_2_rt":937.0999999940395,"outcome":0,"screen_resolution":[1920,1080],"minimum_resolution":1,"trial_type":"alien-practice","trial_index":12,"time_elapsed":239755,"internal_node_id":"0.0-9.0-2.0-0.0","task_version":"1.0","jspsych_version":"6.3.1"},{"state_2_ids":[0,1],"state_2_key":0,"state_2_choice":0,"state_2_rt":270,"outcome":0,"screen_resolution":[1920,1080],"minimum_resolution":1,"trial_type":"alien-practice","trial_index":13,"time_elapsed":242229,"internal_node_id":"0.0-9.0-3.0-0.0","task_version":"1.0","jspsych_version":"6.3.1"},{"state_2_ids":[0,1],"state_2_key":1,"state_2_choice":1,"state_2_rt":37.099999994039536,"outcome":1,"screen_resolution":[1920,1080],"minimum_resolution":1,"trial_type":"alien-practice","trial_index":14,"time_elapsed":244469,"internal_node_id":"0.0-9.0-4.0-0.0","task_version":"1.0","jspsych_version":"6.3.1"},{"state_2_ids":[0,1],"state_2_key":1,"state_2_choice":1,"state_2_rt":145.5,"outcome":1,"screen_resolution":[1920,1080],"minimum_resolution":1,"trial_type":"alien-practice","trial_index":15,"time_elapsed":246818,"internal_node_id":"0.0-9.0-5.0-0.0","task_version":"1.0","jspsych_version":"6.3.1"},{"state_2_ids":[0,1],"state_2_key":1,"state_2_choice":1,"state_2_rt":139.59999999403954,"outcome":1,"screen_resolution":[1920,1080],"minimum_resolution":1,"trial_type":"alien-practice","trial_index":16,"time_elapsed":249160,"internal_node_id":"0.0-9.0-6.0-0.0","task_version":"1.0","jspsych_version":"6.3.1"},{"view_history":"[{\"page_index\":0,\"viewing_time\":3612},{\"page_index\":1,\"viewing_time\":1529},{\"page_index\":2,\"viewing_time\":6380.800000011921},{\"page_index\":3,\"viewing_time\":11852.300000011921},{\"page_index\":4,\"viewing_time\":4722.699999988079},{\"page_index\":5,\"viewing_time\":766}]","rt":28863,"trial_type":"two-step-instructions","trial_index":17,"time_elapsed":278025,"internal_node_id":"0.0-10.0-1.0","task_version":"1.0","jspsych_version":"6.3.1"},{"responses":["left/right arrow keys","False","True"],"num_errors":0,"rt":10616.100000023842,"quiz":2,"trial_type":"two-step-comprehension","trial_index":18,"time_elapsed":288643,"internal_node_id":"0.0-10.0-2.0","task_version":"1.0","jspsych_version":"6.3.1"},{"view_history":"[{\"page_index\":0,\"viewing_time\":5633.299999982119},{\"page_index\":1,\"viewing_time\":4237.9000000059605},{\"page_index\":2,\"viewing_time\":5273.9000000059605}]","rt":15145.299999982119,"trial_type":"two-step-instructions","trial_index":19,"time_elapsed":303791,"internal_node_id":"0.0-11.0-0.0","task_version":"1.0","jspsych_version":"6.3.1"},{"state_1_ids":[1,0],"state_1_key":0,"state_1_choice":1,"state_1_rt":1149.5,"transition":1,"state":1,"state_2_ids":[2,3],"state_2_key":0,"state_2_choice":2,"state_2_rt":867.5,"outcome":0,"rocket_colors":["#48a782","#955db9"],"planet_colors":["#5f6f81","#7f5d5d"],"screen_resolution":[1920,1080],"minimum_resolution":1,"trial":0,"trial_type":"two-step-trial","trial_index":20,"time_elapsed":307812,"internal_node_id":"0.0-11.0-1.0-0.0","task_version":"1.0","jspsych_version":"6.3.1","missing":false},{"state_1_ids":[0,1],"state_1_key":0,"state_1_choice":0,"state_1_rt":496.09999999403954,"transition":1,"state":0,"state_2_ids":[0,1],"state_2_key":0,"state_2_choice":0,"state_2_rt":757.5999999940395,"outcome":1,"rocket_colors":["#48a782","#955db9"],"planet_colors":["#5f6f81","#7f5d5d"],"screen_resolution":[1920,1080],"minimum_resolution":1,"trial":0,"trial_type":"two-step-trial","trial_index":21,"time_elapsed":311069,"internal_node_id":"0.0-11.0-1.0-0.1","task_version":"1.0","jspsych_version":"6.3.1","missing":false},{"state_1_ids":[0,1],"state_1_key":0,"state_1_choice":0,"state_1_rt":1711.300000011921,"transition":1,"state":0,"state_2_ids":[0,1],"state_2_key":0,"state_2_choice":0,"state_2_rt":538.5999999940395,"outcome":1,"rocket_colors":["#48a782","#955db9"],"planet_colors":["#5f6f81","#7f5d5d"],"screen_resolution":[1920,1080],"minimum_resolution":1,"trial":0,"trial_type":"two-step-trial","trial_index":22,"time_elapsed":315322,"internal_node_id":"0.0-11.0-1.0-0.2","task_version":"1.0","jspsych_version":"6.3.1","missing":false},{"state_1_ids":[1,0],"state_1_key":1,"state_1_choice":0,"state_1_rt":575.5999999940395,"transition":1,"state":0,"state_2_ids":[0,1],"state_2_key":0,"state_2_choice":0,"state_2_rt":388.90000000596046,"outcome":1,"rocket_colors":["#48a782","#955db9"],"planet_colors":["#5f6f81","#7f5d5d"],"screen_resolution":[1920,1080],"minimum_resolution":1,"trial":0,"trial_type":"two-step-trial","trial_index":23,"time_elapsed":318290,"internal_node_id":"0.0-11.0-1.0-0.3","task_version":"1.0","jspsych_version":"6.3.1","missing":false},{"state_1_ids":[1,0],"state_1_key":1,"state_1_choice":0,"state_1_rt":346.09999999403954,"transition":1,"state":0,"state_2_ids":[0,1],"state_2_key":0,"state_2_choice":0,"state_2_rt":376.7999999821186,"outcome":1,"rocket_colors":["#48a782","#955db9"],"planet_colors":["#5f6f81","#7f5d5d"],"screen_resolution":[1920,1080],"minimum_resolution":1,"trial":0,"trial_type":"two-step-trial","trial_index":24,"time_elapsed":321015,"internal_node_id":"0.0-11.0-1.0-0.4","task_version":"1.0","jspsych_version":"6.3.1","missing":false},{"state_1_ids":[1,0],"state_1_key":1,"state_1_choice":0,"state_1_rt":312,"transition":1,"state":0,"state_2_ids":[0,1],"state_2_key":0,"state_2_choice":0,"state_2_rt":287.40000000596046,"outcome":1,"rocket_colors":["#48a782","#955db9"],"planet_colors":["#5f6f81","#7f5d5d"],"screen_resolution":[1920,1080],"minimum_resolution":1,"trial":0,"trial_type":"two-step-trial","trial_index":25,"time_elapsed":323617,"internal_node_id":"0.0-11.0-1.0-0.5","task_version":"1.0","jspsych_version":"6.3.1","missing":false},{"state_1_ids":[0,1],"state_1_key":1,"state_1_choice":1,"state_1_rt":249.40000000596046,"transition":1,"state":1,"state_2_ids":[2,3],"state_2_key":1,"state_2_choice":3,"state_2_rt":475.40000000596046,"outcome":1,"rocket_colors":["#48a782","#955db9"],"planet_colors":["#5f6f81","#7f5d5d"],"screen_resolution":[1920,1080],"minimum_resolution":1,"trial":0,"trial_type":"two-step-trial","trial_index":26,"time_elapsed":326344,"internal_node_id":"0.0-11.0-1.0-0.6","task_version":"1.0","jspsych_version":"6.3.1","missing":false},{"state_1_ids":[0,1],"state_1_key":0,"state_1_choice":0,"state_1_rt":425.7999999821186,"transition":1,"state":0,"state_2_ids":[0,1],"state_2_key":0,"state_2_choice":0,"state_2_rt":378.7999999821186,"outcome":1,"rocket_colors":["#48a782","#955db9"],"planet_colors":["#5f6f81","#7f5d5d"],"screen_resolution":[1920,1080],"minimum_resolution":1,"trial":0,"trial_type":"two-step-trial","trial_index":27,"time_elapsed":329152,"internal_node_id":"0.0-11.0-1.0-0.7","task_version":"1.0","jspsych_version":"6.3.1","missing":false},{"state_1_ids":[0,1],"state_1_key":0,"state_1_choice":0,"state_1_rt":356.5,"transition":1,"state":0,"state_2_ids":[0,1],"state_2_key":0,"state_2_choice":0,"state_2_rt":224.2000000178814,"outcome":1,"rocket_colors":["#48a782","#955db9"],"planet_colors":["#5f6f81","#7f5d5d"],"screen_resolution":[1920,1080],"minimum_resolution":1,"trial":0,"trial_type":"two-step-trial","trial_index":28,"time_elapsed":331736,"internal_node_id":"0.0-11.0-1.0-0.8","task_version":"1.0","jspsych_version":"6.3.1","missing":false},{"state_1_ids":[0,1],"state_1_key":1,"state_1_choice":1,"state_1_rt":575.7999999821186,"transition":1,"state":1,"state_2_ids":[2,3],"state_2_key":1,"state_2_choice":3,"state_2_rt":1036.199999988079,"outcome":1,"rocket_colors":["#48a782","#955db9"],"planet_colors":["#5f6f81","#7f5d5d"],"screen_resolution":[1920,1080],"minimum_resolution":1,"trial":0,"trial_type":"two-step-trial","trial_index":29,"time_elapsed":335351,"internal_node_id":"0.0-11.0-1.0-0.9","task_version":"1.0","jspsych_version":"6.3.1","missing":false},{"view_history":"[{\"page_index\":0,\"viewing_time\":2419.5999999940395},{\"page_index\":1,\"viewing_time\":1848.7000000178814},{\"page_index\":2,\"viewing_time\":1497},{\"page_index\":3,\"viewing_time\":3967.0999999940395},{\"page_index\":4,\"viewing_time\":9181.09999999404},{\"page_index\":5,\"viewing_time\":9734.800000011921},{\"page_index\":6,\"viewing_time\":7112.199999988079}]","rt":35760.70000001788,"trial_type":"two-step-instructions","trial_index":30,"time_elapsed":371114,"internal_node_id":"0.0-12.0-1.0","task_version":"1.0","jspsych_version":"6.3.1"},{"responses":["True","False","True"],"num_errors":0,"rt":11896.09999999404,"quiz":3,"trial_type":"two-step-comprehension","trial_index":31,"time_elapsed":383012,"internal_node_id":"0.0-12.0-2.0","task_version":"1.0","jspsych_version":"6.3.1"},{"view_history":"[{\"page_index\":0,\"viewing_time\":1617.5999999940395},{\"page_index\":1,\"viewing_time\":2534.300000011921},{\"page_index\":2,\"viewing_time\":2413.7999999821186}]","rt":6566,"trial_type":"two-step-instructions","trial_index":32,"time_elapsed":389580,"internal_node_id":"0.0-13.0","task_version":"1.0","jspsych_version":"6.3.1"},{"state_1_ids":[0,1],"state_1_key":0,"state_1_choice":0,"state_1_rt":846.5,"transition":1,"state":0,"state_2_ids":[0,1],"state_2_key":0,"state_2_choice":0,"state_2_rt":484.30000001192093,"outcome":0,"rocket_colors":["#486ea7","#a75248"],"planet_colors":["#5b7c65","#706081"],"screen_resolution":[1920,1080],"minimum_resolution":1,"trial":1,"drifts":[0.44,0.385,0.62,0.421],"drift_ix":1,"trial_type":"two-step-trial","trial_index":33,"time_elapsed":392915,"internal_node_id":"0.0-14.0-0.0","task_version":"1.0","jspsych_version":"6.3.1","browser_interactions":0,"missing":false},{"state_1_ids":[0,1],"state_1_key":1,"state_1_choice":1,"state_1_rt":937.5999999940395,"transition":0,"state":0,"state_2_ids":[0,1],"state_2_key":1,"state_2_choice":1,"state_2_rt":674.2000000178814,"outcome":0,"rocket_colors":["#486ea7","#a75248"],"planet_colors":["#5b7c65","#706081"],"screen_resolution":[1920,1080],"minimum_resolution":1,"trial":2,"drifts":[0.427,0.383,0.623,0.388],"drift_ix":1,"trial_type":"two-step-trial","trial_index":34,"time_elapsed":396529,"internal_node_id":"0.0-15.0-0.0","task_version":"1.0","jspsych_version":"6.3.1","browser_interactions":0,"missing":false},{"state_1_ids":[0,1],"state_1_key":0,"state_1_choice":0,"state_1_rt":444.69999998807907,"transition":1,"state":0,"state_2_ids":[0,1],"state_2_key":0,"state_2_choice":0,"state_2_rt":842.0999999940395,"outcome":0,"rocket_colors":["#486ea7","#a75248"],"planet_colors":["#5b7c65","#706081"],"screen_resolution":[1920,1080],"minimum_resolution":1,"trial":3,"drifts":[0.366,0.399,0.638,0.394],"drift_ix":1,"trial_type":"two-step-trial","trial_index":35,"time_elapsed":399818,"internal_node_id":"0.0-16.0-0.0","task_version":"1.0","jspsych_version":"6.3.1","browser_interactions":0,"missing":false},{"state_1_ids":[0,1],"state_1_key":0,"state_1_choice":0,"state_1_rt":199.7000000178814,"transition":1,"state":0,"state_2_ids":[0,1],"state_2_key":1,"state_2_choice":1,"state_2_rt":476.19999998807907,"outcome":1,"rocket_colors":["#486ea7","#a75248"],"planet_colors":["#5b7c65","#706081"],"screen_resolution":[1920,1080],"minimum_resolution":1,"trial":4,"drifts":[0.352,0.371,0.644,0.424],"drift_ix":1,"trial_type":"two-step-trial","trial_index":36,"time_elapsed":402498,"internal_node_id":"0.0-17.0-0.0","task_version":"1.0","jspsych_version":"6.3.1","browser_interactions":0,"missing":false},{"state_1_ids":[1,0],"state_1_key":1,"state_1_choice":0,"state_1_rt":1433,"transition":0,"state":1,"state_2_ids":[2,3],"state_2_key":1,"state_2_choice":3,"state_2_rt":236.80000001192093,"outcome":0,"rocket_colors":["#486ea7","#a75248"],"planet_colors":["#5b7c65","#706081"],"screen_resolution":[1920,1080],"minimum_resolution":1,"trial":5,"drifts":[0.387,0.418,0.671,0.445],"drift_ix":1,"trial_type":"two-step-trial","trial_index":37,"time_elapsed":406171,"internal_node_id":"0.0-18.0-0.0","task_version":"1.0","jspsych_version":"6.3.1","browser_interactions":0,"missing":false},{"state_1_ids":[0,1],"state_1_key":0,"state_1_choice":0,"state_1_rt":474.90000000596046,"transition":1,"state":0,"state_2_ids":[0,1],"state_2_key":1,"state_2_choice":1,"state_2_rt":571.9000000059605,"outcome":0,"rocket_colors":["#486ea7","#a75248"],"planet_colors":["#5b7c65","#706081"],"screen_resolution":[1920,1080],"minimum_resolution":1,"trial":6,"drifts":[0.376,0.44,0.655,0.477],"drift_ix":1,"trial_type":"two-step-trial","trial_index":38,"time_elapsed":409220,"internal_node_id":"0.0-19.0-0.0","task_version":"1.0","jspsych_version":"6.3.1","browser_interactions":0,"missing":false},{"state_1_ids":[1,0],"state_1_key":1,"state_1_choice":0,"state_1_rt":448.40000000596046,"transition":1,"state":0,"state_2_ids":[0,1],"state_2_key":1,"state_2_choice":1,"state_2_rt":280.30000001192093,"outcome":1,"rocket_colors":["#486ea7","#a75248"],"planet_colors":["#5b7c65","#706081"],"screen_resolution":[1920,1080],"minimum_resolution":1,"trial":7,"drifts":[0.376,0.46,0.674,0.453],"drift_ix":1,"trial_type":"two-step-trial","trial_index":39,"time_elapsed":411953,"internal_node_id":"0.0-20.0-0.0","task_version":"1.0","jspsych_version":"6.3.1","browser_interactions":0,"missing":false},{"state_1_ids":[0,1],"state_1_key":1,"state_1_choice":1,"state_1_rt":262.7000000178814,"transition":1,"state":1,"state_2_ids":[2,3],"state_2_key":0,"state_2_choice":2,"state_2_rt":366.2000000178814,"outcome":1,"rocket_colors":["#486ea7","#a75248"],"planet_colors":["#5b7c65","#706081"],"screen_resolution":[1920,1080],"minimum_resolution":1,"trial":8,"drifts":[0.37,0.476,0.645,0.47],"drift_ix":1,"trial_type":"two-step-trial","trial_index":40,"time_elapsed":414585,"internal_node_id":"0.0-21.0-0.0","task_version":"1.0","jspsych_version":"6.3.1","browser_interactions":0,"missing":false},{"state_1_ids":[1,0],"state_1_key":0,"state_1_choice":1,"state_1_rt":323.09999999403954,"transition":1,"state":1,"state_2_ids":[2,3],"state_2_key":0,"state_2_choice":2,"state_2_rt":596.5999999940395,"outcome":1,"rocket_colors":["#486ea7","#a75248"],"planet_colors":["#5b7c65","#706081"],"screen_resolution":[1920,1080],"minimum_resolution":1,"trial":9,"drifts":[0.349,0.439,0.653,0.482],"drift_ix":1,"trial_type":"two-step-trial","trial_index":41,"time_elapsed":417508,"internal_node_id":"0.0-22.0-0.0","task_version":"1.0","jspsych_version":"6.3.1","browser_interactions":0,"missing":false},{"state_1_ids":[1,0],"state_1_key":1,"state_1_choice":0,"state_1_rt":120.59999999403954,"transition":1,"state":0,"state_2_ids":[0,1],"state_2_key":1,"state_2_choice":1,"state_2_rt":660.8000000119209,"outcome":1,"rocket_colors":["#486ea7","#a75248"],"planet_colors":["#5b7c65","#706081"],"screen_resolution":[1920,1080],"minimum_resolution":1,"trial":10,"drifts":[0.347,0.471,0.629,0.478],"drift_ix":1,"trial_type":"two-step-trial","trial_index":42,"time_elapsed":420293,"internal_node_id":"0.0-23.0-0.0","task_version":"1.0","jspsych_version":"6.3.1","browser_interactions":0,"missing":false},{"state_1_ids":[1,0],"state_1_key":0,"state_1_choice":1,"state_1_rt":390.60000002384186,"transition":1,"state":1,"state_2_ids":[2,3],"state_2_key":0,"state_2_choice":2,"state_2_rt":463.5,"outcome":1,"rocket_colors":["#486ea7","#a75248"],"planet_colors":["#5b7c65","#706081"],"screen_resolution":[1920,1080],"minimum_resolution":1,"trial":11,"drifts":[0.346,0.411,0.666,0.456],"drift_ix":1,"trial_type":"two-step-trial","trial_index":43,"time_elapsed":423150,"internal_node_id":"0.0-24.0-0.0","task_version":"1.0","jspsych_version":"6.3.1","browser_interactions":0,"missing":false},{"state_1_ids":[0,1],"state_1_key":1,"state_1_choice":1,"state_1_rt":191.7000000178814,"transition":1,"state":1,"state_2_ids":[2,3],"state_2_key":0,"state_2_choice":2,"state_2_rt":602.5999999940395,"outcome":1,"rocket_colors":["#486ea7","#a75248"],"planet_colors":["#5b7c65","#706081"],"screen_resolution":[1920,1080],"minimum_resolution":1,"trial":12,"drifts":[0.371,0.413,0.638,0.405],"drift_ix":1,"trial_type":"two-step-trial","trial_index":44,"time_elapsed":425946,"internal_node_id":"0.0-25.0-0.0","task_version":"1.0","jspsych_version":"6.3.1","browser_interactions":0,"missing":false},{"state_1_ids":[1,0],"state_1_key":1,"state_1_choice":0,"state_1_rt":235.5,"transition":1,"state":0,"state_2_ids":[0,1],"state_2_key":1,"state_2_choice":1,"state_2_rt":521.8000000119209,"outcome":0,"rocket_colors":["#486ea7","#a75248"],"planet_colors":["#5b7c65","#706081"],"screen_resolution":[1920,1080],"minimum_resolution":1,"trial":13,"drifts":[0.354,0.425,0.641,0.388],"drift_ix":1,"trial_type":"two-step-trial","trial_index":45,"time_elapsed":428708,"internal_node_id":"0.0-26.0-0.0","task_version":"1.0","jspsych_version":"6.3.1","browser_interactions":0,"missing":false},{"state_1_ids":[0,1],"state_1_key":1,"state_1_choice":1,"state_1_rt":165.40000000596046,"transition":0,"state":0,"state_2_ids":[0,1],"state_2_key":1,"state_2_choice":1,"state_2_rt":460.80000001192093,"outcome":1,"rocket_colors":["#486ea7","#a75248"],"planet_colors":["#5b7c65","#706081"],"screen_resolution":[1920,1080],"minimum_resolution":1,"trial":14,"drifts":[0.315,0.45,0.635,0.335],"drift_ix":1,"trial_type":"two-step-trial","trial_index":46,"time_elapsed":431338,"internal_node_id":"0.0-27.0-0.0","task_version":"1.0","jspsych_version":"6.3.1","browser_interactions":0,"missing":false},{"state_1_ids":[0,1],"state_1_key":1,"state_1_choice":1,"state_1_rt":199.39999997615814,"transition":1,"state":1,"state_2_ids":[2,3],"state_2_key":0,"state_2_choice":2,"state_2_rt":420.90000000596046,"outcome":1,"rocket_colors":["#486ea7","#a75248"],"planet_colors":["#5b7c65","#706081"],"screen_resolution":[1920,1080],"minimum_resolution":1,"trial":15,"drifts":[0.291,0.41,0.635,0.339],"drift_ix":1,"trial_type":"two-step-trial","trial_index":47,"time_elapsed":433962,"internal_node_id":"0.0-28.0-0.0","task_version":"1.0","jspsych_version":"6.3.1","browser_interactions":0,"missing":false},{"state_1_ids":[0,1],"state_1_key":1,"state_1_choice":1,"state_1_rt":24.099999994039536,"transition":1,"state":1,"state_2_ids":[2,3],"state_2_key":0,"state_2_choice":2,"state_2_rt":384.2000000178814,"outcome":0,"rocket_colors":["#486ea7","#a75248"],"planet_colors":["#5b7c65","#706081"],"screen_resolution":[1920,1080],"minimum_resolution":1,"trial":16,"drifts":[0.3,0.409,0.61,0.364],"drift_ix":1,"trial_type":"two-step-trial","trial_index":48,"time_elapsed":436373,"internal_node_id":"0.0-29.0-0.0","task_version":"1.0","jspsych_version":"6.3.1","browser_interactions":0,"missing":false},{"state_1_ids":[0,1],"state_1_key":1,"state_1_choice":1,"state_1_rt":187.09999999403954,"transition":0,"state":0,"state_2_ids":[0,1],"state_2_key":0,"state_2_choice":0,"state_2_rt":351.59999999403954,"outcome":0,"rocket_colors":["#486ea7","#a75248"],"planet_colors":["#5b7c65","#706081"],"screen_resolution":[1920,1080],"minimum_resolution":1,"trial":17,"drifts":[0.3,0.418,0.639,0.392],"drift_ix":1,"trial_type":"two-step-trial","trial_index":49,"time_elapsed":438916,"internal_node_id":"0.0-30.0-0.0","task_version":"1.0","jspsych_version":"6.3.1","browser_interactions":0,"missing":false},{"state_1_ids":[1,0],"state_1_key":1,"state_1_choice":0,"state_1_rt":138,"transition":0,"state":1,"state_2_ids":[2,3],"state_2_key":0,"state_2_choice":2,"state_2_rt":585.2000000178814,"outcome":0,"rocket_colors":["#486ea7","#a75248"],"planet_colors":["#5b7c65","#706081"],"screen_resolution":[1920,1080],"minimum_resolution":1,"trial":18,"drifts":[0.308,0.463,0.63,0.375],"drift_ix":1,"trial_type":"two-step-trial","trial_index":50,"time_elapsed":441642,"internal_node_id":"0.0-31.0-0.0","task_version":"1.0","jspsych_version":"6.3.1","browser_interactions":0,"missing":false},{"state_1_ids":[0,1],"state_1_key":1,"state_1_choice":1,"state_1_rt":21.400000005960464,"transition":1,"state":1,"state_2_ids":[2,3],"state_2_key":0,"state_2_choice":2,"state_2_rt":498.5,"outcome":1,"rocket_colors":["#486ea7","#a75248"],"planet_colors":["#5b7c65","#706081"],"screen_resolution":[1920,1080],"minimum_resolution":1,"trial":19,"drifts":[0.345,0.475,0.617,0.402],"drift_ix":1,"trial_type":"two-step-trial","trial_index":51,"time_elapsed":444165,"internal_node_id":"0.0-32.0-0.0","task_version":"1.0","jspsych_version":"6.3.1","browser_interactions":0,"missing":false},{"state_1_ids":[0,1],"state_1_key":1,"state_1_choice":1,"state_1_rt":236.19999998807907,"transition":0,"state":0,"state_2_ids":[0,1],"state_2_key":1,"state_2_choice":1,"state_2_rt":599.5999999940395,"outcome":0,"rocket_colors":["#486ea7","#a75248"],"planet_colors":["#5b7c65","#706081"],"screen_resolution":[1920,1080],"minimum_resolution":1,"trial":20,"drifts":[0.39,0.463,0.595,0.433],"drift_ix":1,"trial_type":"two-step-trial","trial_index":52,"time_elapsed":447003,"internal_node_id":"0.0-33.0-0.0","task_version":"1.0","jspsych_version":"6.3.1","browser_interactions":0,"missing":false},{"state_1_ids":[0,1],"state_1_key":0,"state_1_choice":0,"state_1_rt":137.80000001192093,"transition":1,"state":0,"state_2_ids":[0,1],"state_2_key":1,"state_2_choice":1,"state_2_rt":538.1000000238419,"outcome":0,"rocket_colors":["#486ea7","#a75248"],"planet_colors":["#5b7c65","#706081"],"screen_resolution":[1920,1080],"minimum_resolution":1,"trial":21,"drifts":[0.413,0.433,0.607,0.447],"drift_ix":1,"trial_type":"two-step-trial","trial_index":53,"time_elapsed":449690,"internal_node_id":"0.0-34.0-0.0","task_version":"1.0","jspsych_version":"6.3.1","browser_interactions":0,"missing":false},{"state_1_ids":[1,0],"state_1_key":0,"state_1_choice":1,"state_1_rt":232.5,"transition":1,"state":1,"state_2_ids":[2,3],"state_2_key":0,"state_2_choice":2,"state_2_rt":460.5,"outcome":0,"rocket_colors":["#486ea7","#a75248"],"planet_colors":["#5b7c65","#706081"],"screen_resolution":[1920,1080],"minimum_resolution":1,"trial":22,"drifts":[0.397,0.431,0.605,0.426],"drift_ix":1,"trial_type":"two-step-trial","trial_index":54,"time_elapsed":452387,"internal_node_id":"0.0-35.0-0.0","task_version":"1.0","jspsych_version":"6.3.1","browser_interactions":0,"missing":false},{"state_1_ids":[1,0],"state_1_key":0,"state_1_choice":1,"state_1_rt":284,"transition":1,"state":1,"state_2_ids":[2,3],"state_2_key":0,"state_2_choice":2,"state_2_rt":371.5,"outcome":0,"rocket_colors":["#486ea7","#a75248"],"planet_colors":["#5b7c65","#706081"],"screen_resolution":[1920,1080],"minimum_resolution":1,"trial":23,"drifts":[0.375,0.426,0.617,0.383],"drift_ix":1,"trial_type":"two-step-trial","trial_index":55,"time_elapsed":455046,"internal_node_id":"0.0-36.0-0.0","task_version":"1.0","jspsych_version":"6.3.1","browser_interactions":0,"missing":false},{"state_1_ids":[0,1],"state_1_key":0,"state_1_choice":0,"state_1_rt":180.80000001192093,"transition":1,"state":0,"state_2_ids":[0,1],"state_2_key":1,"state_2_choice":1,"state_2_rt":411.40000000596046,"outcome":1,"rocket_colors":["#486ea7","#a75248"],"planet_colors":["#5b7c65","#706081"],"screen_resolution":[1920,1080],"minimum_resolution":1,"trial":24,"drifts":[0.396,0.432,0.631,0.356],"drift_ix":1,"trial_type":"two-step-trial","trial_index":56,"time_elapsed":457642,"internal_node_id":"0.0-37.0-0.0","task_version":"1.0","jspsych_version":"6.3.1","browser_interactions":0,"missing":false},{"state_1_ids":[1,0],"state_1_key":0,"state_1_choice":1,"state_1_rt":109.80000001192093,"transition":1,"state":1,"state_2_ids":[2,3],"state_2_key":0,"state_2_choice":2,"state_2_rt":447.2000000178814,"outcome":0,"rocket_colors":["#486ea7","#a75248"],"planet_colors":["#5b7c65","#706081"],"screen_resolution":[1920,1080],"minimum_resolution":1,"trial":25,"drifts":[0.352,0.393,0.634,0.357],"drift_ix":1,"trial_type":"two-step-trial","trial_index":57,"time_elapsed":460202,"internal_node_id":"0.0-38.0-0.0","task_version":"1.0","jspsych_version":"6.3.1","browser_interactions":0,"missing":false},{"state_1_ids":[1,0],"state_1_key":0,"state_1_choice":1,"state_1_rt":126.59999999403954,"transition":1,"state":1,"state_2_ids":[2,3],"state_2_key":1,"state_2_choice":3,"state_2_rt":409.90000000596046,"outcome":0,"rocket_colors":["#486ea7","#a75248"],"planet_colors":["#5b7c65","#706081"],"screen_resolution":[1920,1080],"minimum_resolution":1,"trial":26,"drifts":[0.379,0.371,0.632,0.315],"drift_ix":1,"trial_type":"two-step-trial","trial_index":58,"time_elapsed":462741,"internal_node_id":"0.0-39.0-0.0","task_version":"1.0","jspsych_version":"6.3.1","browser_interactions":0,"missing":false},{"state_1_ids":[1,0],"state_1_key":0,"state_1_choice":1,"state_1_rt":138.10000002384186,"transition":1,"state":1,"state_2_ids":[2,3],"state_2_key":0,"state_2_choice":2,"state_2_rt":371.09999999403954,"outcome":1,"rocket_colors":["#486ea7","#a75248"],"planet_colors":["#5b7c65","#706081"],"screen_resolution":[1920,1080],"minimum_resolution":1,"trial":27,"drifts":[0.44,0.355,0.639,0.305],"drift_ix":1,"trial_type":"two-step-trial","trial_index":59,"time_elapsed":465254,"internal_node_id":"0.0-40.0-0.0","task_version":"1.0","jspsych_version":"6.3.1","browser_interactions":0,"missing":false},{"state_1_ids":[1,0],"state_1_key":0,"state_1_choice":1,"state_1_rt":164.7000000178814,"transition":0,"state":0,"state_2_ids":[0,1],"state_2_key":1,"state_2_choice":1,"state_2_rt":372.40000000596046,"outcome":0,"rocket_colors":["#486ea7","#a75248"],"planet_colors":["#5b7c65","#706081"],"screen_resolution":[1920,1080],"minimum_resolution":1,"trial":28,"drifts":[0.473,0.399,0.627,0.311],"drift_ix":1,"trial_type":"two-step-trial","trial_index":60,"time_elapsed":467794,"internal_node_id":"0.0-41.0-0.0","task_version":"1.0","jspsych_version":"6.3.1","browser_interactions":0,"missing":false},{"state_1_ids":[1,0],"state_1_key":0,"state_1_choice":1,"state_1_rt":79.5,"transition":1,"state":1,"state_2_ids":[2,3],"state_2_key":0,"state_2_choice":2,"state_2_rt":347.7000000178814,"outcome":0,"rocket_colors":["#486ea7","#a75248"],"planet_colors":["#5b7c65","#706081"],"screen_resolution":[1920,1080],"minimum_resolution":1,"trial":29,"drifts":[0.47,0.426,0.594,0.318],"drift_ix":1,"trial_type":"two-step-trial","trial_index":61,"time_elapsed":470226,"internal_node_id":"0.0-42.0-0.0","task_version":"1.0","jspsych_version":"6.3.1","browser_interactions":0,"missing":false},{"state_1_ids":[1,0],"state_1_key":0,"state_1_choice":1,"state_1_rt":95.59999999403954,"transition":1,"state":1,"state_2_ids":[2,3],"state_2_key":0,"state_2_choice":2,"state_2_rt":288.40000000596046,"outcome":1,"rocket_colors":["#486ea7","#a75248"],"planet_colors":["#5b7c65","#706081"],"screen_resolution":[1920,1080],"minimum_resolution":1,"trial":30,"drifts":[0.455,0.475,0.559,0.323],"drift_ix":1,"trial_type":"two-step-trial","trial_index":62,"time_elapsed":472613,"internal_node_id":"0.0-43.0-0.0","task_version":"1.0","jspsych_version":"6.3.1","browser_interactions":0,"missing":false},{"state_1_ids":[0,1],"state_1_key":0,"state_1_choice":0,"state_1_rt":54.10000002384186,"transition":0,"state":1,"state_2_ids":[2,3],"state_2_key":0,"state_2_choice":2,"state_2_rt":334,"outcome":1,"rocket_colors":["#486ea7","#a75248"],"planet_colors":["#5b7c65","#706081"],"screen_resolution":[1920,1080],"minimum_resolution":1,"trial":31,"drifts":[0.435,0.51,0.608,0.321],"drift_ix":1,"trial_type":"two-step-trial","trial_index":63,"time_elapsed":475016,"internal_node_id":"0.0-44.0-0.0","task_version":"1.0","jspsych_version":"6.3.1","browser_interactions":0,"missing":false},{"state_1_ids":[0,1],"state_1_key":0,"state_1_choice":0,"state_1_rt":170.60000002384186,"transition":1,"state":0,"state_2_ids":[0,1],"state_2_key":1,"state_2_choice":1,"state_2_rt":434.7999999821186,"outcome":1,"rocket_colors":["#486ea7","#a75248"],"planet_colors":["#5b7c65","#706081"],"screen_resolution":[1920,1080],"minimum_resolution":1,"trial":32,"drifts":[0.415,0.507,0.579,0.317],"drift_ix":1,"trial_type":"two-step-trial","trial_index":64,"time_elapsed":477624,"internal_node_id":"0.0-45.0-0.0","task_version":"1.0","jspsych_version":"6.3.1","browser_interactions":0,"missing":false},{"state_1_ids":[0,1],"state_1_key":0,"state_1_choice":0,"state_1_rt":403.5,"transition":1,"state":0,"state_2_ids":[0,1],"state_2_key":1,"state_2_choice":1,"state_2_rt":403.30000001192093,"outcome":1,"rocket_colors":["#486ea7","#a75248"],"planet_colors":["#5b7c65","#706081"],"screen_resolution":[1920,1080],"minimum_resolution":1,"trial":33,"drifts":[0.459,0.542,0.595,0.302],"drift_ix":1,"trial_type":"two-step-trial","trial_index":65,"time_elapsed":480434,"internal_node_id":"0.0-46.0-0.0","task_version":"1.0","jspsych_version":"6.3.1","browser_interactions":0,"missing":false},{"state_1_ids":[0,1],"state_1_key":0,"state_1_choice":0,"state_1_rt":118.10000002384186,"transition":1,"state":0,"state_2_ids":[0,1],"state_2_key":1,"state_2_choice":1,"state_2_rt":370.09999999403954,"outcome":1,"rocket_colors":["#486ea7","#a75248"],"planet_colors":["#5b7c65","#706081"],"screen_resolution":[1920,1080],"minimum_resolution":1,"trial":34,"drifts":[0.491,0.491,0.597,0.309],"drift_ix":1,"trial_type":"two-step-trial","trial_index":66,"time_elapsed":482925,"internal_node_id":"0.0-47.0-0.0","task_version":"1.0","jspsych_version":"6.3.1","browser_interactions":0,"missing":false},{"state_1_ids":[0,1],"state_1_key":0,"state_1_choice":0,"state_1_rt":218.90000000596046,"transition":1,"state":0,"state_2_ids":[0,1],"state_2_key":1,"state_2_choice":1,"state_2_rt":356.80000001192093,"outcome":0,"rocket_colors":["#486ea7","#a75248"],"planet_colors":["#5b7c65","#706081"],"screen_resolution":[1920,1080],"minimum_resolution":1,"trial":35,"drifts":[0.474,0.513,0.589,0.338],"drift_ix":1,"trial_type":"two-step-trial","trial_index":67,"time_elapsed":485503,"internal_node_id":"0.0-48.0-0.0","task_version":"1.0","jspsych_version":"6.3.1","browser_interactions":0,"missing":false},{"state_1_ids":[1,0],"state_1_key":0,"state_1_choice":1,"state_1_rt":107.19999998807907,"transition":1,"state":1,"state_2_ids":[2,3],"state_2_key":1,"state_2_choice":3,"state_2_rt":272.09999999403954,"outcome":1,"rocket_colors":["#486ea7","#a75248"],"planet_colors":["#5b7c65","#706081"],"screen_resolution":[1920,1080],"minimum_resolution":1,"trial":36,"drifts":[0.457,0.538,0.559,0.332],"drift_ix":1,"trial_type":"two-step-trial","trial_index":68,"time_elapsed":487886,"internal_node_id":"0.0-49.0-0.0","task_version":"1.0","jspsych_version":"6.3.1","browser_interactions":0,"missing":false},{"state_1_ids":[0,1],"state_1_key":0,"state_1_choice":0,"state_1_rt":51.60000002384186,"transition":1,"state":0,"state_2_ids":[0,1],"state_2_key":1,"state_2_choice":1,"state_2_rt":773.6999999880791,"outcome":1,"rocket_colors":["#486ea7","#a75248"],"planet_colors":["#5b7c65","#706081"],"screen_resolution":[1920,1080],"minimum_resolution":1,"trial":37,"drifts":[0.485,0.54,0.582,0.328],"drift_ix":1,"trial_type":"two-step-trial","trial_index":69,"time_elapsed":490714,"internal_node_id":"0.0-50.0-0.0","task_version":"1.0","jspsych_version":"6.3.1","browser_interactions":0,"missing":false},{"state_1_ids":[1,0],"state_1_key":0,"state_1_choice":1,"state_1_rt":409.30000001192093,"transition":1,"state":1,"state_2_ids":[2,3],"state_2_key":1,"state_2_choice":3,"state_2_rt":363.90000000596046,"outcome":0,"rocket_colors":["#486ea7","#a75248"],"planet_colors":["#5b7c65","#706081"],"screen_resolution":[1920,1080],"minimum_resolution":1,"trial":38,"drifts":[0.448,0.561,0.557,0.342],"drift_ix":1,"trial_type":"two-step-trial","trial_index":70,"time_elapsed":493492,"internal_node_id":"0.0-51.0-0.0","task_version":"1.0","jspsych_version":"6.3.1","browser_interactions":0,"missing":false},{"state_1_ids":[0,1],"state_1_key":0,"state_1_choice":0,"state_1_rt":113,"transition":0,"state":1,"state_2_ids":[2,3],"state_2_key":0,"state_2_choice":2,"state_2_rt":350.40000000596046,"outcome":0,"rocket_colors":["#486ea7","#a75248"],"planet_colors":["#5b7c65","#706081"],"screen_resolution":[1920,1080],"minimum_resolution":1,"trial":39,"drifts":[0.401,0.544,0.587,0.37],"drift_ix":1,"trial_type":"two-step-trial","trial_index":71,"time_elapsed":495959,"internal_node_id":"0.0-52.0-0.0","task_version":"1.0","jspsych_version":"6.3.1","browser_interactions":0,"missing":false},{"state_1_ids":[0,1],"state_1_key":1,"state_1_choice":1,"state_1_rt":206.80000001192093,"transition":1,"state":1,"state_2_ids":[2,3],"state_2_key":0,"state_2_choice":2,"state_2_rt":420.30000001192093,"outcome":1,"rocket_colors":["#486ea7","#a75248"],"planet_colors":["#5b7c65","#706081"],"screen_resolution":[1920,1080],"minimum_resolution":1,"trial":40,"drifts":[0.404,0.536,0.602,0.375],"drift_ix":1,"trial_type":"two-step-trial","trial_index":72,"time_elapsed":498589,"internal_node_id":"0.0-53.0-0.0","task_version":"1.0","jspsych_version":"6.3.1","browser_interactions":0,"missing":false},{"state_1_ids":[0,1],"state_1_key":1,"state_1_choice":1,"state_1_rt":212.2000000178814,"transition":1,"state":1,"state_2_ids":[2,3],"state_2_key":0,"state_2_choice":2,"state_2_rt":375.69999998807907,"outcome":0,"rocket_colors":["#486ea7","#a75248"],"planet_colors":["#5b7c65","#706081"],"screen_resolution":[1920,1080],"minimum_resolution":1,"trial":41,"drifts":[0.396,0.535,0.6,0.41],"drift_ix":1,"trial_type":"two-step-trial","trial_index":73,"time_elapsed":501179,"internal_node_id":"0.0-54.0-0.0","task_version":"1.0","jspsych_version":"6.3.1","browser_interactions":0,"missing":false},{"state_1_ids":[1,0],"state_1_key":1,"state_1_choice":0,"state_1_rt":217.60000002384186,"transition":0,"state":1,"state_2_ids":[2,3],"state_2_key":1,"state_2_choice":3,"state_2_rt":579.3999999761581,"outcome":0,"rocket_colors":["#486ea7","#a75248"],"planet_colors":["#5b7c65","#706081"],"screen_resolution":[1920,1080],"minimum_resolution":1,"trial":42,"drifts":[0.406,0.554,0.6,0.432],"drift_ix":1,"trial_type":"two-step-trial","trial_index":74,"time_elapsed":503979,"internal_node_id":"0.0-55.0-0.0","task_version":"1.0","jspsych_version":"6.3.1","browser_interactions":0,"missing":false},{"state_1_ids":[1,0],"state_1_key":0,"state_1_choice":1,"state_1_rt":190.40000000596046,"transition":1,"state":1,"state_2_ids":[2,3],"state_2_key":1,"state_2_choice":3,"state_2_rt":371.40000000596046,"outcome":1,"rocket_colors":["#486ea7","#a75248"],"planet_colors":["#5b7c65","#706081"],"screen_resolution":[1920,1080],"minimum_resolution":1,"trial":43,"drifts":[0.381,0.564,0.612,0.443],"drift_ix":1,"trial_type":"two-step-trial","trial_index":75,"time_elapsed":506544,"internal_node_id":"0.0-56.0-0.0","task_version":"1.0","jspsych_version":"6.3.1","browser_interactions":0,"missing":false},{"state_1_ids":[0,1],"state_1_key":1,"state_1_choice":1,"state_1_rt":174.39999997615814,"transition":0,"state":0,"state_2_ids":[0,1],"state_2_key":1,"state_2_choice":1,"state_2_rt":556.0999999940395,"outcome":1,"rocket_colors":["#486ea7","#a75248"],"planet_colors":["#5b7c65","#706081"],"screen_resolution":[1920,1080],"minimum_resolution":1,"trial":44,"drifts":[0.375,0.564,0.659,0.454],"drift_ix":1,"trial_type":"two-step-trial","trial_index":76,"time_elapsed":509278,"internal_node_id":"0.0-57.0-0.0","task_version":"1.0","jspsych_version":"6.3.1","browser_interactions":0,"missing":false},{"state_1_ids":[1,0],"state_1_key":1,"state_1_choice":0,"state_1_rt":221.10000002384186,"transition":0,"state":1,"state_2_ids":[2,3],"state_2_key":1,"state_2_choice":3,"state_2_rt":283.5,"outcome":1,"rocket_colors":["#486ea7","#a75248"],"planet_colors":["#5b7c65","#706081"],"screen_resolution":[1920,1080],"minimum_resolution":1,"trial":45,"drifts":[0.37,0.592,0.676,0.446],"drift_ix":1,"trial_type":"two-step-trial","trial_index":77,"time_elapsed":511785,"internal_node_id":"0.0-58.0-0.0","task_version":"1.0","jspsych_version":"6.3.1","browser_interactions":0,"missing":false},{"state_1_ids":[0,1],"state_1_key":1,"state_1_choice":1,"state_1_rt":201.60000002384186,"transition":1,"state":1,"state_2_ids":[2,3],"state_2_key":1,"state_2_choice":3,"state_2_rt":374.40000000596046,"outcome":0,"rocket_colors":["#486ea7","#a75248"],"planet_colors":["#5b7c65","#706081"],"screen_resolution":[1920,1080],"minimum_resolution":1,"trial":46,"drifts":[0.369,0.571,0.682,0.419],"drift_ix":1,"trial_type":"two-step-trial","trial_index":78,"time_elapsed":514364,"internal_node_id":"0.0-59.0-0.0","task_version":"1.0","jspsych_version":"6.3.1","browser_interactions":0,"missing":false},{"state_1_ids":[1,0],"state_1_key":1,"state_1_choice":0,"state_1_rt":191.39999997615814,"transition":1,"state":0,"state_2_ids":[0,1],"state_2_key":1,"state_2_choice":1,"state_2_rt":354.5,"outcome":1,"rocket_colors":["#486ea7","#a75248"],"planet_colors":["#5b7c65","#706081"],"screen_resolution":[1920,1080],"minimum_resolution":1,"trial":47,"drifts":[0.392,0.532,0.65,0.4],"drift_ix":1,"trial_type":"two-step-trial","trial_index":79,"time_elapsed":516913,"internal_node_id":"0.0-60.0-0.0","task_version":"1.0","jspsych_version":"6.3.1","browser_interactions":0,"missing":false},{"state_1_ids":[1,0],"state_1_key":1,"state_1_choice":0,"state_1_rt":332,"transition":0,"state":1,"state_2_ids":[2,3],"state_2_key":0,"state_2_choice":2,"state_2_rt":657,"outcome":0,"rocket_colors":["#486ea7","#a75248"],"planet_colors":["#5b7c65","#706081"],"screen_resolution":[1920,1080],"minimum_resolution":1,"trial":48,"drifts":[0.412,0.529,0.637,0.409],"drift_ix":1,"trial_type":"two-step-trial","trial_index":80,"time_elapsed":519906,"internal_node_id":"0.0-61.0-0.0","task_version":"1.0","jspsych_version":"6.3.1","browser_interactions":0,"missing":false},{"state_1_ids":[1,0],"state_1_key":1,"state_1_choice":0,"state_1_rt":264.30000001192093,"transition":1,"state":0,"state_2_ids":[0,1],"state_2_key":1,"state_2_choice":1,"state_2_rt":346.5,"outcome":0,"rocket_colors":["#486ea7","#a75248"],"planet_colors":["#5b7c65","#706081"],"screen_resolution":[1920,1080],"minimum_resolution":1,"trial":49,"drifts":[0.41,0.533,0.637,0.402],"drift_ix":1,"trial_type":"two-step-trial","trial_index":81,"time_elapsed":522520,"internal_node_id":"0.0-62.0-0.0","task_version":"1.0","jspsych_version":"6.3.1","browser_interactions":0,"missing":false},{"state_1_ids":[1,0],"state_1_key":1,"state_1_choice":0,"state_1_rt":300.2000000178814,"transition":0,"state":1,"state_2_ids":[2,3],"state_2_key":0,"state_2_choice":2,"state_2_rt":756.9000000059605,"outcome":0,"rocket_colors":["#486ea7","#a75248"],"planet_colors":["#5b7c65","#706081"],"screen_resolution":[1920,1080],"minimum_resolution":1,"trial":50,"drifts":[0.394,0.554,0.63,0.39],"drift_ix":1,"trial_type":"two-step-trial","trial_index":82,"time_elapsed":525580,"internal_node_id":"0.0-63.0-0.0","task_version":"1.0","jspsych_version":"6.3.1","browser_interactions":0,"missing":false},{"state_1_ids":[1,0],"state_1_key":1,"state_1_choice":0,"state_1_rt":180.7000000178814,"transition":0,"state":1,"state_2_ids":[2,3],"state_2_key":1,"state_2_choice":3,"state_2_rt":955.1000000238419,"outcome":1,"rocket_colors":["#486ea7","#a75248"],"planet_colors":["#5b7c65","#706081"],"screen_resolution":[1920,1080],"minimum_resolution":1,"trial":51,"drifts":[0.351,0.543,0.599,0.412],"drift_ix":1,"trial_type":"two-step-trial","trial_index":83,"time_elapsed":528719,"internal_node_id":"0.0-64.0-0.0","task_version":"1.0","jspsych_version":"6.3.1","browser_interactions":0,"missing":false},{"state_1_ids":[1,0],"state_1_key":1,"state_1_choice":0,"state_1_rt":278.59999999403954,"transition":0,"state":1,"state_2_ids":[2,3],"state_2_key":1,"state_2_choice":3,"state_2_rt":356.69999998807907,"outcome":1,"rocket_colors":["#486ea7","#a75248"],"planet_colors":["#5b7c65","#706081"],"screen_resolution":[1920,1080],"minimum_resolution":1,"trial":52,"drifts":[0.355,0.541,0.573,0.402],"drift_ix":1,"trial_type":"two-step-trial","trial_index":84,"time_elapsed":531357,"internal_node_id":"0.0-65.0-0.0","task_version":"1.0","jspsych_version":"6.3.1","browser_interactions":0,"missing":false},{"state_1_ids":[0,1],"state_1_key":1,"state_1_choice":1,"state_1_rt":301.2000000178814,"transition":1,"state":1,"state_2_ids":[2,3],"state_2_key":1,"state_2_choice":3,"state_2_rt":462.5,"outcome":0,"rocket_colors":["#486ea7","#a75248"],"planet_colors":["#5b7c65","#706081"],"screen_resolution":[1920,1080],"minimum_resolution":1,"trial":53,"drifts":[0.35,0.565,0.6,0.385],"drift_ix":1,"trial_type":"two-step-trial","trial_index":85,"time_elapsed":534125,"internal_node_id":"0.0-66.0-0.0","task_version":"1.0","jspsych_version":"6.3.1","browser_interactions":0,"missing":false},{"state_1_ids":[1,0],"state_1_key":1,"state_1_choice":0,"state_1_rt":472.7000000178814,"transition":0,"state":1,"state_2_ids":[2,3],"state_2_key":1,"state_2_choice":3,"state_2_rt":421.90000000596046,"outcome":0,"rocket_colors":["#486ea7","#a75248"],"planet_colors":["#5b7c65","#706081"],"screen_resolution":[1920,1080],"minimum_resolution":1,"trial":54,"drifts":[0.367,0.543,0.601,0.392],"drift_ix":1,"trial_type":"two-step-trial","trial_index":86,"time_elapsed":537022,"internal_node_id":"0.0-67.0-0.0","task_version":"1.0","jspsych_version":"6.3.1","browser_interactions":0,"missing":false},{"state_1_ids":[1,0],"state_1_key":1,"state_1_choice":0,"state_1_rt":184.09999999403954,"transition":1,"state":0,"state_2_ids":[0,1],"state_2_key":1,"state_2_choice":1,"state_2_rt":372,"outcome":0,"rocket_colors":["#486ea7","#a75248"],"planet_colors":["#5b7c65","#706081"],"screen_resolution":[1920,1080],"minimum_resolution":1,"trial":55,"drifts":[0.341,0.54,0.588,0.372],"drift_ix":1,"trial_type":"two-step-trial","trial_index":87,"time_elapsed":539581,"internal_node_id":"0.0-68.0-0.0","task_version":"1.0","jspsych_version":"6.3.1","browser_interactions":0,"missing":false},{"state_1_ids":[1,0],"state_1_key":1,"state_1_choice":0,"state_1_rt":237.2000000178814,"transition":0,"state":1,"state_2_ids":[2,3],"state_2_key":1,"state_2_choice":3,"state_2_rt":656.8000000119209,"outcome":1,"rocket_colors":["#486ea7","#a75248"],"planet_colors":["#5b7c65","#706081"],"screen_resolution":[1920,1080],"minimum_resolution":1,"trial":56,"drifts":[0.388,0.584,0.641,0.394],"drift_ix":1,"trial_type":"two-step-trial","trial_index":88,"time_elapsed":542479,"internal_node_id":"0.0-69.0-0.0","task_version":"1.0","jspsych_version":"6.3.1","browser_interactions":0,"missing":false},{"state_1_ids":[1,0],"state_1_key":0,"state_1_choice":1,"state_1_rt":329.60000002384186,"transition":1,"state":1,"state_2_ids":[2,3],"state_2_key":0,"state_2_choice":2,"state_2_rt":647.4000000059605,"outcome":0,"rocket_colors":["#486ea7","#a75248"],"planet_colors":["#5b7c65","#706081"],"screen_resolution":[1920,1080],"minimum_resolution":1,"trial":57,"drifts":[0.373,0.597,0.649,0.355],"drift_ix":1,"trial_type":"two-step-trial","trial_index":89,"time_elapsed":545459,"internal_node_id":"0.0-70.0-0.0","task_version":"1.0","jspsych_version":"6.3.1","browser_interactions":0,"missing":false},{"state_1_ids":[0,1],"state_1_key":1,"state_1_choice":1,"state_1_rt":414.2999999821186,"transition":1,"state":1,"state_2_ids":[2,3],"state_2_key":1,"state_2_choice":3,"state_2_rt":691.6000000238419,"outcome":0,"rocket_colors":["#486ea7","#a75248"],"planet_colors":["#5b7c65","#706081"],"screen_resolution":[1920,1080],"minimum_resolution":1,"trial":58,"drifts":[0.383,0.601,0.627,0.333],"drift_ix":1,"trial_type":"two-step-trial","trial_index":90,"time_elapsed":548568,"internal_node_id":"0.0-71.0-0.0","task_version":"1.0","jspsych_version":"6.3.1","browser_interactions":0,"missing":false},{"state_1_ids":[0,1],"state_1_key":1,"state_1_choice":1,"state_1_rt":225,"transition":1,"state":1,"state_2_ids":[2,3],"state_2_key":1,"state_2_choice":3,"state_2_rt":561.8000000119209,"outcome":0,"rocket_colors":["#486ea7","#a75248"],"planet_colors":["#5b7c65","#706081"],"screen_resolution":[1920,1080],"minimum_resolution":1,"trial":59,"drifts":[0.401,0.574,0.656,0.323],"drift_ix":1,"trial_type":"two-step-trial","trial_index":91,"time_elapsed":551358,"internal_node_id":"0.0-72.0-0.0","task_version":"1.0","jspsych_version":"6.3.1","browser_interactions":0,"missing":false},{"state_1_ids":[0,1],"state_1_key":1,"state_1_choice":1,"state_1_rt":287.7999999821186,"transition":1,"state":1,"state_2_ids":[2,3],"state_2_key":1,"state_2_choice":3,"state_2_rt":368,"outcome":0,"rocket_colors":["#486ea7","#a75248"],"planet_colors":["#5b7c65","#706081"],"screen_resolution":[1920,1080],"minimum_resolution":1,"trial":60,"drifts":[0.433,0.567,0.64,0.284],"drift_ix":1,"trial_type":"two-step-trial","trial_index":92,"time_elapsed":554018,"internal_node_id":"0.0-73.0-0.0","task_version":"1.0","jspsych_version":"6.3.1","browser_interactions":0,"missing":false},{"state_1_ids":[1,0],"state_1_key":1,"state_1_choice":0,"state_1_rt":178.2000000178814,"transition":1,"state":0,"state_2_ids":[0,1],"state_2_key":0,"state_2_choice":0,"state_2_rt":710,"outcome":0,"rocket_colors":["#486ea7","#a75248"],"planet_colors":["#5b7c65","#706081"],"screen_resolution":[1920,1080],"minimum_resolution":1,"trial":61,"drifts":[0.443,0.536,0.633,0.265],"drift_ix":1,"trial_type":"two-step-trial","trial_index":93,"time_elapsed":556909,"internal_node_id":"0.0-74.0-0.0","task_version":"1.0","jspsych_version":"6.3.1","browser_interactions":0,"missing":false},{"state_1_ids":[1,0],"state_1_key":1,"state_1_choice":0,"state_1_rt":202.09999999403954,"transition":0,"state":1,"state_2_ids":[2,3],"state_2_key":1,"state_2_choice":3,"state_2_rt":567.5,"outcome":0,"rocket_colors":["#486ea7","#a75248"],"planet_colors":["#5b7c65","#706081"],"screen_resolution":[1920,1080],"minimum_resolution":1,"trial":62,"drifts":[0.42,0.521,0.591,0.279],"drift_ix":1,"trial_type":"two-step-trial","trial_index":94,"time_elapsed":559682,"internal_node_id":"0.0-75.0-0.0","task_version":"1.0","jspsych_version":"6.3.1","browser_interactions":0,"missing":false},{"state_1_ids":[1,0],"state_1_key":1,"state_1_choice":0,"state_1_rt":169.40000000596046,"transition":1,"state":0,"state_2_ids":[0,1],"state_2_key":1,"state_2_choice":1,"state_2_rt":719.4000000059605,"outcome":1,"rocket_colors":["#486ea7","#a75248"],"planet_colors":["#5b7c65","#706081"],"screen_resolution":[1920,1080],"minimum_resolution":1,"trial":63,"drifts":[0.392,0.519,0.612,0.319],"drift_ix":1,"trial_type":"two-step-trial","trial_index":95,"time_elapsed":562574,"internal_node_id":"0.0-76.0-0.0","task_version":"1.0","jspsych_version":"6.3.1","browser_interactions":0,"missing":false},{"state_1_ids":[0,1],"state_1_key":0,"state_1_choice":0,"state_1_rt":639.6999999880791,"transition":1,"state":0,"state_2_ids":[0,1],"state_2_key":1,"state_2_choice":1,"state_2_rt":320.30000001192093,"outcome":0,"rocket_colors":["#486ea7","#a75248"],"planet_colors":["#5b7c65","#706081"],"screen_resolution":[1920,1080],"minimum_resolution":1,"trial":64,"drifts":[0.354,0.493,0.612,0.332],"drift_ix":1,"trial_type":"two-step-trial","trial_index":96,"time_elapsed":565536,"internal_node_id":"0.0-77.0-0.0","task_version":"1.0","jspsych_version":"6.3.1","browser_interactions":0,"missing":false},{"state_1_ids":[0,1],"state_1_key":0,"state_1_choice":0,"state_1_rt":243.09999999403954,"transition":0,"state":1,"state_2_ids":[2,3],"state_2_key":0,"state_2_choice":2,"state_2_rt":842.2000000178814,"outcome":1,"rocket_colors":["#486ea7","#a75248"],"planet_colors":["#5b7c65","#706081"],"screen_resolution":[1920,1080],"minimum_resolution":1,"trial":65,"drifts":[0.379,0.495,0.568,0.327],"drift_ix":1,"trial_type":"two-step-trial","trial_index":97,"time_elapsed":568624,"internal_node_id":"0.0-78.0-0.0","task_version":"1.0","jspsych_version":"6.3.1","browser_interactions":0,"missing":false},{"state_1_ids":[1,0],"state_1_key":0,"state_1_choice":1,"state_1_rt":239,"transition":1,"state":1,"state_2_ids":[2,3],"state_2_key":1,"state_2_choice":3,"state_2_rt":446.5,"outcome":0,"rocket_colors":["#486ea7","#a75248"],"planet_colors":["#5b7c65","#706081"],"screen_resolution":[1920,1080],"minimum_resolution":1,"trial":66,"drifts":[0.383,0.497,0.601,0.305],"drift_ix":1,"trial_type":"two-step-trial","trial_index":98,"time_elapsed":571312,"internal_node_id":"0.0-79.0-0.0","task_version":"1.0","jspsych_version":"6.3.1","browser_interactions":0,"missing":false},{"state_1_ids":[0,1],"state_1_key":0,"state_1_choice":0,"state_1_rt":44.39999997615814,"transition":1,"state":0,"state_2_ids":[0,1],"state_2_key":1,"state_2_choice":1,"state_2_rt":438,"outcome":1,"rocket_colors":["#486ea7","#a75248"],"planet_colors":["#5b7c65","#706081"],"screen_resolution":[1920,1080],"minimum_resolution":1,"trial":67,"drifts":[0.425,0.523,0.539,0.345],"drift_ix":1,"trial_type":"two-step-trial","trial_index":99,"time_elapsed":573797,"internal_node_id":"0.0-80.0-0.0","task_version":"1.0","jspsych_version":"6.3.1","browser_interactions":0,"missing":false},{"state_1_ids":[0,1],"state_1_key":0,"state_1_choice":0,"state_1_rt":187.40000000596046,"transition":1,"state":0,"state_2_ids":[0,1],"state_2_key":1,"state_2_choice":1,"state_2_rt":316,"outcome":1,"rocket_colors":["#486ea7","#a75248"],"planet_colors":["#5b7c65","#706081"],"screen_resolution":[1920,1080],"minimum_resolution":1,"trial":68,"drifts":[0.432,0.482,0.523,0.353],"drift_ix":1,"trial_type":"two-step-trial","trial_index":100,"time_elapsed":576305,"internal_node_id":"0.0-81.0-0.0","task_version":"1.0","jspsych_version":"6.3.1","browser_interactions":0,"missing":false},{"state_1_ids":[0,1],"state_1_key":0,"state_1_choice":0,"state_1_rt":240.80000001192093,"transition":1,"state":0,"state_2_ids":[0,1],"state_2_key":1,"state_2_choice":1,"state_2_rt":322.2000000178814,"outcome":1,"rocket_colors":["#486ea7","#a75248"],"planet_colors":["#5b7c65","#706081"],"screen_resolution":[1920,1080],"minimum_resolution":1,"trial":69,"drifts":[0.457,0.505,0.515,0.343],"drift_ix":1,"trial_type":"two-step-trial","trial_index":101,"time_elapsed":578873,"internal_node_id":"0.0-82.0-0.0","task_version":"1.0","jspsych_version":"6.3.1","browser_interactions":0,"missing":false},{"state_1_ids":[1,0],"state_1_key":0,"state_1_choice":1,"state_1_rt":119.60000002384186,"transition":1,"state":1,"state_2_ids":[2,3],"state_2_key":0,"state_2_choice":2,"state_2_rt":516.6999999880791,"outcome":1,"rocket_colors":["#486ea7","#a75248"],"planet_colors":["#5b7c65","#706081"],"screen_resolution":[1920,1080],"minimum_resolution":1,"trial":70,"drifts":[0.451,0.526,0.491,0.303],"drift_ix":1,"trial_type":"two-step-trial","trial_index":102,"time_elapsed":581514,"internal_node_id":"0.0-83.0-0.0","task_version":"1.0","jspsych_version":"6.3.1","browser_interactions":0,"missing":false},{"state_1_ids":[0,1],"state_1_key":0,"state_1_choice":0,"state_1_rt":191.60000002384186,"transition":1,"state":0,"state_2_ids":[0,1],"state_2_key":1,"state_2_choice":1,"state_2_rt":375.2000000178814,"outcome":1,"rocket_colors":["#486ea7","#a75248"],"planet_colors":["#5b7c65","#706081"],"screen_resolution":[1920,1080],"minimum_resolution":1,"trial":71,"drifts":[0.425,0.552,0.478,0.262],"drift_ix":1,"trial_type":"two-step-trial","trial_index":103,"time_elapsed":584085,"internal_node_id":"0.0-84.0-0.0","task_version":"1.0","jspsych_version":"6.3.1","browser_interactions":0,"missing":false},{"state_1_ids":[1,0],"state_1_key":1,"state_1_choice":0,"state_1_rt":225,"transition":1,"state":0,"state_2_ids":[0,1],"state_2_key":1,"state_2_choice":1,"state_2_rt":285.5,"outcome":1,"rocket_colors":["#486ea7","#a75248"],"planet_colors":["#5b7c65","#706081"],"screen_resolution":[1920,1080],"minimum_resolution":1,"trial":72,"drifts":[0.434,0.518,0.459,0.266],"drift_ix":1,"trial_type":"two-step-trial","trial_index":104,"time_elapsed":586599,"internal_node_id":"0.0-85.0-0.0","task_version":"1.0","jspsych_version":"6.3.1","browser_interactions":0,"missing":false},{"state_1_ids":[0,1],"state_1_key":1,"state_1_choice":1,"state_1_rt":185.7999999821186,"transition":0,"state":0,"state_2_ids":[0,1],"state_2_key":0,"state_2_choice":0,"state_2_rt":402,"outcome":1,"rocket_colors":["#486ea7","#a75248"],"planet_colors":["#5b7c65","#706081"],"screen_resolution":[1920,1080],"minimum_resolution":1,"trial":73,"drifts":[0.434,0.507,0.435,0.282],"drift_ix":1,"trial_type":"two-step-trial","trial_index":105,"time_elapsed":589191,"internal_node_id":"0.0-86.0-0.0","task_version":"1.0","jspsych_version":"6.3.1","browser_interactions":0,"missing":false},{"state_1_ids":[1,0],"state_1_key":0,"state_1_choice":1,"state_1_rt":217.40000000596046,"transition":1,"state":1,"state_2_ids":[2,3],"state_2_key":0,"state_2_choice":2,"state_2_rt":440.2000000178814,"outcome":0,"rocket_colors":["#486ea7","#a75248"],"planet_colors":["#5b7c65","#706081"],"screen_resolution":[1920,1080],"minimum_resolution":1,"trial":74,"drifts":[0.474,0.468,0.425,0.256],"drift_ix":1,"trial_type":"two-step-trial","trial_index":106,"time_elapsed":591851,"internal_node_id":"0.0-87.0-0.0","task_version":"1.0","jspsych_version":"6.3.1","browser_interactions":0,"missing":false},{"state_1_ids":[0,1],"state_1_key":0,"state_1_choice":0,"state_1_rt":217.30000001192093,"transition":1,"state":0,"state_2_ids":[0,1],"state_2_key":1,"state_2_choice":1,"state_2_rt":337.7000000178814,"outcome":0,"rocket_colors":["#486ea7","#a75248"],"planet_colors":["#5b7c65","#706081"],"screen_resolution":[1920,1080],"minimum_resolution":1,"trial":75,"drifts":[0.46,0.495,0.398,0.253],"drift_ix":1,"trial_type":"two-step-trial","trial_index":107,"time_elapsed":594410,"internal_node_id":"0.0-88.0-0.0","task_version":"1.0","jspsych_version":"6.3.1","browser_interactions":0,"missing":false},{"state_1_ids":[1,0],"state_1_key":1,"state_1_choice":0,"state_1_rt":327.90000000596046,"transition":1,"state":0,"state_2_ids":[0,1],"state_2_key":1,"state_2_choice":1,"state_2_rt":395,"outcome":1,"rocket_colors":["#486ea7","#a75248"],"planet_colors":["#5b7c65","#706081"],"screen_resolution":[1920,1080],"minimum_resolution":1,"trial":76,"drifts":[0.432,0.494,0.438,0.256],"drift_ix":1,"trial_type":"two-step-trial","trial_index":108,"time_elapsed":597136,"internal_node_id":"0.0-89.0-0.0","task_version":"1.0","jspsych_version":"6.3.1","browser_interactions":0,"missing":false},{"state_1_ids":[0,1],"state_1_key":0,"state_1_choice":0,"state_1_rt":228.39999997615814,"transition":1,"state":0,"state_2_ids":[0,1],"state_2_key":1,"state_2_choice":1,"state_2_rt":370.5,"outcome":1,"rocket_colors":["#486ea7","#a75248"],"planet_colors":["#5b7c65","#706081"],"screen_resolution":[1920,1080],"minimum_resolution":1,"trial":77,"drifts":[0.461,0.493,0.446,0.27],"drift_ix":1,"trial_type":"two-step-trial","trial_index":109,"time_elapsed":599739,"internal_node_id":"0.0-90.0-0.0","task_version":"1.0","jspsych_version":"6.3.1","browser_interactions":0,"missing":false},{"state_1_ids":[1,0],"state_1_key":1,"state_1_choice":0,"state_1_rt":324.7000000178814,"transition":1,"state":0,"state_2_ids":[0,1],"state_2_key":1,"state_2_choice":1,"state_2_rt":291.5,"outcome":0,"rocket_colors":["#486ea7","#a75248"],"planet_colors":["#5b7c65","#706081"],"screen_resolution":[1920,1080],"minimum_resolution":1,"trial":78,"drifts":[0.514,0.513,0.473,0.268],"drift_ix":1,"trial_type":"two-step-trial","trial_index":110,"time_elapsed":602358,"internal_node_id":"0.0-91.0-0.0","task_version":"1.0","jspsych_version":"6.3.1","browser_interactions":0,"missing":false},{"state_1_ids":[0,1],"state_1_key":1,"state_1_choice":1,"state_1_rt":69.7999999821186,"transition":0,"state":0,"state_2_ids":[0,1],"state_2_key":0,"state_2_choice":0,"state_2_rt":228.69999998807907,"outcome":1,"rocket_colors":["#486ea7","#a75248"],"planet_colors":["#5b7c65","#706081"],"screen_resolution":[1920,1080],"minimum_resolution":1,"trial":79,"drifts":[0.504,0.552,0.491,0.291],"drift_ix":1,"trial_type":"two-step-trial","trial_index":111,"time_elapsed":604662,"internal_node_id":"0.0-92.0-0.0","task_version":"1.0","jspsych_version":"6.3.1","browser_interactions":0,"missing":false},{"state_1_ids":[0,1],"state_1_key":1,"state_1_choice":1,"state_1_rt":350.89999997615814,"transition":1,"state":1,"state_2_ids":[2,3],"state_2_key":0,"state_2_choice":2,"state_2_rt":283.30000001192093,"outcome":1,"rocket_colors":["#486ea7","#a75248"],"planet_colors":["#5b7c65","#706081"],"screen_resolution":[1920,1080],"minimum_resolution":1,"trial":80,"drifts":[0.513,0.538,0.46,0.295],"drift_ix":1,"trial_type":"two-step-trial","trial_index":112,"time_elapsed":607300,"internal_node_id":"0.0-93.0-0.0","task_version":"1.0","jspsych_version":"6.3.1","browser_interactions":0,"missing":false},{"state_1_ids":[1,0],"state_1_key":1,"state_1_choice":0,"state_1_rt":169,"transition":1,"state":0,"state_2_ids":[0,1],"state_2_key":1,"state_2_choice":1,"state_2_rt":234,"outcome":0,"rocket_colors":["#486ea7","#a75248"],"planet_colors":["#5b7c65","#706081"],"screen_resolution":[1920,1080],"minimum_resolution":1,"trial":81,"drifts":[0.523,0.491,0.47,0.326],"drift_ix":1,"trial_type":"two-step-trial","trial_index":113,"time_elapsed":609706,"internal_node_id":"0.0-94.0-0.0","task_version":"1.0","jspsych_version":"6.3.1","browser_interactions":0,"missing":false},{"state_1_ids":[0,1],"state_1_key":1,"state_1_choice":1,"state_1_rt":81.30000001192093,"transition":0,"state":0,"state_2_ids":[0,1],"state_2_key":1,"state_2_choice":1,"state_2_rt":369.5,"outcome":1,"rocket_colors":["#486ea7","#a75248"],"planet_colors":["#5b7c65","#706081"],"screen_resolution":[1920,1080],"minimum_resolution":1,"trial":82,"drifts":[0.525,0.548,0.454,0.36],"drift_ix":1,"trial_type":"two-step-trial","trial_index":114,"time_elapsed":612161,"internal_node_id":"0.0-95.0-0.0","task_version":"1.0","jspsych_version":"6.3.1","browser_interactions":0,"missing":false},{"state_1_ids":[0,1],"state_1_key":1,"state_1_choice":1,"state_1_rt":127.10000002384186,"transition":0,"state":0,"state_2_ids":[0,1],"state_2_key":1,"state_2_choice":1,"state_2_rt":278,"outcome":1,"rocket_colors":["#486ea7","#a75248"],"planet_colors":["#5b7c65","#706081"],"screen_resolution":[1920,1080],"minimum_resolution":1,"trial":83,"drifts":[0.538,0.579,0.452,0.325],"drift_ix":1,"trial_type":"two-step-trial","trial_index":115,"time_elapsed":614570,"internal_node_id":"0.0-96.0-0.0","task_version":"1.0","jspsych_version":"6.3.1","browser_interactions":0,"missing":false},{"state_1_ids":[0,1],"state_1_key":1,"state_1_choice":1,"state_1_rt":88.89999997615814,"transition":1,"state":1,"state_2_ids":[2,3],"state_2_key":0,"state_2_choice":2,"state_2_rt":430.7999999821186,"outcome":0,"rocket_colors":["#486ea7","#a75248"],"planet_colors":["#5b7c65","#706081"],"screen_resolution":[1920,1080],"minimum_resolution":1,"trial":84,"drifts":[0.524,0.64,0.439,0.371],"drift_ix":1,"trial_type":"two-step-trial","trial_index":116,"time_elapsed":617092,"internal_node_id":"0.0-97.0-0.0","task_version":"1.0","jspsych_version":"6.3.1","browser_interactions":0,"missing":false},{"state_1_ids":[0,1],"state_1_key":1,"state_1_choice":1,"state_1_rt":142.40000000596046,"transition":1,"state":1,"state_2_ids":[2,3],"state_2_key":1,"state_2_choice":3,"state_2_rt":232.5,"outcome":0,"rocket_colors":["#486ea7","#a75248"],"planet_colors":["#5b7c65","#706081"],"screen_resolution":[1920,1080],"minimum_resolution":1,"trial":85,"drifts":[0.524,0.637,0.455,0.377],"drift_ix":1,"trial_type":"two-step-trial","trial_index":117,"time_elapsed":619471,"internal_node_id":"0.0-98.0-0.0","task_version":"1.0","jspsych_version":"6.3.1","browser_interactions":0,"missing":false},{"state_1_ids":[0,1],"state_1_key":1,"state_1_choice":1,"state_1_rt":396.2999999821186,"transition":1,"state":1,"state_2_ids":[2,3],"state_2_key":0,"state_2_choice":2,"state_2_rt":280.09999999403954,"outcome":1,"rocket_colors":["#486ea7","#a75248"],"planet_colors":["#5b7c65","#706081"],"screen_resolution":[1920,1080],"minimum_resolution":1,"trial":86,"drifts":[0.535,0.666,0.471,0.392],"drift_ix":1,"trial_type":"two-step-trial","trial_index":118,"time_elapsed":622151,"internal_node_id":"0.0-99.0-0.0","task_version":"1.0","jspsych_version":"6.3.1","browser_interactions":0,"missing":false},{"state_1_ids":[0,1],"state_1_key":1,"state_1_choice":1,"state_1_rt":27.899999976158142,"transition":1,"state":1,"state_2_ids":[2,3],"state_2_key":0,"state_2_choice":2,"state_2_rt":346.89999997615814,"outcome":0,"rocket_colors":["#486ea7","#a75248"],"planet_colors":["#5b7c65","#706081"],"screen_resolution":[1920,1080],"minimum_resolution":1,"trial":87,"drifts":[0.504,0.695,0.423,0.387],"drift_ix":1,"trial_type":"two-step-trial","trial_index":119,"time_elapsed":624530,"internal_node_id":"0.0-100.0-0.0","task_version":"1.0","jspsych_version":"6.3.1","browser_interactions":0,"missing":false},{"state_1_ids":[1,0],"state_1_key":1,"state_1_choice":0,"state_1_rt":387.90000000596046,"transition":0,"state":1,"state_2_ids":[2,3],"state_2_key":1,"state_2_choice":3,"state_2_rt":227.59999999403954,"outcome":0,"rocket_colors":["#486ea7","#a75248"],"planet_colors":["#5b7c65","#706081"],"screen_resolution":[1920,1080],"minimum_resolution":1,"trial":88,"drifts":[0.485,0.667,0.458,0.39],"drift_ix":1,"trial_type":"two-step-trial","trial_index":120,"time_elapsed":627150,"internal_node_id":"0.0-101.0-0.0","task_version":"1.0","jspsych_version":"6.3.1","browser_interactions":0,"missing":false},{"state_1_ids":[1,0],"state_1_key":0,"state_1_choice":1,"state_1_rt":81,"transition":1,"state":1,"state_2_ids":[2,3],"state_2_key":1,"state_2_choice":3,"state_2_rt":282.7999999821186,"outcome":1,"rocket_colors":["#486ea7","#a75248"],"planet_colors":["#5b7c65","#706081"],"screen_resolution":[1920,1080],"minimum_resolution":1,"trial":89,"drifts":[0.47,0.661,0.502,0.408],"drift_ix":1,"trial_type":"two-step-trial","trial_index":121,"time_elapsed":629518,"internal_node_id":"0.0-102.0-0.0","task_version":"1.0","jspsych_version":"6.3.1","browser_interactions":0,"missing":false},{"state_1_ids":[1,0],"state_1_key":1,"state_1_choice":0,"state_1_rt":34,"transition":1,"state":0,"state_2_ids":[0,1],"state_2_key":1,"state_2_choice":1,"state_2_rt":268.19999998807907,"outcome":1,"rocket_colors":["#486ea7","#a75248"],"planet_colors":["#5b7c65","#706081"],"screen_resolution":[1920,1080],"minimum_resolution":1,"trial":90,"drifts":[0.46,0.678,0.464,0.349],"drift_ix":1,"trial_type":"two-step-trial","trial_index":122,"time_elapsed":631823,"internal_node_id":"0.0-103.0-0.0","task_version":"1.0","jspsych_version":"6.3.1","browser_interactions":0,"missing":false},{"state_1_ids":[0,1],"state_1_key":1,"state_1_choice":1,"state_1_rt":44,"transition":1,"state":1,"state_2_ids":[2,3],"state_2_key":1,"state_2_choice":3,"state_2_rt":371.5,"outcome":0,"rocket_colors":["#486ea7","#a75248"],"planet_colors":["#5b7c65","#706081"],"screen_resolution":[1920,1080],"minimum_resolution":1,"trial":91,"drifts":[0.46,0.655,0.459,0.313],"drift_ix":1,"trial_type":"two-step-trial","trial_index":123,"time_elapsed":634241,"internal_node_id":"0.0-104.0-0.0","task_version":"1.0","jspsych_version":"6.3.1","browser_interactions":0,"missing":false},{"state_1_ids":[1,0],"state_1_key":1,"state_1_choice":0,"state_1_rt":393.40000000596046,"transition":1,"state":0,"state_2_ids":[0,1],"state_2_key":1,"state_2_choice":1,"state_2_rt":272.2999999821186,"outcome":1,"rocket_colors":["#486ea7","#a75248"],"planet_colors":["#5b7c65","#706081"],"screen_resolution":[1920,1080],"minimum_resolution":1,"trial":92,"drifts":[0.459,0.663,0.496,0.332],"drift_ix":1,"trial_type":"two-step-trial","trial_index":124,"time_elapsed":636909,"internal_node_id":"0.0-105.0-0.0","task_version":"1.0","jspsych_version":"6.3.1","browser_interactions":0,"missing":false},{"state_1_ids":[0,1],"state_1_key":1,"state_1_choice":1,"state_1_rt":98,"transition":1,"state":1,"state_2_ids":[2,3],"state_2_key":1,"state_2_choice":3,"state_2_rt":360.7000000178814,"outcome":0,"rocket_colors":["#486ea7","#a75248"],"planet_colors":["#5b7c65","#706081"],"screen_resolution":[1920,1080],"minimum_resolution":1,"trial":93,"drifts":[0.47,0.662,0.476,0.3],"drift_ix":1,"trial_type":"two-step-trial","trial_index":125,"time_elapsed":639371,"internal_node_id":"0.0-106.0-0.0","task_version":"1.0","jspsych_version":"6.3.1","browser_interactions":0,"missing":false},{"state_1_ids":[1,0],"state_1_key":1,"state_1_choice":0,"state_1_rt":200.7000000178814,"transition":0,"state":1,"state_2_ids":[2,3],"state_2_key":1,"state_2_choice":3,"state_2_rt":348.2999999821186,"outcome":0,"rocket_colors":["#486ea7","#a75248"],"planet_colors":["#5b7c65","#706081"],"screen_resolution":[1920,1080],"minimum_resolution":1,"trial":94,"drifts":[0.495,0.666,0.452,0.265],"drift_ix":1,"trial_type":"two-step-trial","trial_index":126,"time_elapsed":641922,"internal_node_id":"0.0-107.0-0.0","task_version":"1.0","jspsych_version":"6.3.1","browser_interactions":0,"missing":false},{"state_1_ids":[0,1],"state_1_key":1,"state_1_choice":1,"state_1_rt":144.7000000178814,"transition":1,"state":1,"state_2_ids":[2,3],"state_2_key":0,"state_2_choice":2,"state_2_rt":342.5,"outcome":0,"rocket_colors":["#486ea7","#a75248"],"planet_colors":["#5b7c65","#706081"],"screen_resolution":[1920,1080],"minimum_resolution":1,"trial":95,"drifts":[0.524,0.697,0.448,0.345],"drift_ix":1,"trial_type":"two-step-trial","trial_index":127,"time_elapsed":644412,"internal_node_id":"0.0-108.0-0.0","task_version":"1.0","jspsych_version":"6.3.1","browser_interactions":0,"missing":false},{"state_1_ids":[1,0],"state_1_key":1,"state_1_choice":0,"state_1_rt":133.40000000596046,"transition":1,"state":0,"state_2_ids":[0,1],"state_2_key":1,"state_2_choice":1,"state_2_rt":338.69999998807907,"outcome":1,"rocket_colors":["#486ea7","#a75248"],"planet_colors":["#5b7c65","#706081"],"screen_resolution":[1920,1080],"minimum_resolution":1,"trial":96,"drifts":[0.524,0.681,0.435,0.338],"drift_ix":1,"trial_type":"two-step-trial","trial_index":128,"time_elapsed":646887,"internal_node_id":"0.0-109.0-0.0","task_version":"1.0","jspsych_version":"6.3.1","browser_interactions":0,"missing":false},{"state_1_ids":[1,0],"state_1_key":1,"state_1_choice":0,"state_1_rt":347.19999998807907,"transition":0,"state":1,"state_2_ids":[2,3],"state_2_key":0,"state_2_choice":2,"state_2_rt":569.5,"outcome":1,"rocket_colors":["#486ea7","#a75248"],"planet_colors":["#5b7c65","#706081"],"screen_resolution":[1920,1080],"minimum_resolution":1,"trial":97,"drifts":[0.542,0.675,0.441,0.363],"drift_ix":1,"trial_type":"two-step-trial","trial_index":129,"time_elapsed":649808,"internal_node_id":"0.0-110.0-0.0","task_version":"1.0","jspsych_version":"6.3.1","browser_interactions":0,"missing":false},{"state_1_ids":[1,0],"state_1_key":1,"state_1_choice":0,"state_1_rt":307.90000000596046,"transition":0,"state":1,"state_2_ids":[2,3],"state_2_key":0,"state_2_choice":2,"state_2_rt":560,"outcome":0,"rocket_colors":["#486ea7","#a75248"],"planet_colors":["#5b7c65","#706081"],"screen_resolution":[1920,1080],"minimum_resolution":1,"trial":98,"drifts":[0.542,0.7,0.418,0.358],"drift_ix":1,"trial_type":"two-step-trial","trial_index":130,"time_elapsed":652679,"internal_node_id":"0.0-111.0-0.0","task_version":"1.0","jspsych_version":"6.3.1","browser_interactions":0,"missing":false},{"state_1_ids":[1,0],"state_1_key":1,"state_1_choice":0,"state_1_rt":177.2999999821186,"transition":1,"state":0,"state_2_ids":[0,1],"state_2_key":1,"state_2_choice":1,"state_2_rt":442.5,"outcome":1,"rocket_colors":["#486ea7","#a75248"],"planet_colors":["#5b7c65","#706081"],"screen_resolution":[1920,1080],"minimum_resolution":1,"trial":99,"drifts":[0.586,0.735,0.41,0.338],"drift_ix":1,"trial_type":"two-step-trial","trial_index":131,"time_elapsed":655303,"internal_node_id":"0.0-112.0-0.0","task_version":"1.0","jspsych_version":"6.3.1","browser_interactions":0,"missing":false},{"state_1_ids":[0,1],"state_1_key":0,"state_1_choice":0,"state_1_rt":253.19999998807907,"transition":1,"state":0,"state_2_ids":[0,1],"state_2_key":1,"state_2_choice":1,"state_2_rt":600.5999999940395,"outcome":1,"rocket_colors":["#486ea7","#a75248"],"planet_colors":["#5b7c65","#706081"],"screen_resolution":[1920,1080],"minimum_resolution":1,"trial":100,"drifts":[0.591,0.693,0.426,0.36],"drift_ix":1,"trial_type":"two-step-trial","trial_index":132,"time_elapsed":658160,"internal_node_id":"0.0-113.0-0.0","task_version":"1.0","jspsych_version":"6.3.1","browser_interactions":0,"missing":false},{"view_history":"[{\"page_index\":0,\"viewing_time\":2993.2999999821186},{\"page_index\":1,\"viewing_time\":2722}]","rt":5715.5,"trial_type":"two-step-instructions","trial_index":133,"time_elapsed":663876,"internal_node_id":"0.0-114.0","task_version":"1.0","jspsych_version":"6.3.1"},{"state_1_ids":[1,0],"state_1_key":1,"state_1_choice":0,"state_1_rt":698.7000000178814,"transition":1,"state":0,"state_2_ids":[0,1],"state_2_key":1,"state_2_choice":1,"state_2_rt":605.7999999821186,"outcome":1,"rocket_colors":["#486ea7","#a75248"],"planet_colors":["#5b7c65","#706081"],"screen_resolution":[1920,1080],"minimum_resolution":1,"trial":101,"drifts":[0.639,0.722,0.416,0.356],"drift_ix":1,"trial_type":"two-step-trial","trial_index":134,"time_elapsed":667186,"internal_node_id":"0.0-115.0-0.0","task_version":"1.0","jspsych_version":"6.3.1","browser_interactions":0,"missing":false},{"state_1_ids":[1,0],"state_1_key":1,"state_1_choice":0,"state_1_rt":221.2999999821186,"transition":1,"state":0,"state_2_ids":[0,1],"state_2_key":1,"state_2_choice":1,"state_2_rt":362,"outcome":1,"rocket_colors":["#486ea7","#a75248"],"planet_colors":["#5b7c65","#706081"],"screen_resolution":[1920,1080],"minimum_resolution":1,"trial":102,"drifts":[0.661,0.749,0.353,0.384],"drift_ix":1,"trial_type":"two-step-trial","trial_index":135,"time_elapsed":669772,"internal_node_id":"0.0-116.0-0.0","task_version":"1.0","jspsych_version":"6.3.1","browser_interactions":0,"missing":false},{"state_1_ids":[0,1],"state_1_key":0,"state_1_choice":0,"state_1_rt":316.40000000596046,"transition":1,"state":0,"state_2_ids":[0,1],"state_2_key":1,"state_2_choice":1,"state_2_rt":288.80000001192093,"outcome":0,"rocket_colors":["#486ea7","#a75248"],"planet_colors":["#5b7c65","#706081"],"screen_resolution":[1920,1080],"minimum_resolution":1,"trial":103,"drifts":[0.659,0.729,0.293,0.396],"drift_ix":1,"trial_type":"two-step-trial","trial_index":136,"time_elapsed":672381,"internal_node_id":"0.0-117.0-0.0","task_version":"1.0","jspsych_version":"6.3.1","browser_interactions":0,"missing":false},{"state_1_ids":[1,0],"state_1_key":0,"state_1_choice":1,"state_1_rt":70.5,"transition":1,"state":1,"state_2_ids":[2,3],"state_2_key":1,"state_2_choice":3,"state_2_rt":292,"outcome":0,"rocket_colors":["#486ea7","#a75248"],"planet_colors":["#5b7c65","#706081"],"screen_resolution":[1920,1080],"minimum_resolution":1,"trial":104,"drifts":[0.615,0.721,0.288,0.378],"drift_ix":1,"trial_type":"two-step-trial","trial_index":137,"time_elapsed":674748,"internal_node_id":"0.0-118.0-0.0","task_version":"1.0","jspsych_version":"6.3.1","browser_interactions":0,"missing":false},{"state_1_ids":[1,0],"state_1_key":1,"state_1_choice":0,"state_1_rt":336,"transition":1,"state":0,"state_2_ids":[0,1],"state_2_key":1,"state_2_choice":1,"state_2_rt":365.69999998807907,"outcome":1,"rocket_colors":["#486ea7","#a75248"],"planet_colors":["#5b7c65","#706081"],"screen_resolution":[1920,1080],"minimum_resolution":1,"trial":105,"drifts":[0.562,0.742,0.297,0.343],"drift_ix":1,"trial_type":"two-step-trial","trial_index":138,"time_elapsed":677453,"internal_node_id":"0.0-119.0-0.0","task_version":"1.0","jspsych_version":"6.3.1","browser_interactions":0,"missing":false},{"state_1_ids":[0,1],"state_1_key":0,"state_1_choice":0,"state_1_rt":311.10000002384186,"transition":1,"state":0,"state_2_ids":[0,1],"state_2_key":1,"state_2_choice":1,"state_2_rt":298.7999999821186,"outcome":0,"rocket_colors":["#486ea7","#a75248"],"planet_colors":["#5b7c65","#706081"],"screen_resolution":[1920,1080],"minimum_resolution":1,"trial":106,"drifts":[0.532,0.742,0.25,0.332],"drift_ix":1,"trial_type":"two-step-trial","trial_index":139,"time_elapsed":680067,"internal_node_id":"0.0-120.0-0.0","task_version":"1.0","jspsych_version":"6.3.1","browser_interactions":0,"missing":false},{"state_1_ids":[0,1],"state_1_key":0,"state_1_choice":0,"state_1_rt":343.09999999403954,"transition":1,"state":0,"state_2_ids":[0,1],"state_2_key":1,"state_2_choice":1,"state_2_rt":240,"outcome":1,"rocket_colors":["#486ea7","#a75248"],"planet_colors":["#5b7c65","#706081"],"screen_resolution":[1920,1080],"minimum_resolution":1,"trial":107,"drifts":[0.531,0.742,0.255,0.33],"drift_ix":1,"trial_type":"two-step-trial","trial_index":140,"time_elapsed":682653,"internal_node_id":"0.0-121.0-0.0","task_version":"1.0","jspsych_version":"6.3.1","browser_interactions":0,"missing":false},{"state_1_ids":[0,1],"state_1_key":0,"state_1_choice":0,"state_1_rt":335.19999998807907,"transition":0,"state":1,"state_2_ids":[2,3],"state_2_key":1,"state_2_choice":3,"state_2_rt":252.30000001192093,"outcome":0,"rocket_colors":["#486ea7","#a75248"],"planet_colors":["#5b7c65","#706081"],"screen_resolution":[1920,1080],"minimum_resolution":1,"trial":108,"drifts":[0.576,0.733,0.281,0.338],"drift_ix":1,"trial_type":"two-step-trial","trial_index":141,"time_elapsed":685244,"internal_node_id":"0.0-122.0-0.0","task_version":"1.0","jspsych_version":"6.3.1","browser_interactions":0,"missing":false},{"state_1_ids":[0,1],"state_1_key":1,"state_1_choice":1,"state_1_rt":227.39999997615814,"transition":0,"state":0,"state_2_ids":[0,1],"state_2_key":1,"state_2_choice":1,"state_2_rt":337.60000002384186,"outcome":1,"rocket_colors":["#486ea7","#a75248"],"planet_colors":["#5b7c65","#706081"],"screen_resolution":[1920,1080],"minimum_resolution":1,"trial":109,"drifts":[0.593,0.74,0.277,0.333],"drift_ix":1,"trial_type":"two-step-trial","trial_index":142,"time_elapsed":687812,"internal_node_id":"0.0-123.0-0.0","task_version":"1.0","jspsych_version":"6.3.1","browser_interactions":0,"missing":false},{"state_1_ids":[0,1],"state_1_key":0,"state_1_choice":0,"state_1_rt":378.30000001192093,"transition":1,"state":0,"state_2_ids":[0,1],"state_2_key":1,"state_2_choice":1,"state_2_rt":276.69999998807907,"outcome":1,"rocket_colors":["#486ea7","#a75248"],"planet_colors":["#5b7c65","#706081"],"screen_resolution":[1920,1080],"minimum_resolution":1,"trial":110,"drifts":[0.57,0.735,0.318,0.349],"drift_ix":1,"trial_type":"two-step-trial","trial_index":143,"time_elapsed":690471,"internal_node_id":"0.0-124.0-0.0","task_version":"1.0","jspsych_version":"6.3.1","browser_interactions":0,"missing":false},{"state_1_ids":[0,1],"state_1_key":0,"state_1_choice":0,"state_1_rt":421.59999999403954,"transition":1,"state":0,"state_2_ids":[0,1],"state_2_key":1,"state_2_choice":1,"state_2_rt":278.90000000596046,"outcome":1,"rocket_colors":["#486ea7","#a75248"],"planet_colors":["#5b7c65","#706081"],"screen_resolution":[1920,1080],"minimum_resolution":1,"trial":111,"drifts":[0.566,0.726,0.306,0.333],"drift_ix":1,"trial_type":"two-step-trial","trial_index":144,"time_elapsed":693176,"internal_node_id":"0.0-125.0-0.0","task_version":"1.0","jspsych_version":"6.3.1","browser_interactions":0,"missing":false},{"state_1_ids":[0,1],"state_1_key":1,"state_1_choice":1,"state_1_rt":307.59999999403954,"transition":1,"state":1,"state_2_ids":[2,3],"state_2_key":0,"state_2_choice":2,"state_2_rt":361.5,"outcome":0,"rocket_colors":["#486ea7","#a75248"],"planet_colors":["#5b7c65","#706081"],"screen_resolution":[1920,1080],"minimum_resolution":1,"trial":112,"drifts":[0.552,0.734,0.35,0.354],"drift_ix":1,"trial_type":"two-step-trial","trial_index":145,"time_elapsed":695851,"internal_node_id":"0.0-126.0-0.0","task_version":"1.0","jspsych_version":"6.3.1","browser_interactions":0,"missing":false},{"state_1_ids":[1,0],"state_1_key":1,"state_1_choice":0,"state_1_rt":352.09999999403954,"transition":0,"state":1,"state_2_ids":[2,3],"state_2_key":0,"state_2_choice":2,"state_2_rt":541.4000000059605,"outcome":0,"rocket_colors":["#486ea7","#a75248"],"planet_colors":["#5b7c65","#706081"],"screen_resolution":[1920,1080],"minimum_resolution":1,"trial":113,"drifts":[0.503,0.684,0.352,0.329],"drift_ix":1,"trial_type":"two-step-trial","trial_index":146,"time_elapsed":698748,"internal_node_id":"0.0-127.0-0.0","task_version":"1.0","jspsych_version":"6.3.1","browser_interactions":0,"missing":false},{"state_1_ids":[1,0],"state_1_key":1,"state_1_choice":0,"state_1_rt":374.39999997615814,"transition":0,"state":1,"state_2_ids":[2,3],"state_2_key":1,"state_2_choice":3,"state_2_rt":446.2999999821186,"outcome":1,"rocket_colors":["#486ea7","#a75248"],"planet_colors":["#5b7c65","#706081"],"screen_resolution":[1920,1080],"minimum_resolution":1,"trial":114,"drifts":[0.517,0.664,0.374,0.314],"drift_ix":1,"trial_type":"two-step-trial","trial_index":147,"time_elapsed":701571,"internal_node_id":"0.0-128.0-0.0","task_version":"1.0","jspsych_version":"6.3.1","browser_interactions":0,"missing":false},{"state_1_ids":[1,0],"state_1_key":1,"state_1_choice":0,"state_1_rt":586.5999999940395,"transition":1,"state":0,"state_2_ids":[0,1],"state_2_key":1,"state_2_choice":1,"state_2_rt":279.19999998807907,"outcome":0,"rocket_colors":["#486ea7","#a75248"],"planet_colors":["#5b7c65","#706081"],"screen_resolution":[1920,1080],"minimum_resolution":1,"trial":115,"drifts":[0.505,0.635,0.405,0.281],"drift_ix":1,"trial_type":"two-step-trial","trial_index":148,"time_elapsed":704441,"internal_node_id":"0.0-129.0-0.0","task_version":"1.0","jspsych_version":"6.3.1","browser_interactions":0,"missing":false},{"state_1_ids":[1,0],"state_1_key":1,"state_1_choice":0,"state_1_rt":267.2000000178814,"transition":1,"state":0,"state_2_ids":[0,1],"state_2_key":1,"state_2_choice":1,"state_2_rt":273.2999999821186,"outcome":1,"rocket_colors":["#486ea7","#a75248"],"planet_colors":["#5b7c65","#706081"],"screen_resolution":[1920,1080],"minimum_resolution":1,"trial":116,"drifts":[0.506,0.651,0.43,0.328],"drift_ix":1,"trial_type":"two-step-trial","trial_index":149,"time_elapsed":706985,"internal_node_id":"0.0-130.0-0.0","task_version":"1.0","jspsych_version":"6.3.1","browser_interactions":0,"missing":false},{"state_1_ids":[1,0],"state_1_key":1,"state_1_choice":0,"state_1_rt":179.40000000596046,"transition":0,"state":1,"state_2_ids":[2,3],"state_2_key":1,"state_2_choice":3,"state_2_rt":265.2000000178814,"outcome":0,"rocket_colors":["#486ea7","#a75248"],"planet_colors":["#5b7c65","#706081"],"screen_resolution":[1920,1080],"minimum_resolution":1,"trial":117,"drifts":[0.524,0.623,0.426,0.298],"drift_ix":1,"trial_type":"two-step-trial","trial_index":150,"time_elapsed":709434,"internal_node_id":"0.0-131.0-0.0","task_version":"1.0","jspsych_version":"6.3.1","browser_interactions":0,"missing":false},{"state_1_ids":[1,0],"state_1_key":1,"state_1_choice":0,"state_1_rt":185,"transition":1,"state":0,"state_2_ids":[0,1],"state_2_key":1,"state_2_choice":1,"state_2_rt":317.59999999403954,"outcome":0,"rocket_colors":["#486ea7","#a75248"],"planet_colors":["#5b7c65","#706081"],"screen_resolution":[1920,1080],"minimum_resolution":1,"trial":118,"drifts":[0.512,0.652,0.411,0.294],"drift_ix":1,"trial_type":"two-step-trial","trial_index":151,"time_elapsed":711940,"internal_node_id":"0.0-132.0-0.0","task_version":"1.0","jspsych_version":"6.3.1","browser_interactions":0,"missing":false},{"state_1_ids":[0,1],"state_1_key":1,"state_1_choice":1,"state_1_rt":236.90000000596046,"transition":1,"state":1,"state_2_ids":[2,3],"state_2_key":1,"state_2_choice":3,"state_2_rt":263.40000000596046,"outcome":1,"rocket_colors":["#486ea7","#a75248"],"planet_colors":["#5b7c65","#706081"],"screen_resolution":[1920,1080],"minimum_resolution":1,"trial":119,"drifts":[0.502,0.652,0.413,0.344],"drift_ix":1,"trial_type":"two-step-trial","trial_index":152,"time_elapsed":714444,"internal_node_id":"0.0-133.0-0.0","task_version":"1.0","jspsych_version":"6.3.1","browser_interactions":0,"missing":false},{"state_1_ids":[1,0],"state_1_key":1,"state_1_choice":0,"state_1_rt":436.89999997615814,"transition":0,"state":1,"state_2_ids":[2,3],"state_2_key":1,"state_2_choice":3,"state_2_rt":644.1000000238419,"outcome":1,"rocket_colors":["#486ea7","#a75248"],"planet_colors":["#5b7c65","#706081"],"screen_resolution":[1920,1080],"minimum_resolution":1,"trial":120,"drifts":[0.482,0.631,0.394,0.33],"drift_ix":1,"trial_type":"two-step-trial","trial_index":153,"time_elapsed":717528,"internal_node_id":"0.0-134.0-0.0","task_version":"1.0","jspsych_version":"6.3.1","browser_interactions":0,"missing":false},{"state_1_ids":[1,0],"state_1_key":1,"state_1_choice":0,"state_1_rt":306.5,"transition":1,"state":0,"state_2_ids":[0,1],"state_2_key":1,"state_2_choice":1,"state_2_rt":319.80000001192093,"outcome":1,"rocket_colors":["#486ea7","#a75248"],"planet_colors":["#5b7c65","#706081"],"screen_resolution":[1920,1080],"minimum_resolution":1,"trial":121,"drifts":[0.447,0.633,0.361,0.325],"drift_ix":1,"trial_type":"two-step-trial","trial_index":154,"time_elapsed":720157,"internal_node_id":"0.0-135.0-0.0","task_version":"1.0","jspsych_version":"6.3.1","browser_interactions":0,"missing":false},{"state_1_ids":[0,1],"state_1_key":1,"state_1_choice":1,"state_1_rt":191.39999997615814,"transition":1,"state":1,"state_2_ids":[2,3],"state_2_key":1,"state_2_choice":3,"state_2_rt":375.5,"outcome":0,"rocket_colors":["#486ea7","#a75248"],"planet_colors":["#5b7c65","#706081"],"screen_resolution":[1920,1080],"minimum_resolution":1,"trial":122,"drifts":[0.451,0.597,0.354,0.284],"drift_ix":1,"trial_type":"two-step-trial","trial_index":155,"time_elapsed":722726,"internal_node_id":"0.0-136.0-0.0","task_version":"1.0","jspsych_version":"6.3.1","browser_interactions":0,"missing":false},{"state_1_ids":[0,1],"state_1_key":0,"state_1_choice":0,"state_1_rt":335.5,"transition":1,"state":0,"state_2_ids":[0,1],"state_2_key":1,"state_2_choice":1,"state_2_rt":270.7999999821186,"outcome":1,"rocket_colors":["#486ea7","#a75248"],"planet_colors":["#5b7c65","#706081"],"screen_resolution":[1920,1080],"minimum_resolution":1,"trial":123,"drifts":[0.511,0.55,0.353,0.29],"drift_ix":1,"trial_type":"two-step-trial","trial_index":156,"time_elapsed":725335,"internal_node_id":"0.0-137.0-0.0","task_version":"1.0","jspsych_version":"6.3.1","browser_interactions":0,"missing":false},{"state_1_ids":[0,1],"state_1_key":0,"state_1_choice":0,"state_1_rt":380,"transition":1,"state":0,"state_2_ids":[0,1],"state_2_key":1,"state_2_choice":1,"state_2_rt":329.19999998807907,"outcome":1,"rocket_colors":["#486ea7","#a75248"],"planet_colors":["#5b7c65","#706081"],"screen_resolution":[1920,1080],"minimum_resolution":1,"trial":124,"drifts":[0.523,0.509,0.361,0.326],"drift_ix":1,"trial_type":"two-step-trial","trial_index":157,"time_elapsed":728048,"internal_node_id":"0.0-138.0-0.0","task_version":"1.0","jspsych_version":"6.3.1","browser_interactions":0,"missing":false},{"state_1_ids":[1,0],"state_1_key":1,"state_1_choice":0,"state_1_rt":321.7999999821186,"transition":1,"state":0,"state_2_ids":[0,1],"state_2_key":1,"state_2_choice":1,"state_2_rt":395.2999999821186,"outcome":0,"rocket_colors":["#486ea7","#a75248"],"planet_colors":["#5b7c65","#706081"],"screen_resolution":[1920,1080],"minimum_resolution":1,"trial":125,"drifts":[0.519,0.49,0.295,0.344],"drift_ix":1,"trial_type":"two-step-trial","trial_index":158,"time_elapsed":730768,"internal_node_id":"0.0-139.0-0.0","task_version":"1.0","jspsych_version":"6.3.1","browser_interactions":0,"missing":false},{"state_1_ids":[0,1],"state_1_key":0,"state_1_choice":0,"state_1_rt":136,"transition":0,"state":1,"state_2_ids":[2,3],"state_2_key":1,"state_2_choice":3,"state_2_rt":256.90000000596046,"outcome":0,"rocket_colors":["#486ea7","#a75248"],"planet_colors":["#5b7c65","#706081"],"screen_resolution":[1920,1080],"minimum_resolution":1,"trial":126,"drifts":[0.525,0.444,0.287,0.34],"drift_ix":1,"trial_type":"two-step-trial","trial_index":159,"time_elapsed":733163,"internal_node_id":"0.0-140.0-0.0","task_version":"1.0","jspsych_version":"6.3.1","browser_interactions":0,"missing":false},{"state_1_ids":[0,1],"state_1_key":1,"state_1_choice":1,"state_1_rt":178.40000000596046,"transition":1,"state":1,"state_2_ids":[2,3],"state_2_key":1,"state_2_choice":3,"state_2_rt":194.5,"outcome":0,"rocket_colors":["#486ea7","#a75248"],"planet_colors":["#5b7c65","#706081"],"screen_resolution":[1920,1080],"minimum_resolution":1,"trial":127,"drifts":[0.473,0.463,0.278,0.293],"drift_ix":1,"trial_type":"two-step-trial","trial_index":160,"time_elapsed":735540,"internal_node_id":"0.0-141.0-0.0","task_version":"1.0","jspsych_version":"6.3.1","browser_interactions":0,"missing":false},{"state_1_ids":[0,1],"state_1_key":0,"state_1_choice":0,"state_1_rt":401.69999998807907,"transition":1,"state":0,"state_2_ids":[0,1],"state_2_key":1,"state_2_choice":1,"state_2_rt":265.40000000596046,"outcome":0,"rocket_colors":["#486ea7","#a75248"],"planet_colors":["#5b7c65","#706081"],"screen_resolution":[1920,1080],"minimum_resolution":1,"trial":128,"drifts":[0.496,0.47,0.277,0.271],"drift_ix":1,"trial_type":"two-step-trial","trial_index":161,"time_elapsed":738209,"internal_node_id":"0.0-142.0-0.0","task_version":"1.0","jspsych_version":"6.3.1","browser_interactions":0,"missing":false},{"state_1_ids":[0,1],"state_1_key":0,"state_1_choice":0,"state_1_rt":432.39999997615814,"transition":1,"state":0,"state_2_ids":[0,1],"state_2_key":0,"state_2_choice":0,"state_2_rt":299.7000000178814,"outcome":1,"rocket_colors":["#486ea7","#a75248"],"planet_colors":["#5b7c65","#706081"],"screen_resolution":[1920,1080],"minimum_resolution":1,"trial":129,"drifts":[0.477,0.48,0.264,0.281],"drift_ix":1,"trial_type":"two-step-trial","trial_index":162,"time_elapsed":740943,"internal_node_id":"0.0-143.0-0.0","task_version":"1.0","jspsych_version":"6.3.1","browser_interactions":0,"missing":false},{"state_1_ids":[0,1],"state_1_key":0,"state_1_choice":0,"state_1_rt":347.39999997615814,"transition":1,"state":0,"state_2_ids":[0,1],"state_2_key":0,"state_2_choice":0,"state_2_rt":282.59999999403954,"outcome":1,"rocket_colors":["#486ea7","#a75248"],"planet_colors":["#5b7c65","#706081"],"screen_resolution":[1920,1080],"minimum_resolution":1,"trial":130,"drifts":[0.494,0.486,0.258,0.258],"drift_ix":1,"trial_type":"two-step-trial","trial_index":163,"time_elapsed":743576,"internal_node_id":"0.0-144.0-0.0","task_version":"1.0","jspsych_version":"6.3.1","browser_interactions":0,"missing":false},{"state_1_ids":[1,0],"state_1_key":1,"state_1_choice":0,"state_1_rt":357.40000000596046,"transition":1,"state":0,"state_2_ids":[0,1],"state_2_key":0,"state_2_choice":0,"state_2_rt":294.5,"outcome":0,"rocket_colors":["#486ea7","#a75248"],"planet_colors":["#5b7c65","#706081"],"screen_resolution":[1920,1080],"minimum_resolution":1,"trial":131,"drifts":[0.493,0.471,0.325,0.274],"drift_ix":1,"trial_type":"two-step-trial","trial_index":164,"time_elapsed":746231,"internal_node_id":"0.0-145.0-0.0","task_version":"1.0","jspsych_version":"6.3.1","browser_interactions":0,"missing":false},{"state_1_ids":[1,0],"state_1_key":1,"state_1_choice":0,"state_1_rt":365.40000000596046,"transition":1,"state":0,"state_2_ids":[0,1],"state_2_key":0,"state_2_choice":0,"state_2_rt":293.09999999403954,"outcome":0,"rocket_colors":["#486ea7","#a75248"],"planet_colors":["#5b7c65","#706081"],"screen_resolution":[1920,1080],"minimum_resolution":1,"trial":132,"drifts":[0.495,0.414,0.29,0.261],"drift_ix":1,"trial_type":"two-step-trial","trial_index":165,"time_elapsed":748892,"internal_node_id":"0.0-146.0-0.0","task_version":"1.0","jspsych_version":"6.3.1","browser_interactions":0,"missing":false},{"state_1_ids":[0,1],"state_1_key":0,"state_1_choice":0,"state_1_rt":409.40000000596046,"transition":1,"state":0,"state_2_ids":[0,1],"state_2_key":1,"state_2_choice":1,"state_2_rt":259.09999999403954,"outcome":1,"rocket_colors":["#486ea7","#a75248"],"planet_colors":["#5b7c65","#706081"],"screen_resolution":[1920,1080],"minimum_resolution":1,"trial":133,"drifts":[0.486,0.393,0.318,0.253],"drift_ix":1,"trial_type":"two-step-trial","trial_index":166,"time_elapsed":751563,"internal_node_id":"0.0-147.0-0.0","task_version":"1.0","jspsych_version":"6.3.1","browser_interactions":0,"missing":false},{"state_1_ids":[1,0],"state_1_key":1,"state_1_choice":0,"state_1_rt":326.2999999821186,"transition":1,"state":0,"state_2_ids":[0,1],"state_2_key":1,"state_2_choice":1,"state_2_rt":350,"outcome":1,"rocket_colors":["#486ea7","#a75248"],"planet_colors":["#5b7c65","#706081"],"screen_resolution":[1920,1080],"minimum_resolution":1,"trial":134,"drifts":[0.485,0.381,0.329,0.268],"drift_ix":1,"trial_type":"two-step-trial","trial_index":167,"time_elapsed":754242,"internal_node_id":"0.0-148.0-0.0","task_version":"1.0","jspsych_version":"6.3.1","browser_interactions":0,"missing":false},{"state_1_ids":[1,0],"state_1_key":0,"state_1_choice":1,"state_1_rt":318.5,"transition":1,"state":1,"state_2_ids":[2,3],"state_2_key":1,"state_2_choice":3,"state_2_rt":281.30000001192093,"outcome":1,"rocket_colors":["#486ea7","#a75248"],"planet_colors":["#5b7c65","#706081"],"screen_resolution":[1920,1080],"minimum_resolution":1,"trial":135,"drifts":[0.476,0.33,0.348,0.266],"drift_ix":1,"trial_type":"two-step-trial","trial_index":168,"time_elapsed":756844,"internal_node_id":"0.0-149.0-0.0","task_version":"1.0","jspsych_version":"6.3.1","browser_interactions":0,"missing":false},{"state_1_ids":[1,0],"state_1_key":1,"state_1_choice":0,"state_1_rt":392.09999999403954,"transition":0,"state":1,"state_2_ids":[2,3],"state_2_key":0,"state_2_choice":2,"state_2_rt":387.59999999403954,"outcome":0,"rocket_colors":["#486ea7","#a75248"],"planet_colors":["#5b7c65","#706081"],"screen_resolution":[1920,1080],"minimum_resolution":1,"trial":136,"drifts":[0.408,0.356,0.348,0.276],"drift_ix":1,"trial_type":"two-step-trial","trial_index":169,"time_elapsed":759627,"internal_node_id":"0.0-150.0-0.0","task_version":"1.0","jspsych_version":"6.3.1","browser_interactions":0,"missing":false},{"state_1_ids":[0,1],"state_1_key":0,"state_1_choice":0,"state_1_rt":374.09999999403954,"transition":1,"state":0,"state_2_ids":[0,1],"state_2_key":1,"state_2_choice":1,"state_2_rt":377.89999997615814,"outcome":0,"rocket_colors":["#486ea7","#a75248"],"planet_colors":["#5b7c65","#706081"],"screen_resolution":[1920,1080],"minimum_resolution":1,"trial":137,"drifts":[0.444,0.402,0.328,0.271],"drift_ix":1,"trial_type":"two-step-trial","trial_index":170,"time_elapsed":762382,"internal_node_id":"0.0-151.0-0.0","task_version":"1.0","jspsych_version":"6.3.1","browser_interactions":0,"missing":false},{"state_1_ids":[0,1],"state_1_key":0,"state_1_choice":0,"state_1_rt":407.09999999403954,"transition":1,"state":0,"state_2_ids":[0,1],"state_2_key":0,"state_2_choice":0,"state_2_rt":341.09999999403954,"outcome":0,"rocket_colors":["#486ea7","#a75248"],"planet_colors":["#5b7c65","#706081"],"screen_resolution":[1920,1080],"minimum_resolution":1,"trial":138,"drifts":[0.443,0.378,0.381,0.256],"drift_ix":1,"trial_type":"two-step-trial","trial_index":171,"time_elapsed":765133,"internal_node_id":"0.0-152.0-0.0","task_version":"1.0","jspsych_version":"6.3.1","browser_interactions":0,"missing":false},{"state_1_ids":[0,1],"state_1_key":0,"state_1_choice":0,"state_1_rt":439.90000000596046,"transition":1,"state":0,"state_2_ids":[0,1],"state_2_key":1,"state_2_choice":1,"state_2_rt":268.7999999821186,"outcome":0,"rocket_colors":["#486ea7","#a75248"],"planet_colors":["#5b7c65","#706081"],"screen_resolution":[1920,1080],"minimum_resolution":1,"trial":139,"drifts":[0.465,0.376,0.423,0.302],"drift_ix":1,"trial_type":"two-step-trial","trial_index":172,"time_elapsed":767846,"internal_node_id":"0.0-153.0-0.0","task_version":"1.0","jspsych_version":"6.3.1","browser_interactions":0,"missing":false},{"state_1_ids":[1,0],"state_1_key":1,"state_1_choice":0,"state_1_rt":397.10000002384186,"transition":1,"state":0,"state_2_ids":[0,1],"state_2_key":0,"state_2_choice":0,"state_2_rt":410.40000000596046,"outcome":1,"rocket_colors":["#486ea7","#a75248"],"planet_colors":["#5b7c65","#706081"],"screen_resolution":[1920,1080],"minimum_resolution":1,"trial":140,"drifts":[0.503,0.356,0.419,0.307],"drift_ix":1,"trial_type":"two-step-trial","trial_index":173,"time_elapsed":770657,"internal_node_id":"0.0-154.0-0.0","task_version":"1.0","jspsych_version":"6.3.1","browser_interactions":0,"missing":false},{"state_1_ids":[0,1],"state_1_key":0,"state_1_choice":0,"state_1_rt":365.40000000596046,"transition":1,"state":0,"state_2_ids":[0,1],"state_2_key":0,"state_2_choice":0,"state_2_rt":299.7999999821186,"outcome":0,"rocket_colors":["#486ea7","#a75248"],"planet_colors":["#5b7c65","#706081"],"screen_resolution":[1920,1080],"minimum_resolution":1,"trial":141,"drifts":[0.498,0.362,0.406,0.333],"drift_ix":1,"trial_type":"two-step-trial","trial_index":174,"time_elapsed":773326,"internal_node_id":"0.0-155.0-0.0","task_version":"1.0","jspsych_version":"6.3.1","browser_interactions":0,"missing":false},{"state_1_ids":[1,0],"state_1_key":1,"state_1_choice":0,"state_1_rt":408.59999999403954,"transition":1,"state":0,"state_2_ids":[0,1],"state_2_key":1,"state_2_choice":1,"state_2_rt":404.39999997615814,"outcome":1,"rocket_colors":["#486ea7","#a75248"],"planet_colors":["#5b7c65","#706081"],"screen_resolution":[1920,1080],"minimum_resolution":1,"trial":142,"drifts":[0.462,0.376,0.412,0.337],"drift_ix":1,"trial_type":"two-step-trial","trial_index":175,"time_elapsed":776141,"internal_node_id":"0.0-156.0-0.0","task_version":"1.0","jspsych_version":"6.3.1","browser_interactions":0,"missing":false},{"state_1_ids":[1,0],"state_1_key":1,"state_1_choice":0,"state_1_rt":362.5,"transition":0,"state":1,"state_2_ids":[2,3],"state_2_key":1,"state_2_choice":3,"state_2_rt":662.6999999880791,"outcome":0,"rocket_colors":["#486ea7","#a75248"],"planet_colors":["#5b7c65","#706081"],"screen_resolution":[1920,1080],"minimum_resolution":1,"trial":143,"drifts":[0.494,0.345,0.399,0.358],"drift_ix":1,"trial_type":"two-step-trial","trial_index":176,"time_elapsed":779169,"internal_node_id":"0.0-157.0-0.0","task_version":"1.0","jspsych_version":"6.3.1","browser_interactions":0,"missing":false},{"state_1_ids":[0,1],"state_1_key":0,"state_1_choice":0,"state_1_rt":383.5,"transition":0,"s