[{"success":true,"timeout":false,"failed_images":[],"failed_audio":[],"failed_video":[],"trial_type":"preload","trial_index":0,"time_elapsed":541,"internal_node_id":"0.0-0.0","task_version":"1.0","jspsych_version":"6.3.1"},{"success":true,"trial_type":"fullscreen","trial_index":1,"time_elapsed":22145,"internal_node_id":"0.0-1.0","task_version":"1.0","jspsych_version":"6.3.1"},{"view_history":[{"page_index":0,"viewing_time":3733.5}],"rt":3733.800000190735,"trial_type":"instructions","trial_index":2,"time_elapsed":25880,"internal_node_id":"0.0-2.0","task_version":"1.0","jspsych_version":"6.3.1"},{"responses":{"Q03":"3","Q01":"4","Q06":"1","Q02":"1","Q04":"5","Q07":"6","Q05":"3"},"rt":29640.70000076294,"item_order":[2,0,5,1,3,6,4],"radio_events":[3505.1000003814697,6846.800000190735,8275.300000190735,9501.60000038147,14282.900000572205,16713.10000038147,19424.300000190735,27783.300000190735],"key_events":[],"mouse_events":[0.20000076293945312,3505.1000003814697,6846.800000190735,8275.300000190735,9501.60000038147,14282.900000572205,15959.20000076294,16713.10000038147,17950.400000572205,18816.60000038147,19424.300000190735,27333.300000190735,27783.300000190735,29639.70000076294],"straightlining":0.2857142857142857,"zigzagging":0.3333333333333333,"honeypot":0,"survey":"greed","trial_type":"survey-template","trial_index":3,"time_elapsed":55527,"internal_node_id":"0.0-3.0","task_version":"1.0","jspsych_version":"6.3.1"},{"responses":{"Q05":"0","Q07":"0","Q06":"0","Q03":"0","Q04":"0","Q02":"0","Q08":"0","Q01":"0"},"rt":40013.599999427795,"item_order":[4,6,5,2,3,1,7,0],"radio_events":[8208.699999809265,10413.39999961853,15487.39999961853,18502.39999961853,19706.39999961853,25432.699999809265,31226.5,38921.699999809265],"key_events":[],"mouse_events":[8208.699999809265,10413.39999961853,15487.39999961853,17501.29999923706,18502.39999961853,19706.39999961853,25432.699999809265,31226.5,38123.39999961853,38921.699999809265,40013],"straightlining":1,"zigzagging":0,"honeypot":0,"survey":"depression","trial_type":"survey-template","trial_index":4,"time_elapsed":95542,"internal_node_id":"0.0-4.0","task_version":"1.0","jspsych_version":"6.3.1"},{"responses":{"Q02":"4","Q06":"5","Q03":"5","Q07":"3","Q01":"5","Q05":"4","Q04":"4"},"rt":18065.70000076294,"item_order":[1,5,2,6,0,4,3],"radio_events":[6240.800000190735,7489.5,7995.60000038147,9514.5,10954.400000572205,12597,14475.800000190735,16523.10000038147],"key_events":[],"mouse_events":[6240.800000190735,7489.5,7995.60000038147,9514.5,10954.400000572205,12597,14475.800000190735,15555.60000038147,16523.10000038147,18064.800000190735],"straightlining":0.2857142857142857,"zigzagging":0,"honeypot":0,"survey":"artistic","trial_type":"survey-template","trial_index":5,"time_elapsed":113611,"internal_node_id":"0.0-5.0","task_version":"1.0","jspsych_version":"6.3.1"},{"responses":{"Q04":"0","Q02":"0","Q03":"0","Q07":"0","Q05":"0","Q01":"0","Q08":"3","Q06":"0"},"rt":86546.19999980927,"item_order":[3,1,2,6,4,0,7,5],"radio_events":[7803.900000572205,14261.699999809265,18008.10000038147,19695.400000572205,24431.900000572205,25838,28324.300000190735,31227,51972.5],"key_events":[],"mouse_events":[7803.900000572205,14261.699999809265,18008.10000038147,19695.400000572205,22553,23869.300000190735,24431.900000572205,25838,28324.300000190735,31227,51972.5,65596.60000038147,80131.80000019073,86545.5],"straightlining":0.875,"zigzagging":0.2857142857142857,"honeypot":0,"survey":"mania","trial_type":"survey-template","trial_index":6,"time_elapsed":200159,"internal_node_id":"0.0-6.0","task_version":"1.0","jspsych_version":"6.3.1"},{"responses":{"Q02":"0","Q05":"1","Q06":"1","Q07":"0","Q01":"1","Q04":"1","Q08":"0","Q03":"0"},"rt":24443.400000572205,"item_order":[1,4,5,6,0,3,7,2],"radio_events":[6048.400000572205,6814.400000572205,7421,10019.800000190735,12810,13743.800000190735,17984.900000572205,20640.10000038147],"key_events":[],"mouse_events":[4687.5,6048.400000572205,6814.400000572205,7421,10019.800000190735,12810,13743.800000190735,16556.10000038147,17085.10000038147,17984.900000572205,19751.400000572205,20640.10000038147,24442.800000190735],"straightlining":0.5,"zigzagging":0.5714285714285714,"honeypot":0,"survey":"anxiety","trial_type":"survey-template","trial_index":7,"time_elapsed":224604,"internal_node_id":"0.0-7.0","task_version":"1.0","jspsych_version":"6.3.1"},{"view_history":"[{\"page_index\":0,\"viewing_time\":4989.400000572205},{\"page_index\":1,\"viewing_time\":3386.300000190735},{\"page_index\":2,\"viewing_time\":13072.599999427795},{\"page_index\":3,\"viewing_time\":14075},{\"page_index\":4,\"viewing_time\":11958.199999809265},{\"page_index\":5,\"viewing_time\":11126.5},{\"page_index\":6,\"viewing_time\":2688.9000005722046},{\"page_index\":7,\"viewing_time\":4342.599999427795},{\"page_index\":8,\"viewing_time\":6154.10000038147},{\"page_index\":9,\"viewing_time\":15828.89999961853},{\"page_index\":10,\"viewing_time\":7335.200000762939}]","rt":94964.9000005722,"trial_type":"two-step-instructions","trial_index":8,"time_elapsed":319573,"internal_node_id":"0.0-8.0-1.0","task_version":"1.0","jspsych_version":"6.3.1"},{"responses":["left/right arrow keys","True","True"],"num_errors":0,"rt":19139.10000038147,"quiz":1,"trial_type":"two-step-comprehension","trial_index":9,"time_elapsed":338715,"internal_node_id":"0.0-8.0-2.0","task_version":"1.0","jspsych_version":"6.3.1"},{"view_history":"[{\"page_index\":0,\"viewing_time\":3358.699999809265}]","rt":3359.199999809265,"phase":"instructions_1b","trial_type":"two-step-instructions","trial_index":10,"time_elapsed":342078,"internal_node_id":"0.0-9.0-0.0-0.0","task_version":"1.0","jspsych_version":"6.3.1"},{"state_2_ids":[0,1],"state_2_key":0,"state_2_choice":0,"state_2_rt":2247.199999809265,"outcome":0,"screen_resolution":[1392,1484],"minimum_resolution":1,"trial_type":"alien-practice","trial_index":11,"time_elapsed":346531,"internal_node_id":"0.0-9.0-1.0-0.0","task_version":"1.0","jspsych_version":"6.3.1"},{"state_2_ids":[0,1],"state_2_key":1,"state_2_choice":1,"state_2_rt":764.3999996185303,"outcome":0,"screen_resolution":[1392,1484],"minimum_resolution":1,"trial_type":"alien-practice","trial_index":12,"time_elapsed":349503,"internal_node_id":"0.0-9.0-2.0-0.0","task_version":"1.0","jspsych_version":"6.3.1"},{"state_2_ids":[0,1],"state_2_key":1,"state_2_choice":1,"state_2_rt":1334.5,"outcome":1,"screen_resolution":[1392,1484],"minimum_resolution":1,"trial_type":"alien-practice","trial_index":13,"time_elapsed":353046,"internal_node_id":"0.0-9.0-3.0-0.0","task_version":"1.0","jspsych_version":"6.3.1"},{"state_2_ids":[0,1],"state_2_key":1,"state_2_choice":1,"state_2_rt":1200.5,"outcome":1,"screen_resolution":[1392,1484],"minimum_resolution":1,"trial_type":"alien-practice","trial_index":14,"time_elapsed":356457,"internal_node_id":"0.0-9.0-4.0-0.0","task_version":"1.0","jspsych_version":"6.3.1"},{"state_2_ids":[0,1],"state_2_key":1,"state_2_choice":1,"state_2_rt":997,"outcome":1,"screen_resolution":[1392,1484],"minimum_resolution":1,"trial_type":"alien-practice","trial_index":15,"time_elapsed":359661,"internal_node_id":"0.0-9.0-5.0-0.0","task_version":"1.0","jspsych_version":"6.3.1"},{"view_history":"[{\"page_index\":0,\"viewing_time\":6668.89999961853},{\"page_index\":1,\"viewing_time\":1980.1999998092651},{\"page_index\":2,\"viewing_time\":14636.5},{\"page_index\":3,\"viewing_time\":12319},{\"page_index\":4,\"viewing_time\":4106.199999809265},{\"page_index\":5,\"viewing_time\":2610.1000003814697}]","rt":42321.29999923706,"trial_type":"two-step-instructions","trial_index":16,"time_elapsed":401985,"internal_node_id":"0.0-10.0-1.0","task_version":"1.0","jspsych_version":"6.3.1"},{"responses":["left/right arrow keys","False","True"],"num_errors":0,"rt":8897.5,"quiz":2,"trial_type":"two-step-comprehension","trial_index":17,"time_elapsed":410884,"internal_node_id":"0.0-10.0-2.0","task_version":"1.0","jspsych_version":"6.3.1"},{"view_history":"[{\"page_index\":0,\"viewing_time\":10211.800000190735},{\"page_index\":1,\"viewing_time\":4008.7999992370605},{\"page_index\":0,\"viewing_time\":1481.2000007629395},{\"page_index\":1,\"viewing_time\":2824},{\"page_index\":2,\"viewing_time\":35224.79999923706}]","rt":53751.099999427795,"trial_type":"two-step-instructions","trial_index":18,"time_elapsed":464637,"internal_node_id":"0.0-11.0-0.0","task_version":"1.0","jspsych_version":"6.3.1"},{"state_1_ids":[1,0],"state_1_key":0,"state_1_choice":1,"state_1_rt":1864.2999992370605,"transition":1,"state":1,"state_2_ids":[2,3],"state_2_key":1,"state_2_choice":3,"state_2_rt":2809.8999996185303,"outcome":1,"rocket_colors":["#955db9","#48a782"],"planet_colors":["#7f5d5d","#5f6f81"],"screen_resolution":[1392,1484],"minimum_resolution":1,"trial":0,"trial_type":"two-step-trial","trial_index":19,"time_elapsed":471320,"internal_node_id":"0.0-11.0-1.0-0.0","task_version":"1.0","jspsych_version":"6.3.1","missing":false},{"state_1_ids":[0,1],"state_1_key":1,"state_1_choice":1,"state_1_rt":1697.1000003814697,"transition":1,"state":1,"state_2_ids":[2,3],"state_2_key":1,"state_2_choice":3,"state_2_rt":704.6999998092651,"outcome":1,"rocket_colors":["#955db9","#48a782"],"planet_colors":["#7f5d5d","#5f6f81"],"screen_resolution":[1392,1484],"minimum_resolution":1,"trial":0,"trial_type":"two-step-trial","trial_index":20,"time_elapsed":475731,"internal_node_id":"0.0-11.0-1.0-0.1","task_version":"1.0","jspsych_version":"6.3.1","missing":false},{"state_1_ids":[1,0],"state_1_key":0,"state_1_choice":1,"state_1_rt":818.5999994277954,"transition":1,"state":1,"state_2_ids":[2,3],"state_2_key":1,"state_2_choice":3,"state_2_rt":605.3999996185303,"outcome":0,"rocket_colors":["#955db9","#48a782"],"planet_colors":["#7f5d5d","#5f6f81"],"screen_resolution":[1392,1484],"minimum_resolution":1,"trial":0,"trial_type":"two-step-trial","trial_index":21,"time_elapsed":479162,"internal_node_id":"0.0-11.0-1.0-0.2","task_version":"1.0","jspsych_version":"6.3.1","missing":false},{"state_1_ids":[0,1],"state_1_key":1,"state_1_choice":1,"state_1_rt":953.8999996185303,"transition":1,"state":1,"state_2_ids":[2,3],"state_2_key":1,"state_2_choice":3,"state_2_rt":1494.3000001907349,"outcome":1,"rocket_colors":["#955db9","#48a782"],"planet_colors":["#7f5d5d","#5f6f81"],"screen_resolution":[1392,1484],"minimum_resolution":1,"trial":0,"trial_type":"two-step-trial","trial_index":22,"time_elapsed":483614,"internal_node_id":"0.0-11.0-1.0-0.3","task_version":"1.0","jspsych_version":"6.3.1","missing":false},{"state_1_ids":[0,1],"state_1_key":0,"state_1_choice":0,"state_1_rt":877.8999996185303,"transition":1,"state":0,"state_2_ids":[0,1],"state_2_key":1,"state_2_choice":1,"state_2_rt":1101.3000001907349,"outcome":1,"rocket_colors":["#955db9","#48a782"],"planet_colors":["#7f5d5d","#5f6f81"],"screen_resolution":[1392,1484],"minimum_resolution":1,"trial":0,"trial_type":"two-step-trial","trial_index":23,"time_elapsed":487596,"internal_node_id":"0.0-11.0-1.0-0.4","task_version":"1.0","jspsych_version":"6.3.1","missing":false},{"state_1_ids":[1,0],"state_1_key":1,"state_1_choice":0,"state_1_rt":901.1000003814697,"transition":1,"state":0,"state_2_ids":[0,1],"state_2_key":1,"state_2_choice":1,"state_2_rt":817.8999996185303,"outcome":0,"rocket_colors":["#955db9","#48a782"],"planet_colors":["#7f5d5d","#5f6f81"],"screen_resolution":[1392,1484],"minimum_resolution":1,"trial":0,"trial_type":"two-step-trial","trial_index":24,"time_elapsed":491323,"internal_node_id":"0.0-11.0-1.0-0.5","task_version":"1.0","jspsych_version":"6.3.1","missing":false},{"state_1_ids":[0,1],"state_1_key":0,"state_1_choice":0,"state_1_rt":662,"transition":1,"state":0,"state_2_ids":[0,1],"state_2_key":1,"state_2_choice":1,"state_2_rt":536.5,"outcome":0,"rocket_colors":["#955db9","#48a782"],"planet_colors":["#7f5d5d","#5f6f81"],"screen_resolution":[1392,1484],"minimum_resolution":1,"trial":0,"trial_type":"two-step-trial","trial_index":25,"time_elapsed":494527,"internal_node_id":"0.0-11.0-1.0-0.6","task_version":"1.0","jspsych_version":"6.3.1","missing":false},{"state_1_ids":[1,0],"state_1_key":1,"state_1_choice":0,"state_1_rt":1037.3000001907349,"transition":1,"state":0,"state_2_ids":[0,1],"state_2_key":1,"state_2_choice":1,"state_2_rt":557.6000003814697,"outcome":0,"rocket_colors":["#955db9","#48a782"],"planet_colors":["#7f5d5d","#5f6f81"],"screen_resolution":[1392,1484],"minimum_resolution":1,"trial":0,"trial_type":"two-step-trial","trial_index":26,"time_elapsed":498127,"internal_node_id":"0.0-11.0-1.0-0.7","task_version":"1.0","jspsych_version":"6.3.1","missing":false},{"state_1_ids":[1,0],"state_1_key":0,"state_1_choice":1,"state_1_rt":766.4000005722046,"transition":0,"state":0,"state_2_ids":[0,1],"state_2_key":1,"state_2_choice":1,"state_2_rt":2291.4000005722046,"outcome":1,"rocket_colors":["#955db9","#48a782"],"planet_colors":["#7f5d5d","#5f6f81"],"screen_resolution":[1392,1484],"minimum_resolution":1,"trial":0,"trial_type":"two-step-trial","trial_index":27,"time_elapsed":503188,"internal_node_id":"0.0-11.0-1.0-0.8","task_version":"1.0","jspsych_version":"6.3.1","missing":false},{"state_1_ids":[0,1],"state_1_key":1,"state_1_choice":1,"state_1_rt":834.1999998092651,"transition":0,"state":0,"state_2_ids":[0,1],"state_2_key":1,"state_2_choice":1,"state_2_rt":875.5,"outcome":0,"rocket_colors":["#955db9","#48a782"],"planet_colors":["#7f5d5d","#5f6f81"],"screen_resolution":[1392,1484],"minimum_resolution":1,"trial":0,"trial_type":"two-step-trial","trial_index":28,"time_elapsed":506904,"internal_node_id":"0.0-11.0-1.0-0.9","task_version":"1.0","jspsych_version":"6.3.1","missing":false},{"view_history":"[{\"page_index\":0,\"viewing_time\":3924.1000003814697},{\"page_index\":1,\"viewing_time\":3689.699999809265},{\"page_index\":2,\"viewing_time\":1620.1999998092651},{\"page_index\":3,\"viewing_time\":2677.800000190735},{\"page_index\":4,\"viewing_time\":13387.5},{\"page_index\":5,\"viewing_time\":17516.699999809265},{\"page_index\":6,\"viewing_time\":10316.5}]","rt":53132.800000190735,"trial_type":"two-step-instructions","trial_index":29,"time_elapsed":560039,"internal_node_id":"0.0-12.0-1.0","task_version":"1.0","jspsych_version":"6.3.1"},{"responses":["True","False","True"],"num_errors":0,"rt":15705.300000190735,"quiz":3,"trial_type":"two-step-comprehension","trial_index":30,"time_elapsed":575746,"internal_node_id":"0.0-12.0-2.0","task_version":"1.0","jspsych_version":"6.3.1"},{"view_history":"[{\"page_index\":0,\"viewing_time\":1729},{\"page_index\":1,\"viewing_time\":5196.39999961853},{\"page_index\":2,\"viewing_time\":3960.1000003814697}]","rt":10885.89999961853,"trial_type":"two-step-instructions","trial_index":31,"time_elapsed":586634,"internal_node_id":"0.0-13.0","task_version":"1.0","jspsych_version":"6.3.1"},{"state_1_ids":[1,0],"state_1_key":0,"state_1_choice":1,"state_1_rt":1865.1000003814697,"transition":1,"state":1,"state_2_ids":[2,3],"state_2_key":0,"state_2_choice":2,"state_2_rt":4937.5,"outcome":0,"rocket_colors":["#a75248","#486ea7"],"planet_colors":["#706081","#5b7c65"],"screen_resolution":[1392,1484],"minimum_resolution":1,"trial":1,"drifts":[0.305,0.438,0.598,0.713],"drift_ix":3,"trial_type":"two-step-trial","trial_index":32,"time_elapsed":595440,"internal_node_id":"0.0-14.0-0.0","task_version":"1.0","jspsych_version":"6.3.1","browser_interactions":0,"missing":false},{"state_1_ids":[1,0],"state_1_key":0,"state_1_choice":1,"state_1_rt":675.3000001907349,"transition":1,"state":1,"state_2_ids":[2,3],"state_2_key":1,"state_2_choice":3,"state_2_rt":549.1999998092651,"outcome":1,"rocket_colors":["#a75248","#486ea7"],"planet_colors":["#706081","#5b7c65"],"screen_resolution":[1392,1484],"minimum_resolution":1,"trial":2,"drifts":[0.326,0.396,0.598,0.702],"drift_ix":3,"trial_type":"two-step-trial","trial_index":33,"time_elapsed":598668,"internal_node_id":"0.0-15.0-0.0","task_version":"1.0","jspsych_version":"6.3.1","browser_interactions":0,"missing":false},{"state_1_ids":[0,1],"state_1_key":1,"state_1_choice":1,"state_1_rt":1026.5,"transition":1,"state":1,"state_2_ids":[2,3],"state_2_key":1,"state_2_choice":3,"state_2_rt":548.2000007629395,"outcome":0,"rocket_colors":["#a75248","#486ea7"],"planet_colors":["#706081","#5b7c65"],"screen_resolution":[1392,1484],"minimum_resolution":1,"trial":3,"drifts":[0.302,0.426,0.576,0.736],"drift_ix":3,"trial_type":"two-step-trial","trial_index":34,"time_elapsed":602250,"internal_node_id":"0.0-16.0-0.0","task_version":"1.0","jspsych_version":"6.3.1","browser_interactions":0,"missing":false},{"state_1_ids":[0,1],"state_1_key":1,"state_1_choice":1,"state_1_rt":526.8000001907349,"transition":0,"state":0,"state_2_ids":[0,1],"state_2_key":0,"state_2_choice":0,"state_2_rt":2314.5,"outcome":0,"rocket_colors":["#a75248","#486ea7"],"planet_colors":["#706081","#5b7c65"],"screen_resolution":[1392,1484],"minimum_resolution":1,"trial":4,"drifts":[0.362,0.43,0.582,0.702],"drift_ix":3,"trial_type":"two-step-trial","trial_index":35,"time_elapsed":607097,"internal_node_id":"0.0-17.0-0.0","task_version":"1.0","jspsych_version":"6.3.1","browser_interactions":0,"missing":false},{"state_1_ids":[0,1],"state_1_key":1,"state_1_choice":1,"state_1_rt":495.5,"transition":1,"state":1,"state_2_ids":[2,3],"state_2_key":1,"state_2_choice":3,"state_2_rt":861.1000003814697,"outcome":1,"rocket_colors":["#a75248","#486ea7"],"planet_colors":["#706081","#5b7c65"],"screen_resolution":[1392,1484],"minimum_resolution":1,"trial":5,"drifts":[0.368,0.485,0.615,0.711],"drift_ix":3,"trial_type":"two-step-trial","trial_index":36,"time_elapsed":610458,"internal_node_id":"0.0-18.0-0.0","task_version":"1.0","jspsych_version":"6.3.1","browser_interactions":0,"missing":false},{"state_1_ids":[0,1],"state_1_key":1,"state_1_choice":1,"state_1_rt":564.6999998092651,"transition":1,"state":1,"state_2_ids":[2,3],"state_2_key":1,"state_2_choice":3,"state_2_rt":1009.1999998092651,"outcome":0,"rocket_colors":["#a75248","#486ea7"],"planet_colors":["#706081","#5b7c65"],"screen_resolution":[1392,1484],"minimum_resolution":1,"trial":6,"drifts":[0.404,0.486,0.616,0.744],"drift_ix":3,"trial_type":"two-step-trial","trial_index":37,"time_elapsed":614040,"internal_node_id":"0.0-19.0-0.0","task_version":"1.0","jspsych_version":"6.3.1","browser_interactions":0,"missing":false},{"state_1_ids":[1,0],"state_1_key":1,"state_1_choice":0,"state_1_rt":515.6000003814697,"transition":1,"state":0,"state_2_ids":[0,1],"state_2_key":0,"state_2_choice":0,"state_2_rt":1561.8000001907349,"outcome":1,"rocket_colors":["#a75248","#486ea7"],"planet_colors":["#706081","#5b7c65"],"screen_resolution":[1392,1484],"minimum_resolution":1,"trial":7,"drifts":[0.387,0.453,0.558,0.725],"drift_ix":3,"trial_type":"two-step-trial","trial_index":38,"time_elapsed":618120,"internal_node_id":"0.0-20.0-0.0","task_version":"1.0","jspsych_version":"6.3.1","browser_interactions":0,"missing":false},{"state_1_ids":[1,0],"state_1_key":1,"state_1_choice":0,"state_1_rt":879,"transition":1,"state":0,"state_2_ids":[0,1],"state_2_key":0,"state_2_choice":0,"state_2_rt":515.5,"outcome":1,"rocket_colors":["#a75248","#486ea7"],"planet_colors":["#706081","#5b7c65"],"screen_resolution":[1392,1484],"minimum_resolution":1,"trial":8,"drifts":[0.438,0.474,0.539,0.737],"drift_ix":3,"trial_type":"two-step-trial","trial_index":39,"time_elapsed":621522,"internal_node_id":"0.0-21.0-0.0","task_version":"1.0","jspsych_version":"6.3.1","browser_interactions":0,"missing":false},{"state_1_ids":[1,0],"state_1_key":1,"state_1_choice":0,"state_1_rt":548.6000003814697,"transition":1,"state":0,"state_2_ids":[0,1],"state_2_key":0,"state_2_choice":0,"state_2_rt":538.5999994277954,"outcome":0,"rocket_colors":["#a75248","#486ea7"],"planet_colors":["#706081","#5b7c65"],"screen_resolution":[1392,1484],"minimum_resolution":1,"trial":9,"drifts":[0.459,0.489,0.53,0.714],"drift_ix":3,"trial_type":"two-step-trial","trial_index":40,"time_elapsed":624616,"internal_node_id":"0.0-22.0-0.0","task_version":"1.0","jspsych_version":"6.3.1","browser_interactions":0,"missing":false},{"state_1_ids":[0,1],"state_1_key":1,"state_1_choice":1,"state_1_rt":626.8000001907349,"transition":0,"state":0,"state_2_ids":[0,1],"state_2_key":1,"state_2_choice":1,"state_2_rt":1448.4000005722046,"outcome":1,"rocket_colors":["#a75248","#486ea7"],"planet_colors":["#706081","#5b7c65"],"screen_resolution":[1392,1484],"minimum_resolution":1,"trial":10,"drifts":[0.45,0.506,0.534,0.707],"drift_ix":3,"trial_type":"two-step-trial","trial_index":41,"time_elapsed":628697,"internal_node_id":"0.0-23.0-0.0","task_version":"1.0","jspsych_version":"6.3.1","browser_interactions":0,"missing":false},{"state_1_ids":[1,0],"state_1_key":0,"state_1_choice":1,"state_1_rt":753.3000001907349,"transition":0,"state":0,"state_2_ids":[0,1],"state_2_key":1,"state_2_choice":1,"state_2_rt":594.5,"outcome":1,"rocket_colors":["#a75248","#486ea7"],"planet_colors":["#706081","#5b7c65"],"screen_resolution":[1392,1484],"minimum_resolution":1,"trial":11,"drifts":[0.425,0.476,0.477,0.71],"drift_ix":3,"trial_type":"two-step-trial","trial_index":42,"time_elapsed":632051,"internal_node_id":"0.0-24.0-0.0","task_version":"1.0","jspsych_version":"6.3.1","browser_interactions":0,"missing":false},{"state_1_ids":[1,0],"state_1_key":0,"state_1_choice":1,"state_1_rt":482.69999980926514,"transition":1,"state":1,"state_2_ids":[2,3],"state_2_key":1,"state_2_choice":3,"state_2_rt":1077.8000001907349,"outcome":0,"rocket_colors":["#a75248","#486ea7"],"planet_colors":["#706081","#5b7c65"],"screen_resolution":[1392,1484],"minimum_resolution":1,"trial":12,"drifts":[0.397,0.483,0.492,0.681],"drift_ix":3,"trial_type":"two-step-trial","trial_index":43,"time_elapsed":635617,"internal_node_id":"0.0-25.0-0.0","task_version":"1.0","jspsych_version":"6.3.1","browser_interactions":0,"missing":false},{"state_1_ids":[1,0],"state_1_key":0,"state_1_choice":1,"state_1_rt":798,"transition":0,"state":0,"state_2_ids":[0,1],"state_2_key":1,"state_2_choice":1,"state_2_rt":830.5,"outcome":1,"rocket_colors":["#a75248","#486ea7"],"planet_colors":["#706081","#5b7c65"],"screen_resolution":[1392,1484],"minimum_resolution":1,"trial":13,"drifts":[0.407,0.496,0.476,0.697],"drift_ix":3,"trial_type":"two-step-trial","trial_index":44,"time_elapsed":639250,"internal_node_id":"0.0-26.0-0.0","task_version":"1.0","jspsych_version":"6.3.1","browser_interactions":0,"missing":false},{"state_1_ids":[1,0],"state_1_key":0,"state_1_choice":1,"state_1_rt":449.29999923706055,"transition":0,"state":0,"state_2_ids":[0,1],"state_2_key":1,"state_2_choice":1,"state_2_rt":752.6000003814697,"outcome":1,"rocket_colors":["#a75248","#486ea7"],"planet_colors":["#706081","#5b7c65"],"screen_resolution":[1392,1484],"minimum_resolution":1,"trial":14,"drifts":[0.369,0.494,0.493,0.747],"drift_ix":3,"trial_type":"two-step-trial","trial_index":45,"time_elapsed":642455,"internal_node_id":"0.0-27.0-0.0","task_version":"1.0","jspsych_version":"6.3.1","browser_interactions":0,"missing":false},{"state_1_ids":[1,0],"state_1_key":0,"state_1_choice":1,"state_1_rt":461.80000019073486,"transition":0,"state":0,"state_2_ids":[0,1],"state_2_key":1,"state_2_choice":1,"state_2_rt":662.7000007629395,"outcome":1,"rocket_colors":["#a75248","#486ea7"],"planet_colors":["#706081","#5b7c65"],"screen_resolution":[1392,1484],"minimum_resolution":1,"trial":15,"drifts":[0.342,0.537,0.465,0.735],"drift_ix":3,"trial_type":"two-step-trial","trial_index":46,"time_elapsed":645584,"internal_node_id":"0.0-28.0-0.0","task_version":"1.0","jspsych_version":"6.3.1","browser_interactions":0,"missing":false},{"state_1_ids":[0,1],"state_1_key":1,"state_1_choice":1,"state_1_rt":1226.3999996185303,"transition":0,"state":0,"state_2_ids":[0,1],"state_2_key":1,"state_2_choice":1,"state_2_rt":649,"outcome":1,"rocket_colors":["#a75248","#486ea7"],"planet_colors":["#706081","#5b7c65"],"screen_resolution":[1392,1484],"minimum_resolution":1,"trial":16,"drifts":[0.313,0.512,0.467,0.743],"drift_ix":3,"trial_type":"two-step-trial","trial_index":47,"time_elapsed":649467,"internal_node_id":"0.0-29.0-0.0","task_version":"1.0","jspsych_version":"6.3.1","browser_interactions":0,"missing":false},{"state_1_ids":[1,0],"state_1_key":0,"state_1_choice":1,"state_1_rt":762,"transition":1,"state":1,"state_2_ids":[2,3],"state_2_key":0,"state_2_choice":2,"state_2_rt":1201.4000005722046,"outcome":0,"rocket_colors":["#a75248","#486ea7"],"planet_colors":["#706081","#5b7c65"],"screen_resolution":[1392,1484],"minimum_resolution":1,"trial":17,"drifts":[0.313,0.504,0.486,0.73],"drift_ix":3,"trial_type":"two-step-trial","trial_index":48,"time_elapsed":653438,"internal_node_id":"0.0-30.0-0.0","task_version":"1.0","jspsych_version":"6.3.1","browser_interactions":0,"missing":false},{"state_1_ids":[1,0],"state_1_key":0,"state_1_choice":1,"state_1_rt":459.69999980926514,"transition":0,"state":0,"state_2_ids":[0,1],"state_2_key":1,"state_2_choice":1,"state_2_rt":604.1000003814697,"outcome":0,"rocket_colors":["#a75248","#486ea7"],"planet_colors":["#706081","#5b7c65"],"screen_resolution":[1392,1484],"minimum_resolution":1,"trial":18,"drifts":[0.334,0.526,0.501,0.707],"drift_ix":3,"trial_type":"two-step-trial","trial_index":49,"time_elapsed":656509,"internal_node_id":"0.0-31.0-0.0","task_version":"1.0","jspsych_version":"6.3.1","browser_interactions":0,"missing":false},{"state_1_ids":[0,1],"state_1_key":0,"state_1_choice":0,"state_1_rt":1315.3000001907349,"transition":0,"state":1,"state_2_ids":[2,3],"state_2_key":1,"state_2_choice":3,"state_2_rt":1087.6999998092651,"outcome":1,"rocket_colors":["#a75248","#486ea7"],"planet_colors":["#706081","#5b7c65"],"screen_resolution":[1392,1484],"minimum_resolution":1,"trial":19,"drifts":[0.312,0.543,0.473,0.695],"drift_ix":3,"trial_type":"two-step-trial","trial_index":50,"time_elapsed":660917,"internal_node_id":"0.0-32.0-0.0","task_version":"1.0","jspsych_version":"6.3.1","browser_interactions":0,"missing":false},{"state_1_ids":[0,1],"state_1_key":0,"state_1_choice":0,"state_1_rt":584.6999998092651,"transition":1,"state":0,"state_2_ids":[0,1],"state_2_key":0,"state_2_choice":0,"state_2_rt":1415.8999996185303,"outcome":0,"rocket_colors":["#a75248","#486ea7"],"planet_colors":["#706081","#5b7c65"],"screen_resolution":[1392,1484],"minimum_resolution":1,"trial":20,"drifts":[0.304,0.536,0.482,0.668],"drift_ix":3,"trial_type":"two-step-trial","trial_index":51,"time_elapsed":664922,"internal_node_id":"0.0-33.0-0.0","task_version":"1.0","jspsych_version":"6.3.1","browser_interactions":0,"missing":false},{"state_1_ids":[1,0],"state_1_key":1,"state_1_choice":0,"state_1_rt":608.4000005722046,"transition":1,"state":0,"state_2_ids":[0,1],"state_2_key":1,"state_2_choice":1,"state_2_rt":593.8000001907349,"outcome":1,"rocket_colors":["#a75248","#486ea7"],"planet_colors":["#706081","#5b7c65"],"screen_resolution":[1392,1484],"minimum_resolution":1,"trial":21,"drifts":[0.309,0.543,0.477,0.682],"drift_ix":3,"trial_type":"two-step-trial","trial_index":52,"time_elapsed":668130,"internal_node_id":"0.0-34.0-0.0","task_version":"1.0","jspsych_version":"6.3.1","browser_interactions":0,"missing":false},{"state_1_ids":[0,1],"state_1_key":0,"state_1_choice":0,"state_1_rt":651.0999994277954,"transition":0,"state":1,"state_2_ids":[2,3],"state_2_key":0,"state_2_choice":2,"state_2_rt":1030.3000001907349,"outcome":0,"rocket_colors":["#a75248","#486ea7"],"planet_colors":["#706081","#5b7c65"],"screen_resolution":[1392,1484],"minimum_resolution":1,"trial":22,"drifts":[0.301,0.563,0.45,0.702],"drift_ix":3,"trial_type":"two-step-trial","trial_index":53,"time_elapsed":671819,"internal_node_id":"0.0-35.0-0.0","task_version":"1.0","jspsych_version":"6.3.1","browser_interactions":0,"missing":false},{"state_1_ids":[1,0],"state_1_key":1,"state_1_choice":0,"state_1_rt":1181.8000001907349,"transition":1,"state":0,"state_2_ids":[0,1],"state_2_key":1,"state_2_choice":1,"state_2_rt":919.6999998092651,"outcome":1,"rocket_colors":["#a75248","#486ea7"],"planet_colors":["#706081","#5b7c65"],"screen_resolution":[1392,1484],"minimum_resolution":1,"trial":23,"drifts":[0.322,0.569,0.42,0.742],"drift_ix":3,"trial_type":"two-step-trial","trial_index":54,"time_elapsed":675926,"internal_node_id":"0.0-36.0-0.0","task_version":"1.0","jspsych_version":"6.3.1","browser_interactions":0,"missing":false},{"state_1_ids":[0,1],"state_1_key":0,"state_1_choice":0,"state_1_rt":528.6999998092651,"transition":1,"state":0,"state_2_ids":[0,1],"state_2_key":1,"state_2_choice":1,"state_2_rt":605.9000005722046,"outcome":0,"rocket_colors":["#a75248","#486ea7"],"planet_colors":["#706081","#5b7c65"],"screen_resolution":[1392,1484],"minimum_resolution":1,"trial":24,"drifts":[0.298,0.566,0.43,0.74],"drift_ix":3,"trial_type":"two-step-trial","trial_index":55,"time_elapsed":679067,"internal_node_id":"0.0-37.0-0.0","task_version":"1.0","jspsych_version":"6.3.1","browser_interactions":0,"missing":false},{"state_1_ids":[0,1],"state_1_key":1,"state_1_choice":1,"state_1_rt":481.6000003814697,"transition":0,"state":0,"state_2_ids":[0,1],"state_2_key":1,"state_2_choice":1,"state_2_rt":1119.8000001907349,"outcome":0,"rocket_colors":["#a75248","#486ea7"],"planet_colors":["#706081","#5b7c65"],"screen_resolution":[1392,1484],"minimum_resolution":1,"trial":25,"drifts":[0.293,0.552,0.394,0.669],"drift_ix":3,"trial_type":"two-step-trial","trial_index":56,"time_elapsed":682677,"internal_node_id":"0.0-38.0-0.0","task_version":"1.0","jspsych_version":"6.3.1","browser_interactions":0,"missing":false},{"state_1_ids":[1,0],"state_1_key":1,"state_1_choice":0,"state_1_rt":1280.5999994277954,"transition":1,"state":0,"state_2_ids":[0,1],"state_2_key":0,"state_2_choice":0,"state_2_rt":548,"outcome":1,"rocket_colors":["#a75248","#486ea7"],"planet_colors":["#706081","#5b7c65"],"screen_resolution":[1392,1484],"minimum_resolution":1,"trial":26,"drifts":[0.285,0.566,0.393,0.625],"drift_ix":3,"trial_type":"two-step-trial","trial_index":57,"time_elapsed":686514,"internal_node_id":"0.0-39.0-0.0","task_version":"1.0","jspsych_version":"6.3.1","browser_interactions":0,"missing":false},{"state_1_ids":[0,1],"state_1_key":0,"state_1_choice":0,"state_1_rt":604.4000005722046,"transition":0,"state":1,"state_2_ids":[2,3],"state_2_key":0,"state_2_choice":2,"state_2_rt":1517.3000001907349,"outcome":0,"rocket_colors":["#a75248","#486ea7"],"planet_colors":["#706081","#5b7c65"],"screen_resolution":[1392,1484],"minimum_resolution":1,"trial":27,"drifts":[0.303,0.511,0.422,0.685],"drift_ix":3,"trial_type":"two-step-trial","trial_index":58,"time_elapsed":690642,"internal_node_id":"0.0-40.0-0.0","task_version":"1.0","jspsych_version":"6.3.1","browser_interactions":0,"missing":false},{"state_1_ids":[1,0],"state_1_key":1,"state_1_choice":0,"state_1_rt":549.6999998092651,"transition":0,"state":1,"state_2_ids":[2,3],"state_2_key":1,"state_2_choice":3,"state_2_rt":1055.8000001907349,"outcome":1,"rocket_colors":["#a75248","#486ea7"],"planet_colors":["#706081","#5b7c65"],"screen_resolution":[1392,1484],"minimum_resolution":1,"trial":28,"drifts":[0.301,0.517,0.418,0.733],"drift_ix":3,"trial_type":"two-step-trial","trial_index":59,"time_elapsed":694252,"internal_node_id":"0.0-41.0-0.0","task_version":"1.0","jspsych_version":"6.3.1","browser_interactions":0,"missing":false},{"state_1_ids":[0,1],"state_1_key":0,"state_1_choice":0,"state_1_rt":482.9000005722046,"transition":1,"state":0,"state_2_ids":[0,1],"state_2_key":0,"state_2_choice":0,"state_2_rt":1472.1999998092651,"outcome":0,"rocket_colors":["#a75248","#486ea7"],"planet_colors":["#706081","#5b7c65"],"screen_resolution":[1392,1484],"minimum_resolution":1,"trial":29,"drifts":[0.345,0.508,0.373,0.733],"drift_ix":3,"trial_type":"two-step-trial","trial_index":60,"time_elapsed":698211,"internal_node_id":"0.0-42.0-0.0","task_version":"1.0","jspsych_version":"6.3.1","browser_interactions":0,"missing":false},{"state_1_ids":[1,0],"state_1_key":1,"state_1_choice":0,"state_1_rt":439.6000003814697,"transition":0,"state":1,"state_2_ids":[2,3],"state_2_key":1,"state_2_choice":3,"state_2_rt":908.9000005722046,"outcome":1,"rocket_colors":["#a75248","#486ea7"],"planet_colors":["#706081","#5b7c65"],"screen_resolution":[1392,1484],"minimum_resolution":1,"trial":30,"drifts":[0.33,0.509,0.425,0.737],"drift_ix":3,"trial_type":"two-step-trial","trial_index":61,"time_elapsed":701567,"internal_node_id":"0.0-43.0-0.0","task_version":"1.0","jspsych_version":"6.3.1","browser_interactions":0,"missing":false},{"state_1_ids":[0,1],"state_1_key":0,"state_1_choice":0,"state_1_rt":605.1999998092651,"transition":1,"state":0,"state_2_ids":[0,1],"state_2_key":0,"state_2_choice":0,"state_2_rt":988.3999996185303,"outcome":0,"rocket_colors":["#a75248","#486ea7"],"planet_colors":["#706081","#5b7c65"],"screen_resolution":[1392,1484],"minimum_resolution":1,"trial":31,"drifts":[0.33,0.475,0.428,0.706],"drift_ix":3,"trial_type":"two-step-trial","trial_index":62,"time_elapsed":705165,"internal_node_id":"0.0-44.0-0.0","task_version":"1.0","jspsych_version":"6.3.1","browser_interactions":0,"missing":false},{"state_1_ids":[1,0],"state_1_key":0,"state_1_choice":1,"state_1_rt":584.4000005722046,"transition":1,"state":1,"state_2_ids":[2,3],"state_2_key":1,"state_2_choice":3,"state_2_rt":536.4000005722046,"outcome":1,"rocket_colors":["#a75248","#486ea7"],"planet_colors":["#706081","#5b7c65"],"screen_resolution":[1392,1484],"minimum_resolution":1,"trial":32,"drifts":[0.332,0.492,0.442,0.701],"drift_ix":3,"trial_type":"two-step-trial","trial_index":63,"time_elapsed":708294,"internal_node_id":"0.0-45.0-0.0","task_version":"1.0","jspsych_version":"6.3.1","browser_interactions":0,"missing":false},{"state_1_ids":[1,0],"state_1_key":0,"state_1_choice":1,"state_1_rt":481.20000076293945,"transition":1,"state":1,"state_2_ids":[2,3],"state_2_key":1,"state_2_choice":3,"state_2_rt":459.19999980926514,"outcome":1,"rocket_colors":["#a75248","#486ea7"],"planet_colors":["#706081","#5b7c65"],"screen_resolution":[1392,1484],"minimum_resolution":1,"trial":33,"drifts":[0.306,0.461,0.388,0.724],"drift_ix":3,"trial_type":"two-step-trial","trial_index":64,"time_elapsed":711238,"internal_node_id":"0.0-46.0-0.0","task_version":"1.0","jspsych_version":"6.3.1","browser_interactions":0,"missing":false},{"state_1_ids":[0,1],"state_1_key":1,"state_1_choice":1,"state_1_rt":642.6000003814697,"transition":0,"state":0,"state_2_ids":[0,1],"state_2_key":0,"state_2_choice":0,"state_2_rt":942.7999992370605,"outcome":0,"rocket_colors":["#a75248","#486ea7"],"planet_colors":["#706081","#5b7c65"],"screen_resolution":[1392,1484],"minimum_resolution":1,"trial":34,"drifts":[0.335,0.445,0.418,0.721],"drift_ix":3,"trial_type":"two-step-trial","trial_index":65,"time_elapsed":714831,"internal_node_id":"0.0-47.0-0.0","task_version":"1.0","jspsych_version":"6.3.1","browser_interactions":0,"missing":false},{"state_1_ids":[1,0],"state_1_key":0,"state_1_choice":1,"state_1_rt":525.9000005722046,"transition":1,"state":1,"state_2_ids":[2,3],"state_2_key":1,"state_2_choice":3,"state_2_rt":426.3999996185303,"outcome":1,"rocket_colors":["#a75248","#486ea7"],"planet_colors":["#706081","#5b7c65"],"screen_resolution":[1392,1484],"minimum_resolution":1,"trial":35,"drifts":[0.342,0.479,0.439,0.713],"drift_ix":3,"trial_type":"two-step-trial","trial_index":66,"time_elapsed":717786,"internal_node_id":"0.0-48.0-0.0","task_version":"1.0","jspsych_version":"6.3.1","browser_interactions":0,"missing":false},{"state_1_ids":[1,0],"state_1_key":0,"state_1_choice":1,"state_1_rt":474.19999980926514,"transition":1,"state":1,"state_2_ids":[2,3],"state_2_key":1,"state_2_choice":3,"state_2_rt":390.6000003814697,"outcome":0,"rocket_colors":["#a75248","#486ea7"],"planet_colors":["#706081","#5b7c65"],"screen_resolution":[1392,1484],"minimum_resolution":1,"trial":36,"drifts":[0.323,0.462,0.51,0.711],"drift_ix":3,"trial_type":"two-step-trial","trial_index":67,"time_elapsed":720656,"internal_node_id":"0.0-49.0-0.0","task_version":"1.0","jspsych_version":"6.3.1","browser_interactions":0,"missing":false},{"state_1_ids":[1,0],"state_1_key":1,"state_1_choice":0,"state_1_rt":720.8000001907349,"transition":0,"state":1,"state_2_ids":[2,3],"state_2_key":0,"state_2_choice":2,"state_2_rt":1301.7000007629395,"outcome":0,"rocket_colors":["#a75248","#486ea7"],"planet_colors":["#706081","#5b7c65"],"screen_resolution":[1392,1484],"minimum_resolution":1,"trial":37,"drifts":[0.323,0.441,0.493,0.674],"drift_ix":3,"trial_type":"two-step-trial","trial_index":68,"time_elapsed":724682,"internal_node_id":"0.0-50.0-0.0","task_version":"1.0","jspsych_version":"6.3.1","browser_interactions":0,"missing":false},{"state_1_ids":[1,0],"state_1_key":1,"state_1_choice":0,"state_1_rt":541.6000003814697,"transition":1,"state":0,"state_2_ids":[0,1],"state_2_key":1,"state_2_choice":1,"state_2_rt":1100.3999996185303,"outcome":1,"rocket_colors":["#a75248","#486ea7"],"planet_colors":["#706081","#5b7c65"],"screen_resolution":[1392,1484],"minimum_resolution":1,"trial":38,"drifts":[0.361,0.419,0.482,0.648],"drift_ix":3,"trial_type":"two-step-trial","trial_index":69,"time_elapsed":728327,"internal_node_id":"0.0-51.0-0.0","task_version":"1.0","jspsych_version":"6.3.1","browser_interactions":0,"missing":false},{"state_1_ids":[1,0],"state_1_key":1,"state_1_choice":0,"state_1_rt":462.5,"transition":1,"state":0,"state_2_ids":[0,1],"state_2_key":1,"state_2_choice":1,"state_2_rt":380.69999980926514,"outcome":0,"rocket_colors":["#a75248","#486ea7"],"planet_colors":["#706081","#5b7c65"],"screen_resolution":[1392,1484],"minimum_resolution":1,"trial":39,"drifts":[0.386,0.389,0.441,0.619],"drift_ix":3,"trial_type":"two-step-trial","trial_index":70,"time_elapsed":731178,"internal_node_id":"0.0-52.0-0.0","task_version":"1.0","jspsych_version":"6.3.1","browser_interactions":0,"missing":false},{"state_1_ids":[1,0],"state_1_key":0,"state_1_choice":1,"state_1_rt":515.0999994277954,"transition":1,"state":1,"state_2_ids":[2,3],"state_2_key":1,"state_2_choice":3,"state_2_rt":492,"outcome":0,"rocket_colors":["#a75248","#486ea7"],"planet_colors":["#706081","#5b7c65"],"screen_resolution":[1392,1484],"minimum_resolution":1,"trial":40,"drifts":[0.384,0.374,0.431,0.605],"drift_ix":3,"trial_type":"two-step-trial","trial_index":71,"time_elapsed":734190,"internal_node_id":"0.0-53.0-0.0","task_version":"1.0","jspsych_version":"6.3.1","browser_interactions":0,"missing":false},{"state_1_ids":[1,0],"state_1_key":0,"state_1_choice":1,"state_1_rt":494.69999980926514,"transition":0,"state":0,"state_2_ids":[0,1],"state_2_key":1,"state_2_choice":1,"state_2_rt":952.5,"outcome":1,"rocket_colors":["#a75248","#486ea7"],"planet_colors":["#706081","#5b7c65"],"screen_resolution":[1392,1484],"minimum_resolution":1,"trial":41,"drifts":[0.382,0.413,0.442,0.617],"drift_ix":3,"trial_type":"two-step-trial","trial_index":72,"time_elapsed":737644,"internal_node_id":"0.0-54.0-0.0","task_version":"1.0","jspsych_version":"6.3.1","browser_interactions":0,"missing":false},{"state_1_ids":[1,0],"state_1_key":0,"state_1_choice":1,"state_1_rt":404.0999994277954,"transition":0,"state":0,"state_2_ids":[0,1],"state_2_key":1,"state_2_choice":1,"state_2_rt":615.6999998092651,"outcome":0,"rocket_colors":["#a75248","#486ea7"],"planet_colors":["#706081","#5b7c65"],"screen_resolution":[1392,1484],"minimum_resolution":1,"trial":42,"drifts":[0.398,0.39,0.424,0.641],"drift_ix":3,"trial_type":"two-step-trial","trial_index":73,"time_elapsed":740668,"internal_node_id":"0.0-55.0-0.0","task_version":"1.0","jspsych_version":"6.3.1","browser_interactions":0,"missing":false},{"state_1_ids":[1,0],"state_1_key":0,"state_1_choice":1,"state_1_rt":373.1000003814697,"transition":1,"state":1,"state_2_ids":[2,3],"state_2_key":0,"state_2_choice":2,"state_2_rt":785.8999996185303,"outcome":0,"rocket_colors":["#a75248","#486ea7"],"planet_colors":["#706081","#5b7c65"],"screen_resolution":[1392,1484],"minimum_resolution":1,"trial":43,"drifts":[0.37,0.404,0.412,0.63],"drift_ix":3,"trial_type":"two-step-trial","trial_index":74,"time_elapsed":743832,"internal_node_id":"0.0-56.0-0.0","task_version":"1.0","jspsych_version":"6.3.1","browser_interactions":0,"missing":false},{"state_1_ids":[0,1],"state_1_key":0,"state_1_choice":0,"state_1_rt":684.9000005722046,"transition":1,"state":0,"state_2_ids":[0,1],"state_2_key":1,"state_2_choice":1,"state_2_rt":527.1000003814697,"outcome":1,"rocket_colors":["#a75248","#486ea7"],"planet_colors":["#706081","#5b7c65"],"screen_resolution":[1392,1484],"minimum_resolution":1,"trial":44,"drifts":[0.417,0.444,0.403,0.613],"drift_ix":3,"trial_type":"two-step-trial","trial_index":75,"time_elapsed":747051,"internal_node_id":"0.0-57.0-0.0","task_version":"1.0","jspsych_version":"6.3.1","browser_interactions":0,"missing":false},{"state_1_ids":[1,0],"state_1_key":1,"state_1_choice":0,"state_1_rt":841.1999998092651,"transition":1,"state":0,"state_2_ids":[0,1],"state_2_key":1,"state_2_choice":1,"state_2_rt":594.6000003814697,"outcome":0,"rocket_colors":["#a75248","#486ea7"],"planet_colors":["#706081","#5b7c65"],"screen_resolution":[1392,1484],"minimum_resolution":1,"trial":45,"drifts":[0.439,0.427,0.37,0.612],"drift_ix":3,"trial_type":"two-step-trial","trial_index":76,"time_elapsed":750491,"internal_node_id":"0.0-58.0-0.0","task_version":"1.0","jspsych_version":"6.3.1","browser_interactions":0,"missing":false},{"state_1_ids":[0,1],"state_1_key":0,"state_1_choice":0,"state_1_rt":675.5999994277954,"transition":1,"state":0,"state_2_ids":[0,1],"state_2_key":1,"state_2_choice":1,"state_2_rt":583,"outcome":1,"rocket_colors":["#a75248","#486ea7"],"planet_colors":["#706081","#5b7c65"],"screen_resolution":[1392,1484],"minimum_resolution":1,"trial":46,"drifts":[0.459,0.416,0.369,0.621],"drift_ix":3,"trial_type":"two-step-trial","trial_index":77,"time_elapsed":753753,"internal_node_id":"0.0-59.0-0.0","task_version":"1.0","jspsych_version":"6.3.1","browser_interactions":0,"missing":false},{"state_1_ids":[1,0],"state_1_key":1,"state_1_choice":0,"state_1_rt":496.19999980926514,"transition":1,"state":0,"state_2_ids":[0,1],"state_2_key":1,"state_2_choice":1,"state_2_rt":380.29999923706055,"outcome":0,"rocket_colors":["#a75248","#486ea7"],"planet_colors":["#706081","#5b7c65"],"screen_resolution":[1392,1484],"minimum_resolution":1,"trial":47,"drifts":[0.475,0.425,0.384,0.6],"drift_ix":3,"trial_type":"two-step-trial","trial_index":78,"time_elapsed":756632,"internal_node_id":"0.0-60.0-0.0","task_version":"1.0","jspsych_version":"6.3.1","browser_interactions":0,"missing":false},{"state_1_ids":[1,0],"state_1_key":1,"state_1_choice":0,"state_1_rt":496.5999994277954,"transition":1,"state":0,"state_2_ids":[0,1],"state_2_key":0,"state_2_choice":0,"state_2_rt":739.0999994277954,"outcome":0,"rocket_colors":["#a75248","#486ea7"],"planet_colors":["#706081","#5b7c65"],"screen_resolution":[1392,1484],"minimum_resolution":1,"trial":48,"drifts":[0.438,0.4,0.412,0.606],"drift_ix":3,"trial_type":"two-step-trial","trial_index":79,"time_elapsed":759871,"internal_node_id":"0.0-61.0-0.0","task_version":"1.0","jspsych_version":"6.3.1","browser_interactions":0,"missing":false},{"state_1_ids":[1,0],"state_1_key":1,"state_1_choice":0,"state_1_rt":486.5,"transition":1,"state":0,"state_2_ids":[0,1],"state_2_key":1,"state_2_choice":1,"state_2_rt":403.29999923706055,"outcome":0,"rocket_colors":["#a75248","#486ea7"],"planet_colors":["#706081","#5b7c65"],"screen_resolution":[1392,1484],"minimum_resolution":1,"trial":49,"drifts":[0.47,0.408,0.421,0.598],"drift_ix":3,"trial_type":"two-step-trial","trial_index":80,"time_elapsed":762768,"internal_node_id":"0.0-62.0-0.0","task_version":"1.0","jspsych_version":"6.3.1","browser_interactions":0,"missing":false},{"state_1_ids":[1,0],"state_1_key":1,"state_1_choice":0,"state_1_rt":413.30000019073486,"transition":1,"state":0,"state_2_ids":[0,1],"state_2_key":0,"state_2_choice":0,"state_2_rt":436.9000005722046,"outcome":1,"rocket_colors":["#a75248","#486ea7"],"planet_colors":["#706081","#5b7c65"],"screen_resolution":[1392,1484],"minimum_resolution":1,"trial":50,"drifts":[0.41,0.42,0.42,0.6],"drift_ix":3,"trial_type":"two-step-trial","trial_index":81,"time_elapsed":765624,"internal_node_id":"0.0-63.0-0.0","task_version":"1.0","jspsych_version":"6.3.1","browser_interactions":0,"missing":false},{"state_1_ids":[1,0],"state_1_key":1,"state_1_choice":0,"state_1_rt":392.6000003814697,"transition":1,"state":0,"state_2_ids":[0,1],"state_2_key":0,"state_2_choice":0,"state_2_rt":424.1000003814697,"outcome":0,"rocket_colors":["#a75248","#486ea7"],"planet_colors":["#706081","#5b7c65"],"screen_resolution":[1392,1484],"minimum_resolution":1,"trial":51,"drifts":[0.412,0.415,0.461,0.564],"drift_ix":3,"trial_type":"two-step-trial","trial_index":82,"time_elapsed":768449,"internal_node_id":"0.0-64.0-0.0","task_version":"1.0","jspsych_version":"6.3.1","browser_interactions":0,"missing":false},{"state_1_ids":[0,1],"state_1_key":0,"state_1_choice":0,"state_1_rt":638.5999994277954,"transition":1,"state":0,"state_2_ids":[0,1],"state_2_key":1,"state_2_choice":1,"state_2_rt":345.69999980926514,"outcome":0,"rocket_colors":["#a75248","#486ea7"],"planet_colors":["#706081","#5b7c65"],"screen_resolution":[1392,1484],"minimum_resolution":1,"trial":52,"drifts":[0.424,0.4,0.482,0.568],"drift_ix":3,"trial_type":"two-step-trial","trial_index":83,"time_elapsed":771441,"internal_node_id":"0.0-65.0-0.0","task_version":"1.0","jspsych_version":"6.3.1","browser_interactions":0,"missing":false},{"state_1_ids":[0,1],"state_1_key":0,"state_1_choice":0,"state_1_rt":572.1999998092651,"transition":1,"state":0,"state_2_ids":[0,1],"state_2_key":1,"state_2_choice":1,"state_2_rt":525.8000001907349,"outcome":1,"rocket_colors":["#a75248","#486ea7"],"planet_colors":["#706081","#5b7c65"],"screen_resolution":[1392,1484],"minimum_resolution":1,"trial":53,"drifts":[0.449,0.35,0.448,0.582],"drift_ix":3,"trial_type":"two-step-trial","trial_index":84,"time_elapsed":774542,"internal_node_id":"0.0-66.0-0.0","task_version":"1.0","jspsych_version":"6.3.1","browser_interactions":0,"missing":false},{"state_1_ids":[1,0],"state_1_key":1,"state_1_choice":0,"state_1_rt":631.9000005722046,"transition":1,"state":0,"state_2_ids":[0,1],"state_2_key":1,"state_2_choice":1,"state_2_rt":324.8999996185303,"outcome":0,"rocket_colors":["#a75248","#486ea7"],"planet_colors":["#706081","#5b7c65"],"screen_resolution":[1392,1484],"minimum_resolution":1,"trial":54,"drifts":[0.409,0.381,0.436,0.573],"drift_ix":3,"trial_type":"two-step-trial","trial_index":85,"time_elapsed":777505,"internal_node_id":"0.0-67.0-0.0","task_version":"1.0","jspsych_version":"6.3.1","browser_interactions":0,"missing":false},{"state_1_ids":[1,0],"state_1_key":0,"state_1_choice":1,"state_1_rt":414.3999996185303,"transition":1,"state":1,"state_2_ids":[2,3],"state_2_key":1,"state_2_choice":3,"state_2_rt":526.8999996185303,"outcome":0,"rocket_colors":["#a75248","#486ea7"],"planet_colors":["#706081","#5b7c65"],"screen_resolution":[1392,1484],"minimum_resolution":1,"trial":55,"drifts":[0.408,0.407,0.428,0.609],"drift_ix":3,"trial_type":"two-step-trial","trial_index":86,"time_elapsed":780451,"internal_node_id":"0.0-68.0-0.0","task_version":"1.0","jspsych_version":"6.3.1","browser_interactions":0,"missing":false},{"state_1_ids":[0,1],"state_1_key":1,"state_1_choice":1,"state_1_rt":584.5999994277954,"transition":1,"state":1,"state_2_ids":[2,3],"state_2_key":0,"state_2_choice":2,"state_2_rt":470.5999994277954,"outcome":1,"rocket_colors":["#a75248","#486ea7"],"planet_colors":["#706081","#5b7c65"],"screen_resolution":[1392,1484],"minimum_resolution":1,"trial":56,"drifts":[0.417,0.354,0.381,0.598],"drift_ix":3,"trial_type":"two-step-trial","trial_index":87,"time_elapsed":783512,"internal_node_id":"0.0-69.0-0.0","task_version":"1.0","jspsych_version":"6.3.1","browser_interactions":0,"missing":false},{"state_1_ids":[0,1],"state_1_key":1,"state_1_choice":1,"state_1_rt":437.70000076293945,"transition":1,"state":1,"state_2_ids":[2,3],"state_2_key":0,"state_2_choice":2,"state_2_rt":492.6000003814697,"outcome":0,"rocket_colors":["#a75248","#486ea7"],"planet_colors":["#706081","#5b7c65"],"screen_resolution":[1392,1484],"minimum_resolution":1,"trial":57,"drifts":[0.462,0.35,0.396,0.55],"drift_ix":3,"trial_type":"two-step-trial","trial_index":88,"time_elapsed":786449,"internal_node_id":"0.0-70.0-0.0","task_version":"1.0","jspsych_version":"6.3.1","browser_interactions":0,"missing":false},{"state_1_ids":[0,1],"state_1_key":1,"state_1_choice":1,"state_1_rt":504.69999980926514,"transition":1,"state":1,"state_2_ids":[2,3],"state_2_key":1,"state_2_choice":3,"state_2_rt":425.19999980926514,"outcome":1,"rocket_colors":["#a75248","#486ea7"],"planet_colors":["#706081","#5b7c65"],"screen_resolution":[1392,1484],"minimum_resolution":1,"trial":58,"drifts":[0.474,0.332,0.382,0.55],"drift_ix":3,"trial_type":"two-step-trial","trial_index":89,"time_elapsed":789384,"internal_node_id":"0.0-71.0-0.0","task_version":"1.0","jspsych_version":"6.3.1","browser_interactions":0,"missing":false},{"state_1_ids":[1,0],"state_1_key":0,"state_1_choice":1,"state_1_rt":641,"transition":0,"state":0,"state_2_ids":[0,1],"state_2_key":1,"state_2_choice":1,"state_2_rt":581.3999996185303,"outcome":1,"rocket_colors":["#a75248","#486ea7"],"planet_colors":["#706081","#5b7c65"],"screen_resolution":[1392,1484],"minimum_resolution":1,"trial":59,"drifts":[0.462,0.326,0.376,0.559],"drift_ix":3,"trial_type":"two-step-trial","trial_index":90,"time_elapsed":792611,"internal_node_id":"0.0-72.0-0.0","task_version":"1.0","jspsych_version":"6.3.1","browser_interactions":0,"missing":false},{"state_1_ids":[0,1],"state_1_key":1,"state_1_choice":1,"state_1_rt":923.1999998092651,"transition":0,"state":0,"state_2_ids":[0,1],"state_2_key":1,"state_2_choice":1,"state_2_rt":547.5999994277954,"outcome":1,"rocket_colors":["#a75248","#486ea7"],"planet_colors":["#706081","#5b7c65"],"screen_resolution":[1392,1484],"minimum_resolution":1,"trial":60,"drifts":[0.432,0.348,0.372,0.56],"drift_ix":3,"trial_type":"two-step-trial","trial_index":91,"time_elapsed":796089,"internal_node_id":"0.0-73.0-0.0","task_version":"1.0","jspsych_version":"6.3.1","browser_interactions":0,"missing":false},{"state_1_ids":[1,0],"state_1_key":1,"state_1_choice":0,"state_1_rt":438.9000005722046,"transition":0,"state":1,"state_2_ids":[2,3],"state_2_key":1,"state_2_choice":3,"state_2_rt":886.5,"outcome":1,"rocket_colors":["#a75248","#486ea7"],"planet_colors":["#706081","#5b7c65"],"screen_resolution":[1392,1484],"minimum_resolution":1,"trial":61,"drifts":[0.43,0.371,0.389,0.587],"drift_ix":3,"trial_type":"two-step-trial","trial_index":92,"time_elapsed":799421,"internal_node_id":"0.0-74.0-0.0","task_version":"1.0","jspsych_version":"6.3.1","browser_interactions":0,"missing":false},{"state_1_ids":[1,0],"state_1_key":0,"state_1_choice":1,"state_1_rt":515.3000001907349,"transition":1,"state":1,"state_2_ids":[2,3],"state_2_key":1,"state_2_choice":3,"state_2_rt":694.5,"outcome":0,"rocket_colors":["#a75248","#486ea7"],"planet_colors":["#706081","#5b7c65"],"screen_resolution":[1392,1484],"minimum_resolution":1,"trial":62,"drifts":[0.426,0.371,0.382,0.585],"drift_ix":3,"trial_type":"two-step-trial","trial_index":93,"time_elapsed":802637,"internal_node_id":"0.0-75.0-0.0","task_version":"1.0","jspsych_version":"6.3.1","browser_interactions":0,"missing":false},{"state_1_ids":[0,1],"state_1_key":0,"state_1_choice":0,"state_1_rt":482.9000005722046,"transition":1,"state":0,"state_2_ids":[0,1],"state_2_key":1,"state_2_choice":1,"state_2_rt":480.5,"outcome":1,"rocket_colors":["#a75248","#486ea7"],"planet_colors":["#706081","#5b7c65"],"screen_resolution":[1392,1484],"minimum_resolution":1,"trial":63,"drifts":[0.431,0.358,0.396,0.59],"drift_ix":3,"trial_type":"two-step-trial","trial_index":94,"time_elapsed":805609,"internal_node_id":"0.0-76.0-0.0","task_version":"1.0","jspsych_version":"6.3.1","browser_interactions":0,"missing":false},{"state_1_ids":[1,0],"state_1_key":1,"state_1_choice":0,"state_1_rt":1583.8999996185303,"transition":1,"state":0,"state_2_ids":[0,1],"state_2_key":1,"state_2_choice":1,"state_2_rt":639.1999998092651,"outcome":1,"rocket_colors":["#a75248","#486ea7"],"planet_colors":["#706081","#5b7c65"],"screen_resolution":[1392,1484],"minimum_resolution":1,"trial":64,"drifts":[0.392,0.299,0.415,0.581],"drift_ix":3,"trial_type":"two-step-trial","trial_index":95,"time_elapsed":809835,"internal_node_id":"0.0-77.0-0.0","task_version":"1.0","jspsych_version":"6.3.1","browser_interactions":0,"missing":false},{"state_1_ids":[0,1],"state_1_key":0,"state_1_choice":0,"state_1_rt":564.2000007629395,"transition":0,"state":1,"state_2_ids":[2,3],"state_2_key":1,"state_2_choice":3,"state_2_rt":997.5,"outcome":1,"rocket_colors":["#a75248","#486ea7"],"planet_colors":["#706081","#5b7c65"],"screen_resolution":[1392,1484],"minimum_resolution":1,"trial":65,"drifts":[0.371,0.329,0.405,0.589],"drift_ix":3,"trial_type":"two-step-trial","trial_index":96,"time_elapsed":813403,"internal_node_id":"0.0-78.0-0.0","task_version":"1.0","jspsych_version":"6.3.1","browser_interactions":0,"missing":false},{"state_1_ids":[1,0],"state_1_key":1,"state_1_choice":0,"state_1_rt":561.1000003814697,"transition":1,"state":0,"state_2_ids":[0,1],"state_2_key":1,"state_2_choice":1,"state_2_rt":639.3000001907349,"outcome":0,"rocket_colors":["#a75248","#486ea7"],"planet_colors":["#706081","#5b7c65"],"screen_resolution":[1392,1484],"minimum_resolution":1,"trial":66,"drifts":[0.354,0.287,0.413,0.591],"drift_ix":3,"trial_type":"two-step-trial","trial_index":97,"time_elapsed":816609,"internal_node_id":"0.0-79.0-0.0","task_version":"1.0","jspsych_version":"6.3.1","browser_interactions":0,"missing":false},{"state_1_ids":[0,1],"state_1_key":0,"state_1_choice":0,"state_1_rt":483.70000076293945,"transition":1,"state":0,"state_2_ids":[0,1],"state_2_key":1,"state_2_choice":1,"state_2_rt":547.3999996185303,"outcome":0,"rocket_colors":["#a75248","#486ea7"],"planet_colors":["#706081","#5b7c65"],"screen_resolution":[1392,1484],"minimum_resolution":1,"trial":67,"drifts":[0.398,0.254,0.426,0.603],"drift_ix":3,"trial_type":"two-step-trial","trial_index":98,"time_elapsed":819645,"internal_node_id":"0.0-80.0-0.0","task_version":"1.0","jspsych_version":"6.3.1","browser_interactions":0,"missing":false},{"state_1_ids":[1,0],"state_1_key":1,"state_1_choice":0,"state_1_rt":743.7000007629395,"transition":1,"state":0,"state_2_ids":[0,1],"state_2_key":1,"state_2_choice":1,"state_2_rt":423.6000003814697,"outcome":0,"rocket_colors":["#a75248","#486ea7"],"planet_colors":["#706081","#5b7c65"],"screen_resolution":[1392,1484],"minimum_resolution":1,"trial":68,"drifts":[0.425,0.254,0.441,0.582],"drift_ix":3,"trial_type":"two-step-trial","trial_index":99,"time_elapsed":822820,"internal_node_id":"0.0-81.0-0.0","task_version":"1.0","jspsych_version":"6.3.1","browser_interactions":0,"missing":false},{"state_1_ids":[1,0],"state_1_key":1,"state_1_choice":0,"state_1_rt":414.30000019073486,"transition":1,"state":0,"state_2_ids":[0,1],"state_2_key":1,"state_2_choice":1,"state_2_rt":492.19999980926514,"outcome":1,"rocket_colors":["#a75248","#486ea7"],"planet_colors":["#706081","#5b7c65"],"screen_resolution":[1392,1484],"minimum_resolution":1,"trial":69,"drifts":[0.474,0.287,0.392,0.531],"drift_ix":3,"trial_type":"two-step-trial","trial_index":100,"time_elapsed":825734,"internal_node_id":"0.0-82.0-0.0","task_version":"1.0","jspsych_version":"6.3.1","browser_interactions":0,"missing":false},{"state_1_ids":[0,1],"state_1_key":1,"state_1_choice":1,"state_1_rt":470.6000003814697,"transition":1,"state":1,"state_2_ids":[2,3],"state_2_key":1,"state_2_choice":3,"state_2_rt":762.5,"outcome":1,"rocket_colors":["#a75248","#486ea7"],"planet_colors":["#706081","#5b7c65"],"screen_resolution":[1392,1484],"minimum_resolution":1,"trial":70,"drifts":[0.51,0.279,0.378,0.487],"drift_ix":3,"trial_type":"two-step-trial","trial_index":101,"time_elapsed":828973,"internal_node_id":"0.0-83.0-0.0","task_version":"1.0","jspsych_version":"6.3.1","browser_interactions":0,"missing":false},{"state_1_ids":[1,0],"state_1_key":1,"state_1_choice":0,"state_1_rt":876.9000005722046,"transition":1,"state":0,"state_2_ids":[0,1],"state_2_key":1,"state_2_choice":1,"state_2_rt":380.29999923706055,"outcome":0,"rocket_colors":["#a75248","#486ea7"],"planet_colors":["#706081","#5b7c65"],"screen_resolution":[1392,1484],"minimum_resolution":1,"trial":71,"drifts":[0.506,0.269,0.381,0.477],"drift_ix":3,"trial_type":"two-step-trial","trial_index":102,"time_elapsed":832236,"internal_node_id":"0.0-84.0-0.0","task_version":"1.0","jspsych_version":"6.3.1","browser_interactions":0,"missing":false},{"state_1_ids":[1,0],"state_1_key":1,"state_1_choice":0,"state_1_rt":460.4000005722046,"transition":1,"state":0,"state_2_ids":[0,1],"state_2_key":1,"state_2_choice":1,"state_2_rt":650.1000003814697,"outcome":0,"rocket_colors":["#a75248","#486ea7"],"planet_colors":["#706081","#5b7c65"],"screen_resolution":[1392,1484],"minimum_resolution":1,"trial":72,"drifts":[0.541,0.263,0.39,0.466],"drift_ix":3,"trial_type":"two-step-trial","trial_index":103,"time_elapsed":835353,"internal_node_id":"0.0-85.0-0.0","task_version":"1.0","jspsych_version":"6.3.1","browser_interactions":0,"missing":false},{"state_1_ids":[0,1],"state_1_key":0,"state_1_choice":0,"state_1_rt":560.5,"transition":1,"state":0,"state_2_ids":[0,1],"state_2_key":1,"state_2_choice":1,"state_2_rt":752.6000003814697,"outcome":0,"rocket_colors":["#a75248","#486ea7"],"planet_colors":["#706081","#5b7c65"],"screen_resolution":[1392,1484],"minimum_resolution":1,"trial":73,"drifts":[0.49,0.271,0.373,0.466],"drift_ix":3,"trial_type":"two-step-trial","trial_index":104,"time_elapsed":838673,"internal_node_id":"0.0-86.0-0.0","task_version":"1.0","jspsych_version":"6.3.1","browser_interactions":0,"missing":false},{"state_1_ids":[0,1],"state_1_key":0,"state_1_choice":0,"state_1_rt":570.4000005722046,"transition":1,"state":0,"state_2_ids":[0,1],"state_2_key":1,"state_2_choice":1,"state_2_rt":401.70000076293945,"outcome":0,"rocket_colors":["#a75248","#486ea7"],"planet_colors":["#706081","#5b7c65"],"screen_resolution":[1392,1484],"minimum_resolution":1,"trial":74,"drifts":[0.512,0.277,0.41,0.457],"drift_ix":3,"trial_type":"two-step-trial","trial_index":105,"time_elapsed":841652,"internal_node_id":"0.0-87.0-0.0","task_version":"1.0","jspsych_version":"6.3.1","browser_interactions":0,"missing":false},{"state_1_ids":[0,1],"state_1_key":1,"state_1_choice":1,"state_1_rt":742.8999996185303,"transition":0,"state":0,"state_2_ids":[0,1],"state_2_key":1,"state_2_choice":1,"state_2_rt":581.3999996185303,"outcome":0,"rocket_colors":["#a75248","#486ea7"],"planet_colors":["#706081","#5b7c65"],"screen_resolution":[1392,1484],"minimum_resolution":1,"trial":75,"drifts":[0.537,0.271,0.42,0.478],"drift_ix":3,"trial_type":"two-step-trial","trial_index":106,"time_elapsed":844983,"internal_node_id":"0.0-88.0-0.0","task_version":"1.0","jspsych_version":"6.3.1","browser_interactions":0,"missing":false},{"state_1_ids":[0,1],"state_1_key":1,"state_1_choice":1,"state_1_rt":526.8000001907349,"transition":0,"state":0,"state_2_ids":[0,1],"state_2_key":1,"state_2_choice":1,"state_2_rt":1190.3999996185303,"outcome":0,"rocket_colors":["#a75248","#486ea7"],"planet_colors":["#706081","#5b7c65"],"screen_resolution":[1392,1484],"minimum_resolution":1,"trial":76,"drifts":[0.539,0.257,0.455,0.448],"drift_ix":3,"trial_type":"two-step-trial","trial_index":107,"time_elapsed":848705,"internal_node_id":"0.0-89.0-0.0","task_version":"1.0","jspsych_version":"6.3.1","browser_interactions":0,"missing":false},{"state_1_ids":[1,0],"state_1_key":0,"state_1_choice":1,"state_1_rt":1126.6999998092651,"transition":0,"state":0,"state_2_ids":[0,1],"state_2_key":0,"state_2_choice":0,"state_2_rt":480.80000019073486,"outcome":1,"rocket_colors":["#a75248","#486ea7"],"planet_colors":["#706081","#5b7c65"],"screen_resolution":[1392,1484],"minimum_resolution":1,"trial":77,"drifts":[0.56,0.261,0.459,0.423],"drift_ix":3,"trial_type":"two-step-trial","trial_index":108,"time_elapsed":852315,"internal_node_id":"0.0-90.0-0.0","task_version":"1.0","jspsych_version":"6.3.1","browser_interactions":0,"missing":false},{"state_1_ids":[0,1],"state_1_key":1,"state_1_choice":1,"state_1_rt":586.5999994277954,"transition":1,"state":1,"state_2_ids":[2,3],"state_2_key":1,"state_2_choice":3,"state_2_rt":898.5,"outcome":0,"rocket_colors":["#a75248","#486ea7"],"planet_colors":["#706081","#5b7c65"],"screen_resolution":[1392,1484],"minimum_resolution":1,"trial":78,"drifts":[0.543,0.26,0.436,0.441],"drift_ix":3,"trial_type":"two-step-trial","trial_index":109,"time_elapsed":855804,"internal_node_id":"0.0-91.0-0.0","task_version":"1.0","jspsych_version":"6.3.1","browser_interactions":0,"missing":false},{"state_1_ids":[0,1],"state_1_key":1,"state_1_choice":1,"state_1_rt":483.5,"transition":0,"state":0,"state_2_ids":[0,1],"state_2_key":0,"state_2_choice":0,"state_2_rt":762.1999998092651,"outcome":0,"rocket_colors":["#a75248","#486ea7"],"planet_colors":["#706081","#5b7c65"],"screen_resolution":[1392,1484],"minimum_resolution":1,"trial":79,"drifts":[0.536,0.268,0.465,0.475],"drift_ix":3,"trial_type":"two-step-trial","trial_index":110,"time_elapsed":859055,"internal_node_id":"0.0-92.0-0.0","task_version":"1.0","jspsych_version":"6.3.1","browser_interactions":0,"missing":false},{"state_1_ids":[1,0],"state_1_key":0,"state_1_choice":1,"state_1_rt":608.5,"transition":1,"state":1,"state_2_ids":[2,3],"state_2_key":1,"state_2_choice":3,"state_2_rt":650,"outcome":1,"rocket_colors":["#a75248","#486ea7"],"planet_colors":["#706081","#5b7c65"],"screen_resolution":[1392,1484],"minimum_resolution":1,"trial":80,"drifts":[0.534,0.324,0.464,0.482],"drift_ix":3,"trial_type":"two-step-trial","trial_index":111,"time_elapsed":862317,"internal_node_id":"0.0-93.0-0.0","task_version":"1.0","jspsych_version":"6.3.1","browser_interactions":0,"missing":false},{"state_1_ids":[0,1],"state_1_key":0,"state_1_choice":0,"state_1_rt":698.0999994277954,"transition":1,"state":0,"state_2_ids":[0,1],"state_2_key":1,"state_2_choice":1,"state_2_rt":437.70000076293945,"outcome":0,"rocket_colors":["#a75248","#486ea7"],"planet_colors":["#706081","#5b7c65"],"screen_resolution":[1392,1484],"minimum_resolution":1,"trial":81,"drifts":[0.553,0.309,0.445,0.465],"drift_ix":3,"trial_type":"two-step-trial","trial_index":112,"time_elapsed":865458,"internal_node_id":"0.0-94.0-0.0","task_version":"1.0","jspsych_version":"6.3.1","browser_interactions":0,"missing":false},{"state_1_ids":[0,1],"state_1_key":0,"state_1_choice":0,"state_1_rt":956,"transition":1,"state":0,"state_2_ids":[0,1],"state_2_key":0,"state_2_choice":0,"state_2_rt":840.1999998092651,"outcome":1,"rocket_colors":["#a75248","#486ea7"],"planet_colors":["#706081","#5b7c65"],"screen_resolution":[1392,1484],"minimum_resolution":1,"trial":82,"drifts":[0.563,0.291,0.404,0.437],"drift_ix":3,"trial_type":"two-step-trial","trial_index":113,"time_elapsed":869260,"internal_node_id":"0.0-95.0-0.0","task_version":"1.0","jspsych_version":"6.3.1","browser_interactions":0,"missing":false},{"state_1_ids":[0,1],"state_1_key":0,"state_1_choice":0,"state_1_rt":438.5999994277954,"transition":1,"state":0,"state_2_ids":[0,1],"state_2_key":0,"state_2_choice":0,"state_2_rt":492.19999980926514,"outcome":1,"rocket_colors":["#a75248","#486ea7"],"planet_colors":["#706081","#5b7c65"],"screen_resolution":[1392,1484],"minimum_resolution":1,"trial":83,"drifts":[0.563,0.298,0.442,0.474],"drift_ix":3,"trial_type":"two-step-trial","trial_index":114,"time_elapsed":872197,"internal_node_id":"0.0-96.0-0.0","task_version":"1.0","jspsych_version":"6.3.1","browser_interactions":0,"missing":false},{"state_1_ids":[1,0],"state_1_key":1,"state_1_choice":0,"state_1_rt":651.0999994277954,"transition":1,"state":0,"state_2_ids":[0,1],"state_2_key":0,"state_2_choice":0,"state_2_rt":616.3999996185303,"outcome":0,"rocket_colors":["#a75248","#486ea7"],"planet_colors":["#706081","#5b7c65"],"screen_resolution":[1392,1484],"minimum_resolution":1,"trial":84,"drifts":[0.591,0.316,0.454,0.449],"drift_ix":3,"trial_type":"two-step-trial","trial_index":115,"time_elapsed":875471,"internal_node_id":"0.0-97.0-0.0","task_version":"1.0","jspsych_version":"6.3.1","browser_interactions":0,"missing":false},{"state_1_ids":[1,0],"state_1_key":1,"state_1_choice":0,"state_1_rt":1483.3000001907349,"transition":1,"state":0,"state_2_ids":[0,1],"state_2_key":1,"state_2_choice":1,"state_2_rt":707.9000005722046,"outcome":0,"rocket_colors":["#a75248","#486ea7"],"planet_colors":["#706081","#5b7c65"],"screen_resolution":[1392,1484],"minimum_resolution":1,"trial":85,"drifts":[0.57,0.324,0.436,0.421],"drift_ix":3,"trial_type":"two-step-trial","trial_index":116,"time_elapsed":879668,"internal_node_id":"0.0-98.0-0.0","task_version":"1.0","jspsych_version":"6.3.1","browser_interactions":0,"missing":false},{"state_1_ids":[1,0],"state_1_key":1,"state_1_choice":0,"state_1_rt":1775.6999998092651,"transition":1,"state":0,"state_2_ids":[0,1],"state_2_key":1,"state_2_choice":1,"state_2_rt":864.5,"outcome":0,"rocket_colors":["#a75248","#486ea7"],"planet_colors":["#706081","#5b7c65"],"screen_resolution":[1392,1484],"minimum_resolution":1,"trial":86,"drifts":[0.531,0.336,0.408,0.378],"drift_ix":3,"trial_type":"two-step-trial","trial_index":117,"time_elapsed":884312,"internal_node_id":"0.0-99.0-0.0","task_version":"1.0","jspsych_version":"6.3.1","browser_interactions":0,"missing":false},{"state_1_ids":[0,1],"state_1_key":0,"state_1_choice":0,"state_1_rt":753.5,"transition":1,"state":0,"state_2_ids":[0,1],"state_2_key":0,"state_2_choice":0,"state_2_rt":470.80000019073486,"outcome":1,"rocket_colors":["#a75248","#486ea7"],"planet_colors":["#706081","#5b7c65"],"screen_resolution":[1392,1484],"minimum_resolution":1,"trial":87,"drifts":[0.529,0.309,0.432,0.403],"drift_ix":3,"trial_type":"two-step-trial","trial_index":118,"time_elapsed":887540,"internal_node_id":"0.0-100.0-0.0","task_version":"1.0","jspsych_version":"6.3.1","browser_interactions":0,"missing":false},{"state_1_ids":[1,0],"state_1_key":1,"state_1_choice":0,"state_1_rt":484.9000005722046,"transition":1,"state":0,"state_2_ids":[0,1],"state_2_key":0,"state_2_choice":0,"state_2_rt":514.4000005722046,"outcome":0,"rocket_colors":["#a75248","#486ea7"],"planet_colors":["#706081","#5b7c65"],"screen_resolution":[1392,1484],"minimum_resolution":1,"trial":88,"drifts":[0.532,0.296,0.431,0.406],"drift_ix":3,"trial_type":"two-step-trial","trial_index":119,"time_elapsed":890547,"internal_node_id":"0.0-101.0-0.0","task_version":"1.0","jspsych_version":"6.3.1","browser_interactions":0,"missing":false},{"state_1_ids":[1,0],"state_1_key":0,"state_1_choice":1,"state_1_rt":707.3000001907349,"transition":1,"state":1,"state_2_ids":[2,3],"state_2_key":1,"state_2_choice":3,"state_2_rt":469.8999996185303,"outcome":1,"rocket_colors":["#a75248","#486ea7"],"planet_colors":["#706081","#5b7c65"],"screen_resolution":[1392,1484],"minimum_resolution":1,"trial":89,"drifts":[0.553,0.328,0.456,0.411],"drift_ix":3,"trial_type":"two-step-trial","trial_index":120,"time_elapsed":893728,"internal_node_id":"0.0-102.0-0.0","task_version":"1.0","jspsych_version":"6.3.1","browser_interactions":0,"missing":false},{"state_1_ids":[0,1],"state_1_key":1,"state_1_choice":1,"state_1_rt":496.1000003814697,"transition":1,"state":1,"state_2_ids":[2,3],"state_2_key":1,"state_2_choice":3,"state_2_rt":784.3000001907349,"outcome":0,"rocket_colors":["#a75248","#486ea7"],"planet_colors":["#706081","#5b7c65"],"screen_resolution":[1392,1484],"minimum_resolution":1,"trial":90,"drifts":[0.542,0.3,0.493,0.409],"drift_ix":3,"trial_type":"two-step-trial","trial_index":121,"time_elapsed":897013,"internal_node_id":"0.0-103.0-0.0","task_version":"1.0","jspsych_version":"6.3.1","browser_interactions":0,"missing":false},{"state_1_ids":[1,0],"state_1_key":0,"state_1_choice":1,"state_1_rt":540.6999998092651,"transition":1,"state":1,"state_2_ids":[2,3],"state_2_key":1,"state_2_choice":3,"state_2_rt":401.80000019073486,"outcome":0,"rocket_colors":["#a75248","#486ea7"],"planet_colors":["#706081","#5b7c65"],"screen_resolution":[1392,1484],"minimum_resolution":1,"trial":91,"drifts":[0.54,0.298,0.512,0.437],"drift_ix":3,"trial_type":"two-step-trial","trial_index":122,"time_elapsed":899962,"internal_node_id":"0.0-104.0-0.0","task_version":"1.0","jspsych_version":"6.3.1","browser_interactions":0,"missing":false},{"state_1_ids":[1,0],"state_1_key":0,"state_1_choice":1,"state_1_rt":471.3999996185303,"transition":0,"state":0,"state_2_ids":[0,1],"state_2_key":1,"state_2_choice":1,"state_2_rt":1212.5,"outcome":1,"rocket_colors":["#a75248","#486ea7"],"planet_colors":["#706081","#5b7c65"],"screen_resolution":[1392,1484],"minimum_resolution":1,"trial":92,"drifts":[0.564,0.281,0.499,0.45],"drift_ix":3,"trial_type":"two-step-trial","trial_index":123,"time_elapsed":903654,"internal_node_id":"0.0-105.0-0.0","task_version":"1.0","jspsych_version":"6.3.1","browser_interactions":0,"missing":false},{"state_1_ids":[0,1],"state_1_key":0,"state_1_choice":0,"state_1_rt":807,"transition":1,"state":0,"state_2_ids":[0,1],"state_2_key":1,"state_2_choice":1,"state_2_rt":381.30000019073486,"outcome":0,"rocket_colors":["#a75248","#486ea7"],"planet_colors":["#706081","#5b7c65"],"screen_resolution":[1392,1484],"minimum_resolution":1,"trial":93,"drifts":[0.542,0.268,0.44,0.42],"drift_ix":3,"trial_type":"two-step-trial","trial_index":124,"time_elapsed":906847,"internal_node_id":"0.0-106.0-0.0","task_version":"1.0","jspsych_version":"6.3.1","browser_interactions":0,"missing":false},{"state_1_ids":[1,0],"state_1_key":0,"state_1_choice":1,"state_1_rt":607.2000007629395,"transition":1,"state":1,"state_2_ids":[2,3],"state_2_key":1,"state_2_choice":3,"state_2_rt":571,"outcome":1,"rocket_colors":["#a75248","#486ea7"],"planet_colors":["#706081","#5b7c65"],"screen_resolution":[1392,1484],"minimum_resolution":1,"trial":94,"drifts":[0.539,0.26,0.421,0.438],"drift_ix":3,"trial_type":"two-step-trial","trial_index":125,"time_elapsed":910029,"internal_node_id":"0.0-107.0-0.0","task_version":"1.0","jspsych_version":"6.3.1","browser_interactions":0,"missing":false},{"state_1_ids":[0,1],"state_1_key":1,"state_1_choice":1,"state_1_rt":495.5999994277954,"transition":1,"state":1,"state_2_ids":[2,3],"state_2_key":1,"state_2_choice":3,"state_2_rt":469.69999980926514,"outcome":0,"rocket_colors":["#a75248","#486ea7"],"planet_colors":["#706081","#5b7c65"],"screen_resolution":[1392,1484],"minimum_resolution":1,"trial":95,"drifts":[0.583,0.272,0.407,0.449],"drift_ix":3,"trial_type":"two-step-trial","trial_index":126,"time_elapsed":913000,"internal_node_id":"0.0-108.0-0.0","task_version":"1.0","jspsych_version":"6.3.1","browser_interactions":0,"missing":false},{"state_1_ids":[1,0],"state_1_key":0,"state_1_choice":1,"state_1_rt":529.5,"transition":1,"state":1,"state_2_ids":[2,3],"state_2_key":1,"state_2_choice":3,"state_2_rt":391,"outcome":1,"rocket_colors":["#a75248","#486ea7"],"planet_colors":["#706081","#5b7c65"],"screen_resolution":[1392,1484],"minimum_resolution":1,"trial":96,"drifts":[0.596,0.257,0.37,0.508],"drift_ix":3,"trial_type":"two-step-trial","trial_index":127,"time_elapsed":915926,"internal_node_id":"0.0-109.0-0.0","task_version":"1.0","jspsych_version":"6.3.1","browser_interactions":0,"missing":false},{"state_1_ids":[0,1],"state_1_key":1,"state_1_choice":1,"state_1_rt":516.9000005722046,"transition":1,"state":1,"state_2_ids":[2,3],"state_2_key":0,"state_2_choice":2,"state_2_rt":536.5999994277954,"outcome":0,"rocket_colors":["#a75248","#486ea7"],"planet_colors":["#706081","#5b7c65"],"screen_resolution":[1392,1484],"minimum_resolution":1,"trial":97,"drifts":[0.6,0.317,0.384,0.526],"drift_ix":3,"trial_type":"two-step-trial","trial_index":128,"time_elapsed":918985,"internal_node_id":"0.0-110.0-0.0","task_version":"1.0","jspsych_version":"6.3.1","browser_interactions":0,"missing":false},{"state_1_ids":[1,0],"state_1_key":0,"state_1_choice":1,"state_1_rt":743.5,"transition":1,"state":1,"state_2_ids":[2,3],"state_2_key":1,"state_2_choice":3,"state_2_rt":320.80000019073486,"outcome":0,"rocket_colors":["#a75248","#486ea7"],"planet_colors":["#706081","#5b7c65"],"screen_resolution":[1392,1484],"minimum_resolution":1,"trial":98,"drifts":[0.573,0.304,0.387,0.504],"drift_ix":3,"trial_type":"two-step-trial","trial_index":129,"time_elapsed":922056,"internal_node_id":"0.0-111.0-0.0","task_version":"1.0","jspsych_version":"6.3.1","browser_interactions":0,"missing":false},{"state_1_ids":[1,0],"state_1_key":0,"state_1_choice":1,"state_1_rt":484.3999996185303,"transition":0,"state":0,"state_2_ids":[0,1],"state_2_key":1,"state_2_choice":1,"state_2_rt":830.6999998092651,"outcome":0,"rocket_colors":["#a75248","#486ea7"],"planet_colors":["#706081","#5b7c65"],"screen_resolution":[1392,1484],"minimum_resolution":1,"trial":99,"drifts":[0.567,0.288,0.405,0.531],"drift_ix":3,"trial_type":"two-step-trial","trial_index":130,"time_elapsed":925376,"internal_node_id":"0.0-112.0-0.0","task_version":"1.0","jspsych_version":"6.3.1","browser_interactions":0,"missing":false},{"state_1_ids":[1,0],"state_1_key":0,"state_1_choice":1,"state_1_rt":404.20000076293945,"transition":1,"state":1,"state_2_ids":[2,3],"state_2_key":1,"state_2_choice":3,"state_2_rt":683,"outcome":1,"rocket_colors":["#a75248","#486ea7"],"planet_colors":["#706081","#5b7c65"],"screen_resolution":[1392,1484],"minimum_resolution":1,"trial":100,"drifts":[0.535,0.255,0.402,0.526],"drift_ix":3,"trial_type":"two-step-trial","trial_index":131,"time_elapsed":928470,"internal_node_id":"0.0-113.0-0.0","task_version":"1.0","jspsych_version":"6.3.1","browser_interactions":0,"missing":false},{"view_history":"[{\"page_index\":0,\"viewing_time\":58128.5},{\"page_index\":1,\"viewing_time\":2126.7999992370605}]","rt":60255.79999923706,"trial_type":"two-step-instructions","trial_index":132,"time_elapsed":988727,"internal_node_id":"0.0-114.0","task_version":"1.0","jspsych_version":"6.3.1"},{"state_1_ids":[1,0],"state_1_key":0,"state_1_choice":1,"state_1_rt":1389.8000001907349,"transition":0,"state":0,"state_2_ids":[0,1],"state_2_key":1,"state_2_choice":1,"state_2_rt":1728.4000005722046,"outcome":0,"rocket_colors":["#a75248","#486ea7"],"planet_colors":["#706081","#5b7c65"],"screen_resolution":[1392,1484],"minimum_resolution":1,"trial":101,"drifts":[0.52,0.27,0.348,0.507],"drift_ix":3,"trial_type":"two-step-trial","trial_index":133,"time_elapsed":993857,"internal_node_id":"0.0-115.0-0.0","task_version":"1.0","jspsych_version":"6.3.1","browser_interactions":0,"missing":false},{"state_1_ids":[1,0],"state_1_key":0,"state_1_choice":1,"state_1_rt":819,"transition":0,"state":0,"state_2_ids":[0,1],"state_2_key":0,"state_2_choice":0,"state_2_rt":425.80000019073486,"outcome":1,"rocket_colors":["#a75248","#486ea7"],"planet_colors":["#706081","#5b7c65"],"screen_resolution":[1392,1484],"minimum_resolution":1,"trial":102,"drifts":[0.518,0.277,0.374,0.503],"drift_ix":3,"trial_type":"two-step-trial","trial_index":134,"time_elapsed":997108,"internal_node_id":"0.0-116.0-0.0","task_version":"1.0","jspsych_version":"6.3.1","browser_interactions":0,"missing":false},{"state_1_ids":[0,1],"state_1_key":1,"state_1_choice":1,"state_1_rt":955,"transition":1,"state":1,"state_2_ids":[2,3],"state_2_key":1,"state_2_choice":3,"state_2_rt":1359.0999994277954,"outcome":0,"rocket_colors":["#a75248","#486ea7"],"planet_colors":["#706081","#5b7c65"],"screen_resolution":[1392,1484],"minimum_resolution":1,"trial":103,"drifts":[0.492,0.318,0.345,0.483],"drift_ix":3,"trial_type":"two-step-trial","trial_index":135,"time_elapsed":1001428,"internal_node_id":"0.0-117.0-0.0","task_version":"1.0","jspsych_version":"6.3.1","browser_interactions":0,"missing":false},{"state_1_ids":[0,1],"state_1_key":1,"state_1_choice":1,"state_1_rt":706.9000005722046,"transition":1,"state":1,"state_2_ids":[2,3],"state_2_key":1,"state_2_choice":3,"state_2_rt":413,"outcome":1,"rocket_colors":["#a75248","#486ea7"],"planet_colors":["#706081","#5b7c65"],"screen_resolution":[1392,1484],"minimum_resolution":1,"trial":104,"drifts":[0.494,0.305,0.344,0.485],"drift_ix":3,"trial_type":"two-step-trial","trial_index":136,"time_elapsed":1004555,"internal_node_id":"0.0-118.0-0.0","task_version":"1.0","jspsych_version":"6.3.1","browser_interactions":0,"missing":false},{"state_1_ids":[0,1],"state_1_key":1,"state_1_choice":1,"state_1_rt":448.80000019073486,"transition":1,"state":1,"state_2_ids":[2,3],"state_2_key":1,"state_2_choice":3,"state_2_rt":469.3999996185303,"outcome":1,"rocket_colors":["#a75248","#486ea7"],"planet_colors":["#706081","#5b7c65"],"screen_resolution":[1392,1484],"minimum_resolution":1,"trial":105,"drifts":[0.496,0.279,0.36,0.503],"drift_ix":3,"trial_type":"two-step-trial","trial_index":137,"time_elapsed":1007481,"internal_node_id":"0.0-119.0-0.0","task_version":"1.0","jspsych_version":"6.3.1","browser_interactions":0,"missing":false},{"state_1_ids":[1,0],"state_1_key":0,"state_1_choice":1,"state_1_rt":595.8000001907349,"transition":1,"state":1,"state_2_ids":[2,3],"state_2_key":1,"state_2_choice":3,"state_2_rt":513.8999996185303,"outcome":0,"rocket_colors":["#a75248","#486ea7"],"planet_colors":["#706081","#5b7c65"],"screen_resolution":[1392,1484],"minimum_resolution":1,"trial":106,"drifts":[0.522,0.291,0.358,0.537],"drift_ix":3,"trial_type":"two-step-trial","trial_index":138,"time_elapsed":1010596,"internal_node_id":"0.0-120.0-0.0","task_version":"1.0","jspsych_version":"6.3.1","browser_interactions":0,"missing":false},{"state_1_ids":[1,0],"state_1_key":0,"state_1_choice":1,"state_1_rt":618.6999998092651,"transition":1,"state":1,"state_2_ids":[2,3],"state_2_key":1,"state_2_choice":3,"state_2_rt":436,"outcome":1,"rocket_colors":["#a75248","#486ea7"],"planet_colors":["#706081","#5b7c65"],"screen_resolution":[1392,1484],"minimum_resolution":1,"trial":107,"drifts":[0.481,0.324,0.357,0.499],"drift_ix":3,"trial_type":"two-step-trial","trial_index":139,"time_elapsed":1013657,"internal_node_id":"0.0-121.0-0.0","task_version":"1.0","jspsych_version":"6.3.1","browser_interactions":0,"missing":false},{"state_1_ids":[1,0],"state_1_key":0,"state_1_choice":1,"state_1_rt":414.5,"transition":1,"state":1,"state_2_ids":[2,3],"state_2_key":1,"state_2_choice":3,"state_2_rt":594.3000001907349,"outcome":0,"rocket_colors":["#a75248","#486ea7"],"planet_colors":["#706081","#5b7c65"],"screen_resolution":[1392,1484],"minimum_resolution":1,"trial":108,"drifts":[0.504,0.334,0.327,0.481],"drift_ix":3,"trial_type":"two-step-trial","trial_index":140,"time_elapsed":1016671,"internal_node_id":"0.0-122.0-0.0","task_version":"1.0","jspsych_version":"6.3.1","browser_interactions":0,"missing":false},{"state_1_ids":[1,0],"state_1_key":0,"state_1_choice":1,"state_1_rt":404.6000003814697,"transition":0,"state":0,"state_2_ids":[0,1],"state_2_key":0,"state_2_choice":0,"state_2_rt":1080.8999996185303,"outcome":1,"rocket_colors":["#a75248","#486ea7"],"planet_colors":["#706081","#5b7c65"],"screen_resolution":[1392,1484],"minimum_resolution":1,"trial":109,"drifts":[0.526,0.339,0.308,0.485],"drift_ix":3,"trial_type":"two-step-trial","trial_index":141,"time_elapsed":1020163,"internal_node_id":"0.0-123.0-0.0","task_version":"1.0","jspsych_version":"6.3.1","browser_interactions":0,"missing":false},{"state_1_ids":[0,1],"state_1_key":0,"state_1_choice":0,"state_1_rt":523.5,"transition":0,"state":1,"state_2_ids":[2,3],"state_2_key":1,"state_2_choice":3,"state_2_rt":1651.6999998092651,"outcome":0,"rocket_colors":["#a75248","#486ea7"],"planet_colors":["#706081","#5b7c65"],"screen_resolution":[1392,1484],"minimum_resolution":1,"trial":110,"drifts":[0.551,0.358,0.295,0.444],"drift_ix":3,"trial_type":"two-step-trial","trial_index":142,"time_elapsed":1024345,"internal_node_id":"0.0-124.0-0.0","task_version":"1.0","jspsych_version":"6.3.1","browser_interactions":0,"missing":false},{"state_1_ids":[0,1],"state_1_key":0,"state_1_choice":0,"state_1_rt":371.70000076293945,"transition":0,"state":1,"state_2_ids":[2,3],"state_2_key":1,"state_2_choice":3,"state_2_rt":1459.8000001907349,"outcome":0,"rocket_colors":["#a75248","#486ea7"],"planet_colors":["#706081","#5b7c65"],"screen_resolution":[1392,1484],"minimum_resolution":1,"trial":111,"drifts":[0.517,0.359,0.323,0.417],"drift_ix":3,"trial_type":"two-step-trial","trial_index":143,"time_elapsed":1028181,"internal_node_id":"0.0-125.0-0.0","task_version":"1.0","jspsych_version":"6.3.1","browser_interactions":0,"missing":false},{"state_1_ids":[0,1],"state_1_key":0,"state_1_choice":0,"state_1_rt":481.30000019073486,"transition":0,"state":1,"state_2_ids":[2,3],"state_2_key":0,"state_2_choice":2,"state_2_rt":706.8000001907349,"outcome":0,"rocket_colors":["#a75248","#486ea7"],"planet_colors":["#706081","#5b7c65"],"screen_resolution":[1392,1484],"minimum_resolution":1,"trial":112,"drifts":[0.506,0.34,0.322,0.412],"drift_ix":3,"trial_type":"two-step-trial","trial_index":144,"time_elapsed":1031375,"internal_node_id":"0.0-126.0-0.0","task_version":"1.0","jspsych_version":"6.3.1","browser_interactions":0,"missing":false},{"state_1_ids":[0,1],"state_1_key":0,"state_1_choice":0,"state_1_rt":399.70000076293945,"transition":0,"state":1,"state_2_ids":[2,3],"state_2_key":1,"state_2_choice":3,"state_2_rt":1353.6999998092651,"outcome":1,"rocket_colors":["#a75248","#486ea7"],"planet_colors":["#706081","#5b7c65"],"screen_resolution":[1392,1484],"minimum_resolution":1,"trial":113,"drifts":[0.467,0.28,0.348,0.413],"drift_ix":3,"trial_type":"two-step-trial","trial_index":145,"time_elapsed":1035132,"internal_node_id":"0.0-127.0-0.0","task_version":"1.0","jspsych_version":"6.3.1","browser_interactions":0,"missing":false},{"state_1_ids":[1,0],"state_1_key":1,"state_1_choice":0,"state_1_rt":990,"transition":1,"state":0,"state_2_ids":[0,1],"state_2_key":0,"state_2_choice":0,"state_2_rt":637.8999996185303,"outcome":0,"rocket_colors":["#a75248","#486ea7"],"planet_colors":["#706081","#5b7c65"],"screen_resolution":[1392,1484],"minimum_resolution":1,"trial":114,"drifts":[0.494,0.276,0.373,0.43],"drift_ix":3,"trial_type":"two-step-trial","trial_index":146,"time_elapsed":1038766,"internal_node_id":"0.0-128.0-0.0","task_version":"1.0","jspsych_version":"6.3.1","browser_interactions":0,"missing":false},{"state_1_ids":[0,1],"state_1_key":0,"state_1_choice":0,"state_1_rt":549.9000005722046,"transition":0,"state":1,"state_2_ids":[2,3],"state_2_key":1,"state_2_choice":3,"state_2_rt":787,"outcome":0,"rocket_colors":["#a75248","#486ea7"],"planet_colors":["#706081","#5b7c65"],"screen_resolution":[1392,1484],"minimum_resolution":1,"trial":115,"drifts":[0.493,0.258,0.428,0.412],"drift_ix":3,"trial_type":"two-step-trial","trial_index":147,"time_elapsed":1042107,"internal_node_id":"0.0-129.0-0.0","task_version":"1.0","jspsych_version":"6.3.1","browser_interactions":0,"missing":false},{"state_1_ids":[1,0],"state_1_key":0,"state_1_choice":1,"state_1_rt":483.5,"transition":0,"state":0,"state_2_ids":[0,1],"state_2_key":0,"state_2_choice":0,"state_2_rt":482.8999996185303,"outcome":0,"rocket_colors":["#a75248","#486ea7"],"planet_colors":["#706081","#5b7c65"],"screen_resolution":[1392,1484],"minimum_resolution":1,"trial":116,"drifts":[0.492,0.266,0.447,0.466],"drift_ix":3,"trial_type":"two-step-trial","trial_index":148,"time_elapsed":1045080,"internal_node_id":"0.0-130.0-0.0","task_version":"1.0","jspsych_version":"6.3.1","browser_interactions":0,"missing":false},{"state_1_ids":[1,0],"state_1_key":0,"state_1_choice":1,"state_1_rt":784.3000001907349,"transition":1,"state":1,"state_2_ids":[2,3],"state_2_key":1,"state_2_choice":3,"state_2_rt":459.69999980926514,"outcome":0,"rocket_colors":["#a75248","#486ea7"],"planet_colors":["#706081","#5b7c65"],"screen_resolution":[1392,1484],"minimum_resolution":1,"trial":117,"drifts":[0.512,0.269,0.457,0.471],"drift_ix":3,"trial_type":"two-step-trial","trial_index":149,"time_elapsed":1048331,"internal_node_id":"0.0-131.0-0.0","task_version":"1.0","jspsych_version":"6.3.1","browser_interactions":0,"missing":false},{"state_1_ids":[1,0],"state_1_key":0,"state_1_choice":1,"state_1_rt":460.3999996185303,"transition":1,"state":1,"state_2_ids":[2,3],"state_2_key":0,"state_2_choice":2,"state_2_rt":413.8999996185303,"outcome":0,"rocket_colors":["#a75248","#486ea7"],"planet_colors":["#706081","#5b7c65"],"screen_resolution":[1392,1484],"minimum_resolution":1,"trial":118,"drifts":[0.551,0.283,0.506,0.484],"drift_ix":3,"trial_type":"two-step-trial","trial_index":150,"time_elapsed":1051210,"internal_node_id":"0.0-132.0-0.0","task_version":"1.0","jspsych_version":"6.3.1","browser_interactions":0,"missing":false},{"state_1_ids":[0,1],"state_1_key":1,"state_1_choice":1,"state_1_rt":573.3000001907349,"transition":0,"state":0,"state_2_ids":[0,1],"state_2_key":0,"state_2_choice":0,"state_2_rt":1110.8999996185303,"outcome":0,"rocket_colors":["#a75248","#486ea7"],"planet_colors":["#706081","#5b7c65"],"screen_resolution":[1392,1484],"minimum_resolution":1,"trial":119,"drifts":[0.537,0.273,0.462,0.473],"drift_ix":3,"trial_type":"two-step-trial","trial_index":151,"time_elapsed":1054902,"internal_node_id":"0.0-133.0-0.0","task_version":"1.0","jspsych_version":"6.3.1","browser_interactions":0,"missing":false},{"state_1_ids":[0,1],"state_1_key":1,"state_1_choice":1,"state_1_rt":390.3999996185303,"transition":0,"state":0,"state_2_ids":[0,1],"state_2_key":0,"state_2_choice":0,"state_2_rt":650.5,"outcome":0,"rocket_colors":["#a75248","#486ea7"],"planet_colors":["#706081","#5b7c65"],"screen_resolution":[1392,1484],"minimum_resolution":1,"trial":120,"drifts":[0.49,0.26,0.46,0.477],"drift_ix":3,"trial_type":"two-step-trial","trial_index":152,"time_elapsed":1057950,"internal_node_id":"0.0-134.0-0.0","task_version":"1.0","jspsych_version":"6.3.1","browser_interactions":0,"missing":false},{"state_1_ids":[0,1],"state_1_key":1,"state_1_choice":1,"state_1_rt":988.6999998092651,"transition":0,"state":0,"state_2_ids":[0,1],"state_2_key":1,"state_2_choice":1,"state_2_rt":390.5,"outcome":1,"rocket_colors":["#a75248","#486ea7"],"planet_colors":["#706081","#5b7c65"],"screen_resolution":[1392,1484],"minimum_resolution":1,"trial":121,"drifts":[0.547,0.275,0.457,0.431],"drift_ix":3,"trial_type":"two-step-trial","trial_index":153,"time_elapsed":1061334,"internal_node_id":"0.0-135.0-0.0","task_version":"1.0","jspsych_version":"6.3.1","browser_interactions":0,"missing":false},{"state_1_ids":[0,1],"state_1_key":1,"state_1_choice":1,"state_1_rt":586.4000005722046,"transition":1,"state":1,"state_2_ids":[2,3],"state_2_key":0,"state_2_choice":2,"state_2_rt":816.3000001907349,"outcome":1,"rocket_colors":["#a75248","#486ea7"],"planet_colors":["#706081","#5b7c65"],"screen_resolution":[1392,1484],"minimum_resolution":1,"trial":122,"drifts":[0.578,0.269,0.386,0.411],"drift_ix":3,"trial_type":"two-step-trial","trial_index":154,"time_elapsed":1064741,"internal_node_id":"0.0-136.0-0.0","task_version":"1.0","jspsych_version":"6.3.1","browser_interactions":0,"missing":false},{"state_1_ids":[1,0],"state_1_key":0,"state_1_choice":1,"state_1_rt":1002.8000001907349,"transition":0,"state":0,"state_2_ids":[0,1],"state_2_key":1,"state_2_choice":1,"state_2_rt":662.4000005722046,"outcome":1,"rocket_colors":["#a75248","#486ea7"],"planet_colors":["#706081","#5b7c65"],"screen_resolution":[1392,1484],"minimum_resolution":1,"trial":123,"drifts":[0.639,0.269,0.384,0.429],"drift_ix":3,"trial_type":"two-step-trial","trial_index":155,"time_elapsed":1068410,"internal_node_id":"0.0-137.0-0.0","task_version":"1.0","jspsych_version":"6.3.1","browser_interactions":0,"missing":false},{"state_1_ids":[0,1],"state_1_key":0,"state_1_choice":0,"state_1_rt":753.3000001907349,"transition":1,"state":0,"state_2_ids":[0,1],"state_2_key":0,"state_2_choice":0,"state_2_rt":448.20000076293945,"outcome":0,"rocket_colors":["#a75248","#486ea7"],"planet_colors":["#706081","#5b7c65"],"screen_resolution":[1392,1484],"minimum_resolution":1,"trial":124,"drifts":[0.636,0.254,0.416,0.449],"drift_ix":3,"trial_type":"two-step-trial","trial_index":156,"time_elapsed":1071614,"internal_node_id":"0.0-138.0-0.0","task_version":"1.0","jspsych_version":"6.3.1","browser_interactions":0,"missing":false},{"state_1_ids":[0,1],"state_1_key":0,"state_1_choice":0,"state_1_rt":440.6000003814697,"transition":1,"state":0,"state_2_ids":[0,1],"state_2_key":1,"state_2_choice":1,"state_2_rt":1358.6999998092651,"outcome":0,"rocket_colors":["#a75248","#486ea7"],"planet_colors":["#706081","#5b7c65"],"screen_resolution":[1392,1484],"minimum_resolution":1,"trial":125,"drifts":[0.665,0.257,0.44,0.433],"drift_ix":3,"trial_type":"two-step-trial","trial_index":157,"time_elapsed":1075420,"internal_node_id":"0.0-139.0-0.0","task_version":"1.0","jspsych_version":"6.3.1","browser_interactions":0,"missing":false},{"state_1_ids":[1,0],"state_1_key":0,"state_1_choice":1,"state_1_rt":1045.0999994277954,"transition":1,"state":1,"state_2_ids":[2,3],"state_2_key":1,"state_2_choice":3,"state_2_rt":685.4000005722046,"outcome":0,"rocket_colors":["#a75248","#486ea7"],"planet_colors":["#706081","#5b7c65"],"screen_resolution":[1392,1484],"minimum_resolution":1,"trial":126,"drifts":[0.694,0.25,0.453,0.414],"drift_ix":3,"trial_type":"two-step-trial","trial_index":158,"time_elapsed":1079155,"internal_node_id":"0.0-140.0-0.0","task_version":"1.0","jspsych_version":"6.3.1","browser_interactions":0,"missing":false},{"state_1_ids":[1,0],"state_1_key":0,"state_1_choice":1,"state_1_rt":493.5,"transition":0,"state":0,"state_2_ids":[0,1],"state_2_key":0,"state_2_choice":0,"state_2_rt":617.7000007629395,"outcome":1,"rocket_colors":["#a75248","#486ea7"],"planet_colors":["#706081","#5b7c65"],"screen_resolution":[1392,1484],"minimum_resolution":1,"trial":127,"drifts":[0.666,0.266,0.449,0.399],"drift_ix":3,"trial_type":"two-step-trial","trial_index":159,"time_elapsed":1082272,"internal_node_id":"0.0-141.0-0.0","task_version":"1.0","jspsych_version":"6.3.1","browser_interactions":0,"missing":false},{"state_1_ids":[1,0],"state_1_key":0,"state_1_choice":1,"state_1_rt":403.19999980926514,"transition":1,"state":1,"state_2_ids":[2,3],"state_2_key":0,"state_2_choice":2,"state_2_rt":704.3999996185303,"outcome":1,"rocket_colors":["#a75248","#486ea7"],"planet_colors":["#706081","#5b7c65"],"screen_resolution":[1392,1484],"minimum_resolution":1,"trial":128,"drifts":[0.66,0.272,0.461,0.39],"drift_ix":3,"trial_type":"two-step-trial","trial_index":160,"time_elapsed":1085385,"internal_node_id":"0.0-142.0-0.0","task_version":"1.0","jspsych_version":"6.3.1","browser_interactions":0,"missing":false},{"state_1_ids":[0,1],"state_1_key":0,"state_1_choice":0,"state_1_rt":363.6000003814697,"transition":0,"state":1,"state_2_ids":[2,3],"state_2_key":0,"state_2_choice":2,"state_2_rt":715.6999998092651,"outcome":0,"rocket_colors":["#a75248","#486ea7"],"planet_colors":["#706081","#5b7c65"],"screen_resolution":[1392,1484],"minimum_resolution":1,"trial":129,"drifts":[0.677,0.288,0.452,0.388],"drift_ix":3,"trial_type":"two-step-trial","trial_index":161,"time_elapsed":1088467,"internal_node_id":"0.0-143.0-0.0","task_version":"1.0","jspsych_version":"6.3.1","browser_interactions":0,"missing":false},{"state_1_ids":[0,1],"state_1_key":0,"state_1_choice":0,"state_1_rt":272.19999980926514,"transition":1,"state":0,"state_2_ids":[0,1],"state_2_key":0,"state_2_choice":0,"state_2_rt":862.3999996185303,"outcome":0,"rocket_colors":["#a75248","#486ea7"],"planet_colors":["#706081","#5b7c65"],"screen_resolution":[1392,1484],"minimum_resolution":1,"trial":130,"drifts":[0.654,0.252,0.415,0.434],"drift_ix":3,"trial_type":"two-step-trial","trial_index":162,"time_elapsed":1091607,"internal_node_id":"0.0-144.0-0.0","task_version":"1.0","jspsych_version":"6.3.1","browser_interactions":0,"missing":false},{"state_1_ids":[0,1],"state_1_key":0,"state_1_choice":0,"state_1_rt":429.5999994277954,"transition":1,"state":0,"state_2_ids":[0,1],"state_2_key":1,"state_2_choice":1,"state_2_rt":423.79999923706055,"outcome":0,"rocket_colors":["#a75248","#486ea7"],"planet_colors":["#706081","#5b7c65"],"screen_resolution":[1392,1484],"minimum_resolution":1,"trial":131,"drifts":[0.662,0.271,0.398,0.411],"drift_ix":3,"trial_type":"two-step-trial","trial_index":163,"time_elapsed":1094468,"internal_node_id":"0.0-145.0-0.0","task_version":"1.0","jspsych_version":"6.3.1","browser_interactions":0,"missing":false},{"state_1_ids":[0,1],"state_1_key":0,"state_1_choice":0,"state_1_rt":403,"transition":1,"state":0,"state_2_ids":[0,1],"state_2_key":1,"state_2_choice":1,"state_2_rt":503.4000005722046,"outcome":0,"rocket_colors":["#a75248","#486ea7"],"planet_colors":["#706081","#5b7c65"],"screen_resolution":[1392,1484],"minimum_resolution":1,"trial":132,"drifts":[0.661,0.29,0.402,0.435],"drift_ix":3,"trial_type":"two-step-trial","trial_index":164,"time_elapsed":1097380,"internal_node_id":"0.0-146.0-0.0","task_version":"1.0","jspsych_version":"6.3.1","browser_interactions":0,"missing":false},{"state_1_ids":[0,1],"state_1_key":0,"state_1_choice":0,"state_1_rt":303,"transition":1,"state":0,"state_2_ids":[0,1],"state_2_key":1,"state_2_choice":1,"state_2_rt":493.8999996185303,"outcome":0,"rocket_colors":["#a75248","#486ea7"],"planet_colors":["#706081","#5b7c65"],"screen_resolution":[1392,1484],"minimum_resolution":1,"trial":133,"drifts":[0.665,0.307,0.385,0.395],"drift_ix":3,"trial_type":"two-step-trial","trial_index":165,"time_elapsed":1100181,"internal_node_id":"0.0-147.0-0.0","task_version":"1.0","jspsych_version":"6.3.1","browser_interactions":0,"missing":false},{"state_1_ids":[0,1],"state_1_key":0,"state_1_choice":0,"state_1_rt":314.29999923706055,"transition":0,"state":1,"state_2_ids":[2,3],"state_2_key":1,"state_2_choice":3,"state_2_rt":974.7999992370605,"outcome":0,"rocket_colors":["#a75248","#486ea7"],"planet_colors":["#706081","#5b7c65"],"screen_resolution":[1392,1484],"minimum_resolution":1,"trial":134,"drifts":[0.696,0.308,0.332,0.425],"drift_ix":3,"trial_type":"two-step-trial","trial_index":166,"time_elapsed":1103478,"internal_node_id":"0.0-148.0-0.0","task_version":"1.0","jspsych_version":"6.3.1","browser_interactions":0,"missing":false},{"state_1_ids":[1,0],"state_1_key":0,"state_1_choice":1,"state_1_rt":449.69999980926514,"transition":1,"state":1,"state_2_ids":[2,3],"state_2_key":0,"state_2_choice":2,"state_2_rt":570.1999998092651,"outcome":0,"rocket_colors":["#a75248","#486ea7"],"planet_colors":["#706081","#5b7c65"],"screen_resolution":[1392,1484],"minimum_resolution":1,"trial":135,"drifts":[0.68,0.339,0.346,0.425],"drift_ix":3,"trial_type":"two-step-trial","trial_index":167,"time_elapsed":1106503,"internal_node_id":"0.0-149.0-0.0","task_version":"1.0","jspsych_version":"6.3.1","browser_interactions":0,"missing":false},{"state_1_ids":[1,0],"state_1_key":0,"state_1_choice":1,"state_1_rt":428.80000019073486,"transition":1,"state":1,"state_2_ids":[2,3],"state_2_key":1,"state_2_choice":3,"state_2_rt":458,"outcome":0,"rocket_colors":["#a75248","#486ea7"],"planet_colors":["#706081","#5b7c65"],"screen_resolution":[1392,1484],"minimum_resolution":1,"trial":136,"drifts":[0.674,0.33,0.342,0.403],"drift_ix":3,"trial_type":"two-step-trial","trial_index":168,"time_elapsed":1109393,"internal_node_id":"0.0-150.0-0.0","task_version":"1.0","jspsych_version":"6.3.1","browser_interactions":0,"missing":false},{"state_1_ids":[0,1],"state_1_key":0,"state_1_choice":0,"state_1_rt":844.1999998092651,"transition":1,"state":0,"state_2_ids":[0,1],"state_2_key":1,"state_2_choice":1,"state_2_rt":1089.6999998092651,"outcome":1,"rocket_colors":["#a75248","#486ea7"],"planet_colors":["#706081","#5b7c65"],"screen_resolution":[1392,1484],"minimum_resolution":1,"trial":137,"drifts":[0.699,0.293,0.329,0.403],"drift_ix":3,"trial_type":"two-step-trial","trial_index":169,"time_elapsed":1113334,"internal_node_id":"0.0-151.0-0.0","task_version":"1.0","jspsych_version":"6.3.1","browser_interactions":0,"missing":false},{"state_1_ids":[1,0],"state_1_key":1,"state_1_choice":0,"state_1_rt":561.5999994277954,"transition":1,"state":0,"state_2_ids":[0,1],"state_2_key":1,"state_2_choice":1,"state_2_rt":400,"outcome":0,"rocket_colors":["#a75248","#486ea7"],"planet_colors":["#706081","#5b7c65"],"screen_resolution":[1392,1484],"minimum_resolution":1,"trial":138,"drifts":[0.734,0.332,0.387,0.413],"drift_ix":3,"trial_type":"two-step-trial","trial_index":170,"time_elapsed":1116301,"internal_node_id":"0.0-152.0-0.0","task_version":"1.0","jspsych_version":"6.3.1","browser_interactions":0,"missing":false},{"state_1_ids":[1,0],"state_1_key":1,"state_1_choice":0,"state_1_rt":675.1999998092651,"transition":1,"state":0,"state_2_ids":[0,1],"state_2_key":1,"state_2_choice":1,"state_2_rt":468.20000076293945,"outcome":1,"rocket_colors":["#a75248","#486ea7"],"planet_colors":["#706081","#5b7c65"],"screen_resolution":[1392,1484],"minimum_resolution":1,"trial":139,"drifts":[0.692,0.301,0.41,0.413],"drift_ix":3,"trial_type":"two-step-trial","trial_index":171,"time_elapsed":1119452,"internal_node_id":"0.0-153.0-0.0","task_version":"1.0","jspsych_version":"6.3.1","browser_interactions":0,"missing":false},{"state_1_ids":[0,1],"state_1_key":0,"state_1_choice":0,"state_1_rt":540.6999998092651,"transition":1,"state":0,"state_2_ids":[0,1],"state_2_key":1,"state_2_choice":1,"state_2_rt":399.6000003814697,"outcome":0,"rocket_colors":["#a75248","#486ea7"],"planet_colors":["#706081","#5b7c65"],"screen_resolution":[1392,1484],"minimum_resolution":1,"trial":140,"drifts":[0.722,0.286,0.408,0.406],"drift_ix":3,"trial_type":"two-step-trial","trial_index":172,"time_elapsed":1122402,"internal_node_id":"0.0-154.0-0.0","task_version":"1.0","jspsych_version":"6.3.1","browser_interactions":0,"missing":false},{"state_1_ids":[1,0],"state_1_key":1,"state_1_choice":0,"state_1_rt":594.5,"transition":0,"state":1,"state_2_ids":[2,3],"state_2_key":0,"state_2_choice":2,"state_2_rt":1008.6999998092651,"outcome":0,"rocket_colors":["#a75248","#486ea7"],"planet_colors":["#706081","#5b7c65"],"screen_resolution":[1392,1484],"minimum_resolution":1,"trial":141,"drifts":[0.748,0.253,0.428,0.403],"drift_ix":3,"trial_type":"two-step-trial","trial_index":173,"time_elapsed":1126014,"internal_node_id":"0.0-155.0-0.0","task_version":"1.0","jspsych_version":"6.3.1","browser_interactions":0,"missing":false},{"state_1_ids":[0,1],"state_1_key":0,"state_1_choice":0,"state_1_rt":1301.9000005722046,"transition":1,"state":0,"state_2_ids":[0,1],"state_2_key":1,"state_2_choice":1,"state_2_rt":629.2999992370605,"outcome":0,"rocket_colors":["#a75248","#486ea7"],"planet_colors":["#706081","#5b7c65"],"screen_resolution":[1392,1484],"minimum_resolution":1,"trial":142,"drifts":[0.73,0.307,0.452,0.407],"drift_ix":3,"trial_type":"two-step-trial","trial_index":174,"time_elapsed":1129948,"internal_node_id":"0.0-156.0-0.0","task_version":"1.0","jspsych_version":"6.3.1","browser_interactions":0,"missing":false},{"state_1_ids":[0,1],"state_1_key":0,"state_1_choice":0,"state_1_rt":382.6000003814697,"transition":1,"state":0,"state_2_ids":[0,1],"state_2_key":0,"state_2_choice":0,"state_2_rt":482,"outcome":1,"rocket_colors":["#a75248","#486ea7"],"planet_colors":["#706081","#5b7c65"],"screen_resolution":[1392,1484],"minimum_resolution":1,"trial":143,"drifts":[0.722,0.322,0.426,0.388],"drift_ix":3,"trial_type":"two-step-trial","trial_index":175,"time_elapsed":1132816,"internal_node_id":"0.0-157.0-0.0","task_version":"1.0","jspsych_version":"6.3.1","browser_interactions":0,"missing":false},{"state_1_ids":[1,0],"state_1_key":1,"state_1_choice":0,"state_1_rt":509.29999923706055,"transition":0,"state":1,"state_2_ids":[2,3],"state_2_key":1,"state_2_choice":3,"state_2_rt":772.4000005722046,"outcome":0,"rocket_colors":["#a75248","#486ea7"],"planet_colors":["#706081","#5b7c65"],"screen_resolution":[1392,1484],"minimum_resolution":1,"trial":144,"drifts":[0.741,0.323,0.436,0.398],"drift_ix":3,"trial_type":"two-step-trial","trial_index":176,"time_elapsed":1136101,"internal_node_id":"0.0-158.0-0.0","task_version":"1.0","jspsych_version":"6.3.1","browser_interactions":0,"missing":false},{"state_1_ids":[0,1],"state_1_key":0,"state_1_choice":0,"state_1_rt":394.8999996185303,"transition":1,"state":0,"state_2_ids":[0,1],"state_2_key":0,"state_2_choice":0,"state_2_rt":460.80000019073486,"outcome":1,"