[{"success":true,"timeout":false,"failed_images":[],"failed_audio":[],"failed_video":[],"trial_type":"preload","trial_index":0,"time_elapsed":528,"internal_node_id":"0.0-0.0","task_version":"1.0","jspsych_version":"6.3.1"},{"success":true,"trial_type":"fullscreen","trial_index":1,"time_elapsed":4563,"internal_node_id":"0.0-1.0","task_version":"1.0","jspsych_version":"6.3.1"},{"view_history":[{"page_index":0,"viewing_time":3262.199999988079}],"rt":3262.4000000059605,"trial_type":"instructions","trial_index":2,"time_elapsed":7827,"internal_node_id":"0.0-2.0","task_version":"1.0","jspsych_version":"6.3.1"},{"responses":{"Q03":"6","Q07":"3","Q05":"6","Q01":"5","Q04":"6","Q06":"6","Q02":"4"},"rt":16729.40000000596,"item_order":[2,6,4,0,3,5,1],"radio_events":[2668.7000000178814,3938.5,7078.0999999940395,8688.200000017881,10090.200000017881,12542.5,15794.90000000596],"key_events":[],"mouse_events":[0,2668.7000000178814,3938.5,5524.5,7078.0999999940395,8688.200000017881,10090.200000017881,12542.5,13230.5,15794.90000000596,16728.5],"straightlining":0.42857142857142855,"zigzagging":0.3333333333333333,"honeypot":0,"survey":"artistic","trial_type":"survey-template","trial_index":3,"time_elapsed":24561,"internal_node_id":"0.0-3.0","task_version":"1.0","jspsych_version":"6.3.1"},{"responses":{"Q03":"0","Q04":"0","Q02":"0","Q08":"3","Q05":"0","Q06":"0","Q07":"0","Q01":"0"},"rt":35139.89999997616,"item_order":[2,3,1,7,4,5,6,0],"radio_events":[8869.5,10521.199999988079,12147.299999982119,13267.199999988079,14549.59999999404,20285.29999998212,25957.29999998212,27687.09999999404,30877.19999998808],"key_events":[],"mouse_events":[8869.5,10521.199999988079,12147.299999982119,13267.199999988079,14549.59999999404,20285.29999998212,25957.29999998212,27687.09999999404,28825.19999998808,30877.19999998808,35139.39999997616],"straightlining":0.875,"zigzagging":0.2857142857142857,"honeypot":0,"survey":"mania","trial_type":"survey-template","trial_index":4,"time_elapsed":59703,"internal_node_id":"0.0-4.0","task_version":"1.0","jspsych_version":"6.3.1"},{"responses":{"Q06":"0","Q01":"5","Q05":"0","Q03":"0","Q04":"5","Q02":"4","Q07":"6"},"rt":23590,"item_order":[5,0,4,2,3,1,6],"radio_events":[6935.5999999940395,8393.700000017881,10766.200000017881,11765.59999999404,13287.5,15139.5,16661.40000000596],"key_events":[],"mouse_events":[6935.5999999940395,8393.700000017881,10766.200000017881,11765.59999999404,13287.5,15139.5,16661.40000000596,23589.40000000596],"straightlining":0.42857142857142855,"zigzagging":0.16666666666666666,"honeypot":0,"survey":"greed","trial_type":"survey-template","trial_index":5,"time_elapsed":83295,"internal_node_id":"0.0-5.0","task_version":"1.0","jspsych_version":"6.3.1"},{"responses":{"Q01":"0","Q02":"0","Q03":"0","Q07":"0","Q05":"0","Q08":"0","Q06":"0","Q04":"0"},"rt":22522.09999999404,"item_order":[0,1,2,6,4,7,5,3],"radio_events":[4549.5999999940395,6159.9000000059605,8297.90000000596,9051.59999999404,9835.699999988079,10621.59999999404,11238.199999988079,13699.699999988079],"key_events":[],"mouse_events":[3715.699999988079,4549.5999999940395,6159.9000000059605,7657.799999982119,8297.90000000596,9051.59999999404,9835.699999988079,10621.59999999404,11238.199999988079,13699.699999988079,22521.69999998808],"straightlining":1,"zigzagging":0,"honeypot":0,"survey":"anxiety","trial_type":"survey-template","trial_index":6,"time_elapsed":105819,"internal_node_id":"0.0-6.0","task_version":"1.0","jspsych_version":"6.3.1"},{"responses":{"Q04":"1","Q05":"0","Q03":"0","Q02":"1","Q07":"1","Q06":"0","Q01":"1","Q08":"0"},"rt":60046.80000001192,"item_order":[3,4,2,1,6,5,0,7],"radio_events":[30854.20000001788,36094,37927.90000000596,40212.20000001788,43600.09999999404,46860.09999999404,47582,48704,58364.30000001192],"key_events":[],"mouse_events":[30854.20000001788,33946,36094,37927.90000000596,40212.20000001788,43600.09999999404,44922.09999999404,46860.09999999404,47582,48704,58364.30000001192,60046.40000000596],"straightlining":0.5,"zigzagging":0.7142857142857143,"honeypot":0,"survey":"depression","trial_type":"survey-template","trial_index":7,"time_elapsed":165867,"internal_node_id":"0.0-7.0","task_version":"1.0","jspsych_version":"6.3.1"},{"view_history":"[{\"page_index\":0,\"viewing_time\":5236.0999999940395},{\"page_index\":1,\"viewing_time\":5276},{\"page_index\":2,\"viewing_time\":4159.9000000059605},{\"page_index\":3,\"viewing_time\":5713.799999982119},{\"page_index\":4,\"viewing_time\":5484.200000017881},{\"page_index\":5,\"viewing_time\":2916},{\"page_index\":6,\"viewing_time\":2454},{\"page_index\":7,\"viewing_time\":6230},{\"page_index\":8,\"viewing_time\":3977.9000000059605},{\"page_index\":9,\"viewing_time\":4104.0999999940395},{\"page_index\":10,\"viewing_time\":2549.9000000059605}]","rt":48102.5,"trial_type":"two-step-instructions","trial_index":8,"time_elapsed":213972,"internal_node_id":"0.0-8.0-1.0","task_version":"1.0","jspsych_version":"6.3.1"},{"responses":["left/right arrow keys","True","True"],"num_errors":0,"rt":9500.90000000596,"quiz":1,"trial_type":"two-step-comprehension","trial_index":9,"time_elapsed":223475,"internal_node_id":"0.0-8.0-2.0","task_version":"1.0","jspsych_version":"6.3.1"},{"view_history":"[{\"page_index\":0,\"viewing_time\":6577.199999988079}]","rt":6577.399999976158,"phase":"instructions_1b","trial_type":"two-step-instructions","trial_index":10,"time_elapsed":230054,"internal_node_id":"0.0-9.0-0.0-0.0","task_version":"1.0","jspsych_version":"6.3.1"},{"state_2_ids":[0,1],"state_2_key":0,"state_2_choice":0,"state_2_rt":1814.7999999821186,"outcome":0,"screen_resolution":[1920,1080],"minimum_resolution":1,"trial_type":"alien-practice","trial_index":11,"time_elapsed":234073,"internal_node_id":"0.0-9.0-1.0-0.0","task_version":"1.0","jspsych_version":"6.3.1"},{"state_2_ids":[0,1],"state_2_key":1,"state_2_choice":1,"state_2_rt":944,"outcome":0,"screen_resolution":[1920,1080],"minimum_resolution":1,"trial_type":"alien-practice","trial_index":12,"time_elapsed":237225,"internal_node_id":"0.0-9.0-2.0-0.0","task_version":"1.0","jspsych_version":"6.3.1"},{"state_2_ids":[0,1],"state_2_key":0,"state_2_choice":0,"state_2_rt":483,"outcome":0,"screen_resolution":[1920,1080],"minimum_resolution":1,"trial_type":"alien-practice","trial_index":13,"time_elapsed":239912,"internal_node_id":"0.0-9.0-3.0-0.0","task_version":"1.0","jspsych_version":"6.3.1"},{"state_2_ids":[0,1],"state_2_key":1,"state_2_choice":1,"state_2_rt":499.5,"outcome":1,"screen_resolution":[1920,1080],"minimum_resolution":1,"trial_type":"alien-practice","trial_index":14,"time_elapsed":242617,"internal_node_id":"0.0-9.0-4.0-0.0","task_version":"1.0","jspsych_version":"6.3.1"},{"state_2_ids":[0,1],"state_2_key":1,"state_2_choice":1,"state_2_rt":937.5,"outcome":1,"screen_resolution":[1920,1080],"minimum_resolution":1,"trial_type":"alien-practice","trial_index":15,"time_elapsed":245760,"internal_node_id":"0.0-9.0-5.0-0.0","task_version":"1.0","jspsych_version":"6.3.1"},{"state_2_ids":[0,1],"state_2_key":1,"state_2_choice":1,"state_2_rt":323,"outcome":1,"screen_resolution":[1920,1080],"minimum_resolution":1,"trial_type":"alien-practice","trial_index":16,"time_elapsed":248288,"internal_node_id":"0.0-9.0-6.0-0.0","task_version":"1.0","jspsych_version":"6.3.1"},{"view_history":"[{\"page_index\":0,\"viewing_time\":4822.700000017881},{\"page_index\":1,\"viewing_time\":1476.0999999940395},{\"page_index\":2,\"viewing_time\":6871.9000000059605},{\"page_index\":3,\"viewing_time\":6510.0999999940395},{\"page_index\":4,\"viewing_time\":1450.0999999940395},{\"page_index\":5,\"viewing_time\":2025.800000011921}]","rt":23157,"trial_type":"two-step-instructions","trial_index":17,"time_elapsed":271453,"internal_node_id":"0.0-10.0-1.0","task_version":"1.0","jspsych_version":"6.3.1"},{"responses":["left/right arrow keys","False","True"],"num_errors":0,"rt":7683.0999999940395,"quiz":2,"trial_type":"two-step-comprehension","trial_index":18,"time_elapsed":279137,"internal_node_id":"0.0-10.0-2.0","task_version":"1.0","jspsych_version":"6.3.1"},{"view_history":"[{\"page_index\":0,\"viewing_time\":6233.4000000059605},{\"page_index\":1,\"viewing_time\":3532.199999988079},{\"page_index\":2,\"viewing_time\":6467.9000000059605}]","rt":16233.90000000596,"trial_type":"two-step-instructions","trial_index":19,"time_elapsed":295372,"internal_node_id":"0.0-11.0-0.0","task_version":"1.0","jspsych_version":"6.3.1"},{"state_1_ids":[0,1],"state_1_key":0,"state_1_choice":0,"state_1_rt":2409,"transition":0,"state":1,"state_2_ids":[2,3],"state_2_key":0,"state_2_choice":2,"state_2_rt":2895,"outcome":0,"rocket_colors":["#a75248","#486ea7"],"planet_colors":["#706081","#5b7c65"],"screen_resolution":[1920,1080],"minimum_resolution":1,"trial":0,"trial_type":"two-step-trial","trial_index":20,"time_elapsed":302682,"internal_node_id":"0.0-11.0-1.0-0.0","task_version":"1.0","jspsych_version":"6.3.1","missing":false},{"state_1_ids":[0,1],"state_1_key":0,"state_1_choice":0,"state_1_rt":1783.7999999821186,"transition":1,"state":0,"state_2_ids":[0,1],"state_2_key":0,"state_2_choice":0,"state_2_rt":1534.5,"outcome":0,"rocket_colors":["#a75248","#486ea7"],"planet_colors":["#706081","#5b7c65"],"screen_resolution":[1920,1080],"minimum_resolution":1,"trial":0,"trial_type":"two-step-trial","trial_index":21,"time_elapsed":308009,"internal_node_id":"0.0-11.0-1.0-0.1","task_version":"1.0","jspsych_version":"6.3.1","missing":false},{"state_1_ids":[0,1],"state_1_key":0,"state_1_choice":0,"state_1_rt":1242,"transition":1,"state":0,"state_2_ids":[0,1],"state_2_key":1,"state_2_choice":1,"state_2_rt":1560.199999988079,"outcome":1,"rocket_colors":["#a75248","#486ea7"],"planet_colors":["#706081","#5b7c65"],"screen_resolution":[1920,1080],"minimum_resolution":1,"trial":0,"trial_type":"two-step-trial","trial_index":22,"time_elapsed":312817,"internal_node_id":"0.0-11.0-1.0-0.2","task_version":"1.0","jspsych_version":"6.3.1","missing":false},{"state_1_ids":[0,1],"state_1_key":1,"state_1_choice":1,"state_1_rt":1458.2000000178814,"transition":1,"state":1,"state_2_ids":[2,3],"state_2_key":1,"state_2_choice":3,"state_2_rt":1104.2999999821186,"outcome":1,"rocket_colors":["#a75248","#486ea7"],"planet_colors":["#706081","#5b7c65"],"screen_resolution":[1920,1080],"minimum_resolution":1,"trial":0,"trial_type":"two-step-trial","trial_index":23,"time_elapsed":317384,"internal_node_id":"0.0-11.0-1.0-0.3","task_version":"1.0","jspsych_version":"6.3.1","missing":false},{"state_1_ids":[0,1],"state_1_key":1,"state_1_choice":1,"state_1_rt":836.0999999940395,"transition":1,"state":1,"state_2_ids":[2,3],"state_2_key":1,"state_2_choice":3,"state_2_rt":550,"outcome":1,"rocket_colors":["#a75248","#486ea7"],"planet_colors":["#706081","#5b7c65"],"screen_resolution":[1920,1080],"minimum_resolution":1,"trial":0,"trial_type":"two-step-trial","trial_index":24,"time_elapsed":320778,"internal_node_id":"0.0-11.0-1.0-0.4","task_version":"1.0","jspsych_version":"6.3.1","missing":false},{"state_1_ids":[1,0],"state_1_key":0,"state_1_choice":1,"state_1_rt":1129.9000000059605,"transition":1,"state":1,"state_2_ids":[2,3],"state_2_key":1,"state_2_choice":3,"state_2_rt":438.5,"outcome":0,"rocket_colors":["#a75248","#486ea7"],"planet_colors":["#706081","#5b7c65"],"screen_resolution":[1920,1080],"minimum_resolution":1,"trial":0,"trial_type":"two-step-trial","trial_index":25,"time_elapsed":324352,"internal_node_id":"0.0-11.0-1.0-0.5","task_version":"1.0","jspsych_version":"6.3.1","missing":false},{"state_1_ids":[1,0],"state_1_key":0,"state_1_choice":1,"state_1_rt":683.5,"transition":1,"state":1,"state_2_ids":[2,3],"state_2_key":1,"state_2_choice":3,"state_2_rt":454.69999998807907,"outcome":1,"rocket_colors":["#a75248","#486ea7"],"planet_colors":["#706081","#5b7c65"],"screen_resolution":[1920,1080],"minimum_resolution":1,"trial":0,"trial_type":"two-step-trial","trial_index":26,"time_elapsed":327496,"internal_node_id":"0.0-11.0-1.0-0.6","task_version":"1.0","jspsych_version":"6.3.1","missing":false},{"state_1_ids":[0,1],"state_1_key":0,"state_1_choice":0,"state_1_rt":732.2999999821186,"transition":0,"state":1,"state_2_ids":[2,3],"state_2_key":1,"state_2_choice":3,"state_2_rt":1390.0999999940395,"outcome":1,"rocket_colors":["#a75248","#486ea7"],"planet_colors":["#706081","#5b7c65"],"screen_resolution":[1920,1080],"minimum_resolution":1,"trial":0,"trial_type":"two-step-trial","trial_index":27,"time_elapsed":331624,"internal_node_id":"0.0-11.0-1.0-0.7","task_version":"1.0","jspsych_version":"6.3.1","missing":false},{"state_1_ids":[1,0],"state_1_key":1,"state_1_choice":0,"state_1_rt":1371.7000000178814,"transition":1,"state":0,"state_2_ids":[0,1],"state_2_key":1,"state_2_choice":1,"state_2_rt":868.6999999880791,"outcome":1,"rocket_colors":["#a75248","#486ea7"],"planet_colors":["#706081","#5b7c65"],"screen_resolution":[1920,1080],"minimum_resolution":1,"trial":0,"trial_type":"two-step-trial","trial_index":28,"time_elapsed":335872,"internal_node_id":"0.0-11.0-1.0-0.8","task_version":"1.0","jspsych_version":"6.3.1","missing":false},{"state_1_ids":[1,0],"state_1_key":1,"state_1_choice":0,"state_1_rt":1083.7999999821186,"transition":1,"state":0,"state_2_ids":[0,1],"state_2_key":1,"state_2_choice":1,"state_2_rt":1253.5999999940395,"outcome":0,"rocket_colors":["#a75248","#486ea7"],"planet_colors":["#706081","#5b7c65"],"screen_resolution":[1920,1080],"minimum_resolution":1,"trial":0,"trial_type":"two-step-trial","trial_index":29,"time_elapsed":340216,"internal_node_id":"0.0-11.0-1.0-0.9","task_version":"1.0","jspsych_version":"6.3.1","missing":false},{"view_history":"[{\"page_index\":0,\"viewing_time\":2715.0999999940395},{\"page_index\":1,\"viewing_time\":3946.300000011921},{\"page_index\":2,\"viewing_time\":1891.8999999761581},{\"page_index\":3,\"viewing_time\":969.9000000059605},{\"page_index\":4,\"viewing_time\":4949.800000011921},{\"page_index\":5,\"viewing_time\":4826.299999982119},{\"page_index\":6,\"viewing_time\":3600}]","rt":22899.59999999404,"trial_type":"two-step-instructions","trial_index":30,"time_elapsed":363122,"internal_node_id":"0.0-12.0-1.0","task_version":"1.0","jspsych_version":"6.3.1"},{"responses":["True","False","True"],"num_errors":0,"rt":8842.5,"quiz":3,"trial_type":"two-step-comprehension","trial_index":31,"time_elapsed":371966,"internal_node_id":"0.0-12.0-2.0","task_version":"1.0","jspsych_version":"6.3.1"},{"view_history":"[{\"page_index\":0,\"viewing_time\":1679.7000000178814},{\"page_index\":1,\"viewing_time\":2756.0999999940395},{\"page_index\":2,\"viewing_time\":3189.9000000059605}]","rt":7625.9000000059605,"trial_type":"two-step-instructions","trial_index":32,"time_elapsed":379594,"internal_node_id":"0.0-13.0","task_version":"1.0","jspsych_version":"6.3.1"},{"state_1_ids":[1,0],"state_1_key":0,"state_1_choice":1,"state_1_rt":1803.4000000059605,"transition":1,"state":1,"state_2_ids":[2,3],"state_2_key":0,"state_2_choice":2,"state_2_rt":1310.4000000059605,"outcome":1,"rocket_colors":["#955db9","#48a782"],"planet_colors":["#7f5d5d","#5f6f81"],"screen_resolution":[1920,1080],"minimum_resolution":1,"trial":1,"drifts":[0.412,0.317,0.453,0.743],"drift_ix":2,"trial_type":"two-step-trial","trial_index":33,"time_elapsed":384712,"internal_node_id":"0.0-14.0-0.0","task_version":"1.0","jspsych_version":"6.3.1","browser_interactions":0,"missing":false},{"state_1_ids":[0,1],"state_1_key":1,"state_1_choice":1,"state_1_rt":640.5999999940395,"transition":0,"state":0,"state_2_ids":[0,1],"state_2_key":0,"state_2_choice":0,"state_2_rt":1152.199999988079,"outcome":0,"rocket_colors":["#955db9","#48a782"],"planet_colors":["#7f5d5d","#5f6f81"],"screen_resolution":[1920,1080],"minimum_resolution":1,"trial":2,"drifts":[0.402,0.305,0.461,0.702],"drift_ix":2,"trial_type":"two-step-trial","trial_index":34,"time_elapsed":388513,"internal_node_id":"0.0-15.0-0.0","task_version":"1.0","jspsych_version":"6.3.1","browser_interactions":0,"missing":false},{"state_1_ids":[1,0],"state_1_key":0,"state_1_choice":1,"state_1_rt":763,"transition":1,"state":1,"state_2_ids":[2,3],"state_2_key":0,"state_2_choice":2,"state_2_rt":934.2000000178814,"outcome":1,"rocket_colors":["#955db9","#48a782"],"planet_colors":["#7f5d5d","#5f6f81"],"screen_resolution":[1920,1080],"minimum_resolution":1,"trial":3,"drifts":[0.373,0.327,0.445,0.732],"drift_ix":2,"trial_type":"two-step-trial","trial_index":35,"time_elapsed":392215,"internal_node_id":"0.0-16.0-0.0","task_version":"1.0","jspsych_version":"6.3.1","browser_interactions":0,"missing":false},{"state_1_ids":[1,0],"state_1_key":0,"state_1_choice":1,"state_1_rt":556.2999999821186,"transition":1,"state":1,"state_2_ids":[2,3],"state_2_key":0,"state_2_choice":2,"state_2_rt":629.8000000119209,"outcome":0,"rocket_colors":["#955db9","#48a782"],"planet_colors":["#7f5d5d","#5f6f81"],"screen_resolution":[1920,1080],"minimum_resolution":1,"trial":4,"drifts":[0.381,0.303,0.418,0.736],"drift_ix":2,"trial_type":"two-step-trial","trial_index":36,"time_elapsed":395417,"internal_node_id":"0.0-17.0-0.0","task_version":"1.0","jspsych_version":"6.3.1","browser_interactions":0,"missing":false},{"state_1_ids":[1,0],"state_1_key":1,"state_1_choice":0,"state_1_rt":450.09999999403954,"transition":0,"state":1,"state_2_ids":[2,3],"state_2_key":0,"state_2_choice":2,"state_2_rt":893.7999999821186,"outcome":1,"rocket_colors":["#955db9","#48a782"],"planet_colors":["#7f5d5d","#5f6f81"],"screen_resolution":[1920,1080],"minimum_resolution":1,"trial":5,"drifts":[0.366,0.363,0.401,0.709],"drift_ix":2,"trial_type":"two-step-trial","trial_index":37,"time_elapsed":398768,"internal_node_id":"0.0-18.0-0.0","task_version":"1.0","jspsych_version":"6.3.1","browser_interactions":0,"missing":false},{"state_1_ids":[0,1],"state_1_key":1,"state_1_choice":1,"state_1_rt":386.7999999821186,"transition":1,"state":1,"state_2_ids":[2,3],"state_2_key":0,"state_2_choice":2,"state_2_rt":486.69999998807907,"outcome":0,"rocket_colors":["#955db9","#48a782"],"planet_colors":["#7f5d5d","#5f6f81"],"screen_resolution":[1920,1080],"minimum_resolution":1,"trial":6,"drifts":[0.393,0.368,0.383,0.711],"drift_ix":2,"trial_type":"two-step-trial","trial_index":38,"time_elapsed":401649,"internal_node_id":"0.0-19.0-0.0","task_version":"1.0","jspsych_version":"6.3.1","browser_interactions":0,"missing":false},{"state_1_ids":[1,0],"state_1_key":1,"state_1_choice":0,"state_1_rt":674.7999999821186,"transition":0,"state":1,"state_2_ids":[2,3],"state_2_key":0,"state_2_choice":2,"state_2_rt":519.0999999940395,"outcome":1,"rocket_colors":["#955db9","#48a782"],"planet_colors":["#7f5d5d","#5f6f81"],"screen_resolution":[1920,1080],"minimum_resolution":1,"trial":7,"drifts":[0.4,0.405,0.425,0.678],"drift_ix":2,"trial_type":"two-step-trial","trial_index":39,"time_elapsed":404848,"internal_node_id":"0.0-20.0-0.0","task_version":"1.0","jspsych_version":"6.3.1","browser_interactions":0,"missing":false},{"state_1_ids":[1,0],"state_1_key":0,"state_1_choice":1,"state_1_rt":803.0999999940395,"transition":0,"state":0,"state_2_ids":[0,1],"state_2_key":1,"state_2_choice":1,"state_2_rt":750.5999999940395,"outcome":1,"rocket_colors":["#955db9","#48a782"],"planet_colors":["#7f5d5d","#5f6f81"],"screen_resolution":[1920,1080],"minimum_resolution":1,"trial":8,"drifts":[0.383,0.388,0.415,0.699],"drift_ix":2,"trial_type":"two-step-trial","trial_index":40,"time_elapsed":408408,"internal_node_id":"0.0-21.0-0.0","task_version":"1.0","jspsych_version":"6.3.1","browser_interactions":0,"missing":false},{"state_1_ids":[1,0],"state_1_key":0,"state_1_choice":1,"state_1_rt":908,"transition":1,"state":1,"state_2_ids":[2,3],"state_2_key":0,"state_2_choice":2,"state_2_rt":918.2000000178814,"outcome":0,"rocket_colors":["#955db9","#48a782"],"planet_colors":["#7f5d5d","#5f6f81"],"screen_resolution":[1920,1080],"minimum_resolution":1,"trial":9,"drifts":[0.347,0.439,0.405,0.713],"drift_ix":2,"trial_type":"two-step-trial","trial_index":41,"time_elapsed":412241,"internal_node_id":"0.0-22.0-0.0","task_version":"1.0","jspsych_version":"6.3.1","browser_interactions":0,"missing":false},{"state_1_ids":[0,1],"state_1_key":1,"state_1_choice":1,"state_1_rt":969.7000000178814,"transition":1,"state":1,"state_2_ids":[2,3],"state_2_key":1,"state_2_choice":3,"state_2_rt":1278.5,"outcome":0,"rocket_colors":["#955db9","#48a782"],"planet_colors":["#7f5d5d","#5f6f81"],"screen_resolution":[1920,1080],"minimum_resolution":1,"trial":10,"drifts":[0.367,0.459,0.46,0.731],"drift_ix":2,"trial_type":"two-step-trial","trial_index":42,"time_elapsed":416496,"internal_node_id":"0.0-23.0-0.0","task_version":"1.0","jspsych_version":"6.3.1","browser_interactions":0,"missing":false},{"state_1_ids":[1,0],"state_1_key":0,"state_1_choice":1,"state_1_rt":762.8000000119209,"transition":1,"state":1,"state_2_ids":[2,3],"state_2_key":0,"state_2_choice":2,"state_2_rt":486.59999999403954,"outcome":0,"rocket_colors":["#955db9","#48a782"],"planet_colors":["#7f5d5d","#5f6f81"],"screen_resolution":[1920,1080],"minimum_resolution":1,"trial":11,"drifts":[0.397,0.451,0.461,0.701],"drift_ix":2,"trial_type":"two-step-trial","trial_index":43,"time_elapsed":419751,"internal_node_id":"0.0-24.0-0.0","task_version":"1.0","jspsych_version":"6.3.1","browser_interactions":0,"missing":false},{"state_1_ids":[0,1],"state_1_key":0,"state_1_choice":0,"state_1_rt":1084.0999999940395,"transition":1,"state":0,"state_2_ids":[0,1],"state_2_key":1,"state_2_choice":1,"state_2_rt":749.4000000059605,"outcome":1,"rocket_colors":["#955db9","#48a782"],"planet_colors":["#7f5d5d","#5f6f81"],"screen_resolution":[1920,1080],"minimum_resolution":1,"trial":12,"drifts":[0.357,0.426,0.459,0.707],"drift_ix":2,"trial_type":"two-step-trial","trial_index":44,"time_elapsed":423593,"internal_node_id":"0.0-25.0-0.0","task_version":"1.0","jspsych_version":"6.3.1","browser_interactions":0,"missing":false},{"state_1_ids":[0,1],"state_1_key":0,"state_1_choice":0,"state_1_rt":604.3000000119209,"transition":1,"state":0,"state_2_ids":[0,1],"state_2_key":1,"state_2_choice":1,"state_2_rt":437.30000001192093,"outcome":0,"rocket_colors":["#955db9","#48a782"],"planet_colors":["#7f5d5d","#5f6f81"],"screen_resolution":[1920,1080],"minimum_resolution":1,"trial":13,"drifts":[0.337,0.398,0.428,0.721],"drift_ix":2,"trial_type":"two-step-trial","trial_index":45,"time_elapsed":426640,"internal_node_id":"0.0-26.0-0.0","task_version":"1.0","jspsych_version":"6.3.1","browser_interactions":0,"missing":false},{"state_1_ids":[1,0],"state_1_key":1,"state_1_choice":0,"state_1_rt":844,"transition":0,"state":1,"state_2_ids":[2,3],"state_2_key":0,"state_2_choice":2,"state_2_rt":797.7999999821186,"outcome":1,"rocket_colors":["#955db9","#48a782"],"planet_colors":["#7f5d5d","#5f6f81"],"screen_resolution":[1920,1080],"minimum_resolution":1,"trial":14,"drifts":[0.283,0.408,0.384,0.719],"drift_ix":2,"trial_type":"two-step-trial","trial_index":46,"time_elapsed":430288,"internal_node_id":"0.0-27.0-0.0","task_version":"1.0","jspsych_version":"6.3.1","browser_interactions":0,"missing":false},{"state_1_ids":[1,0],"state_1_key":1,"state_1_choice":0,"state_1_rt":723.5,"transition":1,"state":0,"state_2_ids":[0,1],"state_2_key":1,"state_2_choice":1,"state_2_rt":582.5999999940395,"outcome":1,"rocket_colors":["#955db9","#48a782"],"planet_colors":["#7f5d5d","#5f6f81"],"screen_resolution":[1920,1080],"minimum_resolution":1,"trial":15,"drifts":[0.295,0.37,0.375,0.738],"drift_ix":2,"trial_type":"two-step-trial","trial_index":47,"time_elapsed":433599,"internal_node_id":"0.0-28.0-0.0","task_version":"1.0","jspsych_version":"6.3.1","browser_interactions":0,"missing":false},{"state_1_ids":[0,1],"state_1_key":0,"state_1_choice":0,"state_1_rt":677.6999999880791,"transition":1,"state":0,"state_2_ids":[0,1],"state_2_key":1,"state_2_choice":1,"state_2_rt":671,"outcome":1,"rocket_colors":["#955db9","#48a782"],"planet_colors":["#7f5d5d","#5f6f81"],"screen_resolution":[1920,1080],"minimum_resolution":1,"trial":16,"drifts":[0.305,0.343,0.325,0.713],"drift_ix":2,"trial_type":"two-step-trial","trial_index":48,"time_elapsed":436952,"internal_node_id":"0.0-29.0-0.0","task_version":"1.0","jspsych_version":"6.3.1","browser_interactions":0,"missing":false},{"state_1_ids":[0,1],"state_1_key":0,"state_1_choice":0,"state_1_rt":819.6999999880791,"transition":0,"state":1,"state_2_ids":[2,3],"state_2_key":0,"state_2_choice":2,"state_2_rt":1519,"outcome":0,"rocket_colors":["#955db9","#48a782"],"planet_colors":["#7f5d5d","#5f6f81"],"screen_resolution":[1920,1080],"minimum_resolution":1,"trial":17,"drifts":[0.305,0.313,0.334,0.705],"drift_ix":2,"trial_type":"two-step-trial","trial_index":49,"time_elapsed":441297,"internal_node_id":"0.0-30.0-0.0","task_version":"1.0","jspsych_version":"6.3.1","browser_interactions":0,"missing":false},{"state_1_ids":[1,0],"state_1_key":1,"state_1_choice":0,"state_1_rt":1019,"transition":0,"state":1,"state_2_ids":[2,3],"state_2_key":0,"state_2_choice":2,"state_2_rt":674.5,"outcome":1,"rocket_colors":["#955db9","#48a782"],"planet_colors":["#7f5d5d","#5f6f81"],"screen_resolution":[1920,1080],"minimum_resolution":1,"trial":18,"drifts":[0.316,0.314,0.353,0.728],"drift_ix":2,"trial_type":"two-step-trial","trial_index":50,"time_elapsed":445001,"internal_node_id":"0.0-31.0-0.0","task_version":"1.0","jspsych_version":"6.3.1","browser_interactions":0,"missing":false},{"state_1_ids":[0,1],"state_1_key":0,"state_1_choice":0,"state_1_rt":1380.5999999940395,"transition":1,"state":0,"state_2_ids":[0,1],"state_2_key":1,"state_2_choice":1,"state_2_rt":580.5,"outcome":0,"rocket_colors":["#955db9","#48a782"],"planet_colors":["#7f5d5d","#5f6f81"],"screen_resolution":[1920,1080],"minimum_resolution":1,"trial":19,"drifts":[0.317,0.335,0.368,0.745],"drift_ix":2,"trial_type":"two-step-trial","trial_index":51,"time_elapsed":448969,"internal_node_id":"0.0-32.0-0.0","task_version":"1.0","jspsych_version":"6.3.1","browser_interactions":0,"missing":false},{"state_1_ids":[1,0],"state_1_key":1,"state_1_choice":0,"state_1_rt":1738.9000000059605,"transition":1,"state":0,"state_2_ids":[0,1],"state_2_key":1,"state_2_choice":1,"state_2_rt":702.5999999940395,"outcome":0,"rocket_colors":["#955db9","#48a782"],"planet_colors":["#7f5d5d","#5f6f81"],"screen_resolution":[1920,1080],"minimum_resolution":1,"trial":20,"drifts":[0.307,0.313,0.421,0.737],"drift_ix":2,"trial_type":"two-step-trial","trial_index":52,"time_elapsed":453415,"internal_node_id":"0.0-33.0-0.0","task_version":"1.0","jspsych_version":"6.3.1","browser_interactions":0,"missing":false},{"state_1_ids":[0,1],"state_1_key":1,"state_1_choice":1,"state_1_rt":1324.5,"transition":1,"state":1,"state_2_ids":[2,3],"state_2_key":0,"state_2_choice":2,"state_2_rt":543.5,"outcome":0,"rocket_colors":["#955db9","#48a782"],"planet_colors":["#7f5d5d","#5f6f81"],"screen_resolution":[1920,1080],"minimum_resolution":1,"trial":21,"drifts":[0.31,0.305,0.401,0.745],"drift_ix":2,"trial_type":"two-step-trial","trial_index":53,"time_elapsed":457289,"internal_node_id":"0.0-34.0-0.0","task_version":"1.0","jspsych_version":"6.3.1","browser_interactions":0,"missing":false},{"state_1_ids":[0,1],"state_1_key":1,"state_1_choice":1,"state_1_rt":1210.800000011921,"transition":1,"state":1,"state_2_ids":[2,3],"state_2_key":1,"state_2_choice":3,"state_2_rt":1014,"outcome":1,"rocket_colors":["#955db9","#48a782"],"planet_colors":["#7f5d5d","#5f6f81"],"screen_resolution":[1920,1080],"minimum_resolution":1,"trial":22,"drifts":[0.326,0.31,0.391,0.735],"drift_ix":2,"trial_type":"two-step-trial","trial_index":54,"time_elapsed":461520,"internal_node_id":"0.0-35.0-0.0","task_version":"1.0","jspsych_version":"6.3.1","browser_interactions":0,"missing":false},{"state_1_ids":[0,1],"state_1_key":1,"state_1_choice":1,"state_1_rt":548.5999999940395,"transition":1,"state":1,"state_2_ids":[2,3],"state_2_key":1,"state_2_choice":3,"state_2_rt":575,"outcome":0,"rocket_colors":["#955db9","#48a782"],"planet_colors":["#7f5d5d","#5f6f81"],"screen_resolution":[1920,1080],"minimum_resolution":1,"trial":23,"drifts":[0.331,0.302,0.379,0.741],"drift_ix":2,"trial_type":"two-step-trial","trial_index":55,"time_elapsed":464650,"internal_node_id":"0.0-36.0-0.0","task_version":"1.0","jspsych_version":"6.3.1","browser_interactions":0,"missing":false},{"state_1_ids":[1,0],"state_1_key":0,"state_1_choice":1,"state_1_rt":890.8000000119209,"transition":0,"state":0,"state_2_ids":[0,1],"state_2_key":1,"state_2_choice":1,"state_2_rt":726.7000000178814,"outcome":0,"rocket_colors":["#955db9","#48a782"],"planet_colors":["#7f5d5d","#5f6f81"],"screen_resolution":[1920,1080],"minimum_resolution":1,"trial":24,"drifts":[0.358,0.323,0.393,0.738],"drift_ix":2,"trial_type":"two-step-trial","trial_index":56,"time_elapsed":468273,"internal_node_id":"0.0-37.0-0.0","task_version":"1.0","jspsych_version":"6.3.1","browser_interactions":0,"missing":false},{"state_1_ids":[1,0],"state_1_key":0,"state_1_choice":1,"state_1_rt":860,"transition":0,"state":0,"state_2_ids":[0,1],"state_2_key":0,"state_2_choice":0,"state_2_rt":590,"outcome":0,"rocket_colors":["#955db9","#48a782"],"planet_colors":["#7f5d5d","#5f6f81"],"screen_resolution":[1920,1080],"minimum_resolution":1,"trial":25,"drifts":[0.342,0.299,0.368,0.724],"drift_ix":2,"trial_type":"two-step-trial","trial_index":57,"time_elapsed":471739,"internal_node_id":"0.0-38.0-0.0","task_version":"1.0","jspsych_version":"6.3.1","browser_interactions":0,"missing":false},{"state_1_ids":[0,1],"state_1_key":1,"state_1_choice":1,"state_1_rt":697.1999999880791,"transition":1,"state":1,"state_2_ids":[2,3],"state_2_key":1,"state_2_choice":3,"state_2_rt":719.3000000119209,"outcome":1,"rocket_colors":["#955db9","#48a782"],"planet_colors":["#7f5d5d","#5f6f81"],"screen_resolution":[1920,1080],"minimum_resolution":1,"trial":26,"drifts":[0.362,0.294,0.373,0.738],"drift_ix":2,"trial_type":"two-step-trial","trial_index":58,"time_elapsed":475162,"internal_node_id":"0.0-39.0-0.0","task_version":"1.0","jspsych_version":"6.3.1","browser_interactions":0,"missing":false},{"state_1_ids":[1,0],"state_1_key":0,"state_1_choice":1,"state_1_rt":882.5,"transition":0,"state":0,"state_2_ids":[0,1],"state_2_key":1,"state_2_choice":1,"state_2_rt":479.09999999403954,"outcome":0,"rocket_colors":["#955db9","#48a782"],"planet_colors":["#7f5d5d","#5f6f81"],"screen_resolution":[1920,1080],"minimum_resolution":1,"trial":27,"drifts":[0.332,0.286,0.389,0.683],"drift_ix":2,"trial_type":"two-step-trial","trial_index":59,"time_elapsed":478536,"internal_node_id":"0.0-40.0-0.0","task_version":"1.0","jspsych_version":"6.3.1","browser_interactions":0,"missing":false},{"state_1_ids":[1,0],"state_1_key":0,"state_1_choice":1,"state_1_rt":412.40000000596046,"transition":1,"state":1,"state_2_ids":[2,3],"state_2_key":1,"state_2_choice":3,"state_2_rt":462.59999999403954,"outcome":1,"rocket_colors":["#955db9","#48a782"],"planet_colors":["#7f5d5d","#5f6f81"],"screen_resolution":[1920,1080],"minimum_resolution":1,"trial":28,"drifts":[0.34,0.303,0.383,0.689],"drift_ix":2,"trial_type":"two-step-trial","trial_index":60,"time_elapsed":481417,"internal_node_id":"0.0-41.0-0.0","task_version":"1.0","jspsych_version":"6.3.1","browser_interactions":0,"missing":false},{"state_1_ids":[0,1],"state_1_key":0,"state_1_choice":0,"state_1_rt":595.8000000119209,"transition":0,"state":1,"state_2_ids":[2,3],"state_2_key":1,"state_2_choice":3,"state_2_rt":430.80000001192093,"outcome":1,"rocket_colors":["#955db9","#48a782"],"planet_colors":["#7f5d5d","#5f6f81"],"screen_resolution":[1920,1080],"minimum_resolution":1,"trial":29,"drifts":[0.317,0.302,0.385,0.679],"drift_ix":2,"trial_type":"two-step-trial","trial_index":61,"time_elapsed":484460,"internal_node_id":"0.0-42.0-0.0","task_version":"1.0","jspsych_version":"6.3.1","browser_interactions":0,"missing":false},{"state_1_ids":[0,1],"state_1_key":0,"state_1_choice":0,"state_1_rt":480.69999998807907,"transition":1,"state":0,"state_2_ids":[0,1],"state_2_key":1,"state_2_choice":1,"state_2_rt":622.4000000059605,"outcome":0,"rocket_colors":["#955db9","#48a782"],"planet_colors":["#7f5d5d","#5f6f81"],"screen_resolution":[1920,1080],"minimum_resolution":1,"trial":30,"drifts":[0.353,0.346,0.414,0.681],"drift_ix":2,"trial_type":"two-step-trial","trial_index":62,"time_elapsed":487569,"internal_node_id":"0.0-43.0-0.0","task_version":"1.0","jspsych_version":"6.3.1","browser_interactions":0,"missing":false},{"state_1_ids":[1,0],"state_1_key":0,"state_1_choice":1,"state_1_rt":523.3000000119209,"transition":1,"state":1,"state_2_ids":[2,3],"state_2_key":1,"state_2_choice":3,"state_2_rt":454.60000002384186,"outcome":1,"rocket_colors":["#955db9","#48a782"],"planet_colors":["#7f5d5d","#5f6f81"],"screen_resolution":[1920,1080],"minimum_resolution":1,"trial":31,"drifts":[0.325,0.331,0.414,0.647],"drift_ix":2,"trial_type":"two-step-trial","trial_index":63,"time_elapsed":490553,"internal_node_id":"0.0-44.0-0.0","task_version":"1.0","jspsych_version":"6.3.1","browser_interactions":0,"missing":false},{"state_1_ids":[1,0],"state_1_key":0,"state_1_choice":1,"state_1_rt":436.19999998807907,"transition":1,"state":1,"state_2_ids":[2,3],"state_2_key":1,"state_2_choice":3,"state_2_rt":293.7000000178814,"outcome":0,"rocket_colors":["#955db9","#48a782"],"planet_colors":["#7f5d5d","#5f6f81"],"screen_resolution":[1920,1080],"minimum_resolution":1,"trial":32,"drifts":[0.328,0.33,0.383,0.663],"drift_ix":2,"trial_type":"two-step-trial","trial_index":64,"time_elapsed":493289,"internal_node_id":"0.0-45.0-0.0","task_version":"1.0","jspsych_version":"6.3.1","browser_interactions":0,"missing":false},{"state_1_ids":[0,1],"state_1_key":0,"state_1_choice":0,"state_1_rt":395.40000000596046,"transition":1,"state":0,"state_2_ids":[0,1],"state_2_key":1,"state_2_choice":1,"state_2_rt":342.90000000596046,"outcome":1,"rocket_colors":["#955db9","#48a782"],"planet_colors":["#7f5d5d","#5f6f81"],"screen_resolution":[1920,1080],"minimum_resolution":1,"trial":33,"drifts":[0.322,0.332,0.362,0.633],"drift_ix":2,"trial_type":"two-step-trial","trial_index":65,"time_elapsed":496033,"internal_node_id":"0.0-46.0-0.0","task_version":"1.0","jspsych_version":"6.3.1","browser_interactions":0,"missing":false},{"state_1_ids":[1,0],"state_1_key":0,"state_1_choice":1,"state_1_rt":515.6000000238419,"transition":1,"state":1,"state_2_ids":[2,3],"state_2_key":1,"state_2_choice":3,"state_2_rt":470.40000000596046,"outcome":1,"rocket_colors":["#955db9","#48a782"],"planet_colors":["#7f5d5d","#5f6f81"],"screen_resolution":[1920,1080],"minimum_resolution":1,"trial":34,"drifts":[0.322,0.307,0.363,0.617],"drift_ix":2,"trial_type":"two-step-trial","trial_index":66,"time_elapsed":499039,"internal_node_id":"0.0-47.0-0.0","task_version":"1.0","jspsych_version":"6.3.1","browser_interactions":0,"missing":false},{"state_1_ids":[0,1],"state_1_key":0,"state_1_choice":0,"state_1_rt":756.5,"transition":1,"state":0,"state_2_ids":[0,1],"state_2_key":1,"state_2_choice":1,"state_2_rt":359.09999999403954,"outcome":0,"rocket_colors":["#955db9","#48a782"],"planet_colors":["#7f5d5d","#5f6f81"],"screen_resolution":[1920,1080],"minimum_resolution":1,"trial":35,"drifts":[0.297,0.336,0.333,0.65],"drift_ix":2,"trial_type":"two-step-trial","trial_index":67,"time_elapsed":502161,"internal_node_id":"0.0-48.0-0.0","task_version":"1.0","jspsych_version":"6.3.1","browser_interactions":0,"missing":false},{"state_1_ids":[1,0],"state_1_key":0,"state_1_choice":1,"state_1_rt":467.7999999821186,"transition":1,"state":1,"state_2_ids":[2,3],"state_2_key":1,"state_2_choice":3,"state_2_rt":518.6999999880791,"outcome":1,"rocket_colors":["#955db9","#48a782"],"planet_colors":["#7f5d5d","#5f6f81"],"screen_resolution":[1920,1080],"minimum_resolution":1,"trial":36,"drifts":[0.326,0.343,0.331,0.633],"drift_ix":2,"trial_type":"two-step-trial","trial_index":68,"time_elapsed":505153,"internal_node_id":"0.0-49.0-0.0","task_version":"1.0","jspsych_version":"6.3.1","browser_interactions":0,"missing":false},{"state_1_ids":[1,0],"state_1_key":0,"state_1_choice":1,"state_1_rt":451.59999999403954,"transition":0,"state":0,"state_2_ids":[0,1],"state_2_key":0,"state_2_choice":0,"state_2_rt":478.39999997615814,"outcome":0,"rocket_colors":["#955db9","#48a782"],"planet_colors":["#7f5d5d","#5f6f81"],"screen_resolution":[1920,1080],"minimum_resolution":1,"trial":37,"drifts":[0.318,0.324,0.327,0.612],"drift_ix":2,"trial_type":"two-step-trial","trial_index":69,"time_elapsed":508089,"internal_node_id":"0.0-50.0-0.0","task_version":"1.0","jspsych_version":"6.3.1","browser_interactions":0,"missing":false},{"state_1_ids":[0,1],"state_1_key":0,"state_1_choice":0,"state_1_rt":539.6999999880791,"transition":1,"state":0,"state_2_ids":[0,1],"state_2_key":1,"state_2_choice":1,"state_2_rt":566.8000000119209,"outcome":0,"rocket_colors":["#955db9","#48a782"],"planet_colors":["#7f5d5d","#5f6f81"],"screen_resolution":[1920,1080],"minimum_resolution":1,"trial":38,"drifts":[0.304,0.324,0.319,0.591],"drift_ix":2,"trial_type":"two-step-trial","trial_index":70,"time_elapsed":511216,"internal_node_id":"0.0-51.0-0.0","task_version":"1.0","jspsych_version":"6.3.1","browser_interactions":0,"missing":false},{"state_1_ids":[0,1],"state_1_key":0,"state_1_choice":0,"state_1_rt":420.7000000178814,"transition":1,"state":0,"state_2_ids":[0,1],"state_2_key":1,"state_2_choice":1,"state_2_rt":462.10000002384186,"outcome":1,"rocket_colors":["#955db9","#48a782"],"planet_colors":["#7f5d5d","#5f6f81"],"screen_resolution":[1920,1080],"minimum_resolution":1,"trial":39,"drifts":[0.283,0.362,0.351,0.561],"drift_ix":2,"trial_type":"two-step-trial","trial_index":71,"time_elapsed":514105,"internal_node_id":"0.0-52.0-0.0","task_version":"1.0","jspsych_version":"6.3.1","browser_interactions":0,"missing":false},{"state_1_ids":[1,0],"state_1_key":0,"state_1_choice":1,"state_1_rt":651.3000000119209,"transition":0,"state":0,"state_2_ids":[0,1],"state_2_key":1,"state_2_choice":1,"state_2_rt":462.5,"outcome":1,"rocket_colors":["#955db9","#48a782"],"planet_colors":["#7f5d5d","#5f6f81"],"screen_resolution":[1920,1080],"minimum_resolution":1,"trial":40,"drifts":[0.295,0.387,0.331,0.546],"drift_ix":2,"trial_type":"two-step-trial","trial_index":72,"time_elapsed":517224,"internal_node_id":"0.0-53.0-0.0","task_version":"1.0","jspsych_version":"6.3.1","browser_interactions":0,"missing":false},{"state_1_ids":[0,1],"state_1_key":0,"state_1_choice":0,"state_1_rt":452.7000000178814,"transition":1,"state":0,"state_2_ids":[0,1],"state_2_key":1,"state_2_choice":1,"state_2_rt":366.09999999403954,"outcome":1,"rocket_colors":["#955db9","#48a782"],"planet_colors":["#7f5d5d","#5f6f81"],"screen_resolution":[1920,1080],"minimum_resolution":1,"trial":41,"drifts":[0.293,0.385,0.33,0.584],"drift_ix":2,"trial_type":"two-step-trial","trial_index":73,"time_elapsed":520049,"internal_node_id":"0.0-54.0-0.0","task_version":"1.0","jspsych_version":"6.3.1","browser_interactions":0,"missing":false},{"state_1_ids":[1,0],"state_1_key":0,"state_1_choice":1,"state_1_rt":491.7000000178814,"transition":1,"state":1,"state_2_ids":[2,3],"state_2_key":1,"state_2_choice":3,"state_2_rt":397.5,"outcome":1,"rocket_colors":["#955db9","#48a782"],"planet_colors":["#7f5d5d","#5f6f81"],"screen_resolution":[1920,1080],"minimum_resolution":1,"trial":42,"drifts":[0.304,0.383,0.318,0.562],"drift_ix":2,"trial_type":"two-step-trial","trial_index":74,"time_elapsed":522959,"internal_node_id":"0.0-55.0-0.0","task_version":"1.0","jspsych_version":"6.3.1","browser_interactions":0,"missing":false},{"state_1_ids":[0,1],"state_1_key":0,"state_1_choice":0,"state_1_rt":406.69999998807907,"transition":1,"state":0,"state_2_ids":[0,1],"state_2_key":1,"state_2_choice":1,"state_2_rt":431,"outcome":0,"rocket_colors":["#955db9","#48a782"],"planet_colors":["#7f5d5d","#5f6f81"],"screen_resolution":[1920,1080],"minimum_resolution":1,"trial":43,"drifts":[0.318,0.398,0.315,0.576],"drift_ix":2,"trial_type":"two-step-trial","trial_index":75,"time_elapsed":525800,"internal_node_id":"0.0-56.0-0.0","task_version":"1.0","jspsych_version":"6.3.1","browser_interactions":0,"missing":false},{"state_1_ids":[1,0],"state_1_key":0,"state_1_choice":1,"state_1_rt":404,"transition":1,"state":1,"state_2_ids":[2,3],"state_2_key":1,"state_2_choice":3,"state_2_rt":406.09999999403954,"outcome":1,"rocket_colors":["#955db9","#48a782"],"planet_colors":["#7f5d5d","#5f6f81"],"screen_resolution":[1920,1080],"minimum_resolution":1,"trial":44,"drifts":[0.321,0.371,0.348,0.616],"drift_ix":2,"trial_type":"two-step-trial","trial_index":76,"time_elapsed":528616,"internal_node_id":"0.0-57.0-0.0","task_version":"1.0","jspsych_version":"6.3.1","browser_interactions":0,"missing":false},{"state_1_ids":[1,0],"state_1_key":0,"state_1_choice":1,"state_1_rt":443.5,"transition":0,"state":0,"state_2_ids":[0,1],"state_2_key":1,"state_2_choice":1,"state_2_rt":367.2000000178814,"outcome":0,"rocket_colors":["#955db9","#48a782"],"planet_colors":["#7f5d5d","#5f6f81"],"screen_resolution":[1920,1080],"minimum_resolution":1,"trial":45,"drifts":[0.319,0.418,0.367,0.598],"drift_ix":2,"trial_type":"two-step-trial","trial_index":77,"time_elapsed":531432,"internal_node_id":"0.0-58.0-0.0","task_version":"1.0","jspsych_version":"6.3.1","browser_interactions":0,"missing":false},{"state_1_ids":[0,1],"state_1_key":0,"state_1_choice":0,"state_1_rt":347.90000000596046,"transition":1,"state":0,"state_2_ids":[0,1],"state_2_key":0,"state_2_choice":0,"state_2_rt":511.09999999403954,"outcome":0,"rocket_colors":["#955db9","#48a782"],"planet_colors":["#7f5d5d","#5f6f81"],"screen_resolution":[1920,1080],"minimum_resolution":1,"trial":46,"drifts":[0.326,0.44,0.366,0.588],"drift_ix":2,"trial_type":"two-step-trial","trial_index":78,"time_elapsed":534296,"internal_node_id":"0.0-59.0-0.0","task_version":"1.0","jspsych_version":"6.3.1","browser_interactions":0,"missing":false},{"state_1_ids":[0,1],"state_1_key":0,"state_1_choice":0,"state_1_rt":460.40000000596046,"transition":1,"state":0,"state_2_ids":[0,1],"state_2_key":1,"state_2_choice":1,"state_2_rt":350.40000000596046,"outcome":0,"rocket_colors":["#955db9","#48a782"],"planet_colors":["#7f5d5d","#5f6f81"],"screen_resolution":[1920,1080],"minimum_resolution":1,"trial":47,"drifts":[0.315,0.46,0.378,0.597],"drift_ix":2,"trial_type":"two-step-trial","trial_index":79,"time_elapsed":537112,"internal_node_id":"0.0-60.0-0.0","task_version":"1.0","jspsych_version":"6.3.1","browser_interactions":0,"missing":false},{"state_1_ids":[0,1],"state_1_key":0,"state_1_choice":0,"state_1_rt":723.7000000178814,"transition":1,"state":0,"state_2_ids":[0,1],"state_2_key":1,"state_2_choice":1,"state_2_rt":495,"outcome":1,"rocket_colors":["#955db9","#48a782"],"planet_colors":["#7f5d5d","#5f6f81"],"screen_resolution":[1920,1080],"minimum_resolution":1,"trial":48,"drifts":[0.281,0.476,0.36,0.571],"drift_ix":2,"trial_type":"two-step-trial","trial_index":80,"time_elapsed":540336,"internal_node_id":"0.0-61.0-0.0","task_version":"1.0","jspsych_version":"6.3.1","browser_interactions":0,"missing":false},{"state_1_ids":[0,1],"state_1_key":1,"state_1_choice":1,"state_1_rt":628,"transition":0,"state":0,"state_2_ids":[0,1],"state_2_key":1,"state_2_choice":1,"state_2_rt":821.4000000059605,"outcome":1,"rocket_colors":["#955db9","#48a782"],"planet_colors":["#7f5d5d","#5f6f81"],"screen_resolution":[1920,1080],"minimum_resolution":1,"trial":49,"drifts":[0.254,0.439,0.383,0.579],"drift_ix":2,"trial_type":"two-step-trial","trial_index":81,"time_elapsed":543793,"internal_node_id":"0.0-62.0-0.0","task_version":"1.0","jspsych_version":"6.3.1","browser_interactions":0,"missing":false},{"state_1_ids":[1,0],"state_1_key":1,"state_1_choice":0,"state_1_rt":394.89999997615814,"transition":1,"state":0,"state_2_ids":[0,1],"state_2_key":1,"state_2_choice":1,"state_2_rt":863.8000000119209,"outcome":1,"rocket_colors":["#955db9","#48a782"],"planet_colors":["#7f5d5d","#5f6f81"],"screen_resolution":[1920,1080],"minimum_resolution":1,"trial":50,"drifts":[0.303,0.471,0.392,0.592],"drift_ix":2,"trial_type":"two-step-trial","trial_index":82,"time_elapsed":547057,"internal_node_id":"0.0-63.0-0.0","task_version":"1.0","jspsych_version":"6.3.1","browser_interactions":0,"missing":false},{"state_1_ids":[1,0],"state_1_key":1,"state_1_choice":0,"state_1_rt":1659.300000011921,"transition":0,"state":1,"state_2_ids":[2,3],"state_2_key":1,"state_2_choice":3,"state_2_rt":574.3999999761581,"outcome":0,"rocket_colors":["#955db9","#48a782"],"planet_colors":["#7f5d5d","#5f6f81"],"screen_resolution":[1920,1080],"minimum_resolution":1,"trial":51,"drifts":[0.274,0.41,0.377,0.587],"drift_ix":2,"trial_type":"two-step-trial","trial_index":83,"time_elapsed":551296,"internal_node_id":"0.0-64.0-0.0","task_version":"1.0","jspsych_version":"6.3.1","browser_interactions":0,"missing":false},{"state_1_ids":[1,0],"state_1_key":1,"state_1_choice":0,"state_1_rt":411.40000000596046,"transition":1,"state":0,"state_2_ids":[0,1],"state_2_key":1,"state_2_choice":1,"state_2_rt":414.2999999821186,"outcome":0,"rocket_colors":["#955db9","#48a782"],"planet_colors":["#7f5d5d","#5f6f81"],"screen_resolution":[1920,1080],"minimum_resolution":1,"trial":52,"drifts":[0.29,0.413,0.363,0.572],"drift_ix":2,"trial_type":"two-step-trial","trial_index":84,"time_elapsed":554129,"internal_node_id":"0.0-65.0-0.0","task_version":"1.0","jspsych_version":"6.3.1","browser_interactions":0,"missing":false},{"state_1_ids":[1,0],"state_1_key":1,"state_1_choice":0,"state_1_rt":579.1000000238419,"transition":1,"state":0,"state_2_ids":[0,1],"state_2_key":1,"state_2_choice":1,"state_2_rt":495.2000000178814,"outcome":0,"rocket_colors":["#955db9","#48a782"],"planet_colors":["#7f5d5d","#5f6f81"],"screen_resolution":[1920,1080],"minimum_resolution":1,"trial":53,"drifts":[0.292,0.425,0.318,0.522],"drift_ix":2,"trial_type":"two-step-trial","trial_index":85,"time_elapsed":557209,"internal_node_id":"0.0-66.0-0.0","task_version":"1.0","jspsych_version":"6.3.1","browser_interactions":0,"missing":false},{"state_1_ids":[1,0],"state_1_key":1,"state_1_choice":0,"state_1_rt":410.80000001192093,"transition":1,"state":0,"state_2_ids":[0,1],"state_2_key":1,"state_2_choice":1,"state_2_rt":326.90000000596046,"outcome":0,"rocket_colors":["#955db9","#48a782"],"planet_colors":["#7f5d5d","#5f6f81"],"screen_resolution":[1920,1080],"minimum_resolution":1,"trial":54,"drifts":[0.284,0.449,0.332,0.552],"drift_ix":2,"trial_type":"two-step-trial","trial_index":86,"time_elapsed":559953,"internal_node_id":"0.0-67.0-0.0","task_version":"1.0","jspsych_version":"6.3.1","browser_interactions":0,"missing":false},{"state_1_ids":[0,1],"state_1_key":1,"state_1_choice":1,"state_1_rt":715.3000000119209,"transition":1,"state":1,"state_2_ids":[2,3],"state_2_key":1,"state_2_choice":3,"state_2_rt":360.2999999821186,"outcome":1,"rocket_colors":["#955db9","#48a782"],"planet_colors":["#7f5d5d","#5f6f81"],"screen_resolution":[1920,1080],"minimum_resolution":1,"trial":55,"drifts":[0.253,0.41,0.344,0.579],"drift_ix":2,"trial_type":"two-step-trial","trial_index":87,"time_elapsed":563034,"internal_node_id":"0.0-68.0-0.0","task_version":"1.0","jspsych_version":"6.3.1","browser_interactions":0,"missing":false},{"state_1_ids":[1,0],"state_1_key":1,"state_1_choice":0,"state_1_rt":385.90000000596046,"transition":1,"state":0,"state_2_ids":[0,1],"state_2_key":1,"state_2_choice":1,"state_2_rt":317.19999998807907,"outcome":0,"rocket_colors":["#955db9","#48a782"],"planet_colors":["#7f5d5d","#5f6f81"],"screen_resolution":[1920,1080],"minimum_resolution":1,"trial":56,"drifts":[0.277,0.408,0.373,0.526],"drift_ix":2,"trial_type":"two-step-trial","trial_index":88,"time_elapsed":565744,"internal_node_id":"0.0-69.0-0.0","task_version":"1.0","jspsych_version":"6.3.1","browser_interactions":0,"missing":false},{"state_1_ids":[0,1],"state_1_key":1,"state_1_choice":1,"state_1_rt":485,"transition":1,"state":1,"state_2_ids":[2,3],"state_2_key":1,"state_2_choice":3,"state_2_rt":333.80000001192093,"outcome":0,"rocket_colors":["#955db9","#48a782"],"planet_colors":["#7f5d5d","#5f6f81"],"screen_resolution":[1920,1080],"minimum_resolution":1,"trial":57,"drifts":[0.252,0.418,0.356,0.521],"drift_ix":2,"trial_type":"two-step-trial","trial_index":89,"time_elapsed":568568,"internal_node_id":"0.0-70.0-0.0","task_version":"1.0","jspsych_version":"6.3.1","browser_interactions":0,"missing":false},{"state_1_ids":[1,0],"state_1_key":0,"state_1_choice":1,"state_1_rt":795.7000000178814,"transition":1,"state":1,"state_2_ids":[2,3],"state_2_key":1,"state_2_choice":3,"state_2_rt":470.5,"outcome":0,"rocket_colors":["#955db9","#48a782"],"planet_colors":["#7f5d5d","#5f6f81"],"screen_resolution":[1920,1080],"minimum_resolution":1,"trial":58,"drifts":[0.282,0.462,0.395,0.504],"drift_ix":2,"trial_type":"two-step-trial","trial_index":90,"time_elapsed":571841,"internal_node_id":"0.0-71.0-0.0","task_version":"1.0","jspsych_version":"6.3.1","browser_interactions":0,"missing":false},{"state_1_ids":[1,0],"state_1_key":0,"state_1_choice":1,"state_1_rt":546.7000000178814,"transition":0,"state":0,"state_2_ids":[0,1],"state_2_key":1,"state_2_choice":1,"state_2_rt":366,"outcome":0,"rocket_colors":["#955db9","#48a782"],"planet_colors":["#7f5d5d","#5f6f81"],"screen_resolution":[1920,1080],"minimum_resolution":1,"trial":59,"drifts":[0.297,0.475,0.39,0.498],"drift_ix":2,"trial_type":"two-step-trial","trial_index":91,"time_elapsed":574761,"internal_node_id":"0.0-72.0-0.0","task_version":"1.0","jspsych_version":"6.3.1","browser_interactions":0,"missing":false},{"state_1_ids":[1,0],"state_1_key":0,"state_1_choice":1,"state_1_rt":531.5999999940395,"transition":1,"state":1,"state_2_ids":[2,3],"state_2_key":1,"state_2_choice":3,"state_2_rt":454.60000002384186,"outcome":0,"rocket_colors":["#955db9","#48a782"],"planet_colors":["#7f5d5d","#5f6f81"],"screen_resolution":[1920,1080],"minimum_resolution":1,"trial":60,"drifts":[0.295,0.463,0.364,0.52],"drift_ix":2,"trial_type":"two-step-trial","trial_index":92,"time_elapsed":577752,"internal_node_id":"0.0-73.0-0.0","task_version":"1.0","jspsych_version":"6.3.1","browser_interactions":0,"missing":false},{"state_1_ids":[0,1],"state_1_key":0,"state_1_choice":0,"state_1_rt":531.8000000119209,"transition":0,"state":1,"state_2_ids":[2,3],"state_2_key":1,"state_2_choice":3,"state_2_rt":558.8000000119209,"outcome":1,"rocket_colors":["#955db9","#48a782"],"planet_colors":["#7f5d5d","#5f6f81"],"screen_resolution":[1920,1080],"minimum_resolution":1,"trial":61,"drifts":[0.295,0.433,0.355,0.543],"drift_ix":2,"trial_type":"two-step-trial","trial_index":93,"time_elapsed":580852,"internal_node_id":"0.0-74.0-0.0","task_version":"1.0","jspsych_version":"6.3.1","browser_interactions":0,"missing":false},{"state_1_ids":[0,1],"state_1_key":0,"state_1_choice":0,"state_1_rt":1160.199999988079,"transition":1,"state":0,"state_2_ids":[0,1],"state_2_key":1,"state_2_choice":1,"state_2_rt":542.2000000178814,"outcome":1,"rocket_colors":["#955db9","#48a782"],"planet_colors":["#7f5d5d","#5f6f81"],"screen_resolution":[1920,1080],"minimum_resolution":1,"trial":62,"drifts":[0.307,0.43,0.353,0.543],"drift_ix":2,"trial_type":"two-step-trial","trial_index":94,"time_elapsed":584560,"internal_node_id":"0.0-75.0-0.0","task_version":"1.0","jspsych_version":"6.3.1","browser_interactions":0,"missing":false},{"state_1_ids":[1,0],"state_1_key":0,"state_1_choice":1,"state_1_rt":972.1999999880791,"transition":1,"state":1,"state_2_ids":[2,3],"state_2_key":1,"state_2_choice":3,"state_2_rt":519,"outcome":1,"rocket_colors":["#955db9","#48a782"],"planet_colors":["#7f5d5d","#5f6f81"],"screen_resolution":[1920,1080],"minimum_resolution":1,"trial":63,"drifts":[0.353,0.426,0.367,0.529],"drift_ix":2,"trial_type":"two-step-trial","trial_index":95,"time_elapsed":588056,"internal_node_id":"0.0-76.0-0.0","task_version":"1.0","jspsych_version":"6.3.1","browser_interactions":0,"missing":false},{"state_1_ids":[0,1],"state_1_key":0,"state_1_choice":0,"state_1_rt":740.1000000238419,"transition":1,"state":0,"state_2_ids":[0,1],"state_2_key":1,"state_2_choice":1,"state_2_rt":519.1999999880791,"outcome":1,"rocket_colors":["#955db9","#48a782"],"planet_colors":["#7f5d5d","#5f6f81"],"screen_resolution":[1920,1080],"minimum_resolution":1,"trial":64,"drifts":[0.37,0.432,0.33,0.47],"drift_ix":2,"trial_type":"two-step-trial","trial_index":96,"time_elapsed":591321,"internal_node_id":"0.0-77.0-0.0","task_version":"1.0","jspsych_version":"6.3.1","browser_interactions":0,"missing":false},{"state_1_ids":[1,0],"state_1_key":1,"state_1_choice":0,"state_1_rt":739.8000000119209,"transition":1,"state":0,"state_2_ids":[0,1],"state_2_key":1,"state_2_choice":1,"state_2_rt":647.5,"outcome":0,"rocket_colors":["#955db9","#48a782"],"planet_colors":["#7f5d5d","#5f6f81"],"screen_resolution":[1920,1080],"minimum_resolution":1,"trial":65,"drifts":[0.377,0.393,0.348,0.501],"drift_ix":2,"trial_type":"two-step-trial","trial_index":97,"time_elapsed":594712,"internal_node_id":"0.0-78.0-0.0","task_version":"1.0","jspsych_version":"6.3.1","browser_interactions":0,"missing":false},{"state_1_ids":[1,0],"state_1_key":1,"state_1_choice":0,"state_1_rt":731.9000000059605,"transition":1,"state":0,"state_2_ids":[0,1],"state_2_key":1,"state_2_choice":1,"state_2_rt":3078.2000000178814,"outcome":1,"rocket_colors":["#955db9","#48a782"],"planet_colors":["#7f5d5d","#5f6f81"],"screen_resolution":[1920,1080],"minimum_resolution":1,"trial":66,"drifts":[0.345,0.371,0.258,0.459],"drift_ix":2,"trial_type":"two-step-trial","trial_index":98,"time_elapsed":600529,"internal_node_id":"0.0-79.0-0.0","task_version":"1.0","jspsych_version":"6.3.1","browser_interactions":0,"missing":false},{"state_1_ids":[0,1],"state_1_key":1,"state_1_choice":1,"state_1_rt":834.1999999880791,"transition":1,"state":1,"state_2_ids":[2,3],"state_2_key":1,"state_2_choice":3,"state_2_rt":487.19999998807907,"outcome":0,"rocket_colors":["#955db9","#48a782"],"planet_colors":["#7f5d5d","#5f6f81"],"screen_resolution":[1920,1080],"minimum_resolution":1,"trial":67,"drifts":[0.332,0.355,0.256,0.426],"drift_ix":2,"trial_type":"two-step-trial","trial_index":99,"time_elapsed":603856,"internal_node_id":"0.0-80.0-0.0","task_version":"1.0","jspsych_version":"6.3.1","browser_interactions":0,"missing":false},{"state_1_ids":[1,0],"state_1_key":1,"state_1_choice":0,"state_1_rt":739.6999999880791,"transition":1,"state":0,"state_2_ids":[0,1],"state_2_key":1,"state_2_choice":1,"state_2_rt":470.5,"outcome":0,"rocket_colors":["#955db9","#48a782"],"planet_colors":["#7f5d5d","#5f6f81"],"screen_resolution":[1920,1080],"minimum_resolution":1,"trial":68,"drifts":[0.331,0.398,0.311,0.426],"drift_ix":2,"trial_type":"two-step-trial","trial_index":100,"time_elapsed":607072,"internal_node_id":"0.0-81.0-0.0","task_version":"1.0","jspsych_version":"6.3.1","browser_interactions":0,"missing":false},{"state_1_ids":[0,1],"state_1_key":1,"state_1_choice":1,"state_1_rt":476.09999999403954,"transition":1,"state":1,"state_2_ids":[2,3],"state_2_key":0,"state_2_choice":2,"state_2_rt":797.8000000119209,"outcome":1,"rocket_colors":["#955db9","#48a782"],"planet_colors":["#7f5d5d","#5f6f81"],"screen_resolution":[1920,1080],"minimum_resolution":1,"trial":69,"drifts":[0.325,0.426,0.326,0.384],"drift_ix":2,"trial_type":"two-step-trial","trial_index":101,"time_elapsed":610352,"internal_node_id":"0.0-82.0-0.0","task_version":"1.0","jspsych_version":"6.3.1","browser_interactions":0,"missing":false},{"state_1_ids":[0,1],"state_1_key":1,"state_1_choice":1,"state_1_rt":539.7000000178814,"transition":1,"state":1,"state_2_ids":[2,3],"state_2_key":0,"state_2_choice":2,"state_2_rt":407.19999998807907,"outcome":0,"rocket_colors":["#955db9","#48a782"],"planet_colors":["#7f5d5d","#5f6f81"],"screen_resolution":[1920,1080],"minimum_resolution":1,"trial":70,"drifts":[0.293,0.475,0.305,0.375],"drift_ix":2,"trial_type":"two-step-trial","trial_index":102,"time_elapsed":613304,"internal_node_id":"0.0-83.0-0.0","task_version":"1.0","jspsych_version":"6.3.1","browser_interactions":0,"missing":false},{"state_1_ids":[0,1],"state_1_key":1,"state_1_choice":1,"state_1_rt":531.9000000059605,"transition":1,"state":1,"state_2_ids":[2,3],"state_2_key":0,"state_2_choice":2,"state_2_rt":982.2000000178814,"outcome":1,"rocket_colors":["#955db9","#48a782"],"planet_colors":["#7f5d5d","#5f6f81"],"screen_resolution":[1920,1080],"minimum_resolution":1,"trial":71,"drifts":[0.268,0.51,0.303,0.365],"drift_ix":2,"trial_type":"two-step-trial","trial_index":103,"time_elapsed":616823,"internal_node_id":"0.0-84.0-0.0","task_version":"1.0","jspsych_version":"6.3.1","browser_interactions":0,"missing":false},{"state_1_ids":[0,1],"state_1_key":1,"state_1_choice":1,"state_1_rt":406.09999999403954,"transition":1,"state":1,"state_2_ids":[2,3],"state_2_key":0,"state_2_choice":2,"state_2_rt":429.90000000596046,"outcome":0,"rocket_colors":["#955db9","#48a782"],"planet_colors":["#7f5d5d","#5f6f81"],"screen_resolution":[1920,1080],"minimum_resolution":1,"trial":72,"drifts":[0.294,0.507,0.326,0.359],"drift_ix":2,"trial_type":"two-step-trial","trial_index":104,"time_elapsed":619664,"internal_node_id":"0.0-85.0-0.0","task_version":"1.0","jspsych_version":"6.3.1","browser_interactions":0,"missing":false},{"state_1_ids":[0,1],"state_1_key":1,"state_1_choice":1,"state_1_rt":371.90000000596046,"transition":1,"state":1,"state_2_ids":[2,3],"state_2_key":1,"state_2_choice":3,"state_2_rt":430.90000000596046,"outcome":0,"rocket_colors":["#955db9","#48a782"],"planet_colors":["#7f5d5d","#5f6f81"],"screen_resolution":[1920,1080],"minimum_resolution":1,"trial":73,"drifts":[0.296,0.541,0.313,0.367],"drift_ix":2,"trial_type":"two-step-trial","trial_index":105,"time_elapsed":622472,"internal_node_id":"0.0-86.0-0.0","task_version":"1.0","jspsych_version":"6.3.1","browser_interactions":0,"missing":false},{"state_1_ids":[0,1],"state_1_key":1,"state_1_choice":1,"state_1_rt":404.80000001192093,"transition":0,"state":0,"state_2_ids":[0,1],"state_2_key":1,"state_2_choice":1,"state_2_rt":630.6999999880791,"outcome":1,"rocket_colors":["#955db9","#48a782"],"planet_colors":["#7f5d5d","#5f6f81"],"screen_resolution":[1920,1080],"minimum_resolution":1,"trial":74,"drifts":[0.282,0.491,0.339,0.374],"drift_ix":2,"trial_type":"two-step-trial","trial_index":106,"time_elapsed":625512,"internal_node_id":"0.0-87.0-0.0","task_version":"1.0","jspsych_version":"6.3.1","browser_interactions":0,"missing":false},{"state_1_ids":[0,1],"state_1_key":1,"state_1_choice":1,"state_1_rt":371.90000000596046,"transition":1,"state":1,"state_2_ids":[2,3],"state_2_key":1,"state_2_choice":3,"state_2_rt":502.89999997615814,"outcome":0,"rocket_colors":["#955db9","#48a782"],"planet_colors":["#7f5d5d","#5f6f81"],"screen_resolution":[1920,1080],"minimum_resolution":1,"trial":75,"drifts":[0.336,0.513,0.333,0.367],"drift_ix":2,"trial_type":"two-step-trial","trial_index":107,"time_elapsed":628392,"internal_node_id":"0.0-88.0-0.0","task_version":"1.0","jspsych_version":"6.3.1","browser_interactions":0,"missing":false},{"state_1_ids":[0,1],"state_1_key":1,"state_1_choice":1,"state_1_rt":395.7999999821186,"transition":1,"state":1,"state_2_ids":[2,3],"state_2_key":0,"state_2_choice":2,"state_2_rt":494.5,"outcome":0,"rocket_colors":["#955db9","#48a782"],"planet_colors":["#7f5d5d","#5f6f81"],"screen_resolution":[1920,1080],"minimum_resolution":1,"trial":76,"drifts":[0.344,0.538,0.274,0.339],"drift_ix":2,"trial_type":"two-step-trial","trial_index":108,"time_elapsed":631288,"internal_node_id":"0.0-89.0-0.0","task_version":"1.0","jspsych_version":"6.3.1","browser_interactions":0,"missing":false},{"state_1_ids":[1,0],"state_1_key":1,"state_1_choice":0,"state_1_rt":436.2000000178814,"transition":0,"state":1,"state_2_ids":[2,3],"state_2_key":1,"state_2_choice":3,"state_2_rt":518.5,"outcome":1,"rocket_colors":["#955db9","#48a782"],"planet_colors":["#7f5d5d","#5f6f81"],"screen_resolution":[1920,1080],"minimum_resolution":1,"trial":77,"drifts":[0.322,0.54,0.262,0.343],"drift_ix":2,"trial_type":"two-step-trial","trial_index":109,"time_elapsed":634250,"internal_node_id":"0.0-90.0-0.0","task_version":"1.0","jspsych_version":"6.3.1","browser_interactions":0,"missing":false},{"state_1_ids":[0,1],"state_1_key":1,"state_1_choice":1,"state_1_rt":698.5,"transition":1,"state":1,"state_2_ids":[2,3],"state_2_key":0,"state_2_choice":2,"state_2_rt":838.0999999940395,"outcome":0,"rocket_colors":["#955db9","#48a782"],"planet_colors":["#7f5d5d","#5f6f81"],"screen_resolution":[1920,1080],"minimum_resolution":1,"trial":78,"drifts":[0.351,0.561,0.265,0.342],"drift_ix":2,"trial_type":"two-step-trial","trial_index":110,"time_elapsed":637792,"internal_node_id":"0.0-91.0-0.0","task_version":"1.0","jspsych_version":"6.3.1","browser_interactions":0,"missing":false},{"state_1_ids":[0,1],"state_1_key":1,"state_1_choice":1,"state_1_rt":443.19999998807907,"transition":1,"state":1,"state_2_ids":[2,3],"state_2_key":1,"state_2_choice":3,"state_2_rt":598.0999999940395,"outcome":0,"rocket_colors":["#955db9","#48a782"],"planet_colors":["#7f5d5d","#5f6f81"],"screen_resolution":[1920,1080],"minimum_resolution":1,"trial":79,"drifts":[0.335,0.543,0.286,0.35],"drift_ix":2,"trial_type":"two-step-trial","trial_index":111,"time_elapsed":640841,"internal_node_id":"0.0-92.0-0.0","task_version":"1.0","jspsych_version":"6.3.1","browser_interactions":0,"missing":false},{"state_1_ids":[0,1],"state_1_key":1,"state_1_choice":1,"state_1_rt":467.09999999403954,"transition":1,"state":1,"state_2_ids":[2,3],"state_2_key":1,"state_2_choice":3,"state_2_rt":600.4000000059605,"outcome":0,"rocket_colors":["#955db9","#48a782"],"planet_colors":["#7f5d5d","#5f6f81"],"screen_resolution":[1920,1080],"minimum_resolution":1,"trial":80,"drifts":[0.328,0.536,0.289,0.405],"drift_ix":2,"trial_type":"two-step-trial","trial_index":112,"time_elapsed":643914,"internal_node_id":"0.0-93.0-0.0","task_version":"1.0","jspsych_version":"6.3.1","browser_interactions":0,"missing":false},{"state_1_ids":[1,0],"state_1_key":0,"state_1_choice":1,"state_1_rt":753.6999999880791,"transition":1,"state":1,"state_2_ids":[2,3],"state_2_key":0,"state_2_choice":2,"state_2_rt":454.2999999821186,"outcome":1,"rocket_colors":["#955db9","#48a782"],"planet_colors":["#7f5d5d","#5f6f81"],"screen_resolution":[1920,1080],"minimum_resolution":1,"trial":81,"drifts":[0.286,0.534,0.265,0.391],"drift_ix":2,"trial_type":"two-step-trial","trial_index":113,"time_elapsed":647129,"internal_node_id":"0.0-94.0-0.0","task_version":"1.0","jspsych_version":"6.3.1","browser_interactions":0,"missing":false},{"state_1_ids":[1,0],"state_1_key":0,"state_1_choice":1,"state_1_rt":403.69999998807907,"transition":1,"state":1,"state_2_ids":[2,3],"state_2_key":0,"state_2_choice":2,"state_2_rt":573.5999999940395,"outcome":0,"rocket_colors":["#955db9","#48a782"],"planet_colors":["#7f5d5d","#5f6f81"],"screen_resolution":[1920,1080],"minimum_resolution":1,"trial":82,"drifts":[0.307,0.553,0.256,0.373],"drift_ix":2,"trial_type":"two-step-trial","trial_index":114,"time_elapsed":650112,"internal_node_id":"0.0-95.0-0.0","task_version":"1.0","jspsych_version":"6.3.1","browser_interactions":0,"missing":false},{"state_1_ids":[0,1],"state_1_key":0,"state_1_choice":0,"state_1_rt":916.8999999761581,"transition":1,"state":0,"state_2_ids":[0,1],"state_2_key":1,"state_2_choice":1,"state_2_rt":686.5999999940395,"outcome":1,"rocket_colors":["#955db9","#48a782"],"planet_colors":["#7f5d5d","#5f6f81"],"screen_resolution":[1920,1080],"minimum_resolution":1,"trial":83,"drifts":[0.306,0.564,0.273,0.38],"drift_ix":2,"trial_type":"two-step-trial","trial_index":115,"time_elapsed":653720,"internal_node_id":"0.0-96.0-0.0","task_version":"1.0","jspsych_version":"6.3.1","browser_interactions":0,"missing":false},{"state_1_ids":[1,0],"state_1_key":0,"state_1_choice":1,"state_1_rt":773.0999999940395,"transition":0,"state":0,"state_2_ids":[0,1],"state_2_key":1,"state_2_choice":1,"state_2_rt":421.59999999403954,"outcome":0,"rocket_colors":["#955db9","#48a782"],"planet_colors":["#7f5d5d","#5f6f81"],"screen_resolution":[1920,1080],"minimum_resolution":1,"trial":84,"drifts":[0.263,0.564,0.275,0.397],"drift_ix":2,"trial_type":"two-step-trial","trial_index":116,"time_elapsed":656920,"internal_node_id":"0.0-97.0-0.0","task_version":"1.0","jspsych_version":"6.3.1","browser_interactions":0,"missing":false},{"state_1_ids":[1,0],"state_1_key":1,"state_1_choice":0,"state_1_rt":2380.5999999940395,"transition":1,"state":0,"state_2_ids":[0,1],"state_2_key":0,"state_2_choice":0,"state_2_rt":902.1999999880791,"outcome":1,"rocket_colors":["#955db9","#48a782"],"planet_colors":["#7f5d5d","#5f6f81"],"screen_resolution":[1920,1080],"minimum_resolution":1,"trial":85,"drifts":[0.295,0.592,0.3,0.406],"drift_ix":2,"trial_type":"two-step-trial","trial_index":117,"time_elapsed":662209,"internal_node_id":"0.0-98.0-0.0","task_version":"1.0","jspsych_version":"6.3.1","browser_interactions":0,"missing":false},{"state_1_ids":[0,1],"state_1_key":0,"state_1_choice":0,"state_1_rt":827.9000000059605,"transition":1,"state":0,"state_2_ids":[0,1],"state_2_key":1,"state_2_choice":1,"state_2_rt":1245.9000000059605,"outcome":0,"rocket_colors":["#955db9","#48a782"],"planet_colors":["#7f5d5d","#5f6f81"],"screen_resolution":[1920,1080],"minimum_resolution":1,"trial":86,"drifts":[0.266,0.571,0.324,0.417],"drift_ix":2,"trial_type":"two-step-trial","trial_index":118,"time_elapsed":666290,"internal_node_id":"0.0-99.0-0.0","task_version":"1.0","jspsych_version":"6.3.1","browser_interactions":0,"missing":false},{"state_1_ids":[1,0],"state_1_key":0,"state_1_choice":1,"state_1_rt":802.2000000178814,"transition":1,"state":1,"state_2_ids":[2,3],"state_2_key":1,"state_2_choice":3,"state_2_rt":494.80000001192093,"outcome":0,"rocket_colors":["#955db9","#48a782"],"planet_colors":["#7f5d5d","#5f6f81"],"screen_resolution":[1920,1080],"minimum_resolution":1,"trial":87,"drifts":[0.25,0.532,0.345,0.39],"drift_ix":2,"trial_type":"two-step-trial","trial_index":119,"time_elapsed":669593,"internal_node_id":"0.0-100.0-0.0","task_version":"1.0","jspsych_version":"6.3.1","browser_interactions":0,"missing":false},{"state_1_ids":[1,0],"state_1_key":1,"state_1_choice":0,"state_1_rt":731.3000000119209,"transition":1,"state":0,"state_2_ids":[0,1],"state_2_key":1,"state_2_choice":1,"state_2_rt":9350.800000011921,"outcome":1,"rocket_colors":["#955db9","#48a782"],"planet_colors":["#7f5d5d","#5f6f81"],"screen_resolution":[1920,1080],"minimum_resolution":1,"trial":88,"drifts":[0.258,0.529,0.341,0.378],"drift_ix":2,"trial_type":"two-step-trial","trial_index":120,"time_elapsed":681681,"internal_node_id":"0.0-101.0-0.0","task_version":"1.0","jspsych_version":"6.3.1","browser_interactions":0,"missing":false},{"state_1_ids":[0,1],"state_1_key":1,"state_1_choice":1,"state_1_rt":1690.5999999940395,"transition":1,"state":1,"state_2_ids":[2,3],"state_2_key":1,"state_2_choice":3,"state_2_rt":1582.7999999821186,"outcome":0,"rocket_colors":["#955db9","#48a782"],"planet_colors":["#7f5d5d","#5f6f81"],"screen_resolution":[1920,1080],"minimum_resolution":1,"trial":89,"drifts":[0.266,0.533,0.306,0.41],"drift_ix":2,"trial_type":"two-step-trial","trial_index":121,"time_elapsed":686961,"internal_node_id":"0.0-102.0-0.0","task_version":"1.0","jspsych_version":"6.3.1","browser_interactions":0,"missing":false},{"state_1_ids":[0,1],"state_1_key":1,"state_1_choice":1,"state_1_rt":979.5,"transition":1,"state":1,"state_2_ids":[2,3],"state_2_key":1,"state_2_choice":3,"state_2_rt":797.9000000059605,"outcome":0,"rocket_colors":["#955db9","#48a782"],"planet_colors":["#7f5d5d","#5f6f81"],"screen_resolution":[1920,1080],"minimum_resolution":1,"trial":90,"drifts":[0.254,0.554,0.297,0.382],"drift_ix":2,"trial_type":"two-step-trial","trial_index":122,"time_elapsed":690744,"internal_node_id":"0.0-103.0-0.0","task_version":"1.0","jspsych_version":"6.3.1","browser_interactions":0,"missing":false},{"state_1_ids":[0,1],"state_1_key":1,"state_1_choice":1,"state_1_rt":3644.300000011921,"transition":1,"state":1,"state_2_ids":[2,3],"state_2_key":0,"state_2_choice":2,"state_2_rt":1053.800000011921,"outcome":0,"rocket_colors":["#955db9","#48a782"],"planet_colors":["#7f5d5d","#5f6f81"],"screen_resolution":[1920,1080],"minimum_resolution":1,"trial":91,"drifts":[0.265,0.543,0.313,0.38],"drift_ix":2,"trial_type":"two-step-trial","trial_index":123,"time_elapsed":697448,"internal_node_id":"0.0-104.0-0.0","task_version":"1.0","jspsych_version":"6.3.1","browser_interactions":0,"missing":false},{"state_1_ids":[1,0],"state_1_key":1,"state_1_choice":0,"state_1_rt":325.80000001192093,"transition":0,"state":1,"state_2_ids":[2,3],"state_2_key":1,"state_2_choice":3,"state_2_rt":774.2999999821186,"outcome":0,"rocket_colors":["#955db9","#48a782"],"planet_colors":["#7f5d5d","#5f6f81"],"screen_resolution":[1920,1080],"minimum_resolution":1,"trial":92,"drifts":[0.259,0.54,0.279,0.363],"drift_ix":2,"trial_type":"two-step-trial","trial_index":124,"time_elapsed":700553,"internal_node_id":"0.0-105.0-0.0","task_version":"1.0","jspsych_version":"6.3.1","browser_interactions":0,"missing":false},{"state_1_ids":[0,1],"state_1_key":1,"state_1_choice":1,"state_1_rt":490.59999999403954,"transition":0,"state":0,"state_2_ids":[0,1],"state_2_key":0,"state_2_choice":0,"state_2_rt":943.5999999940395,"outcome":1,"rocket_colors":["#955db9","#48a782"],"planet_colors":["#7f5d5d","#5f6f81"],"screen_resolution":[1920,1080],"minimum_resolution":1,"trial":93,"drifts":[0.251,0.565,0.296,0.35],"drift_ix":2,"trial_type":"two-step-trial","trial_index":125,"time_elapsed":703993,"internal_node_id":"0.0-106.0-0.0","task_version":"1.0","jspsych_version":"6.3.1","browser_interactions":0,"missing":false},{"state_1_ids":[1,0],"state_1_key":1,"state_1_choice":0,"state_1_rt":1332,"transition":0,"state":1,"state_2_ids":[2,3],"state_2_key":1,"state_2_choice":3,"state_2_rt":1326.699999988079,"outcome":0,"rocket_colors":["#955db9","#48a782"],"planet_colors":["#7f5d5d","#5f6f81"],"screen_resolution":[1920,1080],"minimum_resolution":1,"trial":94,"drifts":[0.276,0.543,0.275,0.322],"drift_ix":2,"trial_type":"two-step-trial","trial_index":126,"time_elapsed":708657,"internal_node_id":"0.0-107.0-0.0","task_version":"1.0","jspsych_version":"6.3.1","browser_interactions":0,"missing":false},{"state_1_ids":[0,1],"state_1_key":1,"state_1_choice":1,"state_1_rt":955.5,"transition":1,"state":1,"state_2_ids":[2,3],"state_2_key":1,"state_2_choice":3,"state_2_rt":3839,"outcome":1,"rocket_colors":["#955db9","#48a782"],"planet_colors":["#7f5d5d","#5f6f81"],"screen_resolution":[1920,1080],"minimum_resolution":1,"trial":95,"drifts":[0.317,0.539,0.285,0.291],"drift_ix":2,"trial_type":"two-step-trial","trial_index":127,"time_elapsed":715457,"internal_node_id":"0.0-108.0-0.0","task_version":"1.0","jspsych_version":"6.3.1","browser_interactions":0,"missing":false},{"state_1_ids":[0,1],"state_1_key":1,"state_1_choice":1,"state_1_rt":1484.2000000178814,"transition":1,"state":1,"state_2_ids":[2,3],"state_2_key":1,"state_2_choice":3,"state_2_rt":405.09999999403954,"outcome":0,"rocket_colors":["#955db9","#48a782"],"planet_colors":["#7f5d5d","#5f6f81"],"screen_resolution":[1920,1080],"minimum_resolution":1,"trial":96,"drifts":[0.325,0.583,0.251,0.276],"drift_ix":2,"trial_type":"two-step-trial","trial_index":128,"time_elapsed":719353,"internal_node_id":"0.0-109.0-0.0","task_version":"1.0","jspsych_version":"6.3.1","browser_interactions":0,"missing":false},{"state_1_ids":[0,1],"state_1_key":1,"state_1_choice":1,"state_1_rt":3483.9000000059605,"transition":1,"state":1,"state_2_ids":[2,3],"state_2_key":1,"state_2_choice":3,"state_2_rt":518,"outcome":1,"rocket_colors":["#955db9","#48a782"],"planet_colors":["#7f5d5d","#5f6f81"],"screen_resolution":[1920,1080],"minimum_resolution":1,"trial":97,"drifts":[0.352,0.597,0.278,0.336],"drift_ix":2,"trial_type":"two-step-trial","trial_index":129,"time_elapsed":725361,"internal_node_id":"0.0-110.0-0.0","task_version":"1.0","jspsych_version":"6.3.1","browser_interactions":0,"missing":false},{"state_1_ids":[1,0],"state_1_key":null,"state_1_choice":null,"state_1_rt":null,"transition":1,"state":null,"state_2_ids":[0,1],"state_2_key":null,"state_2_choice":null,"state_2_rt":null,"outcome":null,"rocket_colors":["#955db9","#48a782"],"planet_colors":["#7f5d5d","#5f6f81"],"screen_resolution":[1920,1080],"minimum_resolution":1,"trial":98,"drifts":[0.369,0.601,0.316,0.324],"drift_ix":2,"trial_type":"two-step-trial","trial_index":130,"time_elapsed":740367,"internal_node_id":"0.0-111.0-0.0","task_version":"1.0","jspsych_version":"6.3.1","browser_interactions":0,"missing":true},{"state_1_ids":[0,1],"state_1_key":1,"state_1_choice":1,"state_1_rt":1157.699999988079,"transition":1,"state":1,"state_2_ids":[2,3],"state_2_key":1,"state_2_choice":3,"state_2_rt":438.5,"outcome":0,"rocket_colors":["#955db9","#48a782"],"planet_colors":["#7f5d5d","#5f6f81"],"screen_resolution":[1920,1080],"minimum_resolution":1,"trial":98,"drifts":[0.369,0.601,0.316,0.324],"drift_ix":2,"trial_type":"two-step-trial","trial_index":131,"time_elapsed":743978,"internal_node_id":"0.0-111.1-0.1","task_version":"1.0","jspsych_version":"6.3.1","browser_interactions":0,"missing":false},{"state_1_ids":[0,1],"state_1_key":1,"state_1_choice":1,"state_1_rt":690.0999999940395,"transition":1,"state":1,"state_2_ids":[2,3],"state_2_key":1,"state_2_choice":3,"state_2_rt":589.7999999821186,"outcome":1,"rocket_colors":["#955db9","#48a782"],"planet_colors":["#7f5d5d","#5f6f81"],"screen_resolution":[1920,1080],"minimum_resolution":1,"trial":99,"drifts":[0.338,0.574,0.29,0.307],"drift_ix":2,"trial_type":"two-step-trial","trial_index":132,"time_elapsed":747265,"internal_node_id":"0.0-112.0-0.0","task_version":"1.0","jspsych_version":"6.3.1","browser_interactions":0,"missing":false},{"state_1_ids":[0,1],"state_1_key":1,"state_1_choice":1,"state_1_rt":412.19999998807907,"transition":1,"state":1,"state_2_ids":[2,3],"state_2_key":1,"state_2_choice":3,"state_2_rt":413.90000000596046,"outcome":1,"rocket_colors":["#955db9","#48a782"],"planet_colors":["#7f5d5d","#5f6f81"],"screen_resolution":[1920,1080],"minimum_resolution":1,"trial":100,"drifts":[0.348,0.567,0.294,0.264],"drift_ix":2,"trial_type":"two-step-trial","trial_index":133,"time_elapsed":750097,"internal_node_id":"0.0-113.0-0.0","task_version":"1.0","jspsych_version":"6.3.1","browser_interactions":0,"missing":false},{"view_history":"[{\"page_index\":0,\"viewing_time\":60433},{\"page_index\":1,\"viewing_time\":3829.9000000059605}]","rt":64263.09999999404,"trial_type":"two-step-instructions","trial_index":134,"time_elapsed":814363,"internal_node_id":"0.0-114.0","task_version":"1.0","jspsych_version":"6.3.1"},{"state_1_ids":[1,0],"state_1_key":0,"state_1_choice":1,"state_1_rt":923.1000000238419,"transition":1,"state":1,"state_2_ids":[2,3],"state_2_key":0,"state_2_choice":2,"state_2_rt":582.5999999940395,"outcome":0,"rocket_colors":["#955db9","#48a782"],"planet_colors":["#7f5d5d","#5f6f81"],"screen_resolution":[1920,1080],"minimum_resolution":1,"trial":101,"drifts":[0.332,0.536,0.335,0.261],"drift_ix":2,"trial_type":"two-step-trial","trial_index":135,"time_elapsed":817873,"internal_node_id":"0.0-115.0-0.0","task_version":"1.0","jspsych_version":"6.3.1","browser_interactions":0,"missing":false},{"state_1_ids":[0,1],"state_1_key":0,"state_1_choice":0,"state_1_rt":355.5,"transition":1,"state":0,"state_2_ids":[0,1],"state_2_key":0,"state_2_choice":0,"state_2_rt":334,"outcome":0,"rocket_colors":["#955db9","#48a782"],"planet_colors":["#7f5d5d","#5f6f81"],"screen_resolution":[1920,1080],"minimum_resolution":1,"trial":102,"drifts":[0.331,0.521,0.359,0.268],"drift_ix":2,"trial_type":"two-step-trial","trial_index":136,"time_elapsed":820573,"internal_node_id":"0.0-116.0-0.0","task_version":"1.0","jspsych_version":"6.3.1","browser_interactions":0,"missing":false},{"state_1_ids":[0,1],"state_1_key":0,"state_1_choice":0,"state_1_rt":463.59999999403954,"transition":0,"state":1,"state_2_ids":[2,3],"state_2_key":0,"state_2_choice":2,"state_2_rt":375.39999997615814,"outcome":0,"rocket_colors":["#955db9","#48a782"],"planet_colors":["#7f5d5d","#5f6f81"],"screen_resolution":[1920,1080],"minimum_resolution":1,"trial":103,"drifts":[0.317,0.518,0.371,0.309],"drift_ix":2,"trial_type":"two-step-trial","trial_index":137,"time_elapsed":823417,"internal_node_id":"0.0-117.0-0.0","task_version":"1.0","jspsych_version":"6.3.1","browser_interactions":0,"missing":false},{"state_1_ids":[1,0],"state_1_key":0,"state_1_choice":1,"state_1_rt":387.5,"transition":0,"state":0,"state_2_ids":[0,1],"state_2_key":0,"state_2_choice":0,"state_2_rt":662.5,"outcome":0,"rocket_colors":["#955db9","#48a782"],"planet_colors":["#7f5d5d","#5f6f81"],"screen_resolution":[1920,1080],"minimum_resolution":1,"trial":104,"drifts":[0.334,0.493,0.341,0.296],"drift_ix":2,"trial_type":"two-step-trial","trial_index":138,"time_elapsed":826473,"internal_node_id":"0.0-118.0-0.0","task_version":"1.0","jspsych_version":"6.3.1","browser_interactions":0,"missing":false},{"state_1_ids":[1,0],"state_1_key":0,"state_1_choice":1,"state_1_rt":428.10000002384186,"transition":0,"state":0,"state_2_ids":[0,1],"state_2_key":1,"state_2_choice":1,"state_2_rt":430.19999998807907,"outcome":0,"rocket_colors":["#955db9","#48a782"],"planet_colors":["#7f5d5d","#5f6f81"],"screen_resolution":[1920,1080],"minimum_resolution":1,"trial":105,"drifts":[0.349,0.494,0.34,0.27],"drift_ix":2,"trial_type":"two-step-trial","trial_index":139,"time_elapsed":829337,"internal_node_id":"0.0-119.0-0.0","task_version":"1.0","jspsych_version":"6.3.1","browser_interactions":0,"missing":false},{"state_1_ids":[0,1],"state_1_key":0,"state_1_choice":0,"state_1_rt":500,"transition":1,"state":0,"state_2_ids":[0,1],"state_2_key":1,"state_2_choice":1,"state_2_rt":334,"outcome":0,"rocket_colors":["#955db9","#48a782"],"planet_colors":["#7f5d5d","#5f6f81"],"screen_resolution":[1920,1080],"minimum_resolution":1,"trial":106,"drifts":[0.302,0.497,0.307,0.282],"drift_ix":2,"trial_type":"two-step-trial","trial_index":140,"time_elapsed":832176,"internal_node_id":"0.0-120.0-0.0","task_version":"1.0","jspsych_version":"6.3.1","browser_interactions":0,"missing":false},{"state_1_ids":[0,1],"state_1_key":0,"state_1_choice":0,"state_1_rt":356.7999999821186,"transition":1,"state":0,"state_2_ids":[0,1],"state_2_key":1,"state_2_choice":1,"state_2_rt":366.60000002384186,"outcome":1,"rocket_colors":["#955db9","#48a782"],"planet_colors":["#7f5d5d","#5f6f81"],"screen_resolution":[1920,1080],"minimum_resolution":1,"trial":107,"drifts":[0.336,0.523,0.294,0.315],"drift_ix":2,"trial_type":"two-step-trial","trial_index":141,"time_elapsed":834905,"internal_node_id":"0.0-121.0-0.0","task_version":"1.0","jspsych_version":"6.3.1","browser_interactions":0,"missing":false},{"state_1_ids":[1,0],"state_1_key":1,"state_1_choice":0,"state_1_rt":779.5999999940395,"transition":0,"state":1,"state_2_ids":[2,3],"state_2_key":1,"state_2_choice":3,"state_2_rt":358.5,"outcome":0,"rocket_colors":["#955db9","#48a782"],"planet_colors":["#7f5d5d","#5f6f81"],"screen_resolution":[1920,1080],"minimum_resolution":1,"trial":108,"drifts":[0.381,0.482,0.317,0.324],"drift_ix":2,"trial_type":"two-step-trial","trial_index":142,"time_elapsed":838050,"internal_node_id":"0.0-122.0-0.0","task_version":"1.0","jspsych_version":"6.3.1","browser_interactions":0,"missing":false},{"state_1_ids":[1,0],"state_1_key":1,"state_1_choice":0,"state_1_rt":507,"transition":1,"state":0,"state_2_ids":[0,1],"state_2_key":0,"state_2_choice":0,"state_2_rt":390.90000000596046,"outcome":0,"rocket_colors":["#955db9","#48a782"],"planet_colors":["#7f5d5d","#5f6f81"],"screen_resolution":[1920,1080],"minimum_resolution":1,"trial":109,"drifts":[0.342,0.505,0.32,0.33],"drift_ix":2,"trial_type":"two-step-trial","trial_index":143,"time_elapsed":840953,"internal_node_id":"0.0-123.0-0.0","task_version":"1.0","jspsych_version":"6.3.1","browser_interactions":0,"missing":false},{"state_1_ids":[1,0],"state_1_key":1,"state_1_choice":0,"state_1_rt":387.60000002384186,"transition":1,"state":0,"state_2_ids":[0,1],"state_2_key":1,"state_2_choice":1,"state_2_rt":358,"outcome":1,"rocket_colors":["#955db9","#48a782"],"planet_colors":["#7f5d5d","#5f6f81"],"screen_resolution":[1920,1080],"minimum_resolution":1,"trial":110,"drifts":[0.337,0.526,0.318,0.349],"drift_ix":2,"trial_type":"two-step-trial","trial_index":144,"time_elapsed":843705,"internal_node_id":"0.0-124.0-0.0","task_version":"1.0","jspsych_version":"6.3.1","browser_interactions":0,"missing":false},{"state_1_ids":[0,1],"state_1_key":1,"state_1_choice":1,"state_1_rt":341.90000000596046,"transition":1,"state":1,"state_2_ids":[2,3],"state_2_key":1,"state_2_choice":3,"state_2_rt":342.7000000178814,"outcome":0,"rocket_colors":["#955db9","#48a782"],"planet_colors":["#7f5d5d","#5f6f81"],"screen_resolution":[1920,1080],"minimum_resolution":1,"trial":111,"drifts":[0.374,0.551,0.269,0.35],"drift_ix":2,"trial_type":"two-step-trial","trial_index":145,"time_elapsed":846394,"internal_node_id":"0.0-125.0-0.0","task_version":"1.0","jspsych_version":"6.3.1","browser_interactions":0,"missing":false},{"state_1_ids":[0,1],"state_1_key":1,"state_1_choice":1,"state_1_rt":515,"transition":1,"state":1,"state_2_ids":[2,3],"state_2_key":0,"state_2_choice":2,"state_2_rt":438.10000002384186,"outcome":0,"rocket_colors":["#955db9","#48a782"],"planet_colors":["#7f5d5d","#5f6f81"],"screen_resolution":[1920,1080],"minimum_resolution":1,"trial":112,"drifts":[0.355,0.517,0.255,0.331],"drift_ix":2,"trial_type":"two-step-trial","trial_index":146,"time_elapsed":849353,"internal_node_id":"0.0-126.0-0.0","task_version":"1.0","jspsych_version":"6.3.1","browser_interactions":0,"missing":false},{"state_1_ids":[1,0],"state_1_key":1,"state_1_choice":0,"state_1_rt":372,"transition":1,"state":0,"state_2_ids":[0,1],"state_2_key":1,"state_2_choice":1,"state_2_rt":293.40000000596046,"outcome":1,"rocket_colors":["#955db9","#48a782"],"planet_colors":["#7f5d5d","#5f6f81"],"screen_resolution":[1920,1080],"minimum_resolution":1,"trial":113,"drifts":[0.331,0.507,0.283,0.271],"drift_ix":2,"trial_type":"two-step-trial","trial_index":147,"time_elapsed":852026,"internal_node_id":"0.0-127.0-0.0","task_version":"1.0","jspsych_version":"6.3.1","browser_interactions":0,"missing":false},{"state_1_ids":[1,0],"state_1_key":1,"state_1_choice":0,"state_1_rt":491,"transition":1,"state":0,"state_2_ids":[0,1],"state_2_key":1,"state_2_choice":1,"state_2_rt":310.10000002384186,"outcome":1,"rocket_colors":["#955db9","#48a782"],"planet_colors":["#7f5d5d","#5f6f81"],"screen_resolution":[1920,1080],"minimum_resolution":1,"trial":114,"drifts":[0.326,0.467,0.284,0.267],"drift_ix":2,"trial_type":"two-step-trial","trial_index":148,"time_elapsed":854833,"internal_node_id":"0.0-128.0-0.0","task_version":"1.0","jspsych_version":"6.3.1","browser_interactions":0,"missing":false},{"state_1_ids":[1,0],"state_1_key":1,"state_1_choice":0,"state_1_rt":427,"transition":1,"state":0,"state_2_ids":[0,1],"state_2_key":1,"state_2_choice":1,"state_2_rt":335.19999998807907,"outcome":0,"rocket_colors":["#955db9","#48a782"],"planet_colors":["#7f5d5d","#5f6f81"],"screen_resolution":[1920,1080],"minimum_resolution":1,"trial":115,"drifts":[0.313,0.494,0.291,0.251],"drift_ix":2,"trial_type":"two-step-trial","trial_index":149,"time_elapsed":857601,"internal_node_id":"0.0-129.0-0.0","task_version":"1.0","jspsych_version":"6.3.1","browser_interactions":0,"missing":false},{"state_1_ids":[0,1],"state_1_key":1,"state_1_choice":1,"state_1_rt":339.60000002384186,"transition":1,"state":1,"state_2_ids":[2,3],"state_2_key":1,"state_2_choice":3,"state_2_rt":326.19999998807907,"outcome":0,"rocket_colors":["#955db9","#48a782"],"planet_colors":["#7f5d5d","#5f6f81"],"screen_resolution":[1920,1080],"minimum_resolution":1,"trial":116,"drifts":[0.319,0.494,0.296,0.273],"drift_ix":2,"trial_type":"two-step-trial","trial_index":150,"time_elapsed":860272,"internal_node_id":"0.0-130.0-0.0","task_version":"1.0","jspsych_version":"6.3.1","browser_interactions":0,"missing":false},{"state_1_ids":[0,1],"state_1_key":1,"state_1_choice":1,"state_1_rt":358,"transition":1,"state":1,"state_2_ids":[2,3],"state_2_key":1,"state_2_choice":3,"state_2_rt":326.2000000178814,"outcome":1,"rocket_colors":["#955db9","#48a782"],"planet_colors":["#7f5d5d","#5f6f81"],"screen_resolution":[1920,1080],"minimum_resolution":1,"trial":117,"drifts":[0.297,0.492,0.312,0.277],"drift_ix":2,"trial_type":"two-step-trial","trial_index":151,"time_elapsed":862961,"internal_node_id":"0.0-131.0-0.0","task_version":"1.0","jspsych_version":"6.3.1","browser_interactions":0,"missing":false},{"state_1_ids":[0,1],"state_1_key":1,"state_1_choice":1,"state_1_rt":468.09999999403954,"transition":0,"state":0,"state_2_ids":[0,1],"state_2_key":1,"state_2_choice":1,"state_2_rt":343.09999999403954,"outcome":1,"rocket_colors":["#955db9","#48a782"],"planet_colors":["#7f5d5d","#5f6f81"],"screen_resolution":[1920,1080],"minimum_resolution":1,"trial":118,"drifts":[0.288,0.513,0.36,0.275],"drift_ix":2,"trial_type":"two-step-trial","trial_index":152,"time_elapsed":865778,"internal_node_id":"0.0-132.0-0.0","task_version":"1.0","jspsych_version":"6.3.1","browser_interactions":0,"missing":false},{"state_1_ids":[0,1],"state_1_key":1,"state_1_choice":1,"state_1_rt":435.59999999403954,"transition":1,"state":1,"state_2_ids":[2,3],"state_2_key":1,"state_2_choice":3,"state_2_rt":244.5,"outcome":0,"rocket_colors":["#955db9","#48a782"],"planet_colors":["#7f5d5d","#5f6f81"],"screen_resolution":[1920,1080],"minimum_resolution":1,"trial":119,"drifts":[0.304,0.552,0.392,0.266],"drift_ix":2,"trial_type":"two-step-trial","trial_index":153,"time_elapsed":868464,"internal_node_id":"0.0-133.0-0.0","task_version":"1.0","jspsych_version":"6.3.1","browser_interactions":0,"missing":false},{"state_1_ids":[0,1],"state_1_key":1,"state_1_choice":1,"state_1_rt":405.69999998807907,"transition":1,"state":1,"state_2_ids":[2,3],"state_2_key":1,"state_2_choice":3,"state_2_rt":351.30000001192093,"outcome":1,"rocket_colors":["#955db9","#48a782"],"planet_colors":["#7f5d5d","#5f6f81"],"screen_resolution":[1920,1080],"minimum_resolution":1,"trial":120,"drifts":[0.295,0.538,0.367,0.253],"drift_ix":2,"trial_type":"two-step-trial","trial_index":154,"time_elapsed":871225,"internal_node_id":"0.0-134.0-0.0","task_version":"1.0","jspsych_version":"6.3.1","browser_interactions":0,"missing":false},{"state_1_ids":[1,0],"state_1_key":1,"state_1_choice":0,"state_1_rt":259.60000002384186,"transition":1,"state":0,"state_2_ids":[0,1],"state_2_key":1,"state_2_choice":1,"state_2_rt":421.59999999403954,"outcome":0,"rocket_colors":["#955db9","#48a782"],"planet_colors":["#7f5d5d","#5f6f81"],"screen_resolution":[1920,1080],"minimum_resolution":1,"trial":121,"drifts":[0.268,0.49,0.389,0.267],"drift_ix":2,"trial_type":"two-step-trial","trial_index":155,"time_elapsed":873912,"internal_node_id":"0.0-135.0-0.0","task_version":"1.0","jspsych_version":"6.3.1","browser_interactions":0,"missing":false},{"state_1_ids":[1,0],"state_1_key":1,"state_1_choice":0,"state_1_rt":284.30000001192093,"transition":1,"state":0,"state_2_ids":[0,1],"state_2_key":1,"state_2_choice":1,"state_2_rt":319,"outcome":0,"rocket_colors":["#955db9","#48a782"],"planet_colors":["#7f5d5d","#5f6f81"],"screen_resolution":[1920,1080],"minimum_resolution":1,"trial":122,"drifts":[0.292,0.548,0.366,0.262],"drift_ix":2,"trial_type":"two-step-trial","trial_index":156,"time_elapsed":876521,"internal_node_id":"0.0-136.0-0.0","task_version":"1.0","jspsych_version":"6.3.1","browser_interactions":0,"missing":false},{"state_1_ids":[1,0],"state_1_key":1,"state_1_choice":0,"state_1_rt":443.59999999403954,"transition":0,"state":1,"state_2_ids":[2,3],"state_2_key":1,"state_2_choice":3,"state_2_rt":374.5,"outcome":1,"rocket_colors":["#955db9","#48a782"],"planet_colors":["#7f5d5d","#5f6f81"],"screen_resolution":[1920,1080],"minimum_resolution":1,"trial":123,"drifts":[0.287,0.579,0.38,0.276],"drift_ix":2,"trial_type":"two-step-trial","trial_index":157,"time_elapsed":879345,"internal_node_id":"0.0-137.0-0.0","task_version":"1.0","jspsych_version":"6.3.1","browser_interactions":0,"missing":false},{"state_1_ids":[1,0],"state_1_key":1,"state_1_choice":0,"state_1_rt":380.69999998807907,"transition":1,"state":0,"state_2_ids":[0,1],"state_2_key":1,"state_2_choice":1,"state_2_rt":134.5,"outcome":1,"rocket_colors":["#955db9","#48a782"],"planet_colors":["#7f5d5d","#5f6f81"],"screen_resolution":[1920,1080],"minimum_resolution":1,"trial":124,"drifts":[0.296,0.64,0.405,0.262],"drift_ix":2,"trial_type":"two-step-trial","trial_index":158,"time_elapsed":881864,"internal_node_id":"0.0-138.0-0.0","task_version":"1.0","jspsych_version":"6.3.1","browser_interactions":0,"missing":false},{"state_1_ids":[0,1],"state_1_key":1,"state_1_choice":1,"state_1_rt":316.30000001192093,"transition":1,"state":1,"state_2_ids":[2,3],"state_2_key":1,"state_2_choice":3,"state_2_rt":279,"outcome":0,"rocket_colors":["#955db9","#48a782"],"planet_colors":["#7f5d5d","#5f6f81"],"screen_resolution":[1920,1080],"minimum_resolution":1,"trial":125,"drifts":[0.25,0.637,0.448,0.25],"drift_ix":2,"trial_type":"two-step-trial","trial_index":159,"time_elapsed":884464,"internal_node_id":"0.0-139.0-0.0","task_version":"1.0","jspsych_version":"6.3.1","browser_interactions":0,"missing":false},{"state_1_ids":[0,1],"state_1_key":1,"state_1_choice":1,"state_1_rt":285,"transition":1,"state":1,"state_2_ids":[2,3],"state_2_key":1,"state_2_choice":3,"state_2_rt":344,"outcome":0,"rocket_colors":["#955db9","#48a782"],"planet_colors":["#7f5d5d","#5f6f81"],"screen_resolution":[1920,1080],"minimum_resolution":1,"trial":126,"drifts":[0.255,0.666,0.447,0.257],"drift_ix":2,"trial_type":"two-step-trial","trial_index":160,"time_elapsed":887096,"internal_node_id":"0.0-140.0-0.0","task_version":"1.0","jspsych_version":"6.3.1","browser_interactions":0,"missing":false},{"state_1_ids":[1,0],"state_1_key":1,"state_1_choice":0,"state_1_rt":316.19999998807907,"transition":0,"state":1,"state_2_ids":[2,3],"state_2_key":1,"state_2_choice":3,"state_2_rt":373.80000001192093,"outcome":0,"rocket_colors":["#955db9","#48a782"],"planet_colors":["#7f5d5d","#5f6f81"],"screen_resolution":[1920,1080],"minimum_resolution":1,"trial":127,"drifts":[0.281,0.695,0.433,0.272],"drift_ix":2,"trial_type":"two-step-trial","trial_index":161,"time_elapsed":889792,"internal_node_id":"0.0-141.0-0.0","task_version":"1.0","jspsych_version":"6.3.1","browser_interactions":0,"missing":false},{"state_1_ids":[1,0],"state_1_key":1,"state_1_choice":0,"state_1_rt":275.90000000596046,"transition":0,"state":1,"state_2_ids":[2,3],"state_2_key":1,"state_2_choice":3,"state_2_rt":349,"outcome":0,"rocket_colors":["#955db9","#48a782"],"planet_colors":["#7f5d5d","#5f6f81"],"screen_resolution":[1920,1080],"minimum_resolution":1,"trial":128,"drifts":[0.277,0.667,0.42,0.278],"drift_ix":2,"trial_type":"two-step-trial","trial_index":162,"time_elapsed":892423,"internal_node_id":"0.0-142.0-0.0","task_version":"1.0","jspsych_version":"6.3.1","browser_interactions":0,"missing":false},{"state_1_ids":[1,0],"state_1_key":1,"state_1_choice":0,"state_1_rt":397.30000001192093,"transition":1,"state":0,"state_2_ids":[0,1],"state_2_key":0,"state_2_choice":0,"state_2_rt":390.5,"outcome":0,"rocket_colors":["#955db9","#48a782"],"planet_colors":["#7f5d5d","#5f6f81"],"screen_resolution":[1920,1080],"minimum_resolution":1,"trial":129,"drifts":[0.318,0.661,0.46,0.294],"drift_ix":2,"trial_type":"two-step-trial","trial_index":163,"time_elapsed":895216,"internal_node_id":"0.0-143.0-0.0","task_version":"1.0","jspsych_version":"6.3.1","browser_interactions":0,"missing":false},{"state_1_ids":[0,1],"state_1_key":1,"state_1_choice":1,"state_1_rt":372.30000001192093,"transition":1,"state":1,"state_2_ids":[2,3],"state_2_key":0,"state_2_choice":2,"state_2_rt":405.7999999821186,"outcome":0,"rocket_colors":["#955db9","#48a782"],"planet_colors":["#7f5d5d","#5f6f81"],"screen_resolution":[1920,1080],"minimum_resolution":1,"trial":130,"drifts":[0.306,0.677,0.461,0.259],"drift_ix":2,"trial_type":"two-step-trial","trial_index":164,"time_elapsed":898000,"internal_node_id":"0.0-144.0-0.0","task_version":"1.0","jspsych_version":"6.3.1","browser_interactions":0,"missing":false},{"state_1_ids":[0,1],"state_1_key":1,"state_1_choice":1,"state_1_rt":340.2999999821186,"transition":0,"state":0,"state_2_ids":[0,1],"state_2_key":1,"state_2_choice":1,"state_2_rt":333.40000000596046,"outcome":0,"rocket_colors":["#955db9","#48a782"],"planet_colors":["#7f5d5d","#5f6f81"],"screen_resolution":[1920,1080],"minimum_resolution":1,"trial":131,"drifts":[0.35,0.655,0.474,0.278],"drift_ix":2,"trial_type":"two-step-trial","trial_index":165,"time_elapsed":900680,"internal_node_id":"0.0-145.0-0.0","task_version":"1.0","jspsych_version":"6.3.1","browser_interactions":0,"missing":false},{"state_1_ids":[0,1],"state_1_key":1,"state_1_choice":1,"state_1_rt":373.09999999403954,"transition":1,"state":1,"state_2_ids":[2,3],"state_2_key":1,"state_2_choice":3,"state_2_rt":446.30000001192093,"outcome":0,"rocket_colors":["#955db9","#48a782"],"planet_colors":["#7f5d5d","#5f6f81"],"screen_resolution":[1920,1080],"minimum_resolution":1,"trial":132,"drifts":[0.352,0.663,0.445,0.297],"drift_ix":2,"trial_type":"two-step-trial","trial_index":166,"time_elapsed":903504,"internal_node_id":"0.0-146.0-0.0","task_version":"1.0","jspsych_version":"6.3.1","browser_interactions":0,"missing":false},{"state_1_ids":[1,0],"state_1_key":1,"state_1_choice":0,"state_1_rt":395.7000000178814,"transition":1,"state":0,"state_2_ids":[0,1],"state_2_key":1,"state_2_choice":1,"state_2_rt":495,"outcome":1,"rocket_colors":["#955db9","#48a782"],"planet_colors":["#7f5d5d","#5f6f81"],"screen_resolution":[1920,1080],"minimum_resolution":1,"trial":133,"drifts":[0.374,0.662,0.412,0.314],"drift_ix":2,"trial_type":"two-step-trial","trial_index":167,"time_elapsed":906400,"internal_node_id":"0.0-147.0-0.0","task_version":"1.0","jspsych_version":"6.3.1","browser_interactions":0,"missing":false},{"state_1_ids":[1,0],"state_1_key":1,"state_1_choice":0,"state_1_rt":371.60000002384186,"transition":1,"state":0,"state_2_ids":[0,1],"state_2_key":1,"state_2_choice":1,"state_2_rt":374.80000001192093,"outcome":1,"rocket_colors":["#955db9","#48a782"],"planet_colors":["#7f5d5d","#5f6f81"],"screen_resolution":[1920,1080],"minimum_resolution":1,"trial":134,"drifts":[0.405,0.666,0.424,0.315],"drift_ix":2,"trial_type":"two-step-trial","trial_index":168,"time_elapsed":909168,"internal_node_id":"0.0-148.0-0.0","task_version":"1.0","jspsych_version":"6.3.1","browser_interactions":0,"missing":false},{"state_1_ids":[0,1],"state_1_key":1,"state_1_choice":1,"state_1_rt":525,"transition":1,"state":1,"state_2_ids":[2,3],"state_2_key":1,"state_2_choice":3,"state_2_rt":326.5,"outcome":1,"rocket_colors":["#955db9","#48a782"],"planet_colors":["#7f5d5d","#5f6f81"],"screen_resolution":[1920,1080],"minimum_resolution":1,"trial":135,"drifts":[0.43,0.696,0.452,0.345],"drift_ix":2,"trial_type":"two-step-trial","trial_index":169,"time_elapsed":912024,"internal_node_id":"0.0-149.0-0.0","task_version":"1.0","jspsych_version":"6.3.1","browser_interactions":0,"missing":false},{"state_1_ids":[0,1],"state_1_key":1,"state_1_choice":1,"state_1_rt":444.30000001192093,"transition":1,"state":1,"state_2_ids":[2,3],"state_2_key":1,"state_2_choice":3,"state_2_rt":348.89999997615814,"outcome":0,"rocket_colors":["#955db9","#48a782"],"planet_colors":["#7f5d5d","#5f6f81"],"screen_resolution":[1920,1080],"minimum_resolution":1,"trial":136,"drifts":[0.426,0.681,0.444,0.337],"drift_ix":2,"trial_type":"two-step-trial","trial_index":170,"time_elapsed":914824,"internal_node_id":"0.0-150.0-0.0","task_version":"1.0","jspsych_version":"6.3.1","browser_interactions":0,"missing":false},{"state_1_ids":[0,1],"state_1_key":1,"state_1_choice":1,"state_1_rt":388.09999999403954,"transition":1,"state":1,"state_2_ids":[2,3],"state_2_key":1,"state_2_choice":3,"state_2_rt":302.7000000178814,"outcome":0,"rocket_colors":["#955db9","#48a782"],"planet_colors":["#7f5d5d","#5f6f81"],"screen_resolution":[1920,1080],"minimum_resolution":1,"trial":137,"drifts":[0.411,0.674,0.45,0.299],"drift_ix":2,"trial_type":"two-step-trial","trial_index":171,"time_elapsed":917521,"internal_node_id":"0.0-151.0-0.0","task_version":"1.0","jspsych_version":"6.3.1","browser_interactions":0,"missing":false},{"state_1_ids":[1,0],"state_1_key":1,"state_1_choice":0,"state_1_rt":507.5,"transition":1,"state":0,"state_2_ids":[0,1],"state_2_key":1,"state_2_choice":1,"state_2_rt":254.5,"outcome":1,"rocket_colors":["#955db9","#48a782"],"planet_colors":["#7f5d5d","#5f6f81"],"screen_resolution":[1920,1080],"minimum_resolution":1,"trial":138,"drifts":[0.414,0.699,0.459,0.339],"drift_ix":2,"trial_type":"two-step-trial","trial_index":172,"time_elapsed":920288,"internal_node_id":"0.0-152.0-0.0","task_version":"1.0","jspsych_version":"6.3.1","browser_interactions":0,"missing":false},{"state_1_ids":[0,1],"state_1_key":1,"state_1_choice":1,"state_1_rt":492,"transition":1,"state":1,"state_2_ids":[2,3],"state_2_key":1,"state_2_choice":3,"state_2_rt":398.90000000596046,"outcome":0,"rocket_colors":["#955db9","#48a782"],"planet_colors":["#7f5d5d","#5f6f81"],"screen_resolution":[1920,1080],"minimum_resolution":1,"trial":139,"drifts":[0.394,0.734,0.462,0.307],"drift_ix":2,"trial_type":"two-step-trial","trial_index":173,"time_elapsed":923185,"internal_node_id":"0.0-153.0-0.0","task_version":"1.0","jspsych_version":"6.3.1","browser_interactions":0,"missing":false},{"state_1_ids":[0,1],"state_1_key":1,"state_1_choice":1,"state_1_rt":467.5,"transition":0,"state":0,"state_2_ids":[0,1],"state_2_key":1,"state_2_choice":1,"state_2_rt":333.90000000596046,"outcome":1,"rocket_colors":["#955db9","#48a782"],"planet_colors":["#7f5d5d","#5f6f81"],"screen_resolution":[1920,1080],"minimum_resolution":1,"trial":140,"drifts":[0.361,0.693,0.467,0.292],"drift_ix":2,"trial_type":"two-step-trial","trial_index":174,"time_elapsed":925992,"internal_node_id":"0.0-154.0-0.0","task_version":"1.0","jspsych_version":"6.3.1","browser_interactions":0,"missing":false},{"state_1_ids":[1,0],"state_1_key":1,"state_1_choice":0,"state_1_rt":379.5,"transition":1,"state":0,"state_2_ids":[0,1],"state_2_key":1,"state_2_choice":1,"state_2_rt":333.90000000596046,"outcome":1,"rocket_colors":["#955db9","#48a782"],"planet_colors":["#7f5d5d","#5f6f81"],"screen_resolution":[1920,1080],"minimum_resolution":1,"trial":141,"drifts":[0.354,0.722,0.46,0.26],"drift_ix":2,"trial_type":"two-step-trial","trial_index":175,"time_elapsed":928711,"internal_node_id":"0.0-155.0-0.0","task_version":"1.0","jspsych_version":"6.3.1","browser_interactions":0,"missing":false},{"state_1_ids":[1,0],"state_1_key":1,"state_1_choice":0,"state_1_rt":380.90000000596046,"transition":1,"state":0,"state_2_ids":[0,1],"state_2_key":1,"state_2_choice":1,"state_2_rt":318.30000001192093,"outcome":1,"rocket_colors":["#955db9","#48a782"],"planet_colors":["#7f5d5d","#5f6f81"],"screen_resolution":[1920,1080],"minimum_resolution":1,"trial":142,"drifts":[0.353,0.749,0.428,0.301],"drift_ix":2,"trial_type":"two-step-trial","trial_index":176,"time_elapsed":931417,"internal_node_id":"0.0-156.0-0.0","task_version":"1.0","jspsych_version":"6.3.1","browser_interactions":0,"missing":false},{"state_1_ids":[1,0],"state_1_key":1,"state_1_choice":0,"state_1_rt":500.09999999403954,"transition":1,"state":0,"state_2_ids":[0,1],"state_2_key":1,"state_2_choice":1,"state_2_rt":302.2000000178814,"outcome":1,"rocket_colors":["#955db9","#48a782"],"planet_colors":["#7f5d5d","#5f6f81"],"screen_resolution":[1920,1080],"minimum_resolution":1,"trial":143,"drifts":[0.361,0.73,0.409,0.316],"drift_ix":2,"trial_type":"two-step-trial","trial_index":177,"time_elapsed":934225,"internal_node_id":"0.0-157.0-0.0","task_version":"1.0","jspsych_version":"6.3.1","browser_interactions":0,"missing":false},{"state_1_ids":[1,0],"state_1_key":1,"state_1_choice":0,"state_1_rt":403.60000002384186,"transition":1,"state":0,"state_2_ids":[0,1],"state_2_key":1,"state_2_choice":1,"state_2_rt":302.40000000596046,"outcome":0,"rocket_colors":["#955db9","#48a782"],"planet_colors":["#7f5d5d","#5f6f81"],"screen_resolution":[1920,1080],"minimum_resolution":1,"trial":144,"drifts":[0.295,0.721,0.424,0.316],"drift_ix":2,"trial_type":"two-step-trial","trial_index":178,"time_