[{"success":true,"timeout":false,"failed_images":[],"failed_audio":[],"failed_video":[],"trial_type":"preload","trial_index":0,"time_elapsed":1865,"internal_node_id":"0.0-0.0","task_version":"1.0","jspsych_version":"6.3.1"},{"success":true,"trial_type":"fullscreen","trial_index":1,"time_elapsed":8366,"internal_node_id":"0.0-1.0","task_version":"1.0","jspsych_version":"6.3.1"},{"view_history":[{"page_index":0,"viewing_time":5786}],"rt":5786.9000000059605,"trial_type":"instructions","trial_index":2,"time_elapsed":14157,"internal_node_id":"0.0-2.0","task_version":"1.0","jspsych_version":"6.3.1"},{"responses":{"Q03":"0","Q06":"0","Q02":"0","Q04":"0","Q07":"0","Q08":"0","Q01":"0","Q05":"1"},"rt":57393.10000000149,"item_order":[2,5,1,3,6,7,0,4],"radio_events":[8735.5,16791.20000000298,24014.70000000298,30783,33455.39999999851,39094.89999999851,50814.80000000447,55736.10000000149],"key_events":[],"mouse_events":[0.7000000029802322,8735.5,16791.20000000298,24014.70000000298,30783,33455.39999999851,39094.89999999851,50814.80000000447,55736.10000000149,57391.20000000298],"straightlining":0.875,"zigzagging":0.14285714285714285,"honeypot":0,"survey":"depression","trial_type":"survey-template","trial_index":3,"time_elapsed":71560,"internal_node_id":"0.0-3.0","task_version":"1.0","jspsych_version":"6.3.1"},{"responses":{"Q02":"0","Q03":"0","Q04":"1","Q06":"1","Q08":"0","Q05":"1","Q01":"0","Q07":"0"},"rt":32602.30000000447,"item_order":[1,2,3,5,7,4,0,6],"radio_events":[4137.20000000298,6913.30000000447,9409.20000000298,13361.60000000149,17817.60000000149,20161.20000000298,26577.20000000298,30960.70000000298],"key_events":[],"mouse_events":[4137.20000000298,6913.30000000447,9409.20000000298,11569.39999999851,13361.60000000149,17817.60000000149,20161.20000000298,23993.5,26577.20000000298,27713.20000000298,30960.70000000298,32601.20000000298],"straightlining":0.625,"zigzagging":0.5714285714285714,"honeypot":0,"survey":"anxiety","trial_type":"survey-template","trial_index":4,"time_elapsed":104166,"internal_node_id":"0.0-4.0","task_version":"1.0","jspsych_version":"6.3.1"},{"responses":{"Q04":"2","Q03":"1","Q05":"0","Q02":"1","Q01":"2","Q06":"1","Q07":"6"},"rt":24282.70000000298,"item_order":[3,2,4,1,0,5,6],"radio_events":[5505.5,7497.60000000149,12329.60000000149,14713.5,17698.10000000149,20513.39999999851,23345.10000000149],"key_events":[],"mouse_events":[5505.5,7497.60000000149,12329.60000000149,14713.5,17698.10000000149,20513.39999999851,23345.10000000149,24281.5],"straightlining":0.42857142857142855,"zigzagging":0.8333333333333334,"honeypot":0,"survey":"greed","trial_type":"survey-template","trial_index":5,"time_elapsed":128453,"internal_node_id":"0.0-5.0","task_version":"1.0","jspsych_version":"6.3.1"},{"responses":{"Q05":"5","Q02":"5","Q07":"3","Q06":"5","Q04":"5","Q03":"6","Q01":"6"},"rt":17140.5,"item_order":[4,1,6,5,3,2,0],"radio_events":[2595.2000000029802,5483.5,7787.39999999851,9979.5,12219.29999999702,13939.29999999702,16147.10000000149],"key_events":[],"mouse_events":[2595.2000000029802,5483.5,7787.39999999851,9979.5,12219.29999999702,13939.29999999702,16147.10000000149,17139.29999999702],"straightlining":0.2857142857142857,"zigzagging":0.16666666666666666,"honeypot":0,"survey":"artistic","trial_type":"survey-template","trial_index":6,"time_elapsed":145597,"internal_node_id":"0.0-6.0","task_version":"1.0","jspsych_version":"6.3.1"},{"responses":{"Q06":"0","Q04":"0","Q01":"0","Q02":"1","Q05":"0","Q03":"1","Q07":"0","Q08":"3"},"rt":84651.5,"item_order":[5,3,0,1,4,2,6,7],"radio_events":[26739.29999999702,32300.39999999851,44546.89999999851,52779.19999999553,59547.29999999702,71002.79999999702,77002.60000000149,83410.69999999553],"key_events":[],"mouse_events":[26739.29999999702,32300.39999999851,44546.89999999851,52779.19999999553,59547.29999999702,71002.79999999702,77002.60000000149,83410.69999999553,84650.69999999553],"straightlining":0.625,"zigzagging":0.7142857142857143,"honeypot":0,"survey":"mania","trial_type":"survey-template","trial_index":7,"time_elapsed":230253,"internal_node_id":"0.0-7.0","task_version":"1.0","jspsych_version":"6.3.1"},{"view_history":"[{\"page_index\":0,\"viewing_time\":7412.10000000149},{\"page_index\":1,\"viewing_time\":5391.5},{\"page_index\":2,\"viewing_time\":2879.7999999970198},{\"page_index\":3,\"viewing_time\":14832},{\"page_index\":4,\"viewing_time\":7256.30000000447},{\"page_index\":5,\"viewing_time\":3711.7999999970198},{\"page_index\":6,\"viewing_time\":2967.8000000044703},{\"page_index\":7,\"viewing_time\":6512.29999999702},{\"page_index\":8,\"viewing_time\":5727.89999999851},{\"page_index\":9,\"viewing_time\":6783.89999999851},{\"page_index\":10,\"viewing_time\":4952}]","rt":68428.5,"trial_type":"two-step-instructions","trial_index":8,"time_elapsed":298691,"internal_node_id":"0.0-8.0-1.0","task_version":"1.0","jspsych_version":"6.3.1"},{"responses":["left/right arrow keys","True","True"],"num_errors":0,"rt":15557.5,"quiz":1,"trial_type":"two-step-comprehension","trial_index":9,"time_elapsed":314251,"internal_node_id":"0.0-8.0-2.0","task_version":"1.0","jspsych_version":"6.3.1"},{"view_history":"[{\"page_index\":0,\"viewing_time\":4633.5}]","rt":4634,"phase":"instructions_1b","trial_type":"two-step-instructions","trial_index":10,"time_elapsed":318890,"internal_node_id":"0.0-9.0-0.0-0.0","task_version":"1.0","jspsych_version":"6.3.1"},{"state_2_ids":[0,1],"state_2_key":0,"state_2_choice":0,"state_2_rt":2189.2000000029802,"outcome":0,"screen_resolution":[1366,768],"minimum_resolution":1,"trial_type":"alien-practice","trial_index":11,"time_elapsed":323287,"internal_node_id":"0.0-9.0-1.0-0.0","task_version":"1.0","jspsych_version":"6.3.1"},{"state_2_ids":[0,1],"state_2_key":1,"state_2_choice":1,"state_2_rt":1030.5,"outcome":0,"screen_resolution":[1366,768],"minimum_resolution":1,"trial_type":"alien-practice","trial_index":12,"time_elapsed":326526,"internal_node_id":"0.0-9.0-2.0-0.0","task_version":"1.0","jspsych_version":"6.3.1"},{"state_2_ids":[0,1],"state_2_key":0,"state_2_choice":0,"state_2_rt":1082.1999999955297,"outcome":0,"screen_resolution":[1366,768],"minimum_resolution":1,"trial_type":"alien-practice","trial_index":13,"time_elapsed":329814,"internal_node_id":"0.0-9.0-3.0-0.0","task_version":"1.0","jspsych_version":"6.3.1"},{"state_2_ids":[0,1],"state_2_key":1,"state_2_choice":1,"state_2_rt":609,"outcome":1,"screen_resolution":[1366,768],"minimum_resolution":1,"trial_type":"alien-practice","trial_index":14,"time_elapsed":332631,"internal_node_id":"0.0-9.0-4.0-0.0","task_version":"1.0","jspsych_version":"6.3.1"},{"state_2_ids":[0,1],"state_2_key":1,"state_2_choice":1,"state_2_rt":603.2000000029802,"outcome":1,"screen_resolution":[1366,768],"minimum_resolution":1,"trial_type":"alien-practice","trial_index":15,"time_elapsed":335447,"internal_node_id":"0.0-9.0-5.0-0.0","task_version":"1.0","jspsych_version":"6.3.1"},{"state_2_ids":[0,1],"state_2_key":1,"state_2_choice":1,"state_2_rt":702.7999999970198,"outcome":1,"screen_resolution":[1366,768],"minimum_resolution":1,"trial_type":"alien-practice","trial_index":16,"time_elapsed":338357,"internal_node_id":"0.0-9.0-6.0-0.0","task_version":"1.0","jspsych_version":"6.3.1"},{"view_history":"[{\"page_index\":0,\"viewing_time\":5742.5},{\"page_index\":1,\"viewing_time\":2440.10000000149},{\"page_index\":2,\"viewing_time\":9511.89999999851},{\"page_index\":3,\"viewing_time\":9264.10000000149},{\"page_index\":4,\"viewing_time\":4240.5},{\"page_index\":5,\"viewing_time\":2919.39999999851}]","rt":34119,"trial_type":"two-step-instructions","trial_index":17,"time_elapsed":372490,"internal_node_id":"0.0-10.0-1.0","task_version":"1.0","jspsych_version":"6.3.1"},{"responses":["left/right arrow keys","False","True"],"num_errors":0,"rt":13214,"quiz":2,"trial_type":"two-step-comprehension","trial_index":18,"time_elapsed":385707,"internal_node_id":"0.0-10.0-2.0","task_version":"1.0","jspsych_version":"6.3.1"},{"view_history":"[{\"page_index\":0,\"viewing_time\":2314.3000000044703},{\"page_index\":1,\"viewing_time\":6624.5999999940395},{\"page_index\":2,\"viewing_time\":4783.4000000059605}]","rt":13722.80000000447,"trial_type":"two-step-instructions","trial_index":19,"time_elapsed":399434,"internal_node_id":"0.0-11.0-0.0","task_version":"1.0","jspsych_version":"6.3.1"},{"state_1_ids":[0,1],"state_1_key":0,"state_1_choice":0,"state_1_rt":1592.4000000059605,"transition":1,"state":0,"state_2_ids":[0,1],"state_2_key":0,"state_2_choice":0,"state_2_rt":1909.5,"outcome":1,"rocket_colors":["#486ea7","#a75248"],"planet_colors":["#706081","#5b7c65"],"screen_resolution":[1366,768],"minimum_resolution":1,"trial":0,"trial_type":"two-step-trial","trial_index":20,"time_elapsed":404945,"internal_node_id":"0.0-11.0-1.0-0.0","task_version":"1.0","jspsych_version":"6.3.1","missing":false},{"state_1_ids":[1,0],"state_1_key":1,"state_1_choice":0,"state_1_rt":3919.2000000029802,"transition":1,"state":0,"state_2_ids":[0,1],"state_2_key":0,"state_2_choice":0,"state_2_rt":996.8000000044703,"outcome":1,"rocket_colors":["#486ea7","#a75248"],"planet_colors":["#706081","#5b7c65"],"screen_resolution":[1366,768],"minimum_resolution":1,"trial":0,"trial_type":"two-step-trial","trial_index":21,"time_elapsed":411873,"internal_node_id":"0.0-11.0-1.0-0.1","task_version":"1.0","jspsych_version":"6.3.1","missing":false},{"state_1_ids":[0,1],"state_1_key":0,"state_1_choice":0,"state_1_rt":1314,"transition":1,"state":0,"state_2_ids":[0,1],"state_2_key":0,"state_2_choice":0,"state_2_rt":692.8999999985099,"outcome":1,"rocket_colors":["#486ea7","#a75248"],"planet_colors":["#706081","#5b7c65"],"screen_resolution":[1366,768],"minimum_resolution":1,"trial":0,"trial_type":"two-step-trial","trial_index":22,"time_elapsed":415891,"internal_node_id":"0.0-11.0-1.0-0.2","task_version":"1.0","jspsych_version":"6.3.1","missing":false},{"state_1_ids":[0,1],"state_1_key":0,"state_1_choice":0,"state_1_rt":1079.8999999985099,"transition":1,"state":0,"state_2_ids":[0,1],"state_2_key":0,"state_2_choice":0,"state_2_rt":797.5,"outcome":1,"rocket_colors":["#486ea7","#a75248"],"planet_colors":["#706081","#5b7c65"],"screen_resolution":[1366,768],"minimum_resolution":1,"trial":0,"trial_type":"two-step-trial","trial_index":23,"time_elapsed":419779,"internal_node_id":"0.0-11.0-1.0-0.3","task_version":"1.0","jspsych_version":"6.3.1","missing":false},{"state_1_ids":[0,1],"state_1_key":0,"state_1_choice":0,"state_1_rt":833.6000000014901,"transition":0,"state":1,"state_2_ids":[2,3],"state_2_key":1,"state_2_choice":3,"state_2_rt":2469.10000000149,"outcome":1,"rocket_colors":["#486ea7","#a75248"],"planet_colors":["#706081","#5b7c65"],"screen_resolution":[1366,768],"minimum_resolution":1,"trial":0,"trial_type":"two-step-trial","trial_index":24,"time_elapsed":425091,"internal_node_id":"0.0-11.0-1.0-0.4","task_version":"1.0","jspsych_version":"6.3.1","missing":false},{"state_1_ids":[0,1],"state_1_key":0,"state_1_choice":0,"state_1_rt":745.6999999955297,"transition":1,"state":0,"state_2_ids":[0,1],"state_2_key":0,"state_2_choice":0,"state_2_rt":766.8000000044703,"outcome":1,"rocket_colors":["#486ea7","#a75248"],"planet_colors":["#706081","#5b7c65"],"screen_resolution":[1366,768],"minimum_resolution":1,"trial":0,"trial_type":"two-step-trial","trial_index":25,"time_elapsed":428611,"internal_node_id":"0.0-11.0-1.0-0.5","task_version":"1.0","jspsych_version":"6.3.1","missing":false},{"state_1_ids":[1,0],"state_1_key":1,"state_1_choice":0,"state_1_rt":1002,"transition":1,"state":0,"state_2_ids":[0,1],"state_2_key":0,"state_2_choice":0,"state_2_rt":1117.7000000029802,"outcome":1,"rocket_colors":["#486ea7","#a75248"],"planet_colors":["#706081","#5b7c65"],"screen_resolution":[1366,768],"minimum_resolution":1,"trial":0,"trial_type":"two-step-trial","trial_index":26,"time_elapsed":432740,"internal_node_id":"0.0-11.0-1.0-0.6","task_version":"1.0","jspsych_version":"6.3.1","missing":false},{"state_1_ids":[0,1],"state_1_key":0,"state_1_choice":0,"state_1_rt":641.5999999940395,"transition":1,"state":0,"state_2_ids":[0,1],"state_2_key":0,"state_2_choice":0,"state_2_rt":942.3999999985099,"outcome":0,"rocket_colors":["#486ea7","#a75248"],"planet_colors":["#706081","#5b7c65"],"screen_resolution":[1366,768],"minimum_resolution":1,"trial":0,"trial_type":"two-step-trial","trial_index":27,"time_elapsed":436332,"internal_node_id":"0.0-11.0-1.0-0.7","task_version":"1.0","jspsych_version":"6.3.1","missing":false},{"state_1_ids":[1,0],"state_1_key":1,"state_1_choice":0,"state_1_rt":1009.2999999970198,"transition":1,"state":0,"state_2_ids":[0,1],"state_2_key":0,"state_2_choice":0,"state_2_rt":662.8999999985099,"outcome":1,"rocket_colors":["#486ea7","#a75248"],"planet_colors":["#706081","#5b7c65"],"screen_resolution":[1366,768],"minimum_resolution":1,"trial":0,"trial_type":"two-step-trial","trial_index":28,"time_elapsed":440012,"internal_node_id":"0.0-11.0-1.0-0.8","task_version":"1.0","jspsych_version":"6.3.1","missing":false},{"state_1_ids":[1,0],"state_1_key":1,"state_1_choice":0,"state_1_rt":771.6999999955297,"transition":1,"state":0,"state_2_ids":[0,1],"state_2_key":0,"state_2_choice":0,"state_2_rt":918.2999999970198,"outcome":1,"rocket_colors":["#486ea7","#a75248"],"planet_colors":["#706081","#5b7c65"],"screen_resolution":[1366,768],"minimum_resolution":1,"trial":0,"trial_type":"two-step-trial","trial_index":29,"time_elapsed":443710,"internal_node_id":"0.0-11.0-1.0-0.9","task_version":"1.0","jspsych_version":"6.3.1","missing":false},{"view_history":"[{\"page_index\":0,\"viewing_time\":3976.5},{\"page_index\":1,\"viewing_time\":6606},{\"page_index\":2,\"viewing_time\":2485},{\"page_index\":3,\"viewing_time\":3112.4000000059605},{\"page_index\":4,\"viewing_time\":11594},{\"page_index\":5,\"viewing_time\":12977.59999999404},{\"page_index\":6,\"viewing_time\":4072.2000000029802}]","rt":44824.70000000298,"trial_type":"two-step-instructions","trial_index":30,"time_elapsed":488554,"internal_node_id":"0.0-12.0-1.0","task_version":"1.0","jspsych_version":"6.3.1"},{"responses":["True","True","True"],"num_errors":1,"rt":17801.89999999851,"quiz":3,"trial_type":"two-step-comprehension","trial_index":31,"time_elapsed":506362,"internal_node_id":"0.0-12.0-2.0","task_version":"1.0","jspsych_version":"6.3.1"},{"view_history":"[{\"page_index\":0,\"viewing_time\":3058.39999999851}]","rt":3058.7999999970198,"trial_type":"two-step-instructions","trial_index":32,"time_elapsed":509425,"internal_node_id":"0.0-12.1-0.1-0.1","task_version":"1.0","jspsych_version":"6.3.1"},{"view_history":"[{\"page_index\":0,\"viewing_time\":5587.89999999851},{\"page_index\":1,\"viewing_time\":2392},{\"page_index\":2,\"viewing_time\":5773.5},{\"page_index\":3,\"viewing_time\":9529.80000000447},{\"page_index\":4,\"viewing_time\":10880.59999999404},{\"page_index\":5,\"viewing_time\":3184.9000000059605}]","rt":37349.5,"trial_type":"two-step-instructions","trial_index":33,"time_elapsed":546778,"internal_node_id":"0.0-12.1-1.1","task_version":"1.0","jspsych_version":"6.3.1"},{"responses":["True","False","True"],"num_errors":0,"rt":15553.39999999851,"quiz":3,"trial_type":"two-step-comprehension","trial_index":34,"time_elapsed":562338,"internal_node_id":"0.0-12.1-2.1","task_version":"1.0","jspsych_version":"6.3.1"},{"view_history":"[{\"page_index\":0,\"viewing_time\":1774},{\"page_index\":1,\"viewing_time\":3424.6999999955297},{\"page_index\":2,\"viewing_time\":2543.39999999851}]","rt":7743,"trial_type":"two-step-instructions","trial_index":35,"time_elapsed":570084,"internal_node_id":"0.0-13.0","task_version":"1.0","jspsych_version":"6.3.1"},{"state_1_ids":[1,0],"state_1_key":1,"state_1_choice":0,"state_1_rt":1453.4000000059605,"transition":1,"state":0,"state_2_ids":[0,1],"state_2_key":0,"state_2_choice":0,"state_2_rt":973.3999999985099,"outcome":0,"rocket_colors":["#955db9","#48a782"],"planet_colors":["#5f6f81","#7f5d5d"],"screen_resolution":[1366,768],"minimum_resolution":1,"trial":1,"drifts":[0.6,0.51,0.387,0.388],"drift_ix":0,"trial_type":"two-step-trial","trial_index":36,"time_elapsed":574526,"internal_node_id":"0.0-14.0-0.0","task_version":"1.0","jspsych_version":"6.3.1","browser_interactions":0,"missing":false},{"state_1_ids":[0,1],"state_1_key":0,"state_1_choice":0,"state_1_rt":1918.5,"transition":1,"state":0,"state_2_ids":[0,1],"state_2_key":1,"state_2_choice":1,"state_2_rt":773.8999999985099,"outcome":0,"rocket_colors":["#955db9","#48a782"],"planet_colors":["#5f6f81","#7f5d5d"],"screen_resolution":[1366,768],"minimum_resolution":1,"trial":2,"drifts":[0.6,0.49,0.376,0.364],"drift_ix":0,"trial_type":"two-step-trial","trial_index":37,"time_elapsed":579230,"internal_node_id":"0.0-15.0-0.0","task_version":"1.0","jspsych_version":"6.3.1","browser_interactions":0,"missing":false},{"state_1_ids":[1,0],"state_1_key":0,"state_1_choice":1,"state_1_rt":2050.1999999955297,"transition":0,"state":0,"state_2_ids":[0,1],"state_2_key":0,"state_2_choice":0,"state_2_rt":1926.2000000029802,"outcome":0,"rocket_colors":["#955db9","#48a782"],"planet_colors":["#5f6f81","#7f5d5d"],"screen_resolution":[1366,768],"minimum_resolution":1,"trial":3,"drifts":[0.612,0.488,0.376,0.385],"drift_ix":0,"trial_type":"two-step-trial","trial_index":38,"time_elapsed":585214,"internal_node_id":"0.0-16.0-0.0","task_version":"1.0","jspsych_version":"6.3.1","browser_interactions":0,"missing":false},{"state_1_ids":[0,1],"state_1_key":1,"state_1_choice":1,"state_1_rt":2385.9000000059605,"transition":1,"state":1,"state_2_ids":[2,3],"state_2_key":0,"state_2_choice":2,"state_2_rt":1006.6000000014901,"outcome":0,"rocket_colors":["#955db9","#48a782"],"planet_colors":["#5f6f81","#7f5d5d"],"screen_resolution":[1366,768],"minimum_resolution":1,"trial":4,"drifts":[0.659,0.517,0.37,0.352],"drift_ix":0,"trial_type":"two-step-trial","trial_index":39,"time_elapsed":590616,"internal_node_id":"0.0-17.0-0.0","task_version":"1.0","jspsych_version":"6.3.1","browser_interactions":0,"missing":false},{"state_1_ids":[1,0],"state_1_key":0,"state_1_choice":1,"state_1_rt":697.6000000014901,"transition":1,"state":1,"state_2_ids":[2,3],"state_2_key":1,"state_2_choice":3,"state_2_rt":502.19999999552965,"outcome":1,"rocket_colors":["#955db9","#48a782"],"planet_colors":["#5f6f81","#7f5d5d"],"screen_resolution":[1366,768],"minimum_resolution":1,"trial":5,"drifts":[0.676,0.497,0.349,0.378],"drift_ix":0,"trial_type":"two-step-trial","trial_index":40,"time_elapsed":593824,"internal_node_id":"0.0-18.0-0.0","task_version":"1.0","jspsych_version":"6.3.1","browser_interactions":0,"missing":false},{"state_1_ids":[1,0],"state_1_key":0,"state_1_choice":1,"state_1_rt":793.8999999985099,"transition":1,"state":1,"state_2_ids":[2,3],"state_2_key":1,"state_2_choice":3,"state_2_rt":582.7999999970198,"outcome":0,"rocket_colors":["#955db9","#48a782"],"planet_colors":["#5f6f81","#7f5d5d"],"screen_resolution":[1366,768],"minimum_resolution":1,"trial":6,"drifts":[0.682,0.475,0.347,0.386],"drift_ix":0,"trial_type":"two-step-trial","trial_index":41,"time_elapsed":597209,"internal_node_id":"0.0-19.0-0.0","task_version":"1.0","jspsych_version":"6.3.1","browser_interactions":0,"missing":false},{"state_1_ids":[0,1],"state_1_key":1,"state_1_choice":1,"state_1_rt":1041.2999999970198,"transition":1,"state":1,"state_2_ids":[2,3],"state_2_key":1,"state_2_choice":3,"state_2_rt":463.19999999552965,"outcome":0,"rocket_colors":["#955db9","#48a782"],"planet_colors":["#5f6f81","#7f5d5d"],"screen_resolution":[1366,768],"minimum_resolution":1,"trial":7,"drifts":[0.65,0.473,0.346,0.344],"drift_ix":0,"trial_type":"two-step-trial","trial_index":42,"time_elapsed":600721,"internal_node_id":"0.0-20.0-0.0","task_version":"1.0","jspsych_version":"6.3.1","browser_interactions":0,"missing":false},{"state_1_ids":[1,0],"state_1_key":0,"state_1_choice":1,"state_1_rt":930.1000000014901,"transition":0,"state":0,"state_2_ids":[0,1],"state_2_key":1,"state_2_choice":1,"state_2_rt":1526.5,"outcome":0,"rocket_colors":["#955db9","#48a782"],"planet_colors":["#5f6f81","#7f5d5d"],"screen_resolution":[1366,768],"minimum_resolution":1,"trial":8,"drifts":[0.637,0.456,0.371,0.318],"drift_ix":0,"trial_type":"two-step-trial","trial_index":43,"time_elapsed":605185,"internal_node_id":"0.0-21.0-0.0","task_version":"1.0","jspsych_version":"6.3.1","browser_interactions":0,"missing":false},{"state_1_ids":[1,0],"state_1_key":0,"state_1_choice":1,"state_1_rt":1001.6000000014901,"transition":1,"state":1,"state_2_ids":[2,3],"state_2_key":1,"state_2_choice":3,"state_2_rt":1063.5,"outcome":0,"rocket_colors":["#955db9","#48a782"],"planet_colors":["#5f6f81","#7f5d5d"],"screen_resolution":[1366,768],"minimum_resolution":1,"trial":9,"drifts":[0.637,0.443,0.354,0.311],"drift_ix":0,"trial_type":"two-step-trial","trial_index":44,"time_elapsed":609258,"internal_node_id":"0.0-22.0-0.0","task_version":"1.0","jspsych_version":"6.3.1","browser_interactions":0,"missing":false},{"state_1_ids":[1,0],"state_1_key":0,"state_1_choice":1,"state_1_rt":883.2000000029802,"transition":1,"state":1,"state_2_ids":[2,3],"state_2_key":0,"state_2_choice":2,"state_2_rt":590,"outcome":1,"rocket_colors":["#955db9","#48a782"],"planet_colors":["#5f6f81","#7f5d5d"],"screen_resolution":[1366,768],"minimum_resolution":1,"trial":10,"drifts":[0.63,0.435,0.315,0.32],"drift_ix":0,"trial_type":"two-step-trial","trial_index":45,"time_elapsed":612739,"internal_node_id":"0.0-23.0-0.0","task_version":"1.0","jspsych_version":"6.3.1","browser_interactions":0,"missing":false},{"state_1_ids":[0,1],"state_1_key":1,"state_1_choice":1,"state_1_rt":874.6000000014901,"transition":1,"state":1,"state_2_ids":[2,3],"state_2_key":0,"state_2_choice":2,"state_2_rt":606,"outcome":1,"rocket_colors":["#955db9","#48a782"],"planet_colors":["#5f6f81","#7f5d5d"],"screen_resolution":[1366,768],"minimum_resolution":1,"trial":11,"drifts":[0.599,0.48,0.291,0.32],"drift_ix":0,"trial_type":"two-step-trial","trial_index":46,"time_elapsed":616227,"internal_node_id":"0.0-24.0-0.0","task_version":"1.0","jspsych_version":"6.3.1","browser_interactions":0,"missing":false},{"state_1_ids":[0,1],"state_1_key":1,"state_1_choice":1,"state_1_rt":994.2999999970198,"transition":1,"state":1,"state_2_ids":[2,3],"state_2_key":0,"state_2_choice":2,"state_2_rt":796.7999999970198,"outcome":0,"rocket_colors":["#955db9","#48a782"],"planet_colors":["#5f6f81","#7f5d5d"],"screen_resolution":[1366,768],"minimum_resolution":1,"trial":12,"drifts":[0.573,0.445,0.3,0.33],"drift_ix":0,"trial_type":"two-step-trial","trial_index":47,"time_elapsed":620028,"internal_node_id":"0.0-25.0-0.0","task_version":"1.0","jspsych_version":"6.3.1","browser_interactions":0,"missing":false},{"state_1_ids":[1,0],"state_1_key":0,"state_1_choice":1,"state_1_rt":650.1000000014901,"transition":1,"state":1,"state_2_ids":[2,3],"state_2_key":0,"state_2_choice":2,"state_2_rt":622,"outcome":0,"rocket_colors":["#955db9","#48a782"],"planet_colors":["#5f6f81","#7f5d5d"],"screen_resolution":[1366,768],"minimum_resolution":1,"trial":13,"drifts":[0.6,0.4,0.3,0.32],"drift_ix":0,"trial_type":"two-step-trial","trial_index":48,"time_elapsed":623308,"internal_node_id":"0.0-26.0-0.0","task_version":"1.0","jspsych_version":"6.3.1","browser_interactions":0,"missing":false},{"state_1_ids":[0,1],"state_1_key":1,"state_1_choice":1,"state_1_rt":2874.10000000149,"transition":1,"state":1,"state_2_ids":[2,3],"state_2_key":0,"state_2_choice":2,"state_2_rt":550.7999999970198,"outcome":0,"rocket_colors":["#955db9","#48a782"],"planet_colors":["#5f6f81","#7f5d5d"],"screen_resolution":[1366,768],"minimum_resolution":1,"trial":14,"drifts":[0.601,0.428,0.308,0.274],"drift_ix":0,"trial_type":"two-step-trial","trial_index":49,"time_elapsed":628740,"internal_node_id":"0.0-27.0-0.0","task_version":"1.0","jspsych_version":"6.3.1","browser_interactions":0,"missing":false},{"state_1_ids":[1,0],"state_1_key":0,"state_1_choice":1,"state_1_rt":803.6000000014901,"transition":0,"state":0,"state_2_ids":[0,1],"state_2_key":1,"state_2_choice":1,"state_2_rt":1005.5,"outcome":0,"rocket_colors":["#955db9","#48a782"],"planet_colors":["#5f6f81","#7f5d5d"],"screen_resolution":[1366,768],"minimum_resolution":1,"trial":15,"drifts":[0.588,0.441,0.345,0.295],"drift_ix":0,"trial_type":"two-step-trial","trial_index":50,"time_elapsed":632557,"internal_node_id":"0.0-28.0-0.0","task_version":"1.0","jspsych_version":"6.3.1","browser_interactions":0,"missing":false},{"state_1_ids":[1,0],"state_1_key":0,"state_1_choice":1,"state_1_rt":642.6000000014901,"transition":1,"state":1,"state_2_ids":[2,3],"state_2_key":1,"state_2_choice":3,"state_2_rt":1134.3999999985099,"outcome":0,"rocket_colors":["#955db9","#48a782"],"planet_colors":["#5f6f81","#7f5d5d"],"screen_resolution":[1366,768],"minimum_resolution":1,"trial":16,"drifts":[0.641,0.463,0.39,0.301],"drift_ix":0,"trial_type":"two-step-trial","trial_index":51,"time_elapsed":636341,"internal_node_id":"0.0-29.0-0.0","task_version":"1.0","jspsych_version":"6.3.1","browser_interactions":0,"missing":false},{"state_1_ids":[0,1],"state_1_key":0,"state_1_choice":0,"state_1_rt":1314.6000000014901,"transition":1,"state":0,"state_2_ids":[0,1],"state_2_key":0,"state_2_choice":0,"state_2_rt":501.70000000298023,"outcome":1,"rocket_colors":["#955db9","#48a782"],"planet_colors":["#5f6f81","#7f5d5d"],"screen_resolution":[1366,768],"minimum_resolution":1,"trial":17,"drifts":[0.649,0.465,0.413,0.325],"drift_ix":0,"trial_type":"two-step-trial","trial_index":52,"time_elapsed":640166,"internal_node_id":"0.0-30.0-0.0","task_version":"1.0","jspsych_version":"6.3.1","browser_interactions":0,"missing":false},{"state_1_ids":[1,0],"state_1_key":1,"state_1_choice":0,"state_1_rt":708.2999999970198,"transition":0,"state":1,"state_2_ids":[2,3],"state_2_key":0,"state_2_choice":2,"state_2_rt":1213.6999999955297,"outcome":0,"rocket_colors":["#955db9","#48a782"],"planet_colors":["#5f6f81","#7f5d5d"],"screen_resolution":[1366,768],"minimum_resolution":1,"trial":18,"drifts":[0.627,0.478,0.397,0.324],"drift_ix":0,"trial_type":"two-step-trial","trial_index":53,"time_elapsed":644096,"internal_node_id":"0.0-31.0-0.0","task_version":"1.0","jspsych_version":"6.3.1","browser_interactions":0,"missing":false},{"state_1_ids":[0,1],"state_1_key":0,"state_1_choice":0,"state_1_rt":597.5999999940395,"transition":1,"state":0,"state_2_ids":[0,1],"state_2_key":0,"state_2_choice":0,"state_2_rt":478.6000000014901,"outcome":1,"rocket_colors":["#955db9","#48a782"],"planet_colors":["#5f6f81","#7f5d5d"],"screen_resolution":[1366,768],"minimum_resolution":1,"trial":19,"drifts":[0.656,0.491,0.375,0.348],"drift_ix":0,"trial_type":"two-step-trial","trial_index":54,"time_elapsed":647183,"internal_node_id":"0.0-32.0-0.0","task_version":"1.0","jspsych_version":"6.3.1","browser_interactions":0,"missing":false},{"state_1_ids":[1,0],"state_1_key":1,"state_1_choice":0,"state_1_rt":1001.1999999955297,"transition":0,"state":1,"state_2_ids":[2,3],"state_2_key":1,"state_2_choice":3,"state_2_rt":925.6999999955297,"outcome":0,"rocket_colors":["#955db9","#48a782"],"planet_colors":["#5f6f81","#7f5d5d"],"screen_resolution":[1366,768],"minimum_resolution":1,"trial":20,"drifts":[0.64,0.468,0.396,0.335],"drift_ix":0,"trial_type":"two-step-trial","trial_index":55,"time_elapsed":651118,"internal_node_id":"0.0-33.0-0.0","task_version":"1.0","jspsych_version":"6.3.1","browser_interactions":0,"missing":false},{"state_1_ids":[1,0],"state_1_key":1,"state_1_choice":0,"state_1_rt":614.5,"transition":0,"state":1,"state_2_ids":[2,3],"state_2_key":0,"state_2_choice":2,"state_2_rt":846.6000000014901,"outcome":0,"rocket_colors":["#955db9","#48a782"],"planet_colors":["#5f6f81","#7f5d5d"],"screen_resolution":[1366,768],"minimum_resolution":1,"trial":21,"drifts":[0.633,0.467,0.352,0.33],"drift_ix":0,"trial_type":"two-step-trial","trial_index":56,"time_elapsed":654586,"internal_node_id":"0.0-34.0-0.0","task_version":"1.0","jspsych_version":"6.3.1","browser_interactions":0,"missing":false},{"state_1_ids":[1,0],"state_1_key":1,"state_1_choice":0,"state_1_rt":871,"transition":1,"state":0,"state_2_ids":[0,1],"state_2_key":0,"state_2_choice":0,"state_2_rt":486.09999999403954,"outcome":0,"rocket_colors":["#955db9","#48a782"],"planet_colors":["#5f6f81","#7f5d5d"],"screen_resolution":[1366,768],"minimum_resolution":1,"trial":22,"drifts":[0.591,0.462,0.379,0.373],"drift_ix":0,"trial_type":"two-step-trial","trial_index":57,"time_elapsed":657953,"internal_node_id":"0.0-35.0-0.0","task_version":"1.0","jspsych_version":"6.3.1","browser_interactions":0,"missing":false},{"state_1_ids":[0,1],"state_1_key":0,"state_1_choice":0,"state_1_rt":1049,"transition":1,"state":0,"state_2_ids":[0,1],"state_2_key":1,"state_2_choice":1,"state_2_rt":463.3999999985099,"outcome":0,"rocket_colors":["#955db9","#48a782"],"planet_colors":["#5f6f81","#7f5d5d"],"screen_resolution":[1366,768],"minimum_resolution":1,"trial":23,"drifts":[0.612,0.436,0.44,0.331],"drift_ix":0,"trial_type":"two-step-trial","trial_index":58,"time_elapsed":661474,"internal_node_id":"0.0-36.0-0.0","task_version":"1.0","jspsych_version":"6.3.1","browser_interactions":0,"missing":false},{"state_1_ids":[0,1],"state_1_key":1,"state_1_choice":1,"state_1_rt":865.5,"transition":1,"state":1,"state_2_ids":[2,3],"state_2_key":1,"state_2_choice":3,"state_2_rt":494.70000000298023,"outcome":0,"rocket_colors":["#955db9","#48a782"],"planet_colors":["#5f6f81","#7f5d5d"],"screen_resolution":[1366,768],"minimum_resolution":1,"trial":24,"drifts":[0.612,0.434,0.473,0.352],"drift_ix":0,"trial_type":"two-step-trial","trial_index":59,"time_elapsed":664842,"internal_node_id":"0.0-37.0-0.0","task_version":"1.0","jspsych_version":"6.3.1","browser_interactions":0,"missing":false},{"state_1_ids":[0,1],"state_1_key":1,"state_1_choice":1,"state_1_rt":538.2000000029802,"transition":1,"state":1,"state_2_ids":[2,3],"state_2_key":0,"state_2_choice":2,"state_2_rt":653.5,"outcome":0,"rocket_colors":["#955db9","#48a782"],"planet_colors":["#5f6f81","#7f5d5d"],"screen_resolution":[1366,768],"minimum_resolution":1,"trial":25,"drifts":[0.568,0.394,0.47,0.342],"drift_ix":0,"trial_type":"two-step-trial","trial_index":60,"time_elapsed":668042,"internal_node_id":"0.0-38.0-0.0","task_version":"1.0","jspsych_version":"6.3.1","browser_interactions":0,"missing":false},{"state_1_ids":[1,0],"state_1_key":1,"state_1_choice":0,"state_1_rt":904.5,"transition":1,"state":0,"state_2_ids":[0,1],"state_2_key":0,"state_2_choice":0,"state_2_rt":486.8999999985099,"outcome":1,"rocket_colors":["#955db9","#48a782"],"planet_colors":["#5f6f81","#7f5d5d"],"screen_resolution":[1366,768],"minimum_resolution":1,"trial":26,"drifts":[0.601,0.434,0.455,0.342],"drift_ix":0,"trial_type":"two-step-trial","trial_index":61,"time_elapsed":671442,"internal_node_id":"0.0-39.0-0.0","task_version":"1.0","jspsych_version":"6.3.1","browser_interactions":0,"missing":false},{"state_1_ids":[1,0],"state_1_key":1,"state_1_choice":0,"state_1_rt":672.8999999985099,"transition":1,"state":0,"state_2_ids":[0,1],"state_2_key":0,"state_2_choice":0,"state_2_rt":624.7999999970198,"outcome":0,"rocket_colors":["#955db9","#48a782"],"planet_colors":["#5f6f81","#7f5d5d"],"screen_resolution":[1366,768],"minimum_resolution":1,"trial":27,"drifts":[0.539,0.464,0.435,0.334],"drift_ix":0,"trial_type":"two-step-trial","trial_index":62,"time_elapsed":674746,"internal_node_id":"0.0-40.0-0.0","task_version":"1.0","jspsych_version":"6.3.1","browser_interactions":0,"missing":false},{"state_1_ids":[0,1],"state_1_key":0,"state_1_choice":0,"state_1_rt":788.6999999955297,"transition":1,"state":0,"state_2_ids":[0,1],"state_2_key":0,"state_2_choice":0,"state_2_rt":454.29999999701977,"outcome":0,"rocket_colors":["#955db9","#48a782"],"planet_colors":["#5f6f81","#7f5d5d"],"screen_resolution":[1366,768],"minimum_resolution":1,"trial":28,"drifts":[0.523,0.476,0.415,0.352],"drift_ix":0,"trial_type":"two-step-trial","trial_index":63,"time_elapsed":677994,"internal_node_id":"0.0-41.0-0.0","task_version":"1.0","jspsych_version":"6.3.1","browser_interactions":0,"missing":false},{"state_1_ids":[1,0],"state_1_key":1,"state_1_choice":0,"state_1_rt":778.6000000014901,"transition":1,"state":0,"state_2_ids":[0,1],"state_2_key":0,"state_2_choice":0,"state_2_rt":958.2000000029802,"outcome":0,"rocket_colors":["#955db9","#48a782"],"planet_colors":["#5f6f81","#7f5d5d"],"screen_resolution":[1366,768],"minimum_resolution":1,"trial":29,"drifts":[0.515,0.504,0.459,0.339],"drift_ix":0,"trial_type":"two-step-trial","trial_index":64,"time_elapsed":681739,"internal_node_id":"0.0-42.0-0.0","task_version":"1.0","jspsych_version":"6.3.1","browser_interactions":0,"missing":false},{"state_1_ids":[0,1],"state_1_key":0,"state_1_choice":0,"state_1_rt":826,"transition":0,"state":1,"state_2_ids":[2,3],"state_2_key":0,"state_2_choice":2,"state_2_rt":966.8999999985099,"outcome":0,"rocket_colors":["#955db9","#48a782"],"planet_colors":["#5f6f81","#7f5d5d"],"screen_resolution":[1366,768],"minimum_resolution":1,"trial":30,"drifts":[0.491,0.488,0.491,0.323],"drift_ix":0,"trial_type":"two-step-trial","trial_index":65,"time_elapsed":685539,"internal_node_id":"0.0-43.0-0.0","task_version":"1.0","jspsych_version":"6.3.1","browser_interactions":0,"missing":false},{"state_1_ids":[1,0],"state_1_key":1,"state_1_choice":0,"state_1_rt":627,"transition":1,"state":0,"state_2_ids":[0,1],"state_2_key":1,"state_2_choice":1,"state_2_rt":462.79999999701977,"outcome":0,"rocket_colors":["#955db9","#48a782"],"planet_colors":["#5f6f81","#7f5d5d"],"screen_resolution":[1366,768],"minimum_resolution":1,"trial":31,"drifts":[0.478,0.502,0.474,0.353],"drift_ix":0,"trial_type":"two-step-trial","trial_index":66,"time_elapsed":688636,"internal_node_id":"0.0-44.0-0.0","task_version":"1.0","jspsych_version":"6.3.1","browser_interactions":0,"missing":false},{"state_1_ids":[0,1],"state_1_key":1,"state_1_choice":1,"state_1_rt":791.1000000014901,"transition":1,"state":1,"state_2_ids":[2,3],"state_2_key":0,"state_2_choice":2,"state_2_rt":550.5,"outcome":1,"rocket_colors":["#955db9","#48a782"],"planet_colors":["#5f6f81","#7f5d5d"],"screen_resolution":[1366,768],"minimum_resolution":1,"trial":32,"drifts":[0.459,0.453,0.457,0.338],"drift_ix":0,"trial_type":"two-step-trial","trial_index":67,"time_elapsed":691988,"internal_node_id":"0.0-45.0-0.0","task_version":"1.0","jspsych_version":"6.3.1","browser_interactions":0,"missing":false},{"state_1_ids":[0,1],"state_1_key":1,"state_1_choice":1,"state_1_rt":794.2999999970198,"transition":1,"state":1,"state_2_ids":[2,3],"state_2_key":0,"state_2_choice":2,"state_2_rt":581.7999999970198,"outcome":1,"rocket_colors":["#955db9","#48a782"],"planet_colors":["#5f6f81","#7f5d5d"],"screen_resolution":[1366,768],"minimum_resolution":1,"trial":33,"drifts":[0.435,0.461,0.485,0.304],"drift_ix":0,"trial_type":"two-step-trial","trial_index":68,"time_elapsed":695372,"internal_node_id":"0.0-46.0-0.0","task_version":"1.0","jspsych_version":"6.3.1","browser_interactions":0,"missing":false},{"state_1_ids":[0,1],"state_1_key":1,"state_1_choice":1,"state_1_rt":721.7999999970198,"transition":1,"state":1,"state_2_ids":[2,3],"state_2_key":0,"state_2_choice":2,"state_2_rt":693.2000000029802,"outcome":0,"rocket_colors":["#955db9","#48a782"],"planet_colors":["#5f6f81","#7f5d5d"],"screen_resolution":[1366,768],"minimum_resolution":1,"trial":34,"drifts":[0.425,0.445,0.448,0.302],"drift_ix":0,"trial_type":"two-step-trial","trial_index":69,"time_elapsed":698797,"internal_node_id":"0.0-47.0-0.0","task_version":"1.0","jspsych_version":"6.3.1","browser_interactions":0,"missing":false},{"state_1_ids":[1,0],"state_1_key":0,"state_1_choice":1,"state_1_rt":684.1000000014901,"transition":1,"state":1,"state_2_ids":[2,3],"state_2_key":1,"state_2_choice":3,"state_2_rt":779.7999999970198,"outcome":0,"rocket_colors":["#955db9","#48a782"],"planet_colors":["#5f6f81","#7f5d5d"],"screen_resolution":[1366,768],"minimum_resolution":1,"trial":35,"drifts":[0.398,0.417,0.401,0.285],"drift_ix":0,"trial_type":"two-step-trial","trial_index":70,"time_elapsed":702271,"internal_node_id":"0.0-48.0-0.0","task_version":"1.0","jspsych_version":"6.3.1","browser_interactions":0,"missing":false},{"state_1_ids":[0,1],"state_1_key":1,"state_1_choice":1,"state_1_rt":967.1000000014901,"transition":1,"state":1,"state_2_ids":[2,3],"state_2_key":0,"state_2_choice":2,"state_2_rt":486.8999999985099,"outcome":1,"rocket_colors":["#955db9","#48a782"],"planet_colors":["#5f6f81","#7f5d5d"],"screen_resolution":[1366,768],"minimum_resolution":1,"trial":36,"drifts":[0.438,0.401,0.404,0.302],"drift_ix":0,"trial_type":"two-step-trial","trial_index":71,"time_elapsed":705738,"internal_node_id":"0.0-49.0-0.0","task_version":"1.0","jspsych_version":"6.3.1","browser_interactions":0,"missing":false},{"state_1_ids":[1,0],"state_1_key":0,"state_1_choice":1,"state_1_rt":703.6000000014901,"transition":0,"state":0,"state_2_ids":[0,1],"state_2_key":0,"state_2_choice":0,"state_2_rt":1029.2000000029802,"outcome":0,"rocket_colors":["#955db9","#48a782"],"planet_colors":["#5f6f81","#7f5d5d"],"screen_resolution":[1366,768],"minimum_resolution":1,"trial":37,"drifts":[0.446,0.383,0.396,0.273],"drift_ix":0,"trial_type":"two-step-trial","trial_index":72,"time_elapsed":709477,"internal_node_id":"0.0-50.0-0.0","task_version":"1.0","jspsych_version":"6.3.1","browser_interactions":0,"missing":false},{"state_1_ids":[0,1],"state_1_key":1,"state_1_choice":1,"state_1_rt":579.2000000029802,"transition":1,"state":1,"state_2_ids":[2,3],"state_2_key":0,"state_2_choice":2,"state_2_rt":487.30000000447035,"outcome":1,"rocket_colors":["#955db9","#48a782"],"planet_colors":["#5f6f81","#7f5d5d"],"screen_resolution":[1366,768],"minimum_resolution":1,"trial":38,"drifts":[0.473,0.425,0.406,0.259],"drift_ix":0,"trial_type":"two-step-trial","trial_index":73,"time_elapsed":712550,"internal_node_id":"0.0-51.0-0.0","task_version":"1.0","jspsych_version":"6.3.1","browser_interactions":0,"missing":false},{"state_1_ids":[0,1],"state_1_key":1,"state_1_choice":1,"state_1_rt":737.8999999985099,"transition":1,"state":1,"state_2_ids":[2,3],"state_2_key":0,"state_2_choice":2,"state_2_rt":512.0999999940395,"outcome":0,"rocket_colors":["#955db9","#48a782"],"planet_colors":["#5f6f81","#7f5d5d"],"screen_resolution":[1366,768],"minimum_resolution":1,"trial":39,"drifts":[0.491,0.414,0.381,0.251],"drift_ix":0,"trial_type":"two-step-trial","trial_index":74,"time_elapsed":715808,"internal_node_id":"0.0-52.0-0.0","task_version":"1.0","jspsych_version":"6.3.1","browser_interactions":0,"missing":false},{"state_1_ids":[0,1],"state_1_key":1,"state_1_choice":1,"state_1_rt":569.2000000029802,"transition":0,"state":0,"state_2_ids":[0,1],"state_2_key":0,"state_2_choice":0,"state_2_rt":1143.7000000029802,"outcome":1,"rocket_colors":["#955db9","#48a782"],"planet_colors":["#5f6f81","#7f5d5d"],"screen_resolution":[1366,768],"minimum_resolution":1,"trial":40,"drifts":[0.46,0.404,0.375,0.267],"drift_ix":0,"trial_type":"two-step-trial","trial_index":75,"time_elapsed":719528,"internal_node_id":"0.0-53.0-0.0","task_version":"1.0","jspsych_version":"6.3.1","browser_interactions":0,"missing":false},{"state_1_ids":[1,0],"state_1_key":0,"state_1_choice":1,"state_1_rt":1288.8999999985099,"transition":1,"state":1,"state_2_ids":[2,3],"state_2_key":0,"state_2_choice":2,"state_2_rt":496.1000000014901,"outcome":1,"rocket_colors":["#955db9","#48a782"],"planet_colors":["#5f6f81","#7f5d5d"],"screen_resolution":[1366,768],"minimum_resolution":1,"trial":41,"drifts":[0.47,0.46,0.37,0.279],"drift_ix":0,"trial_type":"two-step-trial","trial_index":76,"time_elapsed":723320,"internal_node_id":"0.0-54.0-0.0","task_version":"1.0","jspsych_version":"6.3.1","browser_interactions":0,"missing":false},{"state_1_ids":[0,1],"state_1_key":1,"state_1_choice":1,"state_1_rt":906.8999999985099,"transition":1,"state":1,"state_2_ids":[2,3],"state_2_key":0,"state_2_choice":2,"state_2_rt":682.1000000014901,"outcome":1,"rocket_colors":["#955db9","#48a782"],"planet_colors":["#5f6f81","#7f5d5d"],"screen_resolution":[1366,768],"minimum_resolution":1,"trial":42,"drifts":[0.454,0.461,0.369,0.275],"drift_ix":0,"trial_type":"two-step-trial","trial_index":77,"time_elapsed":726918,"internal_node_id":"0.0-55.0-0.0","task_version":"1.0","jspsych_version":"6.3.1","browser_interactions":0,"missing":false},{"state_1_ids":[0,1],"state_1_key":1,"state_1_choice":1,"state_1_rt":828.6000000014901,"transition":1,"state":1,"state_2_ids":[2,3],"state_2_key":0,"state_2_choice":2,"state_2_rt":470.6000000014901,"outcome":1,"rocket_colors":["#955db9","#48a782"],"planet_colors":["#5f6f81","#7f5d5d"],"screen_resolution":[1366,768],"minimum_resolution":1,"trial":43,"drifts":[0.452,0.459,0.392,0.293],"drift_ix":0,"trial_type":"two-step-trial","trial_index":78,"time_elapsed":730226,"internal_node_id":"0.0-56.0-0.0","task_version":"1.0","jspsych_version":"6.3.1","browser_interactions":0,"missing":false},{"state_1_ids":[0,1],"state_1_key":1,"state_1_choice":1,"state_1_rt":593.6000000014901,"transition":0,"state":0,"state_2_ids":[0,1],"state_2_key":0,"state_2_choice":0,"state_2_rt":1126.5,"outcome":0,"rocket_colors":["#955db9","#48a782"],"planet_colors":["#5f6f81","#7f5d5d"],"screen_resolution":[1366,768],"minimum_resolution":1,"trial":44,"drifts":[0.439,0.428,0.412,0.329],"drift_ix":0,"trial_type":"two-step-trial","trial_index":79,"time_elapsed":733954,"internal_node_id":"0.0-57.0-0.0","task_version":"1.0","jspsych_version":"6.3.1","browser_interactions":0,"missing":false},{"state_1_ids":[1,0],"state_1_key":0,"state_1_choice":1,"state_1_rt":610.2000000029802,"transition":1,"state":1,"state_2_ids":[2,3],"state_2_key":0,"state_2_choice":2,"state_2_rt":437.3999999985099,"outcome":0,"rocket_colors":["#955db9","#48a782"],"planet_colors":["#5f6f81","#7f5d5d"],"screen_resolution":[1366,768],"minimum_resolution":1,"trial":45,"drifts":[0.455,0.384,0.41,0.354],"drift_ix":0,"trial_type":"two-step-trial","trial_index":80,"time_elapsed":737011,"internal_node_id":"0.0-58.0-0.0","task_version":"1.0","jspsych_version":"6.3.1","browser_interactions":0,"missing":false},{"state_1_ids":[1,0],"state_1_key":0,"state_1_choice":1,"state_1_rt":890,"transition":0,"state":0,"state_2_ids":[0,1],"state_2_key":0,"state_2_choice":0,"state_2_rt":1108.5,"outcome":1,"rocket_colors":["#955db9","#48a782"],"planet_colors":["#5f6f81","#7f5d5d"],"screen_resolution":[1366,768],"minimum_resolution":1,"trial":46,"drifts":[0.471,0.375,0.394,0.336],"drift_ix":0,"trial_type":"two-step-trial","trial_index":81,"time_elapsed":741019,"internal_node_id":"0.0-59.0-0.0","task_version":"1.0","jspsych_version":"6.3.1","browser_interactions":0,"missing":false},{"state_1_ids":[1,0],"state_1_key":0,"state_1_choice":1,"state_1_rt":625.3000000044703,"transition":0,"state":0,"state_2_ids":[0,1],"state_2_key":0,"state_2_choice":0,"state_2_rt":774.8999999985099,"outcome":1,"rocket_colors":["#955db9","#48a782"],"planet_colors":["#5f6f81","#7f5d5d"],"screen_resolution":[1366,768],"minimum_resolution":1,"trial":47,"drifts":[0.423,0.325,0.351,0.294],"drift_ix":0,"trial_type":"two-step-trial","trial_index":82,"time_elapsed":744427,"internal_node_id":"0.0-60.0-0.0","task_version":"1.0","jspsych_version":"6.3.1","browser_interactions":0,"missing":false},{"state_1_ids":[1,0],"state_1_key":0,"state_1_choice":1,"state_1_rt":610.5,"transition":1,"state":1,"state_2_ids":[2,3],"state_2_key":0,"state_2_choice":2,"state_2_rt":477.6000000014901,"outcome":0,"rocket_colors":["#955db9","#48a782"],"planet_colors":["#5f6f81","#7f5d5d"],"screen_resolution":[1366,768],"minimum_resolution":1,"trial":48,"drifts":[0.458,0.334,0.355,0.324],"drift_ix":0,"trial_type":"two-step-trial","trial_index":83,"time_elapsed":747523,"internal_node_id":"0.0-61.0-0.0","task_version":"1.0","jspsych_version":"6.3.1","browser_interactions":0,"missing":false},{"state_1_ids":[0,1],"state_1_key":0,"state_1_choice":0,"state_1_rt":906.7999999970198,"transition":1,"state":0,"state_2_ids":[0,1],"state_2_key":0,"state_2_choice":0,"state_2_rt":485.79999999701977,"outcome":0,"rocket_colors":["#955db9","#48a782"],"planet_colors":["#5f6f81","#7f5d5d"],"screen_resolution":[1366,768],"minimum_resolution":1,"trial":49,"drifts":[0.502,0.353,0.35,0.322],"drift_ix":0,"trial_type":"two-step-trial","trial_index":84,"time_elapsed":750924,"internal_node_id":"0.0-62.0-0.0","task_version":"1.0","jspsych_version":"6.3.1","browser_interactions":0,"missing":false},{"state_1_ids":[1,0],"state_1_key":0,"state_1_choice":1,"state_1_rt":761,"transition":1,"state":1,"state_2_ids":[2,3],"state_2_key":0,"state_2_choice":2,"state_2_rt":478.40000000596046,"outcome":1,"rocket_colors":["#955db9","#48a782"],"planet_colors":["#5f6f81","#7f5d5d"],"screen_resolution":[1366,768],"minimum_resolution":1,"trial":50,"drifts":[0.464,0.368,0.367,0.351],"drift_ix":0,"trial_type":"two-step-trial","trial_index":85,"time_elapsed":754173,"internal_node_id":"0.0-63.0-0.0","task_version":"1.0","jspsych_version":"6.3.1","browser_interactions":0,"missing":false},{"state_1_ids":[1,0],"state_1_key":0,"state_1_choice":1,"state_1_rt":858.1000000014901,"transition":1,"state":1,"state_2_ids":[2,3],"state_2_key":0,"state_2_choice":2,"state_2_rt":502.8999999985099,"outcome":1,"rocket_colors":["#955db9","#48a782"],"planet_colors":["#5f6f81","#7f5d5d"],"screen_resolution":[1366,768],"minimum_resolution":1,"trial":51,"drifts":[0.459,0.421,0.341,0.301],"drift_ix":0,"trial_type":"two-step-trial","trial_index":86,"time_elapsed":757541,"internal_node_id":"0.0-64.0-0.0","task_version":"1.0","jspsych_version":"6.3.1","browser_interactions":0,"missing":false},{"state_1_ids":[1,0],"state_1_key":0,"state_1_choice":1,"state_1_rt":770,"transition":1,"state":1,"state_2_ids":[2,3],"state_2_key":0,"state_2_choice":2,"state_2_rt":1061,"outcome":1,"rocket_colors":["#955db9","#48a782"],"planet_colors":["#5f6f81","#7f5d5d"],"screen_resolution":[1366,768],"minimum_resolution":1,"trial":52,"drifts":[0.496,0.401,0.388,0.295],"drift_ix":0,"trial_type":"two-step-trial","trial_index":87,"time_elapsed":761381,"internal_node_id":"0.0-65.0-0.0","task_version":"1.0","jspsych_version":"6.3.1","browser_interactions":0,"missing":false},{"state_1_ids":[1,0],"state_1_key":0,"state_1_choice":1,"state_1_rt":683.6000000014901,"transition":1,"state":1,"state_2_ids":[2,3],"state_2_key":0,"state_2_choice":2,"state_2_rt":597.8999999985099,"outcome":0,"rocket_colors":["#955db9","#48a782"],"planet_colors":["#5f6f81","#7f5d5d"],"screen_resolution":[1366,768],"minimum_resolution":1,"trial":53,"drifts":[0.476,0.391,0.373,0.273],"drift_ix":0,"trial_type":"two-step-trial","trial_index":88,"time_elapsed":764670,"internal_node_id":"0.0-66.0-0.0","task_version":"1.0","jspsych_version":"6.3.1","browser_interactions":0,"missing":false},{"state_1_ids":[1,0],"state_1_key":0,"state_1_choice":1,"state_1_rt":658.1999999955297,"transition":0,"state":0,"state_2_ids":[0,1],"state_2_key":0,"state_2_choice":0,"state_2_rt":1190.8000000044703,"outcome":0,"rocket_colors":["#955db9","#48a782"],"planet_colors":["#5f6f81","#7f5d5d"],"screen_resolution":[1366,768],"minimum_resolution":1,"trial":54,"drifts":[0.452,0.379,0.383,0.272],"drift_ix":0,"trial_type":"two-step-trial","trial_index":89,"time_elapsed":768526,"internal_node_id":"0.0-67.0-0.0","task_version":"1.0","jspsych_version":"6.3.1","browser_interactions":0,"missing":false},{"state_1_ids":[0,1],"state_1_key":1,"state_1_choice":1,"state_1_rt":1186.5,"transition":0,"state":0,"state_2_ids":[0,1],"state_2_key":1,"state_2_choice":1,"state_2_rt":1100.6000000014901,"outcome":0,"rocket_colors":["#955db9","#48a782"],"planet_colors":["#5f6f81","#7f5d5d"],"screen_resolution":[1366,768],"minimum_resolution":1,"trial":55,"drifts":[0.448,0.393,0.401,0.289],"drift_ix":0,"trial_type":"two-step-trial","trial_index":90,"time_elapsed":772822,"internal_node_id":"0.0-68.0-0.0","task_version":"1.0","jspsych_version":"6.3.1","browser_interactions":0,"missing":false},{"state_1_ids":[1,0],"state_1_key":0,"state_1_choice":1,"state_1_rt":1076.1999999955297,"transition":0,"state":0,"state_2_ids":[0,1],"state_2_key":0,"state_2_choice":0,"state_2_rt":772.6000000014901,"outcome":0,"rocket_colors":["#955db9","#48a782"],"planet_colors":["#5f6f81","#7f5d5d"],"screen_resolution":[1366,768],"minimum_resolution":1,"trial":56,"drifts":[0.435,0.368,0.433,0.291],"drift_ix":0,"trial_type":"two-step-trial","trial_index":91,"time_elapsed":776681,"internal_node_id":"0.0-69.0-0.0","task_version":"1.0","jspsych_version":"6.3.1","browser_interactions":0,"missing":false},{"state_1_ids":[0,1],"state_1_key":1,"state_1_choice":1,"state_1_rt":1201,"transition":1,"state":1,"state_2_ids":[2,3],"state_2_key":0,"state_2_choice":2,"state_2_rt":479.20000000298023,"outcome":1,"rocket_colors":["#955db9","#48a782"],"planet_colors":["#5f6f81","#7f5d5d"],"screen_resolution":[1366,768],"minimum_resolution":1,"trial":57,"drifts":[0.441,0.373,0.443,0.285],"drift_ix":0,"trial_type":"two-step-trial","trial_index":92,"time_elapsed":780368,"internal_node_id":"0.0-70.0-0.0","task_version":"1.0","jspsych_version":"6.3.1","browser_interactions":0,"missing":false},{"state_1_ids":[0,1],"state_1_key":1,"state_1_choice":1,"state_1_rt":906.5,"transition":0,"state":0,"state_2_ids":[0,1],"state_2_key":1,"state_2_choice":1,"state_2_rt":1013.3999999985099,"outcome":0,"rocket_colors":["#955db9","#48a782"],"planet_colors":["#5f6f81","#7f5d5d"],"screen_resolution":[1366,768],"minimum_resolution":1,"trial":58,"drifts":[0.418,0.389,0.42,0.282],"drift_ix":0,"trial_type":"two-step-trial","trial_index":93,"time_elapsed":784297,"internal_node_id":"0.0-71.0-0.0","task_version":"1.0","jspsych_version":"6.3.1","browser_interactions":0,"missing":false},{"state_1_ids":[0,1],"state_1_key":1,"state_1_choice":1,"state_1_rt":752.8999999985099,"transition":0,"state":0,"state_2_ids":[0,1],"state_2_key":0,"state_2_choice":0,"state_2_rt":724.8999999985099,"outcome":0,"rocket_colors":["#955db9","#48a782"],"planet_colors":["#5f6f81","#7f5d5d"],"screen_resolution":[1366,768],"minimum_resolution":1,"trial":59,"drifts":[0.41,0.383,0.392,0.255],"drift_ix":0,"trial_type":"two-step-trial","trial_index":94,"time_elapsed":787784,"internal_node_id":"0.0-72.0-0.0","task_version":"1.0","jspsych_version":"6.3.1","browser_interactions":0,"missing":false},{"state_1_ids":[0,1],"state_1_key":1,"state_1_choice":1,"state_1_rt":795.3000000044703,"transition":0,"state":0,"state_2_ids":[0,1],"state_2_key":0,"state_2_choice":0,"state_2_rt":678.9000000059605,"outcome":1,"rocket_colors":["#955db9","#48a782"],"planet_colors":["#5f6f81","#7f5d5d"],"screen_resolution":[1366,768],"minimum_resolution":1,"trial":60,"drifts":[0.426,0.384,0.354,0.267],"drift_ix":0,"trial_type":"two-step-trial","trial_index":95,"time_elapsed":791266,"internal_node_id":"0.0-73.0-0.0","task_version":"1.0","jspsych_version":"6.3.1","browser_interactions":0,"missing":false},{"state_1_ids":[1,0],"state_1_key":0,"state_1_choice":1,"state_1_rt":834.5,"transition":1,"state":1,"state_2_ids":[2,3],"state_2_key":0,"state_2_choice":2,"state_2_rt":525.6999999955297,"outcome":1,"rocket_colors":["#955db9","#48a782"],"planet_colors":["#5f6f81","#7f5d5d"],"screen_resolution":[1366,768],"minimum_resolution":1,"trial":61,"drifts":[0.416,0.414,0.379,0.254],"drift_ix":0,"trial_type":"two-step-trial","trial_index":96,"time_elapsed":794634,"internal_node_id":"0.0-74.0-0.0","task_version":"1.0","jspsych_version":"6.3.1","browser_interactions":0,"missing":false},{"state_1_ids":[1,0],"state_1_key":0,"state_1_choice":1,"state_1_rt":827.7999999970198,"transition":1,"state":1,"state_2_ids":[2,3],"state_2_key":0,"state_2_choice":2,"state_2_rt":813.6999999955297,"outcome":0,"rocket_colors":["#955db9","#48a782"],"planet_colors":["#5f6f81","#7f5d5d"],"screen_resolution":[1366,768],"minimum_resolution":1,"trial":62,"drifts":[0.353,0.414,0.383,0.26],"drift_ix":0,"trial_type":"two-step-trial","trial_index":97,"time_elapsed":798282,"internal_node_id":"0.0-75.0-0.0","task_version":"1.0","jspsych_version":"6.3.1","browser_interactions":0,"missing":false},{"state_1_ids":[1,0],"state_1_key":0,"state_1_choice":1,"state_1_rt":690.5,"transition":1,"state":1,"state_2_ids":[2,3],"state_2_key":0,"state_2_choice":2,"state_2_rt":646.7000000029802,"outcome":1,"rocket_colors":["#955db9","#48a782"],"planet_colors":["#5f6f81","#7f5d5d"],"screen_resolution":[1366,768],"minimum_resolution":1,"trial":63,"drifts":[0.293,0.383,0.425,0.266],"drift_ix":0,"trial_type":"two-step-trial","trial_index":98,"time_elapsed":801627,"internal_node_id":"0.0-76.0-0.0","task_version":"1.0","jspsych_version":"6.3.1","browser_interactions":0,"missing":false},{"state_1_ids":[0,1],"state_1_key":1,"state_1_choice":1,"state_1_rt":843.3000000044703,"transition":0,"state":0,"state_2_ids":[0,1],"state_2_key":0,"state_2_choice":0,"state_2_rt":788.1999999955297,"outcome":0,"rocket_colors":["#955db9","#48a782"],"planet_colors":["#5f6f81","#7f5d5d"],"screen_resolution":[1366,768],"minimum_resolution":1,"trial":64,"drifts":[0.288,0.362,0.432,0.275],"drift_ix":0,"trial_type":"two-step-trial","trial_index":99,"time_elapsed":805268,"internal_node_id":"0.0-77.0-0.0","task_version":"1.0","jspsych_version":"6.3.1","browser_interactions":0,"missing":false},{"state_1_ids":[1,0],"state_1_key":0,"state_1_choice":1,"state_1_rt":889.5,"transition":1,"state":1,"state_2_ids":[2,3],"state_2_key":0,"state_2_choice":2,"state_2_rt":622.1999999955297,"outcome":0,"rocket_colors":["#955db9","#48a782"],"planet_colors":["#5f6f81","#7f5d5d"],"screen_resolution":[1366,768],"minimum_resolution":1,"trial":65,"drifts":[0.297,0.363,0.457,0.29],"drift_ix":0,"trial_type":"two-step-trial","trial_index":100,"time_elapsed":808788,"internal_node_id":"0.0-78.0-0.0","task_version":"1.0","jspsych_version":"6.3.1","browser_interactions":0,"missing":false},{"state_1_ids":[0,1],"state_1_key":1,"state_1_choice":1,"state_1_rt":834.6999999955297,"transition":1,"state":1,"state_2_ids":[2,3],"state_2_key":0,"state_2_choice":2,"state_2_rt":574.3000000044703,"outcome":1,"rocket_colors":["#955db9","#48a782"],"planet_colors":["#5f6f81","#7f5d5d"],"screen_resolution":[1366,768],"minimum_resolution":1,"trial":66,"drifts":[0.25,0.333,0.451,0.284],"drift_ix":0,"trial_type":"two-step-trial","trial_index":101,"time_elapsed":812204,"internal_node_id":"0.0-79.0-0.0","task_version":"1.0","jspsych_version":"6.3.1","browser_interactions":0,"missing":false},{"state_1_ids":[1,0],"state_1_key":0,"state_1_choice":1,"state_1_rt":817,"transition":0,"state":0,"state_2_ids":[0,1],"state_2_key":0,"state_2_choice":0,"state_2_rt":840.8999999985099,"outcome":0,"rocket_colors":["#955db9","#48a782"],"planet_colors":["#5f6f81","#7f5d5d"],"screen_resolution":[1366,768],"minimum_resolution":1,"trial":67,"drifts":[0.255,0.331,0.425,0.278],"drift_ix":0,"trial_type":"two-step-trial","trial_index":102,"time_elapsed":815869,"internal_node_id":"0.0-80.0-0.0","task_version":"1.0","jspsych_version":"6.3.1","browser_interactions":0,"missing":false},{"state_1_ids":[1,0],"state_1_key":0,"state_1_choice":1,"state_1_rt":610.3999999985099,"transition":1,"state":1,"state_2_ids":[2,3],"state_2_key":0,"state_2_choice":2,"state_2_rt":468.79999999701977,"outcome":0,"rocket_colors":["#955db9","#48a782"],"planet_colors":["#5f6f81","#7f5d5d"],"screen_resolution":[1366,768],"minimum_resolution":1,"trial":68,"drifts":[0.281,0.326,0.434,0.261],"drift_ix":0,"trial_type":"two-step-trial","trial_index":103,"time_elapsed":818957,"internal_node_id":"0.0-81.0-0.0","task_version":"1.0","jspsych_version":"6.3.1","browser_interactions":0,"missing":false},{"state_1_ids":[0,1],"state_1_key":1,"state_1_choice":1,"state_1_rt":642.6999999955297,"transition":1,"state":1,"state_2_ids":[2,3],"state_2_key":0,"state_2_choice":2,"state_2_rt":485.1000000014901,"outcome":0,"rocket_colors":["#955db9","#48a782"],"planet_colors":["#5f6f81","#7f5d5d"],"screen_resolution":[1366,768],"minimum_resolution":1,"trial":69,"drifts":[0.277,0.319,0.434,0.286],"drift_ix":0,"trial_type":"two-step-trial","trial_index":104,"time_elapsed":822093,"internal_node_id":"0.0-82.0-0.0","task_version":"1.0","jspsych_version":"6.3.1","browser_interactions":0,"missing":false},{"state_1_ids":[0,1],"state_1_key":1,"state_1_choice":1,"state_1_rt":563.3999999985099,"transition":1,"state":1,"state_2_ids":[2,3],"state_2_key":1,"state_2_choice":3,"state_2_rt":996.7999999970198,"outcome":0,"rocket_colors":["#955db9","#48a782"],"planet_colors":["#5f6f81","#7f5d5d"],"screen_resolution":[1366,768],"minimum_resolution":1,"trial":70,"drifts":[0.318,0.351,0.474,0.272],"drift_ix":0,"trial_type":"two-step-trial","trial_index":105,"time_elapsed":825662,"internal_node_id":"0.0-83.0-0.0","task_version":"1.0","jspsych_version":"6.3.1","browser_interactions":0,"missing":false},{"state_1_ids":[1,0],"state_1_key":0,"state_1_choice":1,"state_1_rt":810.6999999955297,"transition":1,"state":1,"state_2_ids":[2,3],"state_2_key":1,"state_2_choice":3,"state_2_rt":500.40000000596046,"outcome":1,"rocket_colors":["#955db9","#48a782"],"planet_colors":["#5f6f81","#7f5d5d"],"screen_resolution":[1366,768],"minimum_resolution":1,"trial":71,"drifts":[0.306,0.331,0.46,0.274],"drift_ix":0,"trial_type":"two-step-trial","trial_index":106,"time_elapsed":828983,"internal_node_id":"0.0-84.0-0.0","task_version":"1.0","jspsych_version":"6.3.1","browser_interactions":0,"missing":false},{"state_1_ids":[0,1],"state_1_key":1,"state_1_choice":1,"state_1_rt":922,"transition":0,"state":0,"state_2_ids":[0,1],"state_2_key":0,"state_2_choice":0,"state_2_rt":1286,"outcome":0,"rocket_colors":["#955db9","#48a782"],"planet_colors":["#5f6f81","#7f5d5d"],"screen_resolution":[1366,768],"minimum_resolution":1,"trial":72,"drifts":[0.35,0.329,0.432,0.251],"drift_ix":0,"trial_type":"two-step-trial","trial_index":107,"time_elapsed":833199,"internal_node_id":"0.0-85.0-0.0","task_version":"1.0","jspsych_version":"6.3.1","browser_interactions":0,"missing":false},{"state_1_ids":[1,0],"state_1_key":0,"state_1_choice":1,"state_1_rt":714.5,"transition":1,"state":1,"state_2_ids":[2,3],"state_2_key":1,"state_2_choice":3,"state_2_rt":781.5,"outcome":1,"rocket_colors":["#955db9","#48a782"],"planet_colors":["#5f6f81","#7f5d5d"],"screen_resolution":[1366,768],"minimum_resolution":1,"trial":73,"drifts":[0.352,0.318,0.461,0.257],"drift_ix":0,"trial_type":"two-step-trial","trial_index":108,"time_elapsed":836701,"internal_node_id":"0.0-86.0-0.0","task_version":"1.0","jspsych_version":"6.3.1","browser_interactions":0,"missing":false},{"state_1_ids":[0,1],"state_1_key":1,"state_1_choice":1,"state_1_rt":749.9000000059605,"transition":1,"state":1,"state_2_ids":[2,3],"state_2_key":1,"state_2_choice":3,"state_2_rt":606.3999999985099,"outcome":1,"rocket_colors":["#955db9","#48a782"],"planet_colors":["#5f6f81","#7f5d5d"],"screen_resolution":[1366,768],"minimum_resolution":1,"trial":74,"drifts":[0.374,0.315,0.514,0.262],"drift_ix":0,"trial_type":"two-step-trial","trial_index":109,"time_elapsed":840065,"internal_node_id":"0.0-87.0-0.0","task_version":"1.0","jspsych_version":"6.3.1","browser_interactions":0,"missing":false},{"state_1_ids":[1,0],"state_1_key":0,"state_1_choice":1,"state_1_rt":936,"transition":0,"state":0,"state_2_ids":[0,1],"state_2_key":1,"state_2_choice":1,"state_2_rt":2095.7000000029802,"outcome":0,"rocket_colors":["#955db9","#48a782"],"planet_colors":["#5f6f81","#7f5d5d"],"screen_resolution":[1366,768],"minimum_resolution":1,"trial":75,"drifts":[0.405,0.348,0.504,0.256],"drift_ix":0,"trial_type":"two-step-trial","trial_index":110,"time_elapsed":845105,"internal_node_id":"0.0-88.0-0.0","task_version":"1.0","jspsych_version":"6.3.1","browser_interactions":0,"missing":false},{"state_1_ids":[0,1],"state_1_key":1,"state_1_choice":1,"state_1_rt":1378.6000000014901,"transition":1,"state":1,"state_2_ids":[2,3],"state_2_key":1,"state_2_choice":3,"state_2_rt":421.19999999552965,"outcome":0,"rocket_colors":["#955db9","#48a782"],"planet_colors":["#5f6f81","#7f5d5d"],"screen_resolution":[1366,768],"minimum_resolution":1,"trial":76,"drifts":[0.43,0.367,0.513,0.251],"drift_ix":0,"trial_type":"two-step-trial","trial_index":111,"time_elapsed":848914,"internal_node_id":"0.0-89.0-0.0","task_version":"1.0","jspsych_version":"6.3.1","browser_interactions":0,"missing":false},{"state_1_ids":[1,0],"state_1_key":0,"state_1_choice":1,"state_1_rt":706.3999999985099,"transition":0,"state":0,"state_2_ids":[0,1],"state_2_key":0,"state_2_choice":0,"state_2_rt":2093.2000000029802,"outcome":0,"rocket_colors":["#955db9","#48a782"],"planet_colors":["#5f6f81","#7f5d5d"],"screen_resolution":[1366,768],"minimum_resolution":1,"trial":77,"drifts":[0.426,0.365,0.523,0.279],"drift_ix":0,"trial_type":"two-step-trial","trial_index":112,"time_elapsed":853722,"internal_node_id":"0.0-90.0-0.0","task_version":"1.0","jspsych_version":"6.3.1","browser_interactions":0,"missing":false},{"state_1_ids":[0,1],"state_1_key":1,"state_1_choice":1,"state_1_rt":650.5,"transition":1,"state":1,"state_2_ids":[2,3],"state_2_key":0,"state_2_choice":2,"state_2_rt":590.2000000029802,"outcome":1,"rocket_colors":["#955db9","#48a782"],"planet_colors":["#5f6f81","#7f5d5d"],"screen_resolution":[1366,768],"minimum_resolution":1,"trial":78,"drifts":[0.411,0.377,0.525,0.29],"drift_ix":0,"trial_type":"two-step-trial","trial_index":113,"time_elapsed":856969,"internal_node_id":"0.0-91.0-0.0","task_version":"1.0","jspsych_version":"6.3.1","browser_interactions":0,"missing":false},{"state_1_ids":[1,0],"state_1_key":0,"state_1_choice":1,"state_1_rt":890.7000000029802,"transition":1,"state":1,"state_2_ids":[2,3],"state_2_key":0,"state_2_choice":2,"state_2_rt":526.6999999955297,"outcome":0,"rocket_colors":["#955db9","#48a782"],"planet_colors":["#5f6f81","#7f5d5d"],"screen_resolution":[1366,768],"minimum_resolution":1,"trial":79,"drifts":[0.413,0.36,0.538,0.31],"drift_ix":0,"trial_type":"two-step-trial","trial_index":114,"time_elapsed":860393,"internal_node_id":"0.0-92.0-0.0","task_version":"1.0","jspsych_version":"6.3.1","browser_interactions":0,"missing":false},{"state_1_ids":[0,1],"state_1_key":1,"state_1_choice":1,"state_1_rt":786.3999999985099,"transition":0,"state":0,"state_2_ids":[0,1],"state_2_key":1,"state_2_choice":1,"state_2_rt":1399.5,"outcome":0,"rocket_colors":["#955db9","#48a782"],"planet_colors":["#5f6f81","#7f5d5d"],"screen_resolution":[1366,768],"minimum_resolution":1,"trial":80,"drifts":[0.394,0.383,0.524,0.282],"drift_ix":0,"trial_type":"two-step-trial","trial_index":115,"time_elapsed":864587,"internal_node_id":"0.0-93.0-0.0","task_version":"1.0","jspsych_version":"6.3.1","browser_interactions":0,"missing":false},{"state_1_ids":[0,1],"state_1_key":1,"state_1_choice":1,"state_1_rt":592.1999999955297,"transition":1,"state":1,"state_2_ids":[2,3],"state_2_key":0,"state_2_choice":2,"state_2_rt":1188.5,"outcome":1,"rocket_colors":["#955db9","#48a782"],"planet_colors":["#5f6f81","#7f5d5d"],"screen_resolution":[1366,768],"minimum_resolution":1,"trial":81,"drifts":[0.361,0.391,0.524,0.269],"drift_ix":0,"trial_type":"two-step-trial","trial_index":116,"time_elapsed":868378,"internal_node_id":"0.0-94.0-0.0","task_version":"1.0","jspsych_version":"6.3.1","browser_interactions":0,"missing":false},{"state_1_ids":[0,1],"state_1_key":1,"state_1_choice":1,"state_1_rt":866.2999999970198,"transition":1,"state":1,"state_2_ids":[2,3],"state_2_key":0,"state_2_choice":2,"state_2_rt":660.1999999955297,"outcome":0,"rocket_colors":["#955db9","#48a782"],"planet_colors":["#5f6f81","#7f5d5d"],"screen_resolution":[1366,768],"minimum_resolution":1,"trial":82,"drifts":[0.354,0.377,0.535,0.274],"drift_ix":0,"trial_type":"two-step-trial","trial_index":117,"time_elapsed":871914,"internal_node_id":"0.0-95.0-0.0","task_version":"1.0","jspsych_version":"6.3.1","browser_interactions":0,"missing":false},{"state_1_ids":[1,0],"state_1_key":0,"state_1_choice":1,"state_1_rt":660,"transition":0,"state":0,"state_2_ids":[0,1],"state_2_key":1,"state_2_choice":1,"state_2_rt":1518.1000000014901,"outcome":0,"rocket_colors":["#955db9","#48a782"],"planet_colors":["#5f6f81","#7f5d5d"],"screen_resolution":[1366,768],"minimum_resolution":1,"trial":83,"drifts":[0.353,0.363,0.504,0.307],"drift_ix":0,"trial_type":"two-step-trial","trial_index":118,"time_elapsed":876108,"internal_node_id":"0.0-96.0-0.0","task_version":"1.0","jspsych_version":"6.3.1","browser_interactions":0,"missing":false},{"state_1_ids":[1,0],"state_1_key":0,"state_1_choice":1,"state_1_rt":899,"transition":1,"state":1,"state_2_ids":[2,3],"state_2_key":0,"state_2_choice":2,"state_2_rt":718.6000000014901,"outcome":0,"rocket_colors":["#955db9","#48a782"],"planet_colors":["#5f6f81","#7f5d5d"],"screen_resolution":[1366,768],"minimum_resolution":1,"trial":84,"drifts":[0.361,0.317,0.485,0.273],"drift_ix":0,"trial_type":"two-step-trial","trial_index":119,"time_elapsed":879732,"internal_node_id":"0.0-97.0-0.0","task_version":"1.0","jspsych_version":"6.3.1","browser_interactions":0,"missing":false},{"state_1_ids":[1,0],"state_1_key":0,"state_1_choice":1,"state_1_rt":714.6000000014901,"transition":1,"state":1,"state_2_ids":[2,3],"state_2_key":1,"state_2_choice":3,"state_2_rt":557.8999999985099,"outcome":1,"rocket_colors":["#955db9","#48a782"],"planet_colors":["#5f6f81","#7f5d5d"],"screen_resolution":[1366,768],"minimum_resolution":1,"trial":85,"drifts":[0.295,0.332,0.47,0.26],"drift_ix":0,"trial_type":"two-step-trial","trial_index":120,"time_elapsed":883012,"internal_node_id":"0.0-98.0-0.0","task_version":"1.0","jspsych_version":"6.3.1","browser_interactions":0,"missing":false},{"state_1_ids":[0,1],"state_1_key":1,"state_1_choice":1,"state_1_rt":698.5,"transition":1,"state":1,"state_2_ids":[2,3],"state_2_key":1,"state_2_choice":3,"state_2_rt":614,"outcome":0,"rocket_colors":["#955db9","#48a782"],"planet_colors":["#5f6f81","#7f5d5d"],"screen_resolution":[1366,768],"minimum_resolution":1,"trial":86,"drifts":[0.287,0.344,0.46,0.32],"drift_ix":0,"trial_type":"two-step-trial","trial_index":121,"time_elapsed":886333,"internal_node_id":"0.0-99.0-0.0","task_version":"1.0","jspsych_version":"6.3.1","browser_interactions":0,"missing":false},{"state_1_ids":[0,1],"state_1_key":1,"state_1_choice":1,"state_1_rt":601.6999999955297,"transition":0,"state":0,"state_2_ids":[0,1],"state_2_key":0,"state_2_choice":0,"state_2_rt":852.7999999970198,"outcome":1,"rocket_colors":["#955db9","#48a782"],"planet_colors":["#5f6f81","#7f5d5d"],"screen_resolution":[1366,768],"minimum_resolution":1,"trial":87,"drifts":[0.278,0.373,0.46,0.351],"drift_ix":0,"trial_type":"two-step-trial","trial_index":122,"time_elapsed":889798,"internal_node_id":"0.0-100.0-0.0","task_version":"1.0","jspsych_version":"6.3.1","browser_interactions":0,"missing":false},{"state_1_ids":[1,0],"state_1_key":0,"state_1_choice":1,"state_1_rt":1057.7999999970198,"transition":0,"state":0,"state_2_ids":[0,1],"state_2_key":0,"state_2_choice":0,"state_2_rt":838.7000000029802,"outcome":1,"rocket_colors":["#955db9","#48a782"],"planet_colors":["#5f6f81","#7f5d5d"],"screen_resolution":[1366,768],"minimum_resolution":1,"trial":88,"drifts":[0.277,0.355,0.459,0.358],"drift_ix":0,"trial_type":"two-step-trial","trial_index":123,"time_elapsed":893704,"internal_node_id":"0.0-101.0-0.0","task_version":"1.0","jspsych_version":"6.3.1","browser_interactions":0,"missing":false},{"state_1_ids":[0,1],"state_1_key":1,"state_1_choice":1,"state_1_rt":928,"transition":0,"state":0,"state_2_ids":[0,1],"state_2_key":0,"state_2_choice":0,"state_2_rt":734.1000000014901,"outcome":0,"rocket_colors":["#955db9","#48a782"],"planet_colors":["#5f6f81","#7f5d5d"],"screen_resolution":[1366,768],"minimum_resolution":1,"trial":89,"drifts":[0.264,0.395,0.47,0.338],"drift_ix":0,"trial_type":"two-step-trial","trial_index":124,"time_elapsed":897375,"internal_node_id":"0.0-102.0-0.0","task_version":"1.0","jspsych_version":"6.3.1","browser_interactions":0,"missing":false},{"state_1_ids":[0,1],"state_1_key":1,"state_1_choice":1,"state_1_rt":809.5,"transition":1,"state":1,"state_2_ids":[2,3],"state_2_key":0,"state_2_choice":2,"state_2_rt":900.8000000044703,"outcome":0,"rocket_colors":["#955db9","#48a782"],"planet_colors":["#5f6f81","#7f5d5d"],"screen_resolution":[1366,768],"minimum_resolution":1,"trial":90,"drifts":[0.258,0.389,0.495,0.348],"drift_ix":0,"trial_type":"two-step-trial","trial_index":125,"time_elapsed":901096,"internal_node_id":"0.0-103.0-0.0","task_version":"1.0","jspsych_version":"6.3.1","browser_interactions":0,"missing":false},{"state_1_ids":[1,0],"state_1_key":0,"state_1_choice":1,"state_1_rt":713.5,"transition":1,"state":1,"state_2_ids":[2,3],"state_2_key":1,"state_2_choice":3,"state_2_rt":513.3000000044703,"outcome":0,"rocket_colors":["#955db9","#48a782"],"planet_colors":["#5f6f81","#7f5d5d"],"screen_resolution":[1366,768],"minimum_resolution":1,"trial":91,"drifts":[0.325,0.363,0.524,0.356],"drift_ix":0,"trial_type":"two-step-trial","trial_index":126,"time_elapsed":904337,"internal_node_id":"0.0-104.0-0.0","task_version":"1.0","jspsych_version":"6.3.1","browser_interactions":0,"missing":false},{"state_1_ids":[0,1],"state_1_key":1,"state_1_choice":1,"state_1_rt":753.3999999985099,"transition":1,"state":1,"state_2_ids":[2,3],"state_2_key":0,"state_2_choice":2,"state_2_rt":1534.1000000014901,"outcome":1,"rocket_colors":["#955db9","#48a782"],"planet_colors":["#5f6f81","#7f5d5d"],"screen_resolution":[1366,768],"minimum_resolution":1,"trial":92,"drifts":[0.29,0.354,0.524,0.361],"drift_ix":0,"trial_type":"two-step-trial","trial_index":127,"time_elapsed":908632,"internal_node_id":"0.0-105.0-0.0","task_version":"1.0","jspsych_version":"6.3.1","browser_interactions":0,"missing":false},{"state_1_ids":[0,1],"state_1_key":1,"state_1_choice":1,"state_1_rt":930.3000000044703,"transition":0,"state":0,"state_2_ids":[0,1],"state_2_key":0,"state_2_choice":0,"state_2_rt":1013.3999999985099,"outcome":0,"rocket_colors":["#955db9","#48a782"],"planet_colors":["#5f6f81","#7f5d5d"],"screen_resolution":[1366,768],"minimum_resolution":1,"trial":93,"drifts":[0.318,0.353,0.542,0.336],"drift_ix":0,"trial_type":"two-step-trial","trial_index":128,"time_elapsed":912585,"internal_node_id":"0.0-106.0-0.0","task_version":"1.0","jspsych_version":"6.3.1","browser_interactions":0,"missing":false},{"state_1_ids":[0,1],"state_1_key":1,"state_1_choice":1,"state_1_rt":1134.6000000014901,"transition":0,"state":0,"state_2_ids":[0,1],"state_2_key":1,"state_2_choice":1,"state_2_rt":1143,"outcome":0,"rocket_colors":["#955db9","#48a782"],"planet_colors":["#5f6f81","#7f5d5d"],"screen_resolution":[1366,768],"minimum_resolution":1,"trial":94,"drifts":[0.329,0.367,0.542,0.302],"drift_ix":0,"trial_type":"two-step-trial","trial_index":129,"time_elapsed":916874,"internal_node_id":"0.0-107.0-0.0","task_version":"1.0","jspsych_version":"6.3.1","browser_interactions":0,"missing":false},{"state_1_ids":[0,1],"state_1_key":0,"state_1_choice":0,"state_1_rt":1737.7000000029802,"transition":1,"state":0,"state_2_ids":[0,1],"state_2_key":0,"state_2_choice":0,"state_2_rt":702.8999999985099,"outcome":0,"rocket_colors":["#955db9","#48a782"],"planet_colors":["#5f6f81","#7f5d5d"],"screen_resolution":[1366,768],"minimum_resolution":1,"trial":95,"drifts":[0.348,0.33,0.586,0.265],"drift_ix":0,"trial_type":"two-step-trial","trial_index":130,"time_elapsed":921322,"internal_node_id":"0.0-108.0-0.0","task_version":"1.0","jspsych_version":"6.3.1","browser_interactions":0,"missing":false},{"state_1_ids":[1,0],"state_1_key":0,"state_1_choice":1,"state_1_rt":1802,"transition":0,"state":0,"state_2_ids":[0,1],"state_2_key":0,"state_2_choice":0,"state_2_rt":782.1000000014901,"outcome":1,"rocket_colors":["#955db9","#48a782"],"planet_colors":["#5f6f81","#7f5d5d"],"screen_resolution":[1366,768],"minimum_resolution":1,"trial":96,"drifts":[0.348,0.348,0.591,0.304],"drift_ix":0,"trial_type":"two-step-trial","trial_index":131,"time_elapsed":925914,"internal_node_id":"0.0-109.0-0.0","task_version":"1.0","jspsych_version":"6.3.1","browser_interactions":0,"missing":false},{"state_1_ids":[1,0],"state_1_key":0,"state_1_choice":1,"state_1_rt":674.8999999985099,"transition":1,"state":1,"state_2_ids":[2,3],"state_2_key":0,"state_2_choice":2,"state_2_rt":734,"outcome":1,"rocket_colors":["#955db9","#48a782"],"planet_colors":["#5f6f81","#7f5d5d"],"screen_resolution":[1366,768],"minimum_resolution":1,"trial":97,"drifts":[0.328,0.258,0.639,0.303],"drift_ix":0,"trial_type":"two-step-trial","trial_index":132,"time_elapsed":929331,"internal_node_id":"0.0-110.0-0.0","task_version":"1.0","jspsych_version":"6.3.1","browser_interactions":0,"missing":false},{"state_1_ids":[0,1],"state_1_key":1,"state_1_choice":1,"state_1_rt":593.7999999970198,"transition":1,"state":1,"state_2_ids":[2,3],"state_2_key":0,"state_2_choice":2,"state_2_rt":518.6000000014901,"outcome":1,"rocket_colors":["#955db9","#48a782"],"planet_colors":["#5f6f81","#7f5d5d"],"screen_resolution":[1366,768],"minimum_resolution":1,"trial":98,"drifts":[0.381,0.256,0.661,0.29],"drift_ix":0,"trial_type":"two-step-trial","trial_index":133,"time_elapsed":932451,"internal_node_id":"0.0-111.0-0.0","task_version":"1.0","jspsych_version":"6.3.1","browser_interactions":0,"missing":false},{"state_1_ids":[1,0],"state_1_key":0,"state_1_choice":1,"state_1_rt":738.5,"transition":1,"state":1,"state_2_ids":[2,3],"state_2_key":0,"state_2_choice":2,"state_2_rt":670.5,"outcome":0,"rocket_colors":["#955db9","#48a782"],"planet_colors":["#5f6f81","#7f5d5d"],"screen_resolution":[1366,768],"minimum_resolution":1,"trial":99,"drifts":[0.423,0.312,0.659,0.319],"drift_ix":0,"trial_type":"two-step-trial","trial_index":134,"time_elapsed":935868,"internal_node_id":"0.0-112.0-0.0","task_version":"1.0","jspsych_version":"6.3.1","browser_interactions":0,"missing":false},{"state_1_ids":[0,1],"state_1_key":1,"state_1_choice":1,"state_1_rt":586.1000000014901,"transition":1,"state":1,"state_2_ids":[2,3],"state_2_key":1,"state_2_choice":3,"state_2_rt":726.2999999970198,"outcome":0,"rocket_colors":["#955db9","#48a782"],"planet_colors":["#5f6f81","#7f5d5d"],"screen_resolution":[1366,768],"minimum_resolution":1,"trial":100,"drifts":[0.419,0.326,0.615,0.332],"drift_ix":0,"trial_type":"two-step-trial","trial_index":135,"time_elapsed":939189,"internal_node_id":"0.0-113.0-0.0","task_version":"1.0","jspsych_version":"6.3.1","browser_interactions":0,"missing":false},{"view_history":"[{\"page_index\":0,\"viewing_time\":4281.29999999702},{\"page_index\":1,\"viewing_time\":1928.3000000044703}]","rt":6210.60000000149,"trial_type":"two-step-instructions","trial_index":136,"time_elapsed":945405,"internal_node_id":"0.0-114.0","task_version":"1.0","jspsych_version":"6.3.1"},{"state_1_ids":[1,0],"state_1_key":0,"state_1_choice":1,"state_1_rt":877.2999999970198,"transition":0,"state":0,"state_2_ids":[0,1],"state_2_key":0,"state_2_choice":0,"state_2_rt":789.1000000014901,"outcome":1,"rocket_colors":["#955db9","#48a782"],"planet_colors":["#5f6f81","#7f5d5d"],"screen_resolution":[1366,768],"minimum_resolution":1,"trial":101,"drifts":[0.406,0.305,0.562,0.356],"drift_ix":0,"trial_type":"two-step-trial","trial_index":137,"time_elapsed":949086,"internal_node_id":"0.0-115.0-0.0","task_version":"1.0","jspsych_version":"6.3.1","browser_interactions":0,"missing":false},{"state_1_ids":[0,1],"state_1_key":1,"state_1_choice":1,"state_1_rt":523.5,"transition":0,"state":0,"state_2_ids":[0,1],"state_2_key":0,"state_2_choice":0,"state_2_rt":619.5,"outcome":1,"rocket_colors":["#955db9","#48a782"],"planet_colors":["#5f6f81","#7f5d5d"],"screen_resolution":[1366,768],"minimum_resolution":1,"trial":102,"drifts":[0.412,0.303,0.532,0.328],"drift_ix":0,"trial_type":"two-step-trial","trial_index":138,"time_elapsed":952238,"internal_node_id":"0.0-116.0-0.0","task_version":"1.0","jspsych_version":"6.3.1","browser_interactions":0,"missing":false},{"state_1_ids":[0,1],"state_1_key":1,"state_1_choice":1,"state_1_rt":1522.5,"transition":1,"state":1,"state_2_ids":[2,3],"state_2_key":0,"state_2_choice":2,"state_2_rt":710.8000000044703,"outcome":1,"rocket_colors":["#955db9","#48a782"],"planet_colors":["#5f6f81","#7f5d5d"],"screen_resolution":[1366,768],"minimum_resolution":1,"trial":103,"drifts":[0.399,0.326,0.531,0.314],"drift_ix":0,"trial_type":"two-step-trial","trial_index":139,"time_elapsed":956479,"internal_node_id":"0.0-117.0-0.0","task_version":"1.0","jspsych_version":"6.3.1","browser_interactions":0,"missing":false},{"state_1_ids":[1,0],"state_1_key":0,"state_1_choice":1,"state_1_rt":850.1999999955297,"transition":0,"state":0,"state_2_ids":[0,1],"state_2_key":0,"state_2_choice":0,"state_2_rt":733.7999999970198,"outcome":0,"rocket_colors":["#955db9","#48a782"],"planet_colors":["#5f6f81","#7f5d5d"],"screen_resolution":[1366,768],"minimum_resolution":1,"trial":104,"drifts":[0.398,0.313,0.576,0.303],"drift_ix":0,"trial_type":"two-step-trial","trial_index":140,"time_elapsed":960072,"internal_node_id":"0.0-118.0-0.0","task_version":"1.0","jspsych_version":"6.3.1","browser_interactions":0,"missing":false},{"state_1_ids":[0,1],"state_1_key":1,"state_1_choice":1,"state_1_rt":1585.9000000059605,"transition":1,"state":1,"state_2_ids":[2,3],"state_2_key":0,"state_2_choice":2,"state_2_rt":460.8999999985099,"outcome":1,"rocket_colors":["#955db9","#48a782"],"planet_colors":["#5f6f81","#7f5d5d"],"screen_resolution":[1366,768],"minimum_resolution":1,"trial":105,"drifts":[0.41,0.34,0.593,0.316],"drift_ix":0,"trial_type":"two-step-trial","trial_index":141,"time_elapsed":964127,"internal_node_id":"0.0-119.0-0.0","task_version":"1.0","jspsych_version":"6.3.1","browser_interactions":0,"missing":false},{"state_1_ids":[0,1],"state_1_key":1,"state_1_choice":1,"state_1_rt":722.7000000029802,"transition":0,"state":0,"state_2_ids":[0,1],"state_2_key":0,"state_2_choice":0,"state_2_rt":831.2999999970198,"outcome":0,"rocket_colors":["#955db9","#48a782"],"planet_colors":["#5f6f81","#7f5d5d"],"screen_resolution":[1366,768],"minimum_resolution":1,"trial":106,"drifts":[0.402,0.333,0.57,0.322],"drift_ix":0,"trial_type":"two-step-trial","trial_index":142,"time_elapsed":967688,"internal_node_id":"0.0-120.0-0.0","task_version":"1.0","jspsych_version":"6.3.1","browser_interactions":0,"missing":false},{"state_1_ids":[1,0],"state_1_key":0,"state_1_choice":1,"state_1_rt":739.8999999985099,"transition":0,"state":0,"state_2_ids":[0,1],"state_2_key":1,"state_2_choice":1,"state_2_rt":654.0999999940395,"outcome":0,"rocket_colors":["#955db9","#48a782"],"planet_colors":["#5f6f81","#7f5d5d"],"screen_resolution":[1366,768],"minimum_resolution":1,"trial":107,"drifts":[0.408,0.274,0.566,0.316],"drift_ix":0,"trial_type":"two-step-trial","trial_index":143,"time_elapsed":971089,"internal_node_id":"0.0-121.0-0.0","task_version":"1.0","jspsych_version":"6.3.1","browser_interactions":0,"missing":false},{"state_1_ids":[0,1],"state_1_key":0,"state_1_choice":0,"state_1_rt":1050.6000000014901,"transition":1,"state":0,"state_2_ids":[0,1],"state_2_key":0,"state_2_choice":0,"state_2_rt":822.2999999970198,"outcome":1,"rocket_colors":["#955db9","#48a782"],"planet_colors":["#5f6f81","#7f5d5d"],"screen_resolution":[1366,768],"minimum_resolution":1,"trial":108,"drifts":[0.426,0.262,0.552,0.283],"drift_ix":0,"trial_type":"two-step-trial","trial_index":144,"time_elapsed":974969,"internal_node_id":"0.0-122.0-0.0","task_version":"1.0","jspsych_version":"6.3.1","browser_interactions":0,"missing":false},{"state_1_ids":[1,0],"state_1_key":1,"state_1_choice":0,"state_1_rt":1114.0999999940395,"transition":0,"state":1,"state_2_ids":[2,3],"state_2_key":0,"state_2_choice":2,"state_2_rt":662.7000000029802,"outcome":0,"rocket_colors":["#955db9","#48a782"],"planet_colors":["#5f6f81","#7f5d5d"],"screen_resolution":[1366,768],"minimum_resolution":1,"trial":109,"drifts":[0.4,0.265,0.503,0.284],"drift_ix":0,"trial_type":"two-step-trial","trial_index":145,"time_elapsed":978753,"internal_node_id":"0.0-123.0-0.0","task_version":"1.0","jspsych_version":"6.3.1","browser_interactions":0,"missing":false},{"state_1_ids":[0,1],"state_1_key":0,"state_1_choice":0,"state_1_rt":1234.7999999970198,"transition":1,"state":0,"state_2_ids":[0,1],"state_2_key":0,"state_2_choice":0,"state_2_rt":516,"outcome":0,"rocket_colors":["#955db9","#48a782"],"planet_colors":["#5f6f81","#7f5d5d"],"screen_resolution":[1366,768],"minimum_resolution":1,"trial":110,"drifts":[0.389,0.286,0.517,0.318],"drift_ix":0,"trial_type":"two-step-trial","trial_index":146,"time_elapsed":982512,"internal_node_id":"0.0-124.0-0.0","task_version":"1.0","jspsych_version":"6.3.1","browser_interactions":0,"missing":false},{"state_1_ids":[0,1],"state_1_key":1,"state_1_choice":1,"state_1_rt":532.6000000014901,"transition":1,"state":1,"state_2_ids":[2,3],"state_2_key":0,"state_2_choice":2,"state_2_rt":517.7000000029802,"outcome":1,"rocket_colors":["#955db9","#48a782"],"planet_colors":["#5f6f81","#7f5d5d"],"screen_resolution":[1366,768],"minimum_resolution":1,"trial":111,"drifts":[0.389,0.289,0.505,0.348],"drift_ix":0,"trial_type":"two-step-trial","trial_index":147,"time_elapsed":985572,"internal_node_id":"0.0-125.0-0.0","task_version":"1.0","jspsych_version":"6.3.1","browser_interactions":0,"missing":false},{"state_1_ids":[1,0],"state_1_key":0,"state_1_choice":1,"state_1_rt":816.1000000014901,"transition":1,"state":1,"state_2_ids":[2,3],"state_2_key":0,"state_2_choice":2,"state_2_rt":645.1000000014901,"outcome":0,"rocket_colors":["#955db9","#48a782"],"planet_colors":["#5f6f81","#7f5d5d"],"screen_resolution":[1366,768],"minimum_resolution":1,"trial":112,"drifts":[0.387,0.265,0.506,0.329],"drift_ix":0,"trial_type":"two-step-trial","trial_index":148,"time_elapsed":989041,"internal_node_id":"0.0-126.0-0.0","task_version":"1.0","jspsych_version":"6.3.1","browser_interactions":0,"missing":false},{"state_1_ids":[0,1],"state_1_key":1,"state_1_choice":1,"state_1_rt":827.8999999985099,"transition":1,"state":1,"state_2_ids":[2,3],"state_2_key":1,"state_2_choice":3,"state_2_rt":566.2999999970198,"outcome":1,"rocket_colors":["#955db9","#48a782"],"planet_colors":["#5f6f81","#7f5d5d"],"screen_resolution":[1366,768],"minimum_resolution":1,"trial":113,"drifts":[0.384,0.256,0.524,0.353],"drift_ix":0,"trial_type":"two-step-trial","trial_index":149,"time_elapsed":992443,"internal_node_id":"0.0-127.0-0.0","task_version":"1.0","jspsych_version":"6.3.1","browser_interactions":0,"missing":false},{"state_1_ids":[0,1],"state_1_key":1,"state_1_choice":1,"state_1_rt":851.3000000044703,"transition":1,"state":1,"state_2_ids":[2,3],"state_2_key":1,"state_2_choice":3,"state_2_rt":654,"outcome":1,"rocket_colors":["#955db9","#48a782"],"planet_colors":["#5f6f81","#7f5d5d"],"screen_resolution":[1366,768],"minimum_resolution":1,"trial":114,"drifts":[0.367,0.273,0.512,0.348],"drift_ix":0,"trial_type":"two-step-trial","trial_index":150,"time_elapsed":995956,"internal_node_id":"0.0-128.0-0.0","task_version":"1.0","jspsych_version":"6.3.1","browser_interactions":0,"missing":false},{"state_1_ids":[0,1],"state_1_key":1,"state_1_choice":1,"state_1_rt":1354.4000000059605,"transition":0,"state":0,"state_2_ids":[0,1],"state_2_key":1,"state_2_choice":1,"state_2_rt":1063.3999999985099,"outcome":0,"rocket_colors":["#955db9","#48a782"],"planet_colors":["#5f6f81","#7f5d5d"],"screen_resolution":[1366,768],"minimum_resolution":1,"trial":115,"drifts":[0.323,0.276,0.502,0.358],"drift_ix":0,"trial_type":"two-step-trial","trial_index":151,"time_elapsed":1000379,"internal_node_id":"0.0-129.0-0.0","task_version":"1.0","jspsych_version":"6.3.1","browser_interactions":0,"missing":false},{"state_1_ids":[0,1],"state_1_key":1,"state_1_choice":1,"state_1_rt":612.8000000044703,"transition":1,"state":1,"state_2_ids":[2,3],"state_2_key":1,"state_2_choice":3,"state_2_rt":862.8999999985099,"outcome":0,"rocket_colors":["#955db9","#48a782"],"planet_colors":["#5f6f81","#7f5d5d"],"screen_resolution":[1366,768],"minimum_resolution":1,"trial":116,"drifts":[0.327,0.301,0.482,0.366],"drift_ix":0,"trial_type":"two-step-trial","trial_index":152,"time_elapsed":1003860,"internal_node_id":"0.0-130.0-0.0","task_version":"1.0","jspsych_version":"6.3.1","browser_interactions":0,"missing":false},{"state_1_ids":[0,1],"state_1_key":1,"state_1_choice":1,"state_1_rt":619.1000000014901,"transition":1,"state":1,"state_2_ids":[2,3],"state_2_key":0,"state_2_choice":2,"state_2_rt":556.6999999955297,"outcome":0,"rocket_colors":["#955db9","#48a782"],"planet_colors":["#5f6f81","#7f5d5d"],"screen_resolution":[1366,768],"minimum_resolution":1,"trial":117,"drifts":[0.356,0.324,0.447,0.405],"drift_ix":0,"trial_type":"two-step-trial","trial_index":153,"time_elapsed":1007044,"internal_node_id":"0.0-131.0-0.0","task_version":"1.0","jspsych_version":"6.3.1","browser_interactions":0,"missing":false},{"state_1_ids":[1,0],"state_1_key":0,"state_1_choice":1,"state_1_rt":780.6000000014901,"transition":0,"state":0,"state_2_ids":[0,1],"state_2_key":0,"state_2_choice":0,"state_2_rt":1149.6999999955297,"outcome":1,"rocket_colors":["#955db9","#48a782"],"planet_colors":["#5f6f81","#7f5d5d"],"screen_resolution":[1366,768],"minimum_resolution":1,"trial":118,"drifts":[0.346,0.346,0.451,0.456],"drift_ix":0,"trial_type":"two-step-trial","trial_index":154,"time_elapsed":1010981,"internal_node_id":"0.0-132.0-0.0","task_version":"1.0","jspsych_version":"6.3.1","browser_interactions":0,"missing":false},{"state_1_ids":[1,0],"state_1_key":0,"state_1_choice":1,"state_1_rt":856.6000000014901,"transition":1,"state":1,"state_2_ids":[2,3],"state_2_key":0,"state_2_choice":2,"state_2_rt":607.9000000059605,"outcome":0,"rocket_colors":["#955db9","#48a782"],"planet_colors":["#5f6f81","#7f5d5d"],"screen_resolution":[1366,768],"minimum_resolution":1,"trial":119,"drifts":[0.307,0.341,0.511,0.496],"drift_ix":0,"trial_type":"two-step-trial","trial_index":155,"time_elapsed":1014454,"internal_node_id":"0.0-133.0-0.0","task_version":"1.0","jspsych_version":"6.3.1","browser_interactions":0,"missing":false},{"state_1_ids":[0,1],"state_1_key":1,"state_1_choice":1,"state_1_rt":818.4000000059605,"transition":1,"state":1,"state_2_ids":[2,3],"state_2_key":0,"state_2_choice":2,"state_2_rt":813.0999999940395,"outcome":0,"rocket_colors":["#955db9","#48a782"],"planet_colors":["#5f6f81","#7f5d5d"],"screen_resolution":[1366,768],"minimum_resolution":1,"trial":120,"drifts":[0.301,0.307,0.523,0.5],"drift_ix":0,"trial_type":"two-step-trial","trial_index":156,"time_elapsed":1018095,"internal_node_id":"0.0-134.0-0.0","task_version":"1.0","jspsych_version":"6.3.1","browser_interactions":0,"missing":false},{"state_1_ids":[0,1],"state_1_key":1,"state_1_choice":1,"state_1_rt":993.3999999985099,"transition":0,"state":0,"state_2_ids":[0,1],"state_2_key":0,"state_2_choice":0,"state_2_rt":1262.7999999970198,"outcome":1,"rocket_colors":["#955db9","#48a782"],"planet_colors":["#5f6f81","#7f5d5d"],"screen_resolution":[1366,768],"minimum_resolution":1,"trial":121,"drifts":[0.288,0.297,0.519,0.491],"drift_ix":0,"trial_type":"two-step-trial","trial_index":157,"time_elapsed":1022359,"internal_node_id":"0.0-135.0-0.0","task_version":"1.0","jspsych_version":"6.3.1","browser_interactions":0,"missing":false},{"state_1_ids":[1,0],"state_1_key":0,"state_1_choice":1,"state_1_rt":570.7000000029802,"transition":0,"state":0,"state_2_ids":[0,1],"state_2_key":0,"state_2_choice":0,"state_2_rt":895.6000000014901,"outcome":1,"rocket_colors":["#955db9","#48a782"],"planet_colors":["#5f6f81","#7f5d5d"],"screen_resolution":[1366,768],"minimum_resolution":1,"trial":122,"drifts":[0.275,0.313,0.525,0.507],"drift_ix":0,"trial_type":"two-step-trial","trial_index":158,"time_elapsed":1025833,"internal_node_id":"0.0-136.0-0.0","task_version":"1.0","jspsych_version":"6.3.1","browser_interactions":0,"missing":false},{"state_1_ids":[0,1],"state_1_key":1,"state_1_choice":1,"state_1_rt":857.3000000044703,"transition":1,"state":1,"state_2_ids":[2,3],"state_2_key":1,"state_2_choice":3,"state_2_rt":605.2999999970198,"outcome":0,"rocket_colors":["#955db9","#48a782"],"planet_colors":["#5f6f81","#7f5d5d"],"screen_resolution":[1366,768],"minimum_resolution":1,"trial":123,"drifts":[0.288,0.279,0.473,0.464],"drift_ix":0,"trial_type":"two-step-trial","trial_index":159,"time_elapsed":1029304,"internal_node_id":"0.0-137.0-0.0","task_version":"1.0","jspsych_version":"6.3.1","browser_interactions":0,"missing":false},{"state_1_ids":[1,0],"state_1_key":0,"state_1_choice":1,"state_1_rt":777.8999999985099,"transition":0,"state":0,"state_2_ids":[0,1],"state_2_key":0,"state_2_choice":0,"state_2_rt":580.1000000014901,"outcome":0,"rocket_colors":["#955db9","#48a782"],"planet_colors":["#5f6f81","#7f5d5d"],"screen_resolution":[1366,768],"minimum_resolution":1,"trial":124,"drifts":[0.287,0.296,0.496,0.443],"drift_ix":0,"trial_type":"two-step-trial","trial_index":160,"time_elapsed":1032673,"internal_node_id":"0.0-138.0-0.0","task_version":"1.0","jspsych_version":"6.3.1","browser_interactions":0,"missing":false},{"state_1_ids":[0,1],"state_1_key":1,"state_1_choice":1,"state_1_rt":706.2999999970198,"transition":1,"state":1,"state_2_ids":[2,3],"state_2_key":0,"state_2_choice":2,"state_2_rt":630.1000000014901,"outcome":0,"rocket_colors":["#955db9","#48a782"],"planet_colors":["#5f6f81","#7f5d5d"],"screen_resolution":[1366,768],"minimum_resolution":1,"trial":125,"drifts":[0.26,0.276,0.477,0.451],"drift_ix":0,"trial_type":"two-step-trial","trial_index":161,"time_elapsed":1036017,"internal_node_id":"0.0-139.0-0.0","task_version":"1.0","jspsych_version":"6.3.1","browser_interactions":0,"missing":false},{"state_1_ids":[1,0],"state_1_key":0,"state_1_choice":1,"state_1_rt":754.6999999955297,"transition":1,"state":1,"state_2_ids":[2,3],"state_2_key":1,"state_2_choice":3,"state_2_rt":594.9000000059605,"outcome":0,"rocket_colors":["#955db9","#48a782"],"planet_colors":["#5f6f81","#7f5d5d"],"screen_resolution":[1366,768],"minimum_resolution":1,"trial":126,"drifts":[0.283,0.285,0.494,0.477],"drift_ix":0,"trial_type":"two-step-trial","trial_index":162,"time_elapsed":1039376,"internal_node_id":"0.0-140.0-0.0","task_version":"1.0","jspsych_version":"6.3.1","browser_interactions":0,"missing":false},{"state_1_ids":[1,0],"state_1_key":0,"state_1_choice":1,"state_1_rt":714.8999999985099,"transition":1,"state":1,"state_2_ids":[2,3],"state_2_key":0,"state_2_choice":2,"state_2_rt":567.2000000029802,"outcome":0,"rocket_colors":["#955db9","#48a782"],"planet_colors":["#5f6f81","#7f5d5d"],"screen_resolution":[1366,768],"minimum_resolution":1,"trial":127,"drifts":[0.285,0.251,0.493,0.518],"drift_ix":0,"trial_type":"two-step-trial","trial_index":163,"time_elapsed":1042665,"internal_node_id":"0.0-141.0-0.0","task_version":"1.0","jspsych_version":"6.3.1","browser_interactions":0,"missing":false},{"state_1_ids":[0,1],"state_1_key":1,"state_1_choice":1,"state_1_rt":977.5999999940395,"transition":1,"state":1,"state_2_ids":[2,3],"state_2_key":1,"state_2_choice":3,"state_2_rt":566.2000000029802,"outcome":0,"rocket_colors":["#955db9","#48a782"],"planet_colors":["#5f6f81","#7f5d5d"],"screen_resolution":[1366,768],"minimum_resolution":1,"trial":128,"drifts":[0.285,0.278,0.495,0.479],"drift_ix":0,"trial_type":"two-step-trial","trial_index":164,"time_elapsed":1046218,"internal_node_id":"0.0-142.0-0.0","task_version":"1.0","jspsych_version":"6.3.1","browser_interactions":0,"missing":false},{"state_1_ids":[0,1],"state_1_key":0,"state_1_choice":0,"state_1_rt":1578.6000000014901,"transition":1,"state":0,"state_2_ids":[0,1],"state_2_key":0,"state_2_choice":0,"state_2_rt":478,"outcome":0,"rocket_colors":["#955db9","#48a782"],"planet_colors":["#5f6f81","#7f5d5d"],"screen_resolution":[1366,768],"minimum_resolution":1,"trial":129,"drifts":[0.304,0.316,0.486,0.459],"drift_ix":0,"trial_type":"two-step-trial","trial_index":165,"time_elapsed":1050282,"internal_node_id":"0.0-143.0-0.0","task_version":"1.0","jspsych_version":"6.3.1","browser_interactions":0,"missing":false},{"state_1_ids":[0,1],"state_1_key":0,"state_1_choice":0,"state_1_rt":633.7000000029802,"transition":1,"state":0,"state_2_ids":[0,1],"state_2_key":1,"state_2_choice":1,"state_2_rt":503,"outcome":0,"rocket_colors":["#955db9","#48a782"],"planet_colors":["#5f6f81","#7f5d5d"],"screen_resolution":[1366,768],"minimum_resolution":1,"trial":130,"drifts":[0.279,0.291,0.485,0.452],"drift_ix":0,"trial_type":"two-step-trial","trial_index":166,"time_elapsed":1053426,"internal_node_id":"0.0-144.0-0.0","task_version":"1.0","jspsych_version":"6.3.1","browser_interactions":0,"missing":false},{"state_1_ids":[1,0],"state_1_key":0,"state_1_choice":1,"state_1_rt":746.7000000029802,"transition":1,"state":1,"state_2_ids":[2,3],"state_2_key":0,"state_2_choice":2,"state_2_rt":461.59999999403954,"outcome":1,"rocket_colors":["#955db9","#48a782"],"planet_colors":["#5f6f81","#7f5d5d"],"screen_resolution":[1366,768],"minimum_resolution":1,"trial":131,"drifts":[0.257,0.293,0.476,0.442],"drift_ix":0,"trial_type":"two-step-trial","trial_index":167,"time_elapsed":1056642,"internal_node_id":"0.0-145.0-0.0","task_version":"1.0","jspsych_version":"6.3.1","browser_interactions":0,"missing":false},{"state_1_ids":[1,0],"state_1_key":0,"state_1_choice":1,"state_1_rt":683.1000000014901,"transition":0,"state":0,"state_2_ids":[0,1],"state_2_key":0,"state_2_choice":0,"state_2_rt":638.6999999955297,"outcome":0,"rocket_colors":["#955db9","#48a782"],"planet_colors":["#5f6f81","#7f5d5d"],"screen_resolution":[1366,768],"minimum_resolution":1,"trial":132,"drifts":[0.267,0.335,0.408,0.456],"drift_ix":0,"trial_type":"two-step-trial","trial_index":168,"time_elapsed":1059972,"internal_node_id":"0.0-146.0-0.0","task_version":"1.0","jspsych_version":"6.3.1","browser_interactions":0,"missing":false},{"state_1_ids":[0,1],"state_1_key":1,"state_1_choice":1,"state_1_rt":842,"transition":1,"state":1,"state_2_ids":[2,3],"state_2_key":0,"state_2_choice":2,"state_2_rt":510.20000000298023,"outcome":1,"rocket_colors":["#955db9","#48a782"],"planet_colors":["#5f6f81","#7f5d5d"],"screen_resolution":[1366,768],"minimum_resolution":1,"trial":133,"drifts":[0.254,0.359,0.444,0.42],"drift_ix":0,"trial_type":"two-step-trial","trial_index":169,"time_elapsed":1063332,"internal_node_id":"0.0-147.0-0.0","task_version":"1.0","jspsych_version":"6.3.1","browser_interactions":0,"missing":false},{"state_1_ids":[1,0],"state_1_key":0,"state_1_choice":1,"state_1_rt":673.5,"transition":1,"state":1,"state_2_ids":[2,3],"state_2_key":0,"state_2_choice":2,"state_2_rt":654.8999999985099,"outcome":1,"rocket_colors":["#955db9","#48a782"],"planet_colors":["#5f6f81","#7f5d5d"],"screen_resolution":[1366,768],"minimum_resolution":1,"trial":134,"drifts":[0.265,0.371,0.443,0.419],"drift_ix":0,"trial_type":"two-step-trial","trial_index":170,"time_elapsed":1066672,"internal_node_id":"0.0-148.0-0.0","task_version":"1.0","jspsych_version":"6.3.1","browser_interactions":0,"missing":false},{"state_1_ids":[0,1],"state_1_key":1,"state_1_choice":1,"state_1_rt":766.5,"transition":0,"state":0,"state_2_ids":[0,1],"state_2_key":0,"state_2_choice":0,"state_2_rt":982.8000000044703,"outcome":0,"rocket_colors":["#955db9","#48a782"],"planet_colors":["#5f6f81","#7f5d5d"],"screen_resolution":[1366,768],"minimum_resolution":1,"trial":135,"drifts":[0.272,0.34,0.465,0.386],"drift_ix":0,"trial_type":"two-step-trial","trial_index":171,"time_elapsed":1070429,"internal_node_id":"0.0-149.0-0.0","task_version":"1.0","jspsych_version":"6.3.1","browser_interactions":0,"missing":false},{"state_1_ids":[1,0],"state_1_key":0,"state_1_choice":1,"state_1_rt":585.6000000014901,"transition":1,"state":1,"state_2_ids":[2,3],"state_2_key":0,"state_2_choice":2,"state_2_rt":671,"outcome":1,"rocket_colors":["#955db9","#48a782"],"planet_colors":["#5f6f81","#7f5d5d"],"screen_resolution":[1366,768],"minimum_resolution":1,"trial":136,"drifts":[0.291,0.34,0.503,0.372],"drift_ix":0,"trial_type":"two-step-trial","trial_index":172,"time_elapsed":1073695,"internal_node_id":"0.0-150.0-0.0","task_version":"1.0","jspsych_version":"6.3.1","browser_interactions":0,"missing":false},{"state_1_ids":[0,1],"state_1_key":1,"state_1_choice":1,"state_1_rt":868.8000000044703,"transition":1,"state":1,"state_2_ids":[2,3],"state_2_key":0,"state_2_choice":2,"state_2_rt":661.8999999985099,"outcome":0,"rocket_colors":["#955db9","#48a782"],"planet_colors":["#5f6f81","#7f5d5d"],"screen_resolution":[1366,768],"minimum_resolution":1,"trial":137,"drifts":[0.25,0.307,0.498,0.357],"drift_ix":0,"trial_type":"two-step-trial","trial_index":173,"time_elapsed":1077238,"internal_node_id":"0.0-151.0-0.0","task_version":"1.0","jspsych_version":"6.3.1","browser_interactions":0,"missing":false},{"state_1_ids":[0,1],"state_1_key":0,"state_1_choice":0,"state_1_rt":1027,"transition":1,"state":0,"state_2_ids":[0,1],"state_2_key":0,"state_2_choice":0,"state_2_rt":589.3999999985099,"outcome":1,"rocket_colors":["#955db9","#48a782"],"planet_colors":["#5f6f81","#7f5d5d"],"screen_resolution":[1366,768],"minimum_resolution":1,"trial":138,"drifts":[0.265,0.293,0.462,0.319],"drift_ix":0,"trial_type":"two-step-trial","trial_index":174,"time_elapsed":1080861,"internal_node_id":"0.0-152.0-0.0","task_version":"1.0","jspsych_version":"6.3.1","browser_interactions":0,"missing":false},{"state_1_ids":[1,0],"state_1_key":1,"state_1_choice":0,"state_1_rt":1163.8999999985099,"transition":0,"state":1,"state_2_ids":[2,3],"state_2_key":0,"state_2_choice":2,"state_2_rt":894,"outcome":1,"rocket_colors":["#955db9","#48a782"],"planet_colors":["#5f6f81","#7f5d5d"],"screen_resolution":[1366,768],"minimum_resolution":1,"trial":139,"drifts":[0.268,0.317,0.494,0.325],"drift_ix":0,"trial_type":"two-step-trial","trial_index":175,"time_elapsed":1084927,"internal_node_id":"0.0-153.0-0.0","task_version":"1.0","jspsych_version":"6.3.1","browser_interactions":0,"missing":false},{"state_1_ids":[1,0],"state_1_key":0,"state_1_choice":1,"state_1_rt":698.0999999940395,"transition":0,"state":0,"state_2_ids":[0,1],"state_2_key":0,"state_2_choice":0,"state_2_rt":836.8000000044703,"outcome":0,"rocket_colors":["#955db9","#48a782"],"planet_colors":["#5f6f81","#7f5d5d"],"screen_resolution":[1366,768],"minimum_resolution":1,"trial":140,"drifts":[0.276,0.319,0.471,0.343],"drift_ix":0,"trial_type":"two-step-trial","trial_index":176,"time_elapsed":1088469,"internal_node_id":"0.0-154.0-0.0","task_version":"1.0","jspsych_version":"6.3.1","browser_interactions":0,"missing":false},{"state_1_ids":[1,0],"state_1_key":0,"state_1_choice":1,"state_1_rt":972.4000000059605,"transition":1,"state":1,"state_2_ids":[2,3],"state_2_key":0,"state_2_choice":2,"state_2_rt":671,"outcome":1,"rocket_colors":["#955db9","#48a782"],"planet_colors":["#5f6f81","#7f5d5d"],"screen_resolution":[1366,768],"minimum_resolution":1,"trial":141,"drifts":[0.261,0.318,0.465,0.338],"drift_ix":0,"trial_type":"two-step-trial","trial_index":177,"time_elapsed":1092121,"internal_node_id":"0.0-155.0-0.0","task_version":"1.0","jspsych_version":"6.3.1","browser_interactions":0,"missing":false},{"state_1_ids":[0,1],"state_1_key":1,"state_1_choice":1,"state_1_rt":711.5,"transition":0,"state":0,"state_2_ids":[0,1],"state_2_key":0,"state_2_choice":0,"state_2_rt":590.1000000014901,"outcome":0,"rocket_colors":["#955db9","#48a782"],"planet_colors":["#5f6f81","#7f5d5d"],"screen_resolution":[1366,768],"minimum_resolution":1,"trial":142,"drifts":[0.269,0.269,0.465,0.359],"drift_ix":0,"trial_type":"two-step-trial","trial_index":178,"time_elapsed":1095430,"internal_node_id":"0.0-156.0-0.0","task_version":"1.0","jspsych_version":"6.3.1","browser_interactions":0,"missing":false},{"state_1_ids":[0,1],"state_1_key":1,"state_1_choice":1,"state_1_rt":1387.8999999985099,"transition":1,"state":1,"state_2_ids":[2,3],"state_2_key":0,"state_2_choice":2,"state_2_rt":485,"outcome":1,"rocket_colors":["#955db9","#48a782"],"planet_colors":["#5f6f81","#7f5d5d"],"screen_resolution":[1366,768],"minimum_resolution":1,"trial":143,"drifts":[0.288,0.255,0.464,0.364],"drift_ix":0,"trial_type":"two-step-trial","trial_index":179,"time_elapsed":1099312,"internal_node_id":"0.0-157.0-0.0","task_version":"1.0","jspsych_version":"6.3.1","browser_interactions":0,"missing":false},{"state_1_ids":[0,1],"state_1_key":1,"state_1_choice":1,"state_1_rt":778.1000000014901,"transition":1,"state":1,"state_2_ids":[2,3],"state_2_key":0,"state_2_choice":2,"state_2_rt":669.9000000059605,"outcome":1,"rocket_colors":["#955db9","#48a782"],"planet_colors":["#5f6f81","#7f5d5