[{"success":true,"timeout":false,"failed_images":[],"failed_audio":[],"failed_video":[],"trial_type":"preload","trial_index":0,"time_elapsed":1788,"internal_node_id":"0.0-0.0","task_version":"1.0","jspsych_version":"6.3.1"},{"success":true,"trial_type":"fullscreen","trial_index":1,"time_elapsed":4559,"internal_node_id":"0.0-1.0","task_version":"1.0","jspsych_version":"6.3.1"},{"view_history":[{"page_index":0,"viewing_time":3069}],"rt":3071,"trial_type":"instructions","trial_index":2,"time_elapsed":7638,"internal_node_id":"0.0-2.0","task_version":"1.0","jspsych_version":"6.3.1"},{"responses":{"Q01":"2","Q07":"1","Q08":"2","Q04":"1","Q03":"1","Q02":"3","Q06":"2","Q05":"2"},"rt":18475,"item_order":[0,6,7,3,2,1,5,4],"radio_events":[6921,7695,8416,9233,9929,10986,11816,12322],"key_events":[],"mouse_events":[0,5953,6921,7695,8416,9233,9929,10986,11816,12322,18472],"straightlining":0.5,"zigzagging":0.5714285714285714,"honeypot":0,"survey":"anxiety","trial_type":"survey-template","trial_index":3,"time_elapsed":26133,"internal_node_id":"0.0-3.0","task_version":"1.0","jspsych_version":"6.3.1"},{"responses":{"Q02":"6","Q04":"5","Q03":"4","Q01":"5","Q06":"2","Q05":"2","Q07":"3"},"rt":20876,"item_order":[1,3,2,0,5,4,6],"radio_events":[2658,3367,4631,7038,7887,9014,11930,16272],"key_events":[],"mouse_events":[2658,3367,3968,4631,5478,6243,7038,7887,9014,11930,16272,20872],"straightlining":0.2857142857142857,"zigzagging":0.5,"honeypot":0,"survey":"artistic","trial_type":"survey-template","trial_index":4,"time_elapsed":47020,"internal_node_id":"0.0-4.0","task_version":"1.0","jspsych_version":"6.3.1"},{"responses":{"Q07":"2","Q03":"1","Q08":"1","Q05":"2","Q02":"2","Q04":"1","Q06":"3","Q01":"2"},"rt":49084,"item_order":[6,2,7,4,1,3,5,0],"radio_events":[35173,35939,37264,38003,38530,39949,41554,45290,46280],"key_events":[],"mouse_events":[35173,35939,37264,38003,38530,39949,41554,45290,46280,49081],"straightlining":0.5,"zigzagging":0.5714285714285714,"honeypot":0,"survey":"mania","trial_type":"survey-template","trial_index":5,"time_elapsed":96115,"internal_node_id":"0.0-5.0","task_version":"1.0","jspsych_version":"6.3.1"},{"responses":{"Q03":"5","Q07":"4","Q06":"5","Q02":"4","Q01":"4","Q04":"6","Q05":"5"},"rt":16831,"item_order":[2,6,5,1,0,3,4],"radio_events":[4031,5218,6176,7112,9471,10185,10937],"key_events":[],"mouse_events":[4031,5218,6176,6746,7112,8032,8565,9471,10185,10937,16827],"straightlining":0.42857142857142855,"zigzagging":0.6666666666666666,"honeypot":0,"survey":"greed","trial_type":"survey-template","trial_index":6,"time_elapsed":112952,"internal_node_id":"0.0-6.0","task_version":"1.0","jspsych_version":"6.3.1"},{"responses":{"Q04":"2","Q01":"1","Q08":"2","Q02":"2","Q03":"3","Q07":"3","Q06":"2","Q05":"2"},"rt":13770,"item_order":[3,0,7,1,2,6,5,4],"radio_events":[4292,5132,5884,6577,7330,7983,9155,9961],"key_events":[],"mouse_events":[4292,5132,5884,6577,7330,7983,9155,9961,13768],"straightlining":0.625,"zigzagging":0.5714285714285714,"honeypot":0,"survey":"depression","trial_type":"survey-template","trial_index":7,"time_elapsed":126729,"internal_node_id":"0.0-7.0","task_version":"1.0","jspsych_version":"6.3.1"},{"view_history":"[{\"page_index\":0,\"viewing_time\":5924},{\"page_index\":1,\"viewing_time\":680},{\"page_index\":0,\"viewing_time\":3796},{\"page_index\":1,\"viewing_time\":68},{\"page_index\":0,\"viewing_time\":1741},{\"page_index\":1,\"viewing_time\":127},{\"page_index\":0,\"viewing_time\":964},{\"page_index\":1,\"viewing_time\":104},{\"page_index\":0,\"viewing_time\":145},{\"page_index\":1,\"viewing_time\":88},{\"page_index\":0,\"viewing_time\":301},{\"page_index\":1,\"viewing_time\":102},{\"page_index\":0,\"viewing_time\":166},{\"page_index\":1,\"viewing_time\":67},{\"page_index\":0,\"viewing_time\":147},{\"page_index\":1,\"viewing_time\":77},{\"page_index\":0,\"viewing_time\":308},{\"page_index\":1,\"viewing_time\":91},{\"page_index\":0,\"viewing_time\":3523},{\"page_index\":1,\"viewing_time\":4129},{\"page_index\":2,\"viewing_time\":311},{\"page_index\":1,\"viewing_time\":3142},{\"page_index\":2,\"viewing_time\":2067},{\"page_index\":3,\"viewing_time\":7214},{\"page_index\":4,\"viewing_time\":3074},{\"page_index\":5,\"viewing_time\":277},{\"page_index\":4,\"viewing_time\":1489},{\"page_index\":5,\"viewing_time\":2469},{\"page_index\":6,\"viewing_time\":20},{\"page_index\":5,\"viewing_time\":233},{\"page_index\":6,\"viewing_time\":56},{\"page_index\":5,\"viewing_time\":314},{\"page_index\":4,\"viewing_time\":365},{\"page_index\":3,\"viewing_time\":385},{\"page_index\":4,\"viewing_time\":74},{\"page_index\":3,\"viewing_time\":716},{\"page_index\":2,\"viewing_time\":280},{\"page_index\":3,\"viewing_time\":20},{\"page_index\":4,\"viewing_time\":6},{\"page_index\":3,\"viewing_time\":93},{\"page_index\":4,\"viewing_time\":119},{\"page_index\":3,\"viewing_time\":21},{\"page_index\":2,\"viewing_time\":954},{\"page_index\":3,\"viewing_time\":1197},{\"page_index\":4,\"viewing_time\":1946},{\"page_index\":5,\"viewing_time\":1811},{\"page_index\":6,\"viewing_time\":2287},{\"page_index\":7,\"viewing_time\":277},{\"page_index\":8,\"viewing_time\":346},{\"page_index\":7,\"viewing_time\":1258},{\"page_index\":8,\"viewing_time\":1549},{\"page_index\":9,\"viewing_time\":1621},{\"page_index\":10,\"viewing_time\":1523}]","rt":60064,"trial_type":"two-step-instructions","trial_index":8,"time_elapsed":186807,"internal_node_id":"0.0-8.0-1.0","task_version":"1.0","jspsych_version":"6.3.1"},{"responses":["left/right arrow keys","True","True"],"num_errors":0,"rt":66765,"quiz":1,"trial_type":"two-step-comprehension","trial_index":9,"time_elapsed":253579,"internal_node_id":"0.0-8.0-2.0","task_version":"1.0","jspsych_version":"6.3.1"},{"view_history":"[{\"page_index\":0,\"viewing_time\":2557}]","rt":2561,"phase":"instructions_1b","trial_type":"two-step-instructions","trial_index":10,"time_elapsed":256156,"internal_node_id":"0.0-9.0-0.0-0.0","task_version":"1.0","jspsych_version":"6.3.1"},{"state_2_ids":[0,1],"state_2_key":0,"state_2_choice":0,"state_2_rt":3652,"outcome":0,"screen_resolution":[1366,768],"minimum_resolution":1,"trial_type":"alien-practice","trial_index":11,"time_elapsed":262021,"internal_node_id":"0.0-9.0-1.0-0.0","task_version":"1.0","jspsych_version":"6.3.1"},{"state_2_ids":[0,1],"state_2_key":1,"state_2_choice":1,"state_2_rt":1049,"outcome":0,"screen_resolution":[1366,768],"minimum_resolution":1,"trial_type":"alien-practice","trial_index":12,"time_elapsed":265277,"internal_node_id":"0.0-9.0-2.0-0.0","task_version":"1.0","jspsych_version":"6.3.1"},{"state_2_ids":[0,1],"state_2_key":0,"state_2_choice":0,"state_2_rt":128,"outcome":0,"screen_resolution":[1366,768],"minimum_resolution":1,"trial_type":"alien-practice","trial_index":13,"time_elapsed":267612,"internal_node_id":"0.0-9.0-3.0-0.0","task_version":"1.0","jspsych_version":"6.3.1"},{"state_2_ids":[0,1],"state_2_key":1,"state_2_choice":1,"state_2_rt":64,"outcome":1,"screen_resolution":[1366,768],"minimum_resolution":1,"trial_type":"alien-practice","trial_index":14,"time_elapsed":269881,"internal_node_id":"0.0-9.0-4.0-0.0","task_version":"1.0","jspsych_version":"6.3.1"},{"state_2_ids":[0,1],"state_2_key":1,"state_2_choice":1,"state_2_rt":58,"outcome":1,"screen_resolution":[1366,768],"minimum_resolution":1,"trial_type":"alien-practice","trial_index":15,"time_elapsed":272156,"internal_node_id":"0.0-9.0-5.0-0.0","task_version":"1.0","jspsych_version":"6.3.1"},{"state_2_ids":[0,1],"state_2_key":1,"state_2_choice":1,"state_2_rt":14,"outcome":1,"screen_resolution":[1366,768],"minimum_resolution":1,"trial_type":"alien-practice","trial_index":16,"time_elapsed":274375,"internal_node_id":"0.0-9.0-6.0-0.0","task_version":"1.0","jspsych_version":"6.3.1"},{"view_history":"[{\"page_index\":0,\"viewing_time\":187},{\"page_index\":1,\"viewing_time\":238},{\"page_index\":0,\"viewing_time\":181},{\"page_index\":1,\"viewing_time\":1246},{\"page_index\":2,\"viewing_time\":300},{\"page_index\":1,\"viewing_time\":671},{\"page_index\":2,\"viewing_time\":69},{\"page_index\":1,\"viewing_time\":151},{\"page_index\":0,\"viewing_time\":86},{\"page_index\":1,\"viewing_time\":163},{\"page_index\":0,\"viewing_time\":110},{\"page_index\":1,\"viewing_time\":178},{\"page_index\":0,\"viewing_time\":88},{\"page_index\":1,\"viewing_time\":218},{\"page_index\":0,\"viewing_time\":144},{\"page_index\":1,\"viewing_time\":595},{\"page_index\":0,\"viewing_time\":11},{\"page_index\":1,\"viewing_time\":22},{\"page_index\":0,\"viewing_time\":11},{\"page_index\":1,\"viewing_time\":217},{\"page_index\":0,\"viewing_time\":98},{\"page_index\":1,\"viewing_time\":229},{\"page_index\":0,\"viewing_time\":88},{\"page_index\":1,\"viewing_time\":251},{\"page_index\":0,\"viewing_time\":92},{\"page_index\":1,\"viewing_time\":390},{\"page_index\":0,\"viewing_time\":14},{\"page_index\":1,\"viewing_time\":278},{\"page_index\":0,\"viewing_time\":90},{\"page_index\":1,\"viewing_time\":748},{\"page_index\":2,\"viewing_time\":913},{\"page_index\":3,\"viewing_time\":71},{\"page_index\":2,\"viewing_time\":110},{\"page_index\":3,\"viewing_time\":185},{\"page_index\":2,\"viewing_time\":105},{\"page_index\":3,\"viewing_time\":186},{\"page_index\":2,\"viewing_time\":105},{\"page_index\":3,\"viewing_time\":195},{\"page_index\":2,\"viewing_time\":99},{\"page_index\":3,\"viewing_time\":190},{\"page_index\":2,\"viewing_time\":99},{\"page_index\":3,\"viewing_time\":237},{\"page_index\":2,\"viewing_time\":76},{\"page_index\":3,\"viewing_time\":362},{\"page_index\":2,\"viewing_time\":259},{\"page_index\":3,\"viewing_time\":1},{\"page_index\":4,\"viewing_time\":70},{\"page_index\":3,\"viewing_time\":1},{\"page_index\":4,\"viewing_time\":17},{\"page_index\":3,\"viewing_time\":204},{\"page_index\":4,\"viewing_time\":53},{\"page_index\":3,\"viewing_time\":69},{\"page_index\":4,\"viewing_time\":361},{\"page_index\":3,\"viewing_time\":358},{\"page_index\":4,\"viewing_time\":779},{\"page_index\":5,\"viewing_time\":231},{\"page_index\":4,\"viewing_time\":93},{\"page_index\":5,\"viewing_time\":347},{\"page_index\":4,\"viewing_time\":31},{\"page_index\":5,\"viewing_time\":183},{\"page_index\":4,\"viewing_time\":6},{\"page_index\":5,\"viewing_time\":158},{\"page_index\":4,\"viewing_time\":126},{\"page_index\":5,\"viewing_time\":228},{\"page_index\":4,\"viewing_time\":97},{\"page_index\":5,\"viewing_time\":194},{\"page_index\":4,\"viewing_time\":120},{\"page_index\":5,\"viewing_time\":192},{\"page_index\":4,\"viewing_time\":93},{\"page_index\":5,\"viewing_time\":214},{\"page_index\":4,\"viewing_time\":65},{\"page_index\":5,\"viewing_time\":222},{\"page_index\":4,\"viewing_time\":805},{\"page_index\":5,\"viewing_time\":691}]","rt":16366,"trial_type":"two-step-instructions","trial_index":17,"time_elapsed":290747,"internal_node_id":"0.0-10.0-1.0","task_version":"1.0","jspsych_version":"6.3.1"},{"responses":["left/right arrow keys","True","False"],"num_errors":2,"rt":80746,"quiz":2,"trial_type":"two-step-comprehension","trial_index":18,"time_elapsed":371502,"internal_node_id":"0.0-10.0-2.0","task_version":"1.0","jspsych_version":"6.3.1"},{"view_history":"[{\"page_index\":0,\"viewing_time\":3671}]","rt":3673,"trial_type":"two-step-instructions","trial_index":19,"time_elapsed":375188,"internal_node_id":"0.0-10.1-0.1-0.1","task_version":"1.0","jspsych_version":"6.3.1"},{"view_history":"[{\"page_index\":0,\"viewing_time\":937},{\"page_index\":1,\"viewing_time\":1023},{\"page_index\":2,\"viewing_time\":990},{\"page_index\":3,\"viewing_time\":1224},{\"page_index\":4,\"viewing_time\":946}]","rt":5121,"trial_type":"two-step-instructions","trial_index":20,"time_elapsed":380322,"internal_node_id":"0.0-10.1-1.1","task_version":"1.0","jspsych_version":"6.3.1"},{"responses":["left/right arrow keys","False","True"],"num_errors":0,"rt":5614,"quiz":2,"trial_type":"two-step-comprehension","trial_index":21,"time_elapsed":385943,"internal_node_id":"0.0-10.1-2.1","task_version":"1.0","jspsych_version":"6.3.1"},{"view_history":"[{\"page_index\":0,\"viewing_time\":5404},{\"page_index\":1,\"viewing_time\":5530},{\"page_index\":2,\"viewing_time\":1715}]","rt":12650,"trial_type":"two-step-instructions","trial_index":22,"time_elapsed":398599,"internal_node_id":"0.0-11.0-0.0","task_version":"1.0","jspsych_version":"6.3.1"},{"state_1_ids":[0,1],"state_1_key":0,"state_1_choice":0,"state_1_rt":813,"transition":1,"state":0,"state_2_ids":[0,1],"state_2_key":0,"state_2_choice":0,"state_2_rt":206,"outcome":1,"rocket_colors":["#a75248","#486ea7"],"planet_colors":["#706081","#5b7c65"],"screen_resolution":[1366,768],"minimum_resolution":1,"trial":0,"trial_type":"two-step-trial","trial_index":23,"time_elapsed":401680,"internal_node_id":"0.0-11.0-1.0-0.0","task_version":"1.0","jspsych_version":"6.3.1","missing":false},{"state_1_ids":[0,1],"state_1_key":1,"state_1_choice":1,"state_1_rt":33,"transition":1,"state":1,"state_2_ids":[2,3],"state_2_key":1,"state_2_choice":3,"state_2_rt":246,"outcome":0,"rocket_colors":["#a75248","#486ea7"],"planet_colors":["#706081","#5b7c65"],"screen_resolution":[1366,768],"minimum_resolution":1,"trial":0,"trial_type":"two-step-trial","trial_index":24,"time_elapsed":403968,"internal_node_id":"0.0-11.0-1.0-0.1","task_version":"1.0","jspsych_version":"6.3.1","missing":false},{"state_1_ids":[1,0],"state_1_key":1,"state_1_choice":0,"state_1_rt":120,"transition":1,"state":0,"state_2_ids":[0,1],"state_2_key":1,"state_2_choice":1,"state_2_rt":27,"outcome":0,"rocket_colors":["#a75248","#486ea7"],"planet_colors":["#706081","#5b7c65"],"screen_resolution":[1366,768],"minimum_resolution":1,"trial":0,"trial_type":"two-step-trial","trial_index":25,"time_elapsed":406119,"internal_node_id":"0.0-11.0-1.0-0.2","task_version":"1.0","jspsych_version":"6.3.1","missing":false},{"state_1_ids":[0,1],"state_1_key":1,"state_1_choice":1,"state_1_rt":140,"transition":1,"state":1,"state_2_ids":[2,3],"state_2_key":1,"state_2_choice":3,"state_2_rt":16,"outcome":1,"rocket_colors":["#a75248","#486ea7"],"planet_colors":["#706081","#5b7c65"],"screen_resolution":[1366,768],"minimum_resolution":1,"trial":0,"trial_type":"two-step-trial","trial_index":26,"time_elapsed":408412,"internal_node_id":"0.0-11.0-1.0-0.3","task_version":"1.0","jspsych_version":"6.3.1","missing":false},{"state_1_ids":[0,1],"state_1_key":0,"state_1_choice":0,"state_1_rt":260,"transition":0,"state":1,"state_2_ids":[2,3],"state_2_key":0,"state_2_choice":2,"state_2_rt":332,"outcome":1,"rocket_colors":["#a75248","#486ea7"],"planet_colors":["#706081","#5b7c65"],"screen_resolution":[1366,768],"minimum_resolution":1,"trial":0,"trial_type":"two-step-trial","trial_index":27,"time_elapsed":411010,"internal_node_id":"0.0-11.0-1.0-0.4","task_version":"1.0","jspsych_version":"6.3.1","missing":false},{"state_1_ids":[0,1],"state_1_key":0,"state_1_choice":0,"state_1_rt":234,"transition":1,"state":0,"state_2_ids":[0,1],"state_2_key":1,"state_2_choice":1,"state_2_rt":59,"outcome":0,"rocket_colors":["#a75248","#486ea7"],"planet_colors":["#706081","#5b7c65"],"screen_resolution":[1366,768],"minimum_resolution":1,"trial":0,"trial_type":"two-step-trial","trial_index":28,"time_elapsed":413308,"internal_node_id":"0.0-11.0-1.0-0.5","task_version":"1.0","jspsych_version":"6.3.1","missing":false},{"state_1_ids":[0,1],"state_1_key":1,"state_1_choice":1,"state_1_rt":12,"transition":1,"state":1,"state_2_ids":[2,3],"state_2_key":0,"state_2_choice":2,"state_2_rt":143,"outcome":0,"rocket_colors":["#a75248","#486ea7"],"planet_colors":["#706081","#5b7c65"],"screen_resolution":[1366,768],"minimum_resolution":1,"trial":0,"trial_type":"two-step-trial","trial_index":29,"time_elapsed":415542,"internal_node_id":"0.0-11.0-1.0-0.6","task_version":"1.0","jspsych_version":"6.3.1","missing":false},{"state_1_ids":[1,0],"state_1_key":1,"state_1_choice":0,"state_1_rt":27,"transition":1,"state":0,"state_2_ids":[0,1],"state_2_key":1,"state_2_choice":1,"state_2_rt":242,"outcome":0,"rocket_colors":["#a75248","#486ea7"],"planet_colors":["#706081","#5b7c65"],"screen_resolution":[1366,768],"minimum_resolution":1,"trial":0,"trial_type":"two-step-trial","trial_index":30,"time_elapsed":417830,"internal_node_id":"0.0-11.0-1.0-0.7","task_version":"1.0","jspsych_version":"6.3.1","missing":false},{"state_1_ids":[0,1],"state_1_key":1,"state_1_choice":1,"state_1_rt":55,"transition":0,"state":0,"state_2_ids":[0,1],"state_2_key":1,"state_2_choice":1,"state_2_rt":18,"outcome":0,"rocket_colors":["#a75248","#486ea7"],"planet_colors":["#706081","#5b7c65"],"screen_resolution":[1366,768],"minimum_resolution":1,"trial":0,"trial_type":"two-step-trial","trial_index":31,"time_elapsed":419908,"internal_node_id":"0.0-11.0-1.0-0.8","task_version":"1.0","jspsych_version":"6.3.1","missing":false},{"state_1_ids":[1,0],"state_1_key":1,"state_1_choice":0,"state_1_rt":12,"transition":1,"state":0,"state_2_ids":[0,1],"state_2_key":0,"state_2_choice":0,"state_2_rt":68,"outcome":0,"rocket_colors":["#a75248","#486ea7"],"planet_colors":["#706081","#5b7c65"],"screen_resolution":[1366,768],"minimum_resolution":1,"trial":0,"trial_type":"two-step-trial","trial_index":32,"time_elapsed":421994,"internal_node_id":"0.0-11.0-1.0-0.9","task_version":"1.0","jspsych_version":"6.3.1","missing":false},{"view_history":"[{\"page_index\":0,\"viewing_time\":115},{\"page_index\":1,\"viewing_time\":81},{\"page_index\":0,\"viewing_time\":171},{\"page_index\":1,\"viewing_time\":79},{\"page_index\":0,\"viewing_time\":170},{\"page_index\":1,\"viewing_time\":41},{\"page_index\":0,\"viewing_time\":285},{\"page_index\":1,\"viewing_time\":195},{\"page_index\":0,\"viewing_time\":337},{\"page_index\":1,\"viewing_time\":184},{\"page_index\":0,\"viewing_time\":927},{\"page_index\":1,\"viewing_time\":15},{\"page_index\":0,\"viewing_time\":152},{\"page_index\":1,\"viewing_time\":81},{\"page_index\":0,\"viewing_time\":191},{\"page_index\":1,\"viewing_time\":34},{\"page_index\":0,\"viewing_time\":1940},{\"page_index\":1,\"viewing_time\":4097},{\"page_index\":0,\"viewing_time\":752},{\"page_index\":1,\"viewing_time\":1148},{\"page_index\":2,\"viewing_time\":2274},{\"page_index\":3,\"viewing_time\":4121},{\"page_index\":4,\"viewing_time\":1408},{\"page_index\":5,\"viewing_time\":300},{\"page_index\":4,\"viewing_time\":235},{\"page_index\":5,\"viewing_time\":286},{\"page_index\":4,\"viewing_time\":3077},{\"page_index\":5,\"viewing_time\":923},{\"page_index\":6,\"viewing_time\":1472}]","rt":25092,"trial_type":"two-step-instructions","trial_index":33,"time_elapsed":447099,"internal_node_id":"0.0-12.0-1.0","task_version":"1.0","jspsych_version":"6.3.1"},{"responses":["True","False","True"],"num_errors":0,"rt":74124,"quiz":3,"trial_type":"two-step-comprehension","trial_index":34,"time_elapsed":521229,"internal_node_id":"0.0-12.0-2.0","task_version":"1.0","jspsych_version":"6.3.1"},{"view_history":"[{\"page_index\":0,\"viewing_time\":2131},{\"page_index\":1,\"viewing_time\":1805},{\"page_index\":2,\"viewing_time\":1667}]","rt":5603,"trial_type":"two-step-instructions","trial_index":35,"time_elapsed":526837,"internal_node_id":"0.0-13.0","task_version":"1.0","jspsych_version":"6.3.1"},{"state_1_ids":[1,0],"state_1_key":0,"state_1_choice":1,"state_1_rt":1635,"transition":1,"state":1,"state_2_ids":[2,3],"state_2_key":0,"state_2_choice":2,"state_2_rt":41,"outcome":0,"rocket_colors":["#955db9","#48a782"],"planet_colors":["#7f5d5d","#5f6f81"],"screen_resolution":[1366,657],"minimum_resolution":1,"trial":1,"drifts":[0.44,0.385,0.62,0.421],"drift_ix":1,"trial_type":"two-step-trial","trial_index":36,"time_elapsed":530519,"internal_node_id":"0.0-14.0-0.0","task_version":"1.0","jspsych_version":"6.3.1","browser_interactions":0,"missing":false},{"state_1_ids":[0,1],"state_1_key":1,"state_1_choice":1,"state_1_rt":70,"transition":1,"state":1,"state_2_ids":[2,3],"state_2_key":0,"state_2_choice":2,"state_2_rt":77,"outcome":1,"rocket_colors":["#955db9","#48a782"],"planet_colors":["#7f5d5d","#5f6f81"],"screen_resolution":[1366,657],"minimum_resolution":1,"trial":2,"drifts":[0.427,0.383,0.623,0.388],"drift_ix":1,"trial_type":"two-step-trial","trial_index":37,"time_elapsed":532674,"internal_node_id":"0.0-15.0-0.0","task_version":"1.0","jspsych_version":"6.3.1","browser_interactions":0,"missing":false},{"state_1_ids":[1,0],"state_1_key":0,"state_1_choice":1,"state_1_rt":98,"transition":0,"state":0,"state_2_ids":[0,1],"state_2_key":0,"state_2_choice":0,"state_2_rt":6,"outcome":0,"rocket_colors":["#955db9","#48a782"],"planet_colors":["#7f5d5d","#5f6f81"],"screen_resolution":[1366,657],"minimum_resolution":1,"trial":3,"drifts":[0.366,0.399,0.638,0.394],"drift_ix":1,"trial_type":"two-step-trial","trial_index":38,"time_elapsed":534789,"internal_node_id":"0.0-16.0-0.0","task_version":"1.0","jspsych_version":"6.3.1","browser_interactions":0,"missing":false},{"state_1_ids":[0,1],"state_1_key":0,"state_1_choice":0,"state_1_rt":117,"transition":1,"state":0,"state_2_ids":[0,1],"state_2_key":1,"state_2_choice":1,"state_2_rt":4,"outcome":1,"rocket_colors":["#955db9","#48a782"],"planet_colors":["#7f5d5d","#5f6f81"],"screen_resolution":[1366,657],"minimum_resolution":1,"trial":4,"drifts":[0.352,0.371,0.644,0.424],"drift_ix":1,"trial_type":"two-step-trial","trial_index":39,"time_elapsed":536923,"internal_node_id":"0.0-17.0-0.0","task_version":"1.0","jspsych_version":"6.3.1","browser_interactions":0,"missing":false},{"state_1_ids":[1,0],"state_1_key":0,"state_1_choice":1,"state_1_rt":143,"transition":1,"state":1,"state_2_ids":[2,3],"state_2_key":1,"state_2_choice":3,"state_2_rt":56,"outcome":1,"rocket_colors":["#955db9","#48a782"],"planet_colors":["#7f5d5d","#5f6f81"],"screen_resolution":[1366,657],"minimum_resolution":1,"trial":5,"drifts":[0.387,0.418,0.671,0.445],"drift_ix":1,"trial_type":"two-step-trial","trial_index":40,"time_elapsed":539147,"internal_node_id":"0.0-18.0-0.0","task_version":"1.0","jspsych_version":"6.3.1","browser_interactions":0,"missing":false},{"state_1_ids":[0,1],"state_1_key":1,"state_1_choice":1,"state_1_rt":20,"transition":1,"state":1,"state_2_ids":[2,3],"state_2_key":1,"state_2_choice":3,"state_2_rt":61,"outcome":1,"rocket_colors":["#955db9","#48a782"],"planet_colors":["#7f5d5d","#5f6f81"],"screen_resolution":[1366,657],"minimum_resolution":1,"trial":6,"drifts":[0.376,0.44,0.655,0.477],"drift_ix":1,"trial_type":"two-step-trial","trial_index":41,"time_elapsed":541237,"internal_node_id":"0.0-19.0-0.0","task_version":"1.0","jspsych_version":"6.3.1","browser_interactions":0,"missing":false},{"state_1_ids":[0,1],"state_1_key":1,"state_1_choice":1,"state_1_rt":48,"transition":1,"state":1,"state_2_ids":[2,3],"state_2_key":1,"state_2_choice":3,"state_2_rt":45,"outcome":1,"rocket_colors":["#955db9","#48a782"],"planet_colors":["#7f5d5d","#5f6f81"],"screen_resolution":[1366,657],"minimum_resolution":1,"trial":7,"drifts":[0.376,0.46,0.674,0.453],"drift_ix":1,"trial_type":"two-step-trial","trial_index":42,"time_elapsed":543335,"internal_node_id":"0.0-20.0-0.0","task_version":"1.0","jspsych_version":"6.3.1","browser_interactions":0,"missing":false},{"state_1_ids":[1,0],"state_1_key":1,"state_1_choice":0,"state_1_rt":97,"transition":0,"state":1,"state_2_ids":[2,3],"state_2_key":1,"state_2_choice":3,"state_2_rt":145,"outcome":0,"rocket_colors":["#955db9","#48a782"],"planet_colors":["#7f5d5d","#5f6f81"],"screen_resolution":[1366,657],"minimum_resolution":1,"trial":8,"drifts":[0.37,0.476,0.645,0.47],"drift_ix":1,"trial_type":"two-step-trial","trial_index":43,"time_elapsed":545584,"internal_node_id":"0.0-21.0-0.0","task_version":"1.0","jspsych_version":"6.3.1","browser_interactions":0,"missing":false},{"state_1_ids":[1,0],"state_1_key":1,"state_1_choice":0,"state_1_rt":41,"transition":0,"state":1,"state_2_ids":[2,3],"state_2_key":1,"state_2_choice":3,"state_2_rt":137,"outcome":0,"rocket_colors":["#955db9","#48a782"],"planet_colors":["#7f5d5d","#5f6f81"],"screen_resolution":[1366,657],"minimum_resolution":1,"trial":9,"drifts":[0.349,0.439,0.653,0.482],"drift_ix":1,"trial_type":"two-step-trial","trial_index":44,"time_elapsed":547774,"internal_node_id":"0.0-22.0-0.0","task_version":"1.0","jspsych_version":"6.3.1","browser_interactions":0,"missing":false},{"state_1_ids":[0,1],"state_1_key":0,"state_1_choice":0,"state_1_rt":109,"transition":1,"state":0,"state_2_ids":[0,1],"state_2_key":1,"state_2_choice":1,"state_2_rt":70,"outcome":0,"rocket_colors":["#955db9","#48a782"],"planet_colors":["#7f5d5d","#5f6f81"],"screen_resolution":[1366,657],"minimum_resolution":1,"trial":10,"drifts":[0.347,0.471,0.629,0.478],"drift_ix":1,"trial_type":"two-step-trial","trial_index":45,"time_elapsed":549961,"internal_node_id":"0.0-23.0-0.0","task_version":"1.0","jspsych_version":"6.3.1","browser_interactions":0,"missing":false},{"state_1_ids":[1,0],"state_1_key":0,"state_1_choice":1,"state_1_rt":48,"transition":1,"state":1,"state_2_ids":[2,3],"state_2_key":1,"state_2_choice":3,"state_2_rt":55,"outcome":1,"rocket_colors":["#955db9","#48a782"],"planet_colors":["#7f5d5d","#5f6f81"],"screen_resolution":[1366,657],"minimum_resolution":1,"trial":11,"drifts":[0.346,0.411,0.666,0.456],"drift_ix":1,"trial_type":"two-step-trial","trial_index":46,"time_elapsed":552122,"internal_node_id":"0.0-24.0-0.0","task_version":"1.0","jspsych_version":"6.3.1","browser_interactions":0,"missing":false},{"state_1_ids":[0,1],"state_1_key":1,"state_1_choice":1,"state_1_rt":151,"transition":1,"state":1,"state_2_ids":[2,3],"state_2_key":0,"state_2_choice":2,"state_2_rt":179,"outcome":1,"rocket_colors":["#955db9","#48a782"],"planet_colors":["#7f5d5d","#5f6f81"],"screen_resolution":[1366,657],"minimum_resolution":1,"trial":12,"drifts":[0.371,0.413,0.638,0.405],"drift_ix":1,"trial_type":"two-step-trial","trial_index":47,"time_elapsed":554457,"internal_node_id":"0.0-25.0-0.0","task_version":"1.0","jspsych_version":"6.3.1","browser_interactions":0,"missing":false},{"state_1_ids":[1,0],"state_1_key":0,"state_1_choice":1,"state_1_rt":58,"transition":1,"state":1,"state_2_ids":[2,3],"state_2_key":0,"state_2_choice":2,"state_2_rt":48,"outcome":1,"rocket_colors":["#955db9","#48a782"],"planet_colors":["#7f5d5d","#5f6f81"],"screen_resolution":[1366,657],"minimum_resolution":1,"trial":13,"drifts":[0.354,0.425,0.641,0.388],"drift_ix":1,"trial_type":"two-step-trial","trial_index":48,"time_elapsed":556566,"internal_node_id":"0.0-26.0-0.0","task_version":"1.0","jspsych_version":"6.3.1","browser_interactions":0,"missing":false},{"state_1_ids":[1,0],"state_1_key":0,"state_1_choice":1,"state_1_rt":39,"transition":0,"state":0,"state_2_ids":[0,1],"state_2_key":1,"state_2_choice":1,"state_2_rt":235,"outcome":0,"rocket_colors":["#955db9","#48a782"],"planet_colors":["#7f5d5d","#5f6f81"],"screen_resolution":[1366,657],"minimum_resolution":1,"trial":14,"drifts":[0.315,0.45,0.635,0.335],"drift_ix":1,"trial_type":"two-step-trial","trial_index":49,"time_elapsed":558879,"internal_node_id":"0.0-27.0-0.0","task_version":"1.0","jspsych_version":"6.3.1","browser_interactions":0,"missing":false},{"state_1_ids":[1,0],"state_1_key":1,"state_1_choice":0,"state_1_rt":91,"transition":1,"state":0,"state_2_ids":[0,1],"state_2_key":1,"state_2_choice":1,"state_2_rt":255,"outcome":1,"rocket_colors":["#955db9","#48a782"],"planet_colors":["#7f5d5d","#5f6f81"],"screen_resolution":[1366,657],"minimum_resolution":1,"trial":15,"drifts":[0.291,0.41,0.635,0.339],"drift_ix":1,"trial_type":"two-step-trial","trial_index":50,"time_elapsed":561231,"internal_node_id":"0.0-28.0-0.0","task_version":"1.0","jspsych_version":"6.3.1","browser_interactions":0,"missing":false},{"state_1_ids":[0,1],"state_1_key":1,"state_1_choice":1,"state_1_rt":54,"transition":0,"state":0,"state_2_ids":[0,1],"state_2_key":1,"state_2_choice":1,"state_2_rt":88,"outcome":0,"rocket_colors":["#955db9","#48a782"],"planet_colors":["#7f5d5d","#5f6f81"],"screen_resolution":[1366,657],"minimum_resolution":1,"trial":16,"drifts":[0.3,0.409,0.61,0.364],"drift_ix":1,"trial_type":"two-step-trial","trial_index":51,"time_elapsed":563374,"internal_node_id":"0.0-29.0-0.0","task_version":"1.0","jspsych_version":"6.3.1","browser_interactions":0,"missing":false},{"state_1_ids":[0,1],"state_1_key":1,"state_1_choice":1,"state_1_rt":19,"transition":0,"state":0,"state_2_ids":[0,1],"state_2_key":0,"state_2_choice":0,"state_2_rt":70,"outcome":0,"rocket_colors":["#955db9","#48a782"],"planet_colors":["#7f5d5d","#5f6f81"],"screen_resolution":[1366,657],"minimum_resolution":1,"trial":17,"drifts":[0.3,0.418,0.639,0.392],"drift_ix":1,"trial_type":"two-step-trial","trial_index":52,"time_elapsed":565470,"internal_node_id":"0.0-30.0-0.0","task_version":"1.0","jspsych_version":"6.3.1","browser_interactions":0,"missing":false},{"state_1_ids":[1,0],"state_1_key":1,"state_1_choice":0,"state_1_rt":130,"transition":1,"state":0,"state_2_ids":[0,1],"state_2_key":1,"state_2_choice":1,"state_2_rt":66,"outcome":0,"rocket_colors":["#955db9","#48a782"],"planet_colors":["#7f5d5d","#5f6f81"],"screen_resolution":[1366,657],"minimum_resolution":1,"trial":18,"drifts":[0.308,0.463,0.63,0.375],"drift_ix":1,"trial_type":"two-step-trial","trial_index":53,"time_elapsed":567690,"internal_node_id":"0.0-31.0-0.0","task_version":"1.0","jspsych_version":"6.3.1","browser_interactions":0,"missing":false},{"state_1_ids":[1,0],"state_1_key":1,"state_1_choice":0,"state_1_rt":19,"transition":1,"state":0,"state_2_ids":[0,1],"state_2_key":1,"state_2_choice":1,"state_2_rt":8,"outcome":0,"rocket_colors":["#955db9","#48a782"],"planet_colors":["#7f5d5d","#5f6f81"],"screen_resolution":[1366,657],"minimum_resolution":1,"trial":19,"drifts":[0.345,0.475,0.617,0.402],"drift_ix":1,"trial_type":"two-step-trial","trial_index":54,"time_elapsed":569748,"internal_node_id":"0.0-32.0-0.0","task_version":"1.0","jspsych_version":"6.3.1","browser_interactions":0,"missing":false},{"state_1_ids":[0,1],"state_1_key":1,"state_1_choice":1,"state_1_rt":17,"transition":0,"state":0,"state_2_ids":[0,1],"state_2_key":1,"state_2_choice":1,"state_2_rt":371,"outcome":0,"rocket_colors":["#955db9","#48a782"],"planet_colors":["#7f5d5d","#5f6f81"],"screen_resolution":[1366,657],"minimum_resolution":1,"trial":20,"drifts":[0.39,0.463,0.595,0.433],"drift_ix":1,"trial_type":"two-step-trial","trial_index":55,"time_elapsed":572145,"internal_node_id":"0.0-33.0-0.0","task_version":"1.0","jspsych_version":"6.3.1","browser_interactions":0,"missing":false},{"state_1_ids":[1,0],"state_1_key":0,"state_1_choice":1,"state_1_rt":190,"transition":1,"state":1,"state_2_ids":[2,3],"state_2_key":1,"state_2_choice":3,"state_2_rt":255,"outcome":0,"rocket_colors":["#955db9","#48a782"],"planet_colors":["#7f5d5d","#5f6f81"],"screen_resolution":[1366,657],"minimum_resolution":1,"trial":21,"drifts":[0.413,0.433,0.607,0.447],"drift_ix":1,"trial_type":"two-step-trial","trial_index":56,"time_elapsed":574595,"internal_node_id":"0.0-34.0-0.0","task_version":"1.0","jspsych_version":"6.3.1","browser_interactions":0,"missing":false},{"state_1_ids":[0,1],"state_1_key":1,"state_1_choice":1,"state_1_rt":199,"transition":1,"state":1,"state_2_ids":[2,3],"state_2_key":1,"state_2_choice":3,"state_2_rt":33,"outcome":1,"rocket_colors":["#955db9","#48a782"],"planet_colors":["#7f5d5d","#5f6f81"],"screen_resolution":[1366,657],"minimum_resolution":1,"trial":22,"drifts":[0.397,0.431,0.605,0.426],"drift_ix":1,"trial_type":"two-step-trial","trial_index":57,"time_elapsed":576836,"internal_node_id":"0.0-35.0-0.0","task_version":"1.0","jspsych_version":"6.3.1","browser_interactions":0,"missing":false},{"state_1_ids":[0,1],"state_1_key":1,"state_1_choice":1,"state_1_rt":326,"transition":0,"state":0,"state_2_ids":[0,1],"state_2_key":1,"state_2_choice":1,"state_2_rt":99,"outcome":0,"rocket_colors":["#955db9","#48a782"],"planet_colors":["#7f5d5d","#5f6f81"],"screen_resolution":[1366,657],"minimum_resolution":1,"trial":23,"drifts":[0.375,0.426,0.617,0.383],"drift_ix":1,"trial_type":"two-step-trial","trial_index":58,"time_elapsed":579267,"internal_node_id":"0.0-36.0-0.0","task_version":"1.0","jspsych_version":"6.3.1","browser_interactions":0,"missing":false},{"state_1_ids":[0,1],"state_1_key":1,"state_1_choice":1,"state_1_rt":79,"transition":1,"state":1,"state_2_ids":[2,3],"state_2_key":0,"state_2_choice":2,"state_2_rt":104,"outcome":1,"rocket_colors":["#955db9","#48a782"],"planet_colors":["#7f5d5d","#5f6f81"],"screen_resolution":[1366,657],"minimum_resolution":1,"trial":24,"drifts":[0.396,0.432,0.631,0.356],"drift_ix":1,"trial_type":"two-step-trial","trial_index":59,"time_elapsed":581455,"internal_node_id":"0.0-37.0-0.0","task_version":"1.0","jspsych_version":"6.3.1","browser_interactions":0,"missing":false},{"state_1_ids":[0,1],"state_1_key":1,"state_1_choice":1,"state_1_rt":32,"transition":1,"state":1,"state_2_ids":[2,3],"state_2_key":0,"state_2_choice":2,"state_2_rt":124,"outcome":0,"rocket_colors":["#955db9","#48a782"],"planet_colors":["#7f5d5d","#5f6f81"],"screen_resolution":[1366,657],"minimum_resolution":1,"trial":25,"drifts":[0.352,0.393,0.634,0.357],"drift_ix":1,"trial_type":"two-step-trial","trial_index":60,"time_elapsed":583617,"internal_node_id":"0.0-38.0-0.0","task_version":"1.0","jspsych_version":"6.3.1","browser_interactions":0,"missing":false},{"state_1_ids":[0,1],"state_1_key":1,"state_1_choice":1,"state_1_rt":199,"transition":1,"state":1,"state_2_ids":[2,3],"state_2_key":1,"state_2_choice":3,"state_2_rt":121,"outcome":0,"rocket_colors":["#955db9","#48a782"],"planet_colors":["#7f5d5d","#5f6f81"],"screen_resolution":[1366,657],"minimum_resolution":1,"trial":26,"drifts":[0.379,0.371,0.632,0.315],"drift_ix":1,"trial_type":"two-step-trial","trial_index":61,"time_elapsed":585963,"internal_node_id":"0.0-39.0-0.0","task_version":"1.0","jspsych_version":"6.3.1","browser_interactions":0,"missing":false},{"state_1_ids":[1,0],"state_1_key":0,"state_1_choice":1,"state_1_rt":10,"transition":1,"state":1,"state_2_ids":[2,3],"state_2_key":0,"state_2_choice":2,"state_2_rt":147,"outcome":1,"rocket_colors":["#955db9","#48a782"],"planet_colors":["#7f5d5d","#5f6f81"],"screen_resolution":[1366,657],"minimum_resolution":1,"trial":27,"drifts":[0.44,0.355,0.639,0.305],"drift_ix":1,"trial_type":"two-step-trial","trial_index":62,"time_elapsed":588126,"internal_node_id":"0.0-40.0-0.0","task_version":"1.0","jspsych_version":"6.3.1","browser_interactions":0,"missing":false},{"state_1_ids":[0,1],"state_1_key":1,"state_1_choice":1,"state_1_rt":114,"transition":1,"state":1,"state_2_ids":[2,3],"state_2_key":1,"state_2_choice":3,"state_2_rt":17,"outcome":0,"rocket_colors":["#955db9","#48a782"],"planet_colors":["#7f5d5d","#5f6f81"],"screen_resolution":[1366,657],"minimum_resolution":1,"trial":28,"drifts":[0.473,0.399,0.627,0.311],"drift_ix":1,"trial_type":"two-step-trial","trial_index":63,"time_elapsed":590262,"internal_node_id":"0.0-41.0-0.0","task_version":"1.0","jspsych_version":"6.3.1","browser_interactions":0,"missing":false},{"state_1_ids":[1,0],"state_1_key":1,"state_1_choice":0,"state_1_rt":140,"transition":1,"state":0,"state_2_ids":[0,1],"state_2_key":0,"state_2_choice":0,"state_2_rt":232,"outcome":0,"rocket_colors":["#955db9","#48a782"],"planet_colors":["#7f5d5d","#5f6f81"],"screen_resolution":[1366,657],"minimum_resolution":1,"trial":29,"drifts":[0.47,0.426,0.594,0.318],"drift_ix":1,"trial_type":"two-step-trial","trial_index":64,"time_elapsed":592642,"internal_node_id":"0.0-42.0-0.0","task_version":"1.0","jspsych_version":"6.3.1","browser_interactions":0,"missing":false},{"state_1_ids":[0,1],"state_1_key":1,"state_1_choice":1,"state_1_rt":24,"transition":1,"state":1,"state_2_ids":[2,3],"state_2_key":0,"state_2_choice":2,"state_2_rt":23,"outcome":1,"rocket_colors":["#955db9","#48a782"],"planet_colors":["#7f5d5d","#5f6f81"],"screen_resolution":[1366,657],"minimum_resolution":1,"trial":30,"drifts":[0.455,0.475,0.559,0.323],"drift_ix":1,"trial_type":"two-step-trial","trial_index":65,"time_elapsed":594697,"internal_node_id":"0.0-43.0-0.0","task_version":"1.0","jspsych_version":"6.3.1","browser_interactions":0,"missing":false},{"state_1_ids":[0,1],"state_1_key":1,"state_1_choice":1,"state_1_rt":63,"transition":1,"state":1,"state_2_ids":[2,3],"state_2_key":1,"state_2_choice":3,"state_2_rt":155,"outcome":1,"rocket_colors":["#955db9","#48a782"],"planet_colors":["#7f5d5d","#5f6f81"],"screen_resolution":[1366,657],"minimum_resolution":1,"trial":31,"drifts":[0.435,0.51,0.608,0.321],"drift_ix":1,"trial_type":"two-step-trial","trial_index":66,"time_elapsed":596918,"internal_node_id":"0.0-44.0-0.0","task_version":"1.0","jspsych_version":"6.3.1","browser_interactions":0,"missing":false},{"state_1_ids":[1,0],"state_1_key":1,"state_1_choice":0,"state_1_rt":45,"transition":0,"state":1,"state_2_ids":[2,3],"state_2_key":1,"state_2_choice":3,"state_2_rt":62,"outcome":0,"rocket_colors":["#955db9","#48a782"],"planet_colors":["#7f5d5d","#5f6f81"],"screen_resolution":[1366,657],"minimum_resolution":1,"trial":32,"drifts":[0.415,0.507,0.579,0.317],"drift_ix":1,"trial_type":"two-step-trial","trial_index":67,"time_elapsed":599030,"internal_node_id":"0.0-45.0-0.0","task_version":"1.0","jspsych_version":"6.3.1","browser_interactions":0,"missing":false},{"state_1_ids":[1,0],"state_1_key":1,"state_1_choice":0,"state_1_rt":120,"transition":1,"state":0,"state_2_ids":[0,1],"state_2_key":1,"state_2_choice":1,"state_2_rt":43,"outcome":1,"rocket_colors":["#955db9","#48a782"],"planet_colors":["#7f5d5d","#5f6f81"],"screen_resolution":[1366,657],"minimum_resolution":1,"trial":33,"drifts":[0.459,0.542,0.595,0.302],"drift_ix":1,"trial_type":"two-step-trial","trial_index":68,"time_elapsed":601198,"internal_node_id":"0.0-46.0-0.0","task_version":"1.0","jspsych_version":"6.3.1","browser_interactions":0,"missing":false},{"state_1_ids":[0,1],"state_1_key":1,"state_1_choice":1,"state_1_rt":223,"transition":1,"state":1,"state_2_ids":[2,3],"state_2_key":0,"state_2_choice":2,"state_2_rt":1275,"outcome":1,"rocket_colors":["#955db9","#48a782"],"planet_colors":["#7f5d5d","#5f6f81"],"screen_resolution":[1366,657],"minimum_resolution":1,"trial":34,"drifts":[0.491,0.491,0.597,0.309],"drift_ix":1,"trial_type":"two-step-trial","trial_index":69,"time_elapsed":604704,"internal_node_id":"0.0-47.0-0.0","task_version":"1.0","jspsych_version":"6.3.1","browser_interactions":0,"missing":false},{"state_1_ids":[0,1],"state_1_key":0,"state_1_choice":0,"state_1_rt":997,"transition":1,"state":0,"state_2_ids":[0,1],"state_2_key":1,"state_2_choice":1,"state_2_rt":46,"outcome":1,"rocket_colors":["#955db9","#48a782"],"planet_colors":["#7f5d5d","#5f6f81"],"screen_resolution":[1366,657],"minimum_resolution":1,"trial":35,"drifts":[0.474,0.513,0.589,0.338],"drift_ix":1,"trial_type":"two-step-trial","trial_index":70,"time_elapsed":607755,"internal_node_id":"0.0-48.0-0.0","task_version":"1.0","jspsych_version":"6.3.1","browser_interactions":0,"missing":false},{"state_1_ids":[0,1],"state_1_key":0,"state_1_choice":0,"state_1_rt":191,"transition":1,"state":0,"state_2_ids":[0,1],"state_2_key":1,"state_2_choice":1,"state_2_rt":110,"outcome":1,"rocket_colors":["#955db9","#48a782"],"planet_colors":["#7f5d5d","#5f6f81"],"screen_resolution":[1366,657],"minimum_resolution":1,"trial":36,"drifts":[0.457,0.538,0.559,0.332],"drift_ix":1,"trial_type":"two-step-trial","trial_index":71,"time_elapsed":610061,"internal_node_id":"0.0-49.0-0.0","task_version":"1.0","jspsych_version":"6.3.1","browser_interactions":0,"missing":false},{"state_1_ids":[0,1],"state_1_key":1,"state_1_choice":1,"state_1_rt":246,"transition":1,"state":1,"state_2_ids":[2,3],"state_2_key":0,"state_2_choice":2,"state_2_rt":445,"outcome":1,"rocket_colors":["#955db9","#48a782"],"planet_colors":["#7f5d5d","#5f6f81"],"screen_resolution":[1366,657],"minimum_resolution":1,"trial":37,"drifts":[0.485,0.54,0.582,0.328],"drift_ix":1,"trial_type":"two-step-trial","trial_index":72,"time_elapsed":612760,"internal_node_id":"0.0-50.0-0.0","task_version":"1.0","jspsych_version":"6.3.1","browser_interactions":0,"missing":false},{"state_1_ids":[0,1],"state_1_key":0,"state_1_choice":0,"state_1_rt":34,"transition":1,"state":0,"state_2_ids":[0,1],"state_2_key":1,"state_2_choice":1,"state_2_rt":56,"outcome":1,"rocket_colors":["#955db9","#48a782"],"planet_colors":["#7f5d5d","#5f6f81"],"screen_resolution":[1366,657],"minimum_resolution":1,"trial":38,"drifts":[0.448,0.561,0.557,0.342],"drift_ix":1,"trial_type":"two-step-trial","trial_index":73,"time_elapsed":614858,"internal_node_id":"0.0-51.0-0.0","task_version":"1.0","jspsych_version":"6.3.1","browser_interactions":0,"missing":false},{"state_1_ids":[1,0],"state_1_key":1,"state_1_choice":0,"state_1_rt":185,"transition":1,"state":0,"state_2_ids":[0,1],"state_2_key":1,"state_2_choice":1,"state_2_rt":69,"outcome":0,"rocket_colors":["#955db9","#48a782"],"planet_colors":["#7f5d5d","#5f6f81"],"screen_resolution":[1366,657],"minimum_resolution":1,"trial":39,"drifts":[0.401,0.544,0.587,0.37],"drift_ix":1,"trial_type":"two-step-trial","trial_index":74,"time_elapsed":617120,"internal_node_id":"0.0-52.0-0.0","task_version":"1.0","jspsych_version":"6.3.1","browser_interactions":0,"missing":false},{"state_1_ids":[0,1],"state_1_key":1,"state_1_choice":1,"state_1_rt":163,"transition":1,"state":1,"state_2_ids":[2,3],"state_2_key":1,"state_2_choice":3,"state_2_rt":10,"outcome":1,"rocket_colors":["#955db9","#48a782"],"planet_colors":["#7f5d5d","#5f6f81"],"screen_resolution":[1366,657],"minimum_resolution":1,"trial":40,"drifts":[0.404,0.536,0.602,0.375],"drift_ix":1,"trial_type":"two-step-trial","trial_index":75,"time_elapsed":619317,"internal_node_id":"0.0-53.0-0.0","task_version":"1.0","jspsych_version":"6.3.1","browser_interactions":0,"missing":false},{"state_1_ids":[0,1],"state_1_key":1,"state_1_choice":1,"state_1_rt":31,"transition":1,"state":1,"state_2_ids":[2,3],"state_2_key":1,"state_2_choice":3,"state_2_rt":24,"outcome":0,"rocket_colors":["#955db9","#48a782"],"planet_colors":["#7f5d5d","#5f6f81"],"screen_resolution":[1366,657],"minimum_resolution":1,"trial":41,"drifts":[0.396,0.535,0.6,0.41],"drift_ix":1,"trial_type":"two-step-trial","trial_index":76,"time_elapsed":621382,"internal_node_id":"0.0-54.0-0.0","task_version":"1.0","jspsych_version":"6.3.1","browser_interactions":0,"missing":false},{"state_1_ids":[1,0],"state_1_key":1,"state_1_choice":0,"state_1_rt":50,"transition":1,"state":0,"state_2_ids":[0,1],"state_2_key":0,"state_2_choice":0,"state_2_rt":80,"outcome":0,"rocket_colors":["#955db9","#48a782"],"planet_colors":["#7f5d5d","#5f6f81"],"screen_resolution":[1366,657],"minimum_resolution":1,"trial":42,"drifts":[0.406,0.554,0.6,0.432],"drift_ix":1,"trial_type":"two-step-trial","trial_index":77,"time_elapsed":623529,"internal_node_id":"0.0-55.0-0.0","task_version":"1.0","jspsych_version":"6.3.1","browser_interactions":0,"missing":false},{"state_1_ids":[0,1],"state_1_key":1,"state_1_choice":1,"state_1_rt":70,"transition":0,"state":0,"state_2_ids":[0,1],"state_2_key":0,"state_2_choice":0,"state_2_rt":73,"outcome":0,"rocket_colors":["#955db9","#48a782"],"planet_colors":["#7f5d5d","#5f6f81"],"screen_resolution":[1366,657],"minimum_resolution":1,"trial":43,"drifts":[0.381,0.564,0.612,0.443],"drift_ix":1,"trial_type":"two-step-trial","trial_index":78,"time_elapsed":625677,"internal_node_id":"0.0-56.0-0.0","task_version":"1.0","jspsych_version":"6.3.1","browser_interactions":0,"missing":false},{"state_1_ids":[1,0],"state_1_key":1,"state_1_choice":0,"state_1_rt":99,"transition":1,"state":0,"state_2_ids":[0,1],"state_2_key":1,"state_2_choice":1,"state_2_rt":493,"outcome":0,"rocket_colors":["#955db9","#48a782"],"planet_colors":["#7f5d5d","#5f6f81"],"screen_resolution":[1366,657],"minimum_resolution":1,"trial":44,"drifts":[0.375,0.564,0.659,0.454],"drift_ix":1,"trial_type":"two-step-trial","trial_index":79,"time_elapsed":628344,"internal_node_id":"0.0-57.0-0.0","task_version":"1.0","jspsych_version":"6.3.1","browser_interactions":0,"missing":false},{"state_1_ids":[1,0],"state_1_key":1,"state_1_choice":0,"state_1_rt":9,"transition":1,"state":0,"state_2_ids":[0,1],"state_2_key":1,"state_2_choice":1,"state_2_rt":253,"outcome":0,"rocket_colors":["#955db9","#48a782"],"planet_colors":["#7f5d5d","#5f6f81"],"screen_resolution":[1366,657],"minimum_resolution":1,"trial":45,"drifts":[0.37,0.592,0.676,0.446],"drift_ix":1,"trial_type":"two-step-trial","trial_index":80,"time_elapsed":630611,"internal_node_id":"0.0-58.0-0.0","task_version":"1.0","jspsych_version":"6.3.1","browser_interactions":0,"missing":false},{"state_1_ids":[1,0],"state_1_key":0,"state_1_choice":1,"state_1_rt":53,"transition":0,"state":0,"state_2_ids":[0,1],"state_2_key":1,"state_2_choice":1,"state_2_rt":8,"outcome":0,"rocket_colors":["#955db9","#48a782"],"planet_colors":["#7f5d5d","#5f6f81"],"screen_resolution":[1366,657],"minimum_resolution":1,"trial":46,"drifts":[0.369,0.571,0.682,0.419],"drift_ix":1,"trial_type":"two-step-trial","trial_index":81,"time_elapsed":632703,"internal_node_id":"0.0-59.0-0.0","task_version":"1.0","jspsych_version":"6.3.1","browser_interactions":0,"missing":false},{"state_1_ids":[0,1],"state_1_key":0,"state_1_choice":0,"state_1_rt":108,"transition":0,"state":1,"state_2_ids":[2,3],"state_2_key":1,"state_2_choice":3,"state_2_rt":131,"outcome":1,"rocket_colors":["#955db9","#48a782"],"planet_colors":["#7f5d5d","#5f6f81"],"screen_resolution":[1366,657],"minimum_resolution":1,"trial":47,"drifts":[0.392,0.532,0.65,0.4],"drift_ix":1,"trial_type":"two-step-trial","trial_index":82,"time_elapsed":634944,"internal_node_id":"0.0-60.0-0.0","task_version":"1.0","jspsych_version":"6.3.1","browser_interactions":0,"missing":false},{"state_1_ids":[0,1],"state_1_key":1,"state_1_choice":1,"state_1_rt":21,"transition":0,"state":0,"state_2_ids":[0,1],"state_2_key":1,"state_2_choice":1,"state_2_rt":489,"outcome":0,"rocket_colors":["#955db9","#48a782"],"planet_colors":["#7f5d5d","#5f6f81"],"screen_resolution":[1366,657],"minimum_resolution":1,"trial":48,"drifts":[0.412,0.529,0.637,0.409],"drift_ix":1,"trial_type":"two-step-trial","trial_index":83,"time_elapsed":637461,"internal_node_id":"0.0-61.0-0.0","task_version":"1.0","jspsych_version":"6.3.1","browser_interactions":0,"missing":false},{"state_1_ids":[1,0],"state_1_key":1,"state_1_choice":0,"state_1_rt":206,"transition":1,"state":0,"state_2_ids":[0,1],"state_2_key":1,"state_2_choice":1,"state_2_rt":25,"outcome":1,"rocket_colors":["#955db9","#48a782"],"planet_colors":["#7f5d5d","#5f6f81"],"screen_resolution":[1366,657],"minimum_resolution":1,"trial":49,"drifts":[0.41,0.533,0.637,0.402],"drift_ix":1,"trial_type":"two-step-trial","trial_index":84,"time_elapsed":639700,"internal_node_id":"0.0-62.0-0.0","task_version":"1.0","jspsych_version":"6.3.1","browser_interactions":0,"missing":false},{"state_1_ids":[1,0],"state_1_key":1,"state_1_choice":0,"state_1_rt":28,"transition":1,"state":0,"state_2_ids":[0,1],"state_2_key":1,"state_2_choice":1,"state_2_rt":63,"outcome":0,"rocket_colors":["#955db9","#48a782"],"planet_colors":["#7f5d5d","#5f6f81"],"screen_resolution":[1366,657],"minimum_resolution":1,"trial":50,"drifts":[0.394,0.554,0.63,0.39],"drift_ix":1,"trial_type":"two-step-trial","trial_index":85,"time_elapsed":641799,"internal_node_id":"0.0-63.0-0.0","task_version":"1.0","jspsych_version":"6.3.1","browser_interactions":0,"missing":false},{"state_1_ids":[0,1],"state_1_key":1,"state_1_choice":1,"state_1_rt":43,"transition":0,"state":0,"state_2_ids":[0,1],"state_2_key":0,"state_2_choice":0,"state_2_rt":23,"outcome":1,"rocket_colors":["#955db9","#48a782"],"planet_colors":["#7f5d5d","#5f6f81"],"screen_resolution":[1366,657],"minimum_resolution":1,"trial":51,"drifts":[0.351,0.543,0.599,0.412],"drift_ix":1,"trial_type":"two-step-trial","trial_index":86,"time_elapsed":643872,"internal_node_id":"0.0-64.0-0.0","task_version":"1.0","jspsych_version":"6.3.1","browser_interactions":0,"missing":false},{"state_1_ids":[1,0],"state_1_key":1,"state_1_choice":0,"state_1_rt":22,"transition":0,"state":1,"state_2_ids":[2,3],"state_2_key":0,"state_2_choice":2,"state_2_rt":75,"outcome":0,"rocket_colors":["#955db9","#48a782"],"planet_colors":["#7f5d5d","#5f6f81"],"screen_resolution":[1366,657],"minimum_resolution":1,"trial":52,"drifts":[0.355,0.541,0.573,0.402],"drift_ix":1,"trial_type":"two-step-trial","trial_index":87,"time_elapsed":645982,"internal_node_id":"0.0-65.0-0.0","task_version":"1.0","jspsych_version":"6.3.1","browser_interactions":0,"missing":false},{"state_1_ids":[1,0],"state_1_key":1,"state_1_choice":0,"state_1_rt":65,"transition":1,"state":0,"state_2_ids":[0,1],"state_2_key":0,"state_2_choice":0,"state_2_rt":15,"outcome":1,"rocket_colors":["#955db9","#48a782"],"planet_colors":["#7f5d5d","#5f6f81"],"screen_resolution":[1366,657],"minimum_resolution":1,"trial":53,"drifts":[0.35,0.565,0.6,0.385],"drift_ix":1,"trial_type":"two-step-trial","trial_index":88,"time_elapsed":648071,"internal_node_id":"0.0-66.0-0.0","task_version":"1.0","jspsych_version":"6.3.1","browser_interactions":0,"missing":false},{"state_1_ids":[1,0],"state_1_key":1,"state_1_choice":0,"state_1_rt":19,"transition":1,"state":0,"state_2_ids":[0,1],"state_2_key":0,"state_2_choice":0,"state_2_rt":207,"outcome":1,"rocket_colors":["#955db9","#48a782"],"planet_colors":["#7f5d5d","#5f6f81"],"screen_resolution":[1366,657],"minimum_resolution":1,"trial":54,"drifts":[0.367,0.543,0.601,0.392],"drift_ix":1,"trial_type":"two-step-trial","trial_index":89,"time_elapsed":650347,"internal_node_id":"0.0-67.0-0.0","task_version":"1.0","jspsych_version":"6.3.1","browser_interactions":0,"missing":false},{"state_1_ids":[1,0],"state_1_key":0,"state_1_choice":1,"state_1_rt":144,"transition":1,"state":1,"state_2_ids":[2,3],"state_2_key":0,"state_2_choice":2,"state_2_rt":55,"outcome":1,"rocket_colors":["#955db9","#48a782"],"planet_colors":["#7f5d5d","#5f6f81"],"screen_resolution":[1366,657],"minimum_resolution":1,"trial":55,"drifts":[0.341,0.54,0.588,0.372],"drift_ix":1,"trial_type":"two-step-trial","trial_index":90,"time_elapsed":652570,"internal_node_id":"0.0-68.0-0.0","task_version":"1.0","jspsych_version":"6.3.1","browser_interactions":0,"missing":false},{"state_1_ids":[0,1],"state_1_key":1,"state_1_choice":1,"state_1_rt":409,"transition":0,"state":0,"state_2_ids":[0,1],"state_2_key":1,"state_2_choice":1,"state_2_rt":52,"outcome":0,"rocket_colors":["#955db9","#48a782"],"planet_colors":["#7f5d5d","#5f6f81"],"screen_resolution":[1366,657],"minimum_resolution":1,"trial":56,"drifts":[0.388,0.584,0.641,0.394],"drift_ix":1,"trial_type":"two-step-trial","trial_index":91,"time_elapsed":655187,"internal_node_id":"0.0-69.0-0.0","task_version":"1.0","jspsych_version":"6.3.1","browser_interactions":0,"missing":false},{"state_1_ids":[1,0],"state_1_key":0,"state_1_choice":1,"state_1_rt":90,"transition":1,"state":1,"state_2_ids":[2,3],"state_2_key":0,"state_2_choice":2,"state_2_rt":44,"outcome":1,"rocket_colors":["#955db9","#48a782"],"planet_colors":["#7f5d5d","#5f6f81"],"screen_resolution":[1366,657],"minimum_resolution":1,"trial":57,"drifts":[0.373,0.597,0.649,0.355],"drift_ix":1,"trial_type":"two-step-trial","trial_index":92,"time_elapsed":657602,"internal_node_id":"0.0-70.0-0.0","task_version":"1.0","jspsych_version":"6.3.1","browser_interactions":0,"missing":false},{"state_1_ids":[0,1],"state_1_key":0,"state_1_choice":0,"state_1_rt":28,"transition":1,"state":0,"state_2_ids":[0,1],"state_2_key":1,"state_2_choice":1,"state_2_rt":72,"outcome":1,"rocket_colors":["#955db9","#48a782"],"planet_colors":["#7f5d5d","#5f6f81"],"screen_resolution":[1366,657],"minimum_resolution":1,"trial":58,"drifts":[0.383,0.601,0.627,0.333],"drift_ix":1,"trial_type":"two-step-trial","trial_index":93,"time_elapsed":659706,"internal_node_id":"0.0-71.0-0.0","task_version":"1.0","jspsych_version":"6.3.1","browser_interactions":0,"missing":false},{"state_1_ids":[1,0],"state_1_key":0,"state_1_choice":1,"state_1_rt":895,"transition":1,"state":1,"state_2_ids":[2,3],"state_2_key":0,"state_2_choice":2,"state_2_rt":636,"outcome":1,"rocket_colors":["#955db9","#48a782"],"planet_colors":["#7f5d5d","#5f6f81"],"screen_resolution":[1366,657],"minimum_resolution":1,"trial":59,"drifts":[0.401,0.574,0.656,0.323],"drift_ix":1,"trial_type":"two-step-trial","trial_index":94,"time_elapsed":663259,"internal_node_id":"0.0-72.0-0.0","task_version":"1.0","jspsych_version":"6.3.1","browser_interactions":0,"missing":false},{"state_1_ids":[1,0],"state_1_key":0,"state_1_choice":1,"state_1_rt":0,"transition":1,"state":1,"state_2_ids":[2,3],"state_2_key":0,"state_2_choice":2,"state_2_rt":48,"outcome":0,"rocket_colors":["#955db9","#48a782"],"planet_colors":["#7f5d5d","#5f6f81"],"screen_resolution":[1366,657],"minimum_resolution":1,"trial":60,"drifts":[0.433,0.567,0.64,0.284],"drift_ix":1,"trial_type":"two-step-trial","trial_index":95,"time_elapsed":665387,"internal_node_id":"0.0-73.0-0.0","task_version":"1.0","jspsych_version":"6.3.1","browser_interactions":0,"missing":false},{"state_1_ids":[0,1],"state_1_key":1,"state_1_choice":1,"state_1_rt":57,"transition":1,"state":1,"state_2_ids":[2,3],"state_2_key":1,"state_2_choice":3,"state_2_rt":3,"outcome":1,"rocket_colors":["#955db9","#48a782"],"planet_colors":["#7f5d5d","#5f6f81"],"screen_resolution":[1366,657],"minimum_resolution":1,"trial":61,"drifts":[0.443,0.536,0.633,0.265],"drift_ix":1,"trial_type":"two-step-trial","trial_index":96,"time_elapsed":667453,"internal_node_id":"0.0-74.0-0.0","task_version":"1.0","jspsych_version":"6.3.1","browser_interactions":0,"missing":false},{"state_1_ids":[1,0],"state_1_key":0,"state_1_choice":1,"state_1_rt":30,"transition":0,"state":0,"state_2_ids":[0,1],"state_2_key":0,"state_2_choice":0,"state_2_rt":111,"outcome":1,"rocket_colors":["#955db9","#48a782"],"planet_colors":["#7f5d5d","#5f6f81"],"screen_resolution":[1366,657],"minimum_resolution":1,"trial":62,"drifts":[0.42,0.521,0.591,0.279],"drift_ix":1,"trial_type":"two-step-trial","trial_index":97,"time_elapsed":669610,"internal_node_id":"0.0-75.0-0.0","task_version":"1.0","jspsych_version":"6.3.1","browser_interactions":0,"missing":false},{"state_1_ids":[1,0],"state_1_key":0,"state_1_choice":1,"state_1_rt":10,"transition":0,"state":0,"state_2_ids":[0,1],"state_2_key":0,"state_2_choice":0,"state_2_rt":8,"outcome":1,"rocket_colors":["#955db9","#48a782"],"planet_colors":["#7f5d5d","#5f6f81"],"screen_resolution":[1366,657],"minimum_resolution":1,"trial":63,"drifts":[0.392,0.519,0.612,0.319],"drift_ix":1,"trial_type":"two-step-trial","trial_index":98,"time_elapsed":671636,"internal_node_id":"0.0-76.0-0.0","task_version":"1.0","jspsych_version":"6.3.1","browser_interactions":0,"missing":false},{"state_1_ids":[0,1],"state_1_key":1,"state_1_choice":1,"state_1_rt":37,"transition":0,"state":0,"state_2_ids":[0,1],"state_2_key":1,"state_2_choice":1,"state_2_rt":132,"outcome":1,"rocket_colors":["#955db9","#48a782"],"planet_colors":["#7f5d5d","#5f6f81"],"screen_resolution":[1366,657],"minimum_resolution":1,"trial":64,"drifts":[0.354,0.493,0.612,0.332],"drift_ix":1,"trial_type":"two-step-trial","trial_index":99,"time_elapsed":673813,"internal_node_id":"0.0-77.0-0.0","task_version":"1.0","jspsych_version":"6.3.1","browser_interactions":0,"missing":false},{"state_1_ids":[1,0],"state_1_key":1,"state_1_choice":0,"state_1_rt":82,"transition":1,"state":0,"state_2_ids":[0,1],"state_2_key":1,"state_2_choice":1,"state_2_rt":78,"outcome":1,"rocket_colors":["#955db9","#48a782"],"planet_colors":["#7f5d5d","#5f6f81"],"screen_resolution":[1366,657],"minimum_resolution":1,"trial":65,"drifts":[0.379,0.495,0.568,0.327],"drift_ix":1,"trial_type":"two-step-trial","trial_index":100,"time_elapsed":675978,"internal_node_id":"0.0-78.0-0.0","task_version":"1.0","jspsych_version":"6.3.1","browser_interactions":0,"missing":false},{"state_1_ids":[1,0],"state_1_key":1,"state_1_choice":0,"state_1_rt":43,"transition":1,"state":0,"state_2_ids":[0,1],"state_2_key":1,"state_2_choice":1,"state_2_rt":128,"outcome":0,"rocket_colors":["#955db9","#48a782"],"planet_colors":["#7f5d5d","#5f6f81"],"screen_resolution":[1366,657],"minimum_resolution":1,"trial":66,"drifts":[0.383,0.497,0.601,0.305],"drift_ix":1,"trial_type":"two-step-trial","trial_index":101,"time_elapsed":678183,"internal_node_id":"0.0-79.0-0.0","task_version":"1.0","jspsych_version":"6.3.1","browser_interactions":0,"missing":false},{"state_1_ids":[1,0],"state_1_key":1,"state_1_choice":0,"state_1_rt":47,"transition":1,"state":0,"state_2_ids":[0,1],"state_2_key":0,"state_2_choice":0,"state_2_rt":66,"outcome":1,"rocket_colors":["#955db9","#48a782"],"planet_colors":["#7f5d5d","#5f6f81"],"screen_resolution":[1366,657],"minimum_resolution":1,"trial":67,"drifts":[0.425,0.523,0.539,0.345],"drift_ix":1,"trial_type":"two-step-trial","trial_index":102,"time_elapsed":680361,"internal_node_id":"0.0-80.0-0.0","task_version":"1.0","jspsych_version":"6.3.1","browser_interactions":0,"missing":false},{"state_1_ids":[0,1],"state_1_key":1,"state_1_choice":1,"state_1_rt":29,"transition":0,"state":0,"state_2_ids":[0,1],"state_2_key":1,"state_2_choice":1,"state_2_rt":47,"outcome":0,"rocket_colors":["#955db9","#48a782"],"planet_colors":["#7f5d5d","#5f6f81"],"screen_resolution":[1366,657],"minimum_resolution":1,"trial":68,"drifts":[0.432,0.482,0.523,0.353],"drift_ix":1,"trial_type":"two-step-trial","trial_index":103,"time_elapsed":682483,"internal_node_id":"0.0-81.0-0.0","task_version":"1.0","jspsych_version":"6.3.1","browser_interactions":0,"missing":false},{"state_1_ids":[1,0],"state_1_key":1,"state_1_choice":0,"state_1_rt":193,"transition":0,"state":1,"state_2_ids":[2,3],"state_2_key":1,"state_2_choice":3,"state_2_rt":1,"outcome":0,"rocket_colors":["#955db9","#48a782"],"planet_colors":["#7f5d5d","#5f6f81"],"screen_resolution":[1366,657],"minimum_resolution":1,"trial":69,"drifts":[0.457,0.505,0.515,0.343],"drift_ix":1,"trial_type":"two-step-trial","trial_index":104,"time_elapsed":684695,"internal_node_id":"0.0-82.0-0.0","task_version":"1.0","jspsych_version":"6.3.1","browser_interactions":0,"missing":false},{"state_1_ids":[1,0],"state_1_key":1,"state_1_choice":0,"state_1_rt":54,"transition":0,"state":1,"state_2_ids":[2,3],"state_2_key":1,"state_2_choice":3,"state_2_rt":47,"outcome":0,"rocket_colors":["#955db9","#48a782"],"planet_colors":["#7f5d5d","#5f6f81"],"screen_resolution":[1366,657],"minimum_resolution":1,"trial":70,"drifts":[0.451,0.526,0.491,0.303],"drift_ix":1,"trial_type":"two-step-trial","trial_index":105,"time_elapsed":686799,"internal_node_id":"0.0-83.0-0.0","task_version":"1.0","jspsych_version":"6.3.1","browser_interactions":0,"missing":false},{"state_1_ids":[1,0],"state_1_key":1,"state_1_choice":0,"state_1_rt":112,"transition":1,"state":0,"state_2_ids":[0,1],"state_2_key":1,"state_2_choice":1,"state_2_rt":34,"outcome":0,"rocket_colors":["#955db9","#48a782"],"planet_colors":["#7f5d5d","#5f6f81"],"screen_resolution":[1366,657],"minimum_resolution":1,"trial":71,"drifts":[0.425,0.552,0.478,0.262],"drift_ix":1,"trial_type":"two-step-trial","trial_index":106,"time_elapsed":688984,"internal_node_id":"0.0-84.0-0.0","task_version":"1.0","jspsych_version":"6.3.1","browser_interactions":0,"missing":false},{"state_1_ids":[1,0],"state_1_key":0,"state_1_choice":1,"state_1_rt":7,"transition":0,"state":0,"state_2_ids":[0,1],"state_2_key":1,"state_2_choice":1,"state_2_rt":63,"outcome":0,"rocket_colors":["#955db9","#48a782"],"planet_colors":["#7f5d5d","#5f6f81"],"screen_resolution":[1366,657],"minimum_resolution":1,"trial":72,"drifts":[0.434,0.518,0.459,0.266],"drift_ix":1,"trial_type":"two-step-trial","trial_index":107,"time_elapsed":691062,"internal_node_id":"0.0-85.0-0.0","task_version":"1.0","jspsych_version":"6.3.1","browser_interactions":0,"missing":false},{"state_1_ids":[0,1],"state_1_key":1,"state_1_choice":1,"state_1_rt":20,"transition":1,"state":1,"state_2_ids":[2,3],"state_2_key":1,"state_2_choice":3,"state_2_rt":1,"outcome":0,"rocket_colors":["#955db9","#48a782"],"planet_colors":["#7f5d5d","#5f6f81"],"screen_resolution":[1366,657],"minimum_resolution":1,"trial":73,"drifts":[0.434,0.507,0.435,0.282],"drift_ix":1,"trial_type":"two-step-trial","trial_index":108,"time_elapsed":693088,"internal_node_id":"0.0-86.0-0.0","task_version":"1.0","jspsych_version":"6.3.1","browser_interactions":0,"missing":false},{"state_1_ids":[1,0],"state_1_key":0,"state_1_choice":1,"state_1_rt":77,"transition":1,"state":1,"state_2_ids":[2,3],"state_2_key":0,"state_2_choice":2,"state_2_rt":48,"outcome":1,"rocket_colors":["#955db9","#48a782"],"planet_colors":["#7f5d5d","#5f6f81"],"screen_resolution":[1366,657],"minimum_resolution":1,"trial":74,"drifts":[0.474,0.468,0.425,0.256],"drift_ix":1,"trial_type":"two-step-trial","trial_index":109,"time_elapsed":695220,"internal_node_id":"0.0-87.0-0.0","task_version":"1.0","jspsych_version":"6.3.1","browser_interactions":0,"missing":false},{"state_1_ids":[1,0],"state_1_key":1,"state_1_choice":0,"state_1_rt":711,"transition":1,"state":0,"state_2_ids":[0,1],"state_2_key":1,"state_2_choice":1,"state_2_rt":106,"outcome":1,"rocket_colors":["#955db9","#48a782"],"planet_colors":["#7f5d5d","#5f6f81"],"screen_resolution":[1366,657],"minimum_resolution":1,"trial":75,"drifts":[0.46,0.495,0.398,0.253],"drift_ix":1,"trial_type":"two-step-trial","trial_index":110,"time_elapsed":698052,"internal_node_id":"0.0-88.0-0.0","task_version":"1.0","jspsych_version":"6.3.1","browser_interactions":0,"missing":false},{"state_1_ids":[1,0],"state_1_key":1,"state_1_choice":0,"state_1_rt":344,"transition":1,"state":0,"state_2_ids":[0,1],"state_2_key":1,"state_2_choice":1,"state_2_rt":454,"outcome":1,"rocket_colors":["#955db9","#48a782"],"planet_colors":["#7f5d5d","#5f6f81"],"screen_resolution":[1366,657],"minimum_resolution":1,"trial":76,"drifts":[0.432,0.494,0.438,0.256],"drift_ix":1,"trial_type":"two-step-trial","trial_index":111,"time_elapsed":700857,"internal_node_id":"0.0-89.0-0.0","task_version":"1.0","jspsych_version":"6.3.1","browser_interactions":0,"missing":false},{"state_1_ids":[1,0],"state_1_key":0,"state_1_choice":1,"state_1_rt":160,"transition":1,"state":1,"state_2_ids":[2,3],"state_2_key":1,"state_2_choice":3,"state_2_rt":31,"outcome":1,"rocket_colors":["#955db9","#48a782"],"planet_colors":["#7f5d5d","#5f6f81"],"screen_resolution":[1366,657],"minimum_resolution":1,"trial":77,"drifts":[0.461,0.493,0.446,0.27],"drift_ix":1,"trial_type":"two-step-trial","trial_index":112,"time_elapsed":703057,"internal_node_id":"0.0-90.0-0.0","task_version":"1.0","jspsych_version":"6.3.1","browser_interactions":0,"missing":false},{"state_1_ids":[0,1],"state_1_key":1,"state_1_choice":1,"state_1_rt":239,"transition":1,"state":1,"state_2_ids":[2,3],"state_2_key":1,"state_2_choice":3,"state_2_rt":81,"outcome":0,"rocket_colors":["#955db9","#48a782"],"planet_colors":["#7f5d5d","#5f6f81"],"screen_resolution":[1366,657],"minimum_resolution":1,"trial":78,"drifts":[0.514,0.513,0.473,0.268],"drift_ix":1,"trial_type":"two-step-trial","trial_index":113,"time_elapsed":705382,"internal_node_id":"0.0-91.0-0.0","task_version":"1.0","jspsych_version":"6.3.1","browser_interactions":0,"missing":false},{"state_1_ids":[1,0],"state_1_key":1,"state_1_choice":0,"state_1_rt":87,"transition":1,"state":0,"state_2_ids":[0,1],"state_2_key":0,"state_2_choice":0,"state_2_rt":156,"outcome":1,"rocket_colors":["#955db9","#48a782"],"planet_colors":["#7f5d5d","#5f6f81"],"screen_resolution":[1366,657],"minimum_resolution":1,"trial":79,"drifts":[0.504,0.552,0.491,0.291],"drift_ix":1,"trial_type":"two-step-trial","trial_index":114,"time_elapsed":707629,"internal_node_id":"0.0-92.0-0.0","task_version":"1.0","jspsych_version":"6.3.1","browser_interactions":0,"missing":false},{"state_1_ids":[1,0],"state_1_key":0,"state_1_choice":1,"state_1_rt":144,"transition":1,"state":1,"state_2_ids":[2,3],"state_2_key":0,"state_2_choice":2,"state_2_rt":51,"outcome":0,"rocket_colors":["#955db9","#48a782"],"planet_colors":["#7f5d5d","#5f6f81"],"screen_resolution":[1366,657],"minimum_resolution":1,"trial":80,"drifts":[0.513,0.538,0.46,0.295],"drift_ix":1,"trial_type":"two-step-trial","trial_index":115,"time_elapsed":709834,"internal_node_id":"0.0-93.0-0.0","task_version":"1.0","jspsych_version":"6.3.1","browser_interactions":0,"missing":false},{"state_1_ids":[1,0],"state_1_key":0,"state_1_choice":1,"state_1_rt":145,"transition":1,"state":1,"state_2_ids":[2,3],"state_2_key":0,"state_2_choice":2,"state_2_rt":1,"outcome":1,"rocket_colors":["#955db9","#48a782"],"planet_colors":["#7f5d5d","#5f6f81"],"screen_resolution":[1366,657],"minimum_resolution":1,"trial":81,"drifts":[0.523,0.491,0.47,0.326],"drift_ix":1,"trial_type":"two-step-trial","trial_index":116,"time_elapsed":712010,"internal_node_id":"0.0-94.0-0.0","task_version":"1.0","jspsych_version":"6.3.1","browser_interactions":0,"missing":false},{"state_1_ids":[0,1],"state_1_key":0,"state_1_choice":0,"state_1_rt":85,"transition":1,"state":0,"state_2_ids":[0,1],"state_2_key":0,"state_2_choice":0,"state_2_rt":38,"outcome":0,"rocket_colors":["#955db9","#48a782"],"planet_colors":["#7f5d5d","#5f6f81"],"screen_resolution":[1366,657],"minimum_resolution":1,"trial":82,"drifts":[0.525,0.548,0.454,0.36],"drift_ix":1,"trial_type":"two-step-trial","trial_index":117,"time_elapsed":714137,"internal_node_id":"0.0-95.0-0.0","task_version":"1.0","jspsych_version":"6.3.1","browser_interactions":0,"missing":false},{"state_1_ids":[1,0],"state_1_key":0,"state_1_choice":1,"state_1_rt":14,"transition":1,"state":1,"state_2_ids":[2,3],"state_2_key":0,"state_2_choice":2,"state_2_rt":47,"outcome":0,"rocket_colors":["#955db9","#48a782"],"planet_colors":["#7f5d5d","#5f6f81"],"screen_resolution":[1366,657],"minimum_resolution":1,"trial":83,"drifts":[0.538,0.579,0.452,0.325],"drift_ix":1,"trial_type":"two-step-trial","trial_index":118,"time_elapsed":716236,"internal_node_id":"0.0-96.0-0.0","task_version":"1.0","jspsych_version":"6.3.1","browser_interactions":0,"missing":false},{"state_1_ids":[0,1],"state_1_key":0,"state_1_choice":0,"state_1_rt":563,"transition":0,"state":1,"state_2_ids":[2,3],"state_2_key":0,"state_2_choice":2,"state_2_rt":4,"outcome":1,"rocket_colors":["#955db9","#48a782"],"planet_colors":["#7f5d5d","#5f6f81"],"screen_resolution":[1366,657],"minimum_resolution":1,"trial":84,"drifts":[0.524,0.64,0.439,0.371],"drift_ix":1,"trial_type":"two-step-trial","trial_index":119,"time_elapsed":718820,"internal_node_id":"0.0-97.0-0.0","task_version":"1.0","jspsych_version":"6.3.1","browser_interactions":0,"missing":false},{"state_1_ids":[1,0],"state_1_key":0,"state_1_choice":1,"state_1_rt":101,"transition":1,"state":1,"state_2_ids":[2,3],"state_2_key":0,"state_2_choice":2,"state_2_rt":206,"outcome":1,"rocket_colors":["#955db9","#48a782"],"planet_colors":["#7f5d5d","#5f6f81"],"screen_resolution":[1366,657],"minimum_resolution":1,"trial":85,"drifts":[0.524,0.637,0.455,0.377],"drift_ix":1,"trial_type":"two-step-trial","trial_index":120,"time_elapsed":721151,"internal_node_id":"0.0-98.0-0.0","task_version":"1.0","jspsych_version":"6.3.1","browser_interactions":0,"missing":false},{"state_1_ids":[1,0],"state_1_key":0,"state_1_choice":1,"state_1_rt":184,"transition":1,"state":1,"state_2_ids":[2,3],"state_2_key":0,"state_2_choice":2,"state_2_rt":72,"outcome":0,"rocket_colors":["#955db9","#48a782"],"planet_colors":["#7f5d5d","#5f6f81"],"screen_resolution":[1366,657],"minimum_resolution":1,"trial":86,"drifts":[0.535,0.666,0.471,0.392],"drift_ix":1,"trial_type":"two-step-trial","trial_index":121,"time_elapsed":723413,"internal_node_id":"0.0-99.0-0.0","task_version":"1.0","jspsych_version":"6.3.1","browser_interactions":0,"missing":false},{"state_1_ids":[1,0],"state_1_key":0,"state_1_choice":1,"state_1_rt":502,"transition":1,"state":1,"state_2_ids":[2,3],"state_2_key":0,"state_2_choice":2,"state_2_rt":170,"outcome":1,"rocket_colors":["#955db9","#48a782"],"planet_colors":["#7f5d5d","#5f6f81"],"screen_resolution":[1366,657],"minimum_resolution":1,"trial":87,"drifts":[0.504,0.695,0.423,0.387],"drift_ix":1,"trial_type":"two-step-trial","trial_index":122,"time_elapsed":726090,"internal_node_id":"0.0-100.0-0.0","task_version":"1.0","jspsych_version":"6.3.1","browser_interactions":0,"missing":false},{"state_1_ids":[0,1],"state_1_key":0,"state_1_choice":0,"state_1_rt":163,"transition":1,"state":0,"state_2_ids":[0,1],"state_2_key":0,"state_2_choice":0,"state_2_rt":45,"outcome":1,"rocket_colors":["#955db9","#48a782"],"planet_colors":["#7f5d5d","#5f6f81"],"screen_resolution":[1366,657],"minimum_resolution":1,"trial":88,"drifts":[0.485,0.667,0.458,0.39],"drift_ix":1,"trial_type":"two-step-trial","trial_index":123,"time_elapsed":728378,"internal_node_id":"0.0-101.0-0.0","task_version":"1.0","jspsych_version":"6.3.1","browser_interactions":0,"missing":false},{"state_1_ids":[0,1],"state_1_key":0,"state_1_choice":0,"state_1_rt":4,"transition":0,"state":1,"state_2_ids":[2,3],"state_2_key":1,"state_2_choice":3,"state_2_rt":31,"outcome":0,"rocket_colors":["#955db9","#48a782"],"planet_colors":["#7f5d5d","#5f6f81"],"screen_resolution":[1366,657],"minimum_resolution":1,"trial":89,"drifts":[0.47,0.661,0.502,0.408],"drift_ix":1,"trial_type":"two-step-trial","trial_index":124,"time_elapsed":730418,"internal_node_id":"0.0-102.0-0.0","task_version":"1.0","jspsych_version":"6.3.1","browser_interactions":0,"missing":false},{"state_1_ids":[0,1],"state_1_key":0,"state_1_choice":0,"state_1_rt":170,"transition":1,"state":0,"state_2_ids":[0,1],"state_2_key":0,"state_2_choice":0,"state_2_rt":63,"outcome":0,"rocket_colors":["#955db9","#48a782"],"planet_colors":["#7f5d5d","#5f6f81"],"screen_resolution":[1366,657],"minimum_resolution":1,"trial":90,"drifts":[0.46,0.678,0.464,0.349],"drift_ix":1,"trial_type":"two-step-trial","trial_index":125,"time_elapsed":732656,"internal_node_id":"0.0-103.0-0.0","task_version":"1.0","jspsych_version":"6.3.1","browser_interactions":0,"missing":false},{"state_1_ids":[0,1],"state_1_key":1,"state_1_choice":1,"state_1_rt":68,"transition":1,"state":1,"state_2_ids":[2,3],"state_2_key":1,"state_2_choice":3,"state_2_rt":23,"outcome":1,"rocket_colors":["#955db9","#48a782"],"planet_colors":["#7f5d5d","#5f6f81"],"screen_resolution":[1366,657],"minimum_resolution":1,"trial":91,"drifts":[0.46,0.655,0.459,0.313],"drift_ix":1,"trial_type":"two-step-trial","trial_index":126,"time_elapsed":734751,"internal_node_id":"0.0-104.0-0.0","task_version":"1.0","jspsych_version":"6.3.1","browser_interactions":0,"missing":false},{"state_1_ids":[0,1],"state_1_key":0,"state_1_choice":0,"state_1_rt":136,"transition":1,"state":0,"state_2_ids":[0,1],"state_2_key":1,"state_2_choice":1,"state_2_rt":22,"outcome":1,"rocket_colors":["#955db9","#48a782"],"planet_colors":["#7f5d5d","#5f6f81"],"screen_resolution":[1366,657],"minimum_resolution":1,"trial":92,"drifts":[0.459,0.663,0.496,0.332],"drift_ix":1,"trial_type":"two-step-trial","trial_index":127,"time_elapsed":736915,"internal_node_id":"0.0-105.0-0.0","task_version":"1.0","jspsych_version":"6.3.1","browser_interactions":0,"missing":false},{"state_1_ids":[1,0],"state_1_key":0,"state_1_choice":1,"state_1_rt":354,"transition":0,"state":0,"state_2_ids":[0,1],"state_2_key":0,"state_2_choice":0,"state_2_rt":43,"outcome":1,"rocket_colors":["#955db9","#48a782"],"planet_colors":["#7f5d5d","#5f6f81"],"screen_resolution":[1366,657],"minimum_resolution":1,"trial":93,"drifts":[0.47,0.662,0.476,0.3],"drift_ix":1,"trial_type":"two-step-trial","trial_index":128,"time_elapsed":739317,"internal_node_id":"0.0-106.0-0.0","task_version":"1.0","jspsych_version":"6.3.1","browser_interactions":0,"missing":false},{"state_1_ids":[1,0],"state_1_key":0,"state_1_choice":1,"state_1_rt":526,"transition":1,"state":1,"state_2_ids":[2,3],"state_2_key":0,"state_2_choice":2,"state_2_rt":74,"outcome":1,"rocket_colors":["#955db9","#48a782"],"planet_colors":["#7f5d5d","#5f6f81"],"screen_resolution":[1366,657],"minimum_resolution":1,"trial":94,"drifts":[0.495,0.666,0.452,0.265],"drift_ix":1,"trial_type":"two-step-trial","trial_index":129,"time_elapsed":741920,"internal_node_id":"0.0-107.0-0.0","task_version":"1.0","jspsych_version":"6.3.1","browser_interactions":0,"missing":false},{"state_1_ids":[0,1],"state_1_key":0,"state_1_choice":0,"state_1_rt":184,"transition":1,"state":0,"state_2_ids":[0,1],"state_2_key":1,"state_2_choice":1,"state_2_rt":44,"outcome":1,"rocket_colors":["#955db9","#48a782"],"planet_colors":["#7f5d5d","#5f6f81"],"screen_resolution":[1366,657],"minimum_resolution":1,"trial":95,"drifts":[0.524,0.697,0.448,0.345],"drift_ix":1,"trial_type":"two-step-trial","trial_index":130,"time_elapsed":744154,"internal_node_id":"0.0-108.0-0.0","task_version":"1.0","jspsych_version":"6.3.1","browser_interactions":0,"missing":false},{"state_1_ids":[1,0],"state_1_key":0,"state_1_choice":1,"state_1_rt":43,"transition":1,"state":1,"state_2_ids":[2,3],"state_2_key":0,"state_2_choice":2,"state_2_rt":62,"outcome":0,"rocket_colors":["#955db9","#48a782"],"planet_colors":["#7f5d5d","#5f6f81"],"screen_resolution":[1366,657],"minimum_resolution":1,"trial":96,"drifts":[0.524,0.681,0.435,0.338],"drift_ix":1,"trial_type":"two-step-trial","trial_index":131,"time_elapsed":746275,"internal_node_id":"0.0-109.0-0.0","task_version":"1.0","jspsych_version":"6.3.1","browser_interactions":0,"missing":false},{"state_1_ids":[0,1],"state_1_key":0,"state_1_choice":0,"state_1_rt":64,"transition":1,"state":0,"state_2_ids":[0,1],"state_2_key":0,"state_2_choice":0,"state_2_rt":85,"outcome":0,"rocket_colors":["#955db9","#48a782"],"planet_colors":["#7f5d5d","#5f6f81"],"screen_resolution":[1366,657],"minimum_resolution":1,"trial":97,"drifts":[0.542,0.675,0.441,0.363],"drift_ix":1,"trial_type":"two-step-trial","trial_index":132,"time_elapsed":748431,"internal_node_id":"0.0-110.0-0.0","task_version":"1.0","jspsych_version":"6.3.1","browser_interactions":0,"missing":false},{"state_1_ids":[1,0],"state_1_key":0,"state_1_choice":1,"state_1_rt":234,"transition":0,"state":0,"state_2_ids":[0,1],"state_2_key":0,"state_2_choice":0,"state_2_rt":148,"outcome":1,"rocket_colors":["#955db9","#48a782"],"planet_colors":["#7f5d5d","#5f6f81"],"screen_resolution":[1366,657],"minimum_resolution":1,"trial":98,"drifts":[0.542,0.7,0.418,0.358],"drift_ix":1,"trial_type":"two-step-trial","trial_index":133,"time_elapsed":750825,"internal_node_id":"0.0-111.0-0.0","task_version":"1.0","jspsych_version":"6.3.1","browser_interactions":0,"missing":false},{"state_1_ids":[1,0],"state_1_key":1,"state_1_choice":0,"state_1_rt":98,"transition":1,"state":0,"state_2_ids":[0,1],"state_2_key":0,"state_2_choice":0,"state_2_rt":140,"outcome":1,"rocket_colors":["#955db9","#48a782"],"planet_colors":["#7f5d5d","#5f6f81"],"screen_resolution":[1366,657],"minimum_resolution":1,"trial":99,"drifts":[0.586,0.735,0.41,0.338],"drift_ix":1,"trial_type":"two-step-trial","trial_index":134,"time_elapsed":753070,"internal_node_id":"0.0-112.0-0.0","task_version":"1.0","jspsych_version":"6.3.1","browser_interactions":0,"missing":false},{"state_1_ids":[1,0],"state_1_key":1,"state_1_choice":0,"state_1_rt":54,"transition":1,"state":0,"state_2_ids":[0,1],"state_2_key":0,"state_2_choice":0,"state_2_rt":373,"outcome":0,"rocket_colors":["#955db9","#48a782"],"planet_colors":["#7f5d5d","#5f6f81"],"screen_resolution":[1366,657],"minimum_resolution":1,"trial":100,"drifts":[0.591,0.693,0.426,0.36],"drift_ix":1,"trial_type":"two-step-trial","trial_index":135,"time_elapsed":755504,"internal_node_id":"0.0-113.0-0.0","task_version":"1.0","jspsych_version":"6.3.1","browser_interactions":0,"missing":false},{"view_history":"[{\"page_index\":0,\"viewing_time\":234},{\"page_index\":1,\"viewing_time\":231},{\"page_index\":0,\"viewing_time\":109},{\"page_index\":1,\"viewing_time\":447},{\"page_index\":0,\"viewing_time\":10},{\"page_index\":1,\"viewing_time\":88},{\"page_index\":0,\"viewing_time\":17},{\"page_index\":1,\"viewing_time\":212},{\"page_index\":0,\"viewing_time\":281},{\"page_index\":1,\"viewing_time\":189},{\"page_index\":0,\"viewing_time\":72},{\"page_index\":1,\"viewing_time\":475},{\"page_index\":0,\"viewing_time\":786},{\"page_index\":1,\"viewing_time\":36},{\"page_index\":0,\"viewing_time\":1431},{\"page_index\":1,\"viewing_time\":19},{\"page_index\":0,\"viewing_time\":1384},{\"page_index\":1,\"viewing_time\":5413}]","rt":11437,"trial_type":"two-step-instructions","trial_index":136,"time_elapsed":766947,"internal_node_id":"0.0-114.0","task_version":"1.0","jspsych_version":"6.3.1"},{"state_1_ids":[1,0],"state_1_key":1,"state_1_choice":0,"state_1_rt":1063,"transition":1,"state":0,"state_2_ids":[0,1],"state_2_key":1,"state_2_choice":1,"state_2_rt":117,"outcome":0,"rocket_colors":["#955db9","#48a782"],"planet_colors":["#7f5d5d","#5f6f81"],"screen_resolution":[1366,657],"minimum_resolution":1,"trial":101,"drifts":[0.639,0.722,0.416,0.356],"drift_ix":1,"trial_type":"two-step-trial","trial_index":137,"time_elapsed":770144,"internal_node_id":"0.0-115.0-0.0","task_version":"1.0","jspsych_version":"6.3.1","browser_interactions":0,"missing":false},{"state_1_ids":[1,0],"state_1_key":0,"state_1_choice":1,"state_1_rt":55,"transition":1,"state":1,"state_2_ids":[2,3],"state_2_key":1,"state_2_choice":3,"state_2_rt":101,"outcome":1,"rocket_colors":["#955db9","#48a782"],"planet_colors":["#7f5d5d","#5f6f81"],"screen_resolution":[1366,657],"minimum_resolution":1,"trial":102,"drifts":[0.661,0.749,0.353,0.384],"drift_ix":1,"trial_type":"two-step-trial","trial_index":138,"time_elapsed":772311,"internal_node_id":"0.0-116.0-0.0","task_version":"1.0","jspsych_version":"6.3.1","browser_interactions":0,"missing":false},{"state_1_ids":[1,0],"state_1_key":1,"state_1_choice":0,"state_1_rt":56,"transition":1,"state":0,"state_2_ids":[0,1],"state_2_key":1,"state_2_choice":1,"state_2_rt":9,"outcome":1,"rocket_colors":["#955db9","#48a782"],"planet_colors":["#7f5d5d","#5f6f81"],"screen_resolution":[1366,657],"minimum_resolution":1,"trial":103,"drifts":[0.659,0.729,0.293,0.396],"drift_ix":1,"trial_type":"two-step-trial","trial_index":139,"time_elapsed":774381,"internal_node_id":"0.0-117.0-0.0","task_version":"1.0","jspsych_version":"6.3.1","browser_interactions":0,"missing":false},{"state_1_ids":[0,1],"state_1_key":1,"state_1_choice":1,"state_1_rt":114,"transition":0,"state":0,"state_2_ids":[0,1],"state_2_key":0,"state_2_choice":0,"state_2_rt":15,"outcome":1,"rocket_colors":["#955db9","#48a782"],"planet_colors":["#7f5d5d","#5f6f81"],"screen_resolution":[1366,657],"minimum_resolution":1,"trial":104,"drifts":[0.615,0.721,0.288,0.378],"drift_ix":1,"trial_type":"two-step-trial","trial_index":140,"time_elapsed":776606,"internal_node_id":"0.0-118.0-0.0","task_version":"1.0","jspsych_version":"6.3.1","browser_interactions":0,"missing":false},{"state_1_ids":[1,0],"state_1_key":0,"state_1_choice":1,"state_1_rt":23,"transition":0,"state":0,"state_2_ids":[0,1],"state_2_key":1,"state_2_choice":1,"state_2_rt":112,"outcome":1,"rocket_colors":["#955db9","#48a782"],"planet_colors":["#7f5d5d","#5f6f81"],"screen_resolution":[1366,657],"minimum_resolution":1,"trial":105,"drifts":[0.562,0.742,0.297,0.343],"drift_ix":1,"trial_type":"two-step-trial","trial_index":141,"time_elapsed":778746,"internal_node_id":"0.0-119.0-0.0","task_version":"1.0","jspsych_version":"6.3.1","browser_interactions":0,"missing":false},{"state_1_ids":[0,1],"state_1_key":1,"state_1_choice":1,"state_1_rt":91,"transition":1,"state":1,"state_2_ids":[2,3],"state_2_key":0,"state_2_choice":2,"state_2_rt":197,"outcome":0,"rocket_colors":["#955db9","#48a782"],"planet_colors":["#7f5d5d","#5f6f81"],"screen_resolution":[1366,657],"minimum_resolution":1,"trial":106,"drifts":[0.532,0.742,0.25,0.332],"drift_ix":1,"trial_type":"two-step-trial","trial_index":142,"time_elapsed":781039,"internal_node_id":"0.0-120.0-0.0","task_version":"1.0","jspsych_version":"6.3.1","browser_interactions":0,"missing":false},{"state_1_ids":[0,1],"state_1_key":0,"state_1_choice":0,"state_1_rt":74,"transition":1,"state":0,"state_2_ids":[0,1],"state_2_key":1,"state_2_choice":1,"state_2_rt":33,"outcome":1,"rocket_colors":["#955db9","#48a782"],"planet_colors":["#7f5d5d","#5f6f81"],"screen_resolution":[1366,657],"minimum_resolution":1,"trial":107,"drifts":[0.531,0.742,0.255,0.33],"drift_ix":1,"trial_type":"two-step-trial","trial_index":143,"time_elapsed":783153,"internal_node_id":"0.0-121.0-0.0","task_version":"1.0","jspsych_version":"6.3.1","browser_interactions":0,"missing":false},{"state_1_ids":[0,1],"state_1_key":1,"state_1_choice":1,"state_1_rt":555,"transition":1,"state":1,"state_2_ids":[2,3],"state_2_key":1,"state_2_choice":3,"state_2_rt":309,"outcome":0,"rocket_colors":["#955db9","#48a782"],"planet_colors":["#7f5d5d","#5f6f81"],"screen_resolution":[1366,657],"minimum_resolution":1,"trial":108,"drifts":[0.576,0.733,0.281,0.338],"drift_ix":1,"trial_type":"two-step-trial","trial_index":144,"time_elapsed":786044,"internal_node_id":"0.0-122.0-0.0","task_version":"1.0","jspsych_version":"6.3.1","browser_interactions":0,"missing":false},{"state_1_ids":[0,1],"state_1_key":1,"state_1_choice":1,"state_1_rt":28,"transition":1,"state":1,"state_2_ids":[2,3],"state_2_key":1,"state_2_choice":3,"state_2_rt":793,"outcome":0,"rocket_colors":["#955db9","#48a782"],"planet_colors":["#7f5d5d","#5f6f81"],"screen_resolution":[1366,657],"minimum_resolution":1,"trial":109,"drifts":[0.593,0.74,0.277,0.333],"drift_ix":1,"trial_type":"two-step-trial","trial_index":145,"time_elapsed":788871,"internal_node_id":"0.0-123.0-0.0","task_version":"1.0","jspsych_version":"6.3.1","browser_interactions":0,"missing":false},{"state_1_ids":[0,1],"state_1_key":1,"state_1_choice":1,"state_1_rt":112,"transition":1,"state":1,"state_2_ids":[2,3],"state_2_key":0,"state_2_choice":2,"state_2_rt":2,"outcome":0,"rocket_colors":["#955db9","#48a782"],"planet_colors":["#7f5d5d","#5f6f81"],"screen_resolution":[1366,657],"minimum_resolution":1,"trial":110,"drifts":[0.57,0.735,0.318,0.349],"drift_ix":1,"trial_type":"two-step-trial","trial_index":146,"time_elapsed":790999,"internal_node_id":"0.0-124.0-0.0","task_version":"1.0","jspsych_version":"6.3.1","browser_interactions":0,"missing":false},{"state_1_ids":[0,1],"state_1_key":1,"state_1_choice":1,"state_1_rt":126,"transition":1,"state":1,"state_2_ids":[2,3],"state_2_key":1,"state_2_choice":3,"state_2_rt":55,"outcome":0,"rocket_colors":["#955db9","#48a782"],"planet_colors":["#7f5d5d","#5f6f81"],"screen_resolution":[1366,657],"minimum_resolution":1,"trial":111,"drifts":[0.566,0.726,0.306,0.333],"drift_ix":1,"trial_type":"two-step-trial","trial_index":147,"time_elapsed":793184,"internal_node_id":"0.0-125.0-0.0","task_version":"1.0","jspsych_version":"6.3.1","browser_interactions":0,"missing":false},{"state_1_ids":[1,0],"state_1_key":1,"state_1_choice":0,"state_1_rt":153,"transition":1,"state":0,"state_2_ids":[0,1],"state_2_key":0,"state_2_choice":0,"state_2_rt":52,"outcome":1,"rocket_colors":["#955db9","#48a782"],"planet_colors":["#7f5d5d","#5f6f81"],"screen_resolution":[1366,657],"minimum_resolution":1,"trial":112,"drifts":[0.552,0.734,0.35,0.354],"drift_ix":1,"trial_type":"two-step-trial","trial_index":148,"time_elapsed":795400,"internal_node_id":"0.0-126.0-0.0","task_version":"1.0","jspsych_version":"6.3.1","browser_interactions":0,"missing":false},{"state_1_ids":[1,0],"state_1_key":1,"state_1_choice":0,"state_1_rt":164,"transition":1,"state":0,"state_2_ids":[0,1],"state_2_key":0,"state_2_choice":0,"state_2_rt":34,"outcome":1,"rocket_colors":["#955db9","#48a782"],"planet_colors":["#7f5d5d","#5f6f81"],"screen_resolution":[1366,657],"minimum_resolution":1,"trial":113,"drifts":[0.503,0.684,0.352,0.329],"drift_ix":1,"trial_type":"two-step-trial","trial_index":149,"time_elapsed":797610,"internal_node_id":"0.0-127.0-0.0","task_version":"1.0","jspsych_version":"6.3.1","browser_interactions":0,"missing":false},{"state_1_ids":[1,0],"state_1_key":1,"state_1_choice":0,"state_1_rt":98,"transition":1,"state":0,"state_2_ids":[0,1],"state_2_key":0,"state_2_choice":0,"state_2_rt":238,"outcome":1,"rocket_colors":["#955db9","#48a782"],"planet_colors":["#7f5d5d","#5f6f81"],"screen_resolution":[1366,657],"minimum_resolution":1,"trial":114,"drifts":[0.517,0.664,0.374,0.314],"drift_ix":1,"trial_type":"two-step-trial","trial_index":150,"time_elapsed":799958,"internal_node_id":"0.0-128.0-0.0","task_version":"1.0","jspsych_version":"6.3.1","browser_interactions":0,"missing":false},{"state_1_ids":[1,0],"state_1_key":1,"state_1_choice":0,"state_1_rt":21,"transition":0,"state":1,"state_2_ids":[2,3],"state_2_key":1,"state_2_choice":3,"state_2_rt":138,"outcome":1,"rocket_colors":["#955db9","#48a782"],"planet_colors":["#7f5d5d","#5f6f81"],"screen_resolution":[1366,657],"minimum_resolution":1,"trial":115,"drifts":[0.505,0.635,0.405,0.281],"drift_ix":1,"trial_type":"two-step-trial","trial_index":151,"time_elapsed":802126,"internal_node_id":"0.0-129.0-0.0","task_version":"1.0","jspsych_version":"6.3.1","browser_interactions":0,"missing":false},{"state_1_ids":[0,1],"state_1_key":1,"state_1_choice":1,"state_1_rt":5,"transition":1,"state":1,"state_2_ids":[2,3],"state_2_key":1,"state_2_choice":3,"state_2_rt":163,"outcome":0,"rocket_colors":["#955db9","#48a782"],"planet_colors":["#7f5d5d","#5f6f81"],"screen_resolution":[1366,657],"minimum_resolution":1,"trial":116,"drifts":[0.506,0.651,0.43,0.328],"drift_ix":1,"trial_type":"two-step-trial","trial_index":152,"time_elapsed":804301,"internal_node_id":"0.0-130.0-0.0","task_version":"1.0","jspsych_version":"6.3.1","browser_interactions":0,"missing":false},{"state_1_ids":[0,1],"state_1_key":0,"state_1_choice":0,"state_1_rt":30,"transition":1,"state":0,"state_2_ids":[0,1],"state_2_key":1,"state_2_choice":1,"state_2_rt":113,"outcome":1,"rocket_colors":["#955db9","#48a782"],"planet_colors":["#7f5d5d","#5f6f81"],"screen_resolution":[1366,657],"minimum_resolution":1,"trial":117,"drifts":[0.524,0.623,0.426,0.298],"drift_ix":1,"trial_type":"two-step-trial","trial_index":153,"time_elapsed":806466,"internal_node_id":"0.0-131.0-0.0","task_version":"1.0","jspsych_version":"6.3.1","browser_interactions":0,"missing":false},{"state_1_ids":[1,0],"state_1_key":0,"state_1_choice":1,"state_1_rt":10,"transition":1,"state":1,"state_2_ids":[2,3],"state_2_key":1,"state_2_choice":3,"state_2_rt":22,"outcome":1,"rocket_colors":["#955db9","#48a782"],"planet_colors":["#7f5d5d","#5f6f81"],"screen_resolution":[1366,657],"minimum_resolution":1,"trial":118,"drifts":[0.512,0.652,0.411,0.294],"drift_ix":1,"trial_type":"two-step-trial","trial_index":154,"time_elapsed":808506,"internal_node_id":"0.0-132.0-0.0","task_version":"1.0","jspsych_version":"6.3.1","browser_interactions":0,"missing":false},{"state_1_ids":[0,1],"state_1_key":0,"state_1_choice":0,"state_1_rt":3,"transition":1,"state":0,"state_2_ids":[0,1],"state_2_key":0,"state_2_choice":0,"state_2_rt":101,"outcome":1,"rocket_colors":["#955db9","#48a782"],"planet_colors":["#7f5d5d","#5f6f81"],"screen_resolution":[1366,657],"minimum_resolution":1,"trial":119,"drifts":[0.502,0.652,0.413,0.344],"drift_ix":1,"trial_type":"two-step-trial","trial_index":155,"time_elapsed":810787,"internal_node_id":"0.0-133.0-0.0","task_version":"1.0","jspsych_version":"6.3.1","browser_interactions":0,"missing":false},{"state_1_ids":[1,0],"state_1_key":0,"state_1_choice":1,"state_1_rt":269,"transition":1,"state":1,"state_2_ids":[2,3],"state_2_key":0,"state_2_choice":2,"state_2_rt":97,"outcome":0,"rocket_colors":["#955db9","#48a782"],"planet_colors":["#7f5d5d","#5f6f81"],"screen_resolution":[1366,657],"minimum_resolution":1,"trial":120,"drifts":[0.482,0.631,0.394,0.33],"drift_ix":1,"trial_type":"two-step-trial","trial_index":156,"time_elapsed":813160,"internal_node_id":"0.0-134.0-0.0","task_version":"1.0","jspsych_version":"6.3.1","browser_interactions":0,"missing":false},{"state_1_ids":[0,1],"state_1_key":0,"state_1_choice":0,"state_1_rt":55,"transition":1,"state":0,"state_2_ids":[0,1],"state_2_key":1,"state_2_choice":1,"state_2_rt":4,"outcome":0,"rocket_colors":["#955db9","#48a782"],"planet_colors":["#7f5d5d","#5f6f81"],"screen_resolution":[1366,657],"minimum_resolution":1,"trial":121,"drifts":[0.447,0.633,0.361,0.325],"drift_ix":1,"trial_type":"two-step-trial","trial_index":157,"time_elapsed":815225,"internal_node_id":"0.0-135.0-0.0","task_version":"1.0","jspsych_version":"6.3.1","browser_interactions":0,"missing":false},{"state_1_ids":[1,0],"state_1_key":1,"state_1_choice":0,"state_1_rt":20,"transition":0,"state":1,"state_2_ids":[2,3],"state_2_key":0,"state_2_choice":2,"state_2_rt":27,"outcome":0,"rocket_colors":["#955db9","#48a782"],"planet_colors":["#7f5d5d","#5f6f81"],"screen_resolution":[1366,657],"minimum_resolution":1,"trial":122,"drifts":[0.451,0.597,0.354,0.284],"drift_ix":1,"trial_type":"two-step-trial","trial_index":158,"time_elapsed":817284,"internal_node_id":"0.0-136.0-0.0","task_version":"1.0","jspsych_version":"6.3.1","browser_interactions":0,"missing":false},{"state_1_ids":[0,1],"state_1_key":0,"state_1_choice":0,"state_1_rt":21,"transition":1,"state":0,"state_2_ids":[0,1],"state_2_key":1,"state_2_choice":1,"state_2_rt":84,"outcome":0,"rocket_colors":["#955db9","#48a782"],"planet_colors":["#7f5d5d","#5f6f81"],"screen_resolution":[1366,657],"minimum_resolution":1,"trial":123,"drifts":[0.511,0.55,0.353,0.29],"drift_ix":1,"trial_type":"two-step-trial","trial_index":159,"time_elapsed":819479,"internal_node_id":"0.0-137.0-0.0","task_version":"1.0","jspsych_version":"6.3.1","browser_interactions":0,"missing":false},{"state_1_ids":[1,0],"state_1_key":1,"state_1_choice":0,"state_1_rt":98,"transition":1,"state":0,"state_2_ids":[0,1],"state_2_key":1,"state_2_choice":1,"state_2_rt":104,"outcome":1,"rocket_colors":["#955db9","#48a782"],"planet_colors":["#7f5d5d","#5f6f81"],"screen_resolution":[1366,657],"minimum_resolution":1,"trial":124,"drifts":[0.523,0.509,0.361,0.326],"drift_ix":1,"trial_type":"two-step-trial","trial_index":160,"time_elapsed":821692,"internal_node_id":"0.0-138.0-0.0","task_version":"1.0","jspsych_version":"6.3.1","browser_interactions":0,"missing":false},{"state_1_ids":[0,1],"state_1_key":1,"state_1_choice":1,"state_1_rt":112,"transition":1,"state":1,"state_2_ids":[2,3],"state_2_key":0,"state_2_choice":2,"state_2_rt":132,"outcome":0,"rocket_colors":["#955db9","#48a782"],"planet_colors":["#7f5d5d","#5f6f81"],"screen_resolution":[1366,657],"minimum_resolution":1,"trial":125,"drifts":[0.519,0.49,0.295,0.344],"drift_ix":1,"trial_type":"two-step-trial","trial_index":161,"time_elapsed":823948,"internal_node_id":"0.0-139.0-0.0","task_version":"1.0","jspsych_version":"6.3.1","browser_interactions":0,"missing":false},{"state_1_ids":[0,1],"state_1_key":1,"state_1_choice":1,"state_1_rt":24,"transition":0,"state":0,"state_2_ids":[0,1],"state_2_key":1,"state_2_choice":1,"state_2_rt":77,"outcome":0,"rocket_colors":["#955db9","#48a782"],"planet_colors":["#7f5d5d","#5f6f81"],"screen_resolution":[1366,657],"minimum_resolution":1,"trial":126,"drifts":[0.525,0.444,0.287,0.34],"drift_ix":1,"trial_type":"two-step-trial","trial_index":162,"time_elapsed":826060,"internal_node_id":"0.0-140.0-0.0","task_version":"1.0","jspsych_version":"6.3.1","browser_interactions":0,"missing":false},{"state_1_ids":[0,1],"state_1_key":0,"state_1_choice":0,"state_1_rt":64,"transition":0,"state":1,"state_2_ids":[2,3],"state_2_key":1,"state_2_choice":3,"state_2_rt":7,"outcome":0,"rocket_colors":["#955db9","#48a782"],"planet_colors":["#7f5d5d","#5f6f81"],"screen_resolution":[1366,657],"minimum_resolution":1,"trial":127,"drifts":[0.473,0.463,0.278,0.293],"drift_ix":1,"trial_type":"two-step-trial","trial_index":163,"time_elapsed":828136,"internal_node_id":"0.0-141.0-0.0","task_version":"1.0","jspsych_version":"6.3.1","browser_interactions":0,"missing":false},{"state_1_ids":[0,1],"state_1_key":0,"state_1_choice":0,"state_1_rt":51,"transition":1,"state":0,"state_2_ids":[0,1],"state_2_key":1,"state_2_choice":1,"state_2_rt":133,"outcome":1,"rocket_colors":["#955db9","#48a782"],"planet_colors":["#7f5d5d","#5f6f81"],"screen_resolution":[1366,657],"minimum_resolution":1,"trial":128,"drifts":[0.496,0.47,0.277,0.271],"drift_ix":1,"trial_type":"two-step-trial","trial_index":164,"time_elapsed":830326,"internal_node_id":"0.0-142.0-0.0","task_version":"1.0","jspsych_version":"6.3.1","browser_interactions":0,"missing":false},{"state_1_ids":[0,1],"state_1_key":1,"state_1_choice":1,"state_1_rt":38,"transition":0,"state":0,"state_2_ids":[0,1],"state_2_key":0,"state_2_choice":0,"state_2_rt":8,"outcome":1,"rocket_colors":["#955db9","#48a782"],"planet_colors":["#7f5d5d","#5f6f81"],"screen_resolution":[1366,657],"minimum_resolution":1,"trial":129,"drifts":[0.477,0.48,0.264,0.281],"drift_ix":1,"trial_type":"two-step-trial","trial_index":165,"time_elapsed":832392,"internal_node_id":"0.0-143.0-0.0","task_version":"1.0","jspsych_version":"6.3.1","browser_interactions":0,"missing":false},{"state_1_ids":[1,0],"state_1_key":0,"state_1_choice":1,"state_1_rt":31,"transition":1,"state":1,"state_2_ids":[2,3],"state_2_key":1,"state_2_choice":3,"state_2_rt":135,"outcome":0,"rocket_colors":["#955db9","#48a782"],"planet_colors":["#7f5d5d","#5f6f81"],"screen_resolution":[1366,657],"minimum_resolution":1,"trial":130,"drifts":[0.494,0.486,0.258,0.258],"drift_ix":1,"trial_type":"two-step-trial","trial_index":166,"time_elapsed":834704,"internal_node_id":"0.0-144.0-0.0","task_version":"1.0","jspsych_version":"6.3.1","browser_interactions":0,"missing":false},{"state_1_ids":[1,0],"state_1_key":1,"state_1_choice":0,"state_1_rt":70,"transition":1,"state":0,"state_2_ids":[0,1],"state_2_key":0,"state_2_choice":0,"state_2_rt":43,"outcome":1,"rocket_colors":["#955db9","#48a782"],"planet_colors":["#7f5d5d","#5f6f81"],"screen_resolution":[1366,657],"minimum_resolution":1,"trial":131,"drifts":[0.493,0.471,0.325,0.274],"drift_ix":1,"trial_type":"two-step-trial","trial_index":167,"time_elapsed":836822,"internal_node_id":"0.0-145.0-0.0","task_version":"1.0","jspsych_version":"6.3.1","browser_interactions":0,"missing":false},{"state_1_ids":[0,1],"state_1_key":0,"state_1_choice":0,"state_1_rt":248,"transition":1,"state":0,"state_2_ids":[0,1],"state_2_key":0,"state_2_choice":0,"state_2_rt":14,"outcome":0,"rocket_colors":["#955db9","#48a782"],"planet_colors":["#7f5d5d","#5f6f81"],"screen_resolution":[1366,657],"minimum_resolution":1,"trial":132,"drifts":[0.495,0.414,0.29,0.261],"drift_ix":1,"trial_type":"two-step-trial","trial_index":168,"time_elapsed":839093,"internal_node_id":"0.0-146.0-0.0","task_version":"1.0","jspsych_version":"6.3.1","browser_interactions":0,"missing":false},{"state_1_ids":[0,1],"state_1_key":0,"state_1_choice":0,"state_1_rt":107,"transition":1,"state":0,"state_2_ids":[0,1],"state_2_key":0,"state_2_choice":0,"state_2_rt":62,"outcome":0,"rocket_colors":["#955db9","#48a782"],"planet_colors":["#7f5d5d","#5f6f81"],"screen_resolution":[1366,657],"minimum_resolution":1,"trial":133,"drifts":[0.486,0.393,0.318,0.253],"drift_ix":1,"trial_type":"two-step-trial","trial_index":169,"time_elapsed":841268,"internal_node_id":"0.0-147.0-0.0","task_version":"1.0","jspsych_version":"6.3.1","browser_interactions":0,"missing":false},{"state_1_ids":[1,0],"state_1_key":1,"state_1_choice":0,"state_1_rt":58,"transition":0,"state":1,"state_2_ids":[2,3],"state_2_key":0,"state_2_choice":2,"state_2_rt":115,"outcome":0,"rocket_colors":["#955db9","#48a782"],"planet_colors":["#7f5d5d","#5f6f81"],"screen_resolution":[1366,657],"minimum_resolution":1,"trial":134,"drifts":[0.485,0.381,0.329,0.268],"drift_ix":1,"trial_type":"two-step-trial","trial_index":170,"time_elapsed":843491,"internal_node_id":"0.0-148.0-0.0","task_version":"1.0","jspsych_version":"6.3.1","browser_interactions":0,"missing":false},{"state_1_ids":[0,1],"state_1_key":0,"state_1_choice":0,"state_1_rt":92,"transition":0,"state":1,"state_2_ids":[2,3],"state_2_key":1,"state_2_choice":3,"state_2_rt":48,"outcome":0,"rocket_colors":["#955db9","#48a782"],"planet_colors":["#7f5d5d","#5f6f81"],"screen_resolution":[1366,657],"minimum_resolution":1,"trial":135,"drifts":[0.476,0.33,0.348,0.266],"drift_ix":1,"trial_type":"two-step-trial","trial_index":171,"time_elapsed":845635,"internal_node_id":"0.0-149.0-0.0","task_version":"1.0","jspsych_version":"6.3.1","browser_interactions":0,"missing":false},{"state_1_ids":[0,1],"state_1_key":0,"state_1_choice":0,"state_1_rt":48,"transition":1,"state":0,"state_2_ids":[0,1],"state_2_key":0,"state_2_choice":0,"state_2_rt":18,"outcome":1,"rocket_colors":["#955db9","#48a782"],"planet_colors":["#7f5d5d","#5f6f81"],"screen_resolution":[1366,657],"minimum_resolution":1,"trial":136,"drifts":[0.408,0.356,0.348,0.276],"drift_ix":1,"trial_type":"two-step-trial","trial_index":172,"time_elapsed":847729,"internal_node_id":"0.0-150.0-0.0","task_version":"1.0","jspsych_version":"6.3.1","browser_interactions":0,"missing":false},{"state_1_ids":[1,0],"state_1_key":0,"state_1_choice":1,"state_1_rt":63,"transition":1,"state":1,"state_2_ids":[2,3],"state_2_key":0,"state_2_choice":2,"state_2_rt":76,"outcome":1,"rocket_colors":["#955db9","#48a782"],"planet_colors":["#7f5d5d","#5f6f81"],"screen_resolution":[1366,657],"minimum_resolution":1,"trial":137,"drifts":[0.444,0.402,0.328,0.271],"drift_ix":1,"trial_type":"two-step-trial","trial_index":173,"time_elapsed":849874,"internal_node_id":"0.0-151.0-0.0","task_version":"1.0","jspsych_version":"6.3.1","browser_interactions":0,"missing":false},{"state_1_ids":[1,0],"state_1_key":0,"state_1_choice":1,"state_1_rt":53,"transition":0,"state":0,"state_2_ids":[0,1],"state_2_key":0,"state_2_choice":0,"state_2_rt":41,"outcome":0,"rocket_colors":["#955db9","#48a782"],"planet_colors":["#7f5d5d","#5f6f81"],"screen_resolution":[1366,657],"minimum_resolution":1,"trial":138,"drifts":[0.443,0.378,0.381,0.256],"drift_ix":1,"trial_type":"two-step-trial","trial_index":174,"time_elapsed":851973,"internal_node_id":"0.0-152.0-0.0","task_version":"1.0","jspsych_version":"6.3.1","browser_interactions":0,"missing":false},{"state_1_ids":[1,0],"state_1_key":1,"state_1_choice":0,"state_1_rt":671,"transition":1,"state":0,"state_2_ids":[0,1],"state_2_key":1,"state_2_choice":1,"state_2_rt":31,"outcome":0,"rocket_colors":["#955db9","#48a782"],"planet_colors":["#7f5d5d","#5f6f81"],"screen_resolution":[1366,657],"minimum_resolution":1,"trial":139,"drifts":[0.465,0.376,0.423,0.302],"drift_ix":1,"trial_type":"two-step-trial","trial_index":175,"time_elapsed":854685,"internal_node_id":"0.0-153.0-0.0","task_version":"1.0","jspsych_version":"6.3.1","browser_interactions":0,"missing":false},{"state_1_ids":[1,0],"state_1_key":1,"state_1_choice":0,"state_1_rt":127,"transition":1,"state":0,"state_2_ids":[0,1],"state_2_key":1,"state_2_choice":1,"state_2_rt":124,"outcome":1,"rocket_colors":["#955db9","#48a782"],"planet_colors":["#7f5d5d","#5f6f81"],"screen_resolution":[1366,657],"minimum_resolution":1,"trial":140,"drifts":[0.503,0.356,0.419,0.307],"drift_ix":1,"trial_type":"two-step-trial","trial_index":176,"time_elapsed":856960,"internal_node_id":"0.0-154.0-0.0","task_version":"1.0","jspsych_version":"6.3.1","browser_interactions":0,"missing":false},{"state_1_ids":[0,1],"state_1_key":1,"state_1_choice":1,"state_1_rt":62,"transition":1,"state":1,"state_2_ids":[2,3],"state_2_key":1,"state_2_choice":3,"state_2_rt":65,"outcome":1,"rocket_colors":["#955db9","#48a782"],"planet_colors":["#7f5d5d","#5f6f81"],"screen_resolution":[1366,657],"minimum_resolution":1,"trial":141,"drifts":[0.498,0.362,0.406,0.333],"drift_ix":1,"trial_type":"two-step-trial","trial_index":177,"time_elapsed":859136,"internal_node_id":"0.0-155.0-0.0","task_version":"1.0","jspsych_version":"6.3.1","browser_interactions":0,"missing":false},{"state_1_ids":[0,1],"state_1_key":0,"state_1_choice":0,"state_1_rt":155,"transition":1,"state":0,"state_2_ids":[0,1],"state_2_key":1,"state_2_choice":1,"state_2_rt":42,"outcome":0,"rocket_colors":["#955db9","#48a782"],"planet_colors":["#7f5d5d","#5f6f81"],"screen_resolution":[1366,657],"minimum_resolution":1,"trial":142,"drifts":[0.462,0.376,0.412,0.337],"drift_ix":1,"trial_type":"two-step-trial","trial_index":178,"time_elapsed":861338,"internal_node_id":"0.0-156.0-0.0","task_version":"1.0","jspsych_version":"6.3.1","browser_interactions":0,"missing":false},{"state_1_ids":[1,0],"state_1_key":0,"state_1_choice":1,"state_1_rt":162,"transition":1,"state":1,"state_2_ids":[2,3],"state_2_key":0,"state_2_choice