[{"success":true,"timeout":false,"failed_images":[],"failed_audio":[],"failed_video":[],"trial_type":"preload","trial_index":0,"time_elapsed":523,"internal_node_id":"0.0-0.0","task_version":"1.0","jspsych_version":"6.3.1"},{"success":true,"trial_type":"fullscreen","trial_index":1,"time_elapsed":176794,"internal_node_id":"0.0-1.0","task_version":"1.0","jspsych_version":"6.3.1"},{"view_history":[{"page_index":0,"viewing_time":2865.1000000089407}],"rt":2865.2999999970198,"trial_type":"instructions","trial_index":2,"time_elapsed":179661,"internal_node_id":"0.0-2.0","task_version":"1.0","jspsych_version":"6.3.1"},{"responses":{"Q04":"0","Q05":"0","Q03":"0","Q01":"0","Q08":"3","Q07":"0","Q06":"0","Q02":"0"},"rt":74411.29999999702,"item_order":[3,4,2,0,7,6,5,1],"radio_events":[7291.79999999702,8275.70000000298,9288.09999999404,9288.59999999404,13720.40000000596,17804.59999999404,22094.40000000596,27162.40000000596,36770.29999999702,44574.40000000596,48430.29999999702],"key_events":[],"mouse_events":[0.20000000298023224,7291.79999999702,8275.70000000298,9288.09999999404,9288.59999999404,13720.40000000596,17804.59999999404,22094.40000000596,27162.40000000596,36770.29999999702,44574.40000000596,48430.29999999702,74410.40000000596],"straightlining":0.875,"zigzagging":0.2857142857142857,"honeypot":0,"survey":"mania","trial_type":"survey-template","trial_index":3,"time_elapsed":254078,"internal_node_id":"0.0-3.0","task_version":"1.0","jspsych_version":"6.3.1"},{"responses":{"Q06":"5","Q03":"5","Q07":"3","Q02":"5","Q05":"5","Q01":"5","Q04":"5"},"rt":16869.60000000894,"item_order":[5,2,6,1,4,0,3],"radio_events":[3506.7000000029802,4578.600000008941,6394.70000000298,10510.60000000894,13282.70000000298,15048.60000000894,15975.29999999702],"key_events":[],"mouse_events":[3506.7000000029802,4578.600000008941,6394.70000000298,10510.60000000894,11894.70000000298,13282.70000000298,15048.60000000894,15975.29999999702,16868.79999999702],"straightlining":0.42857142857142855,"zigzagging":0,"honeypot":0,"survey":"artistic","trial_type":"survey-template","trial_index":4,"time_elapsed":270950,"internal_node_id":"0.0-4.0","task_version":"1.0","jspsych_version":"6.3.1"},{"responses":{"Q06":"1","Q05":"1","Q02":"1","Q01":"2","Q03":"1","Q07":"6","Q04":"2"},"rt":22013.40000000596,"item_order":[5,4,1,0,2,6,3],"radio_events":[2516.5,5360.5,6416.5999999940395,13892.40000000596,15462.40000000596,17680.40000000596,20710.5],"key_events":[],"mouse_events":[2516.5,3728.5,5360.5,6416.5999999940395,13892.40000000596,15462.40000000596,17680.40000000596,20710.5,22012.5],"straightlining":0.5714285714285714,"zigzagging":0.3333333333333333,"honeypot":0,"survey":"greed","trial_type":"survey-template","trial_index":5,"time_elapsed":292966,"internal_node_id":"0.0-5.0","task_version":"1.0","jspsych_version":"6.3.1"},{"responses":{"Q04":"0","Q02":"0","Q06":"0","Q01":"0","Q08":"0","Q03":"0","Q07":"0","Q05":"0"},"rt":40977.29999999702,"item_order":[3,1,5,0,7,2,6,4],"radio_events":[5256.5999999940395,7580.5999999940395,9948.59999999404,12722.59999999404,26684.59999999404,36408.5,37852.59999999404,39576.5],"key_events":[],"mouse_events":[4180.5999999940395,5256.5999999940395,7580.5999999940395,9948.59999999404,12722.59999999404,26684.59999999404,36408.5,37852.59999999404,39576.5,40976.59999999404],"straightlining":1,"zigzagging":0,"honeypot":0,"survey":"depression","trial_type":"survey-template","trial_index":6,"time_elapsed":333946,"internal_node_id":"0.0-6.0","task_version":"1.0","jspsych_version":"6.3.1"},{"responses":{"Q04":"0","Q05":"0","Q03":"0","Q08":"0","Q02":"0","Q01":"0","Q06":"0","Q07":"0"},"rt":14953.90000000596,"item_order":[3,4,2,7,1,0,5,6],"radio_events":[2725.2000000029802,3665.2000000029802,4745.20000000298,8645.20000000298,9809.20000000298,10803.20000000298,13133.20000000298,13985.20000000298],"key_events":[],"mouse_events":[2725.2000000029802,3665.2000000029802,4745.20000000298,8645.20000000298,9809.20000000298,10803.20000000298,11713.29999999702,13133.20000000298,13985.20000000298,14953.20000000298],"straightlining":1,"zigzagging":0,"honeypot":0,"survey":"anxiety","trial_type":"survey-template","trial_index":7,"time_elapsed":348902,"internal_node_id":"0.0-7.0","task_version":"1.0","jspsych_version":"6.3.1"},{"view_history":"[{\"page_index\":0,\"viewing_time\":4333.100000008941},{\"page_index\":1,\"viewing_time\":3064},{\"page_index\":2,\"viewing_time\":1931.7999999970198},{\"page_index\":3,\"viewing_time\":7178.0999999940395},{\"page_index\":4,\"viewing_time\":5902},{\"page_index\":5,\"viewing_time\":3873.9000000059605},{\"page_index\":6,\"viewing_time\":2348},{\"page_index\":7,\"viewing_time\":3992.0999999940395},{\"page_index\":8,\"viewing_time\":4466},{\"page_index\":9,\"viewing_time\":5051.100000008941},{\"page_index\":10,\"viewing_time\":2890.7999999970198}]","rt":45031.30000001192,"trial_type":"two-step-instructions","trial_index":8,"time_elapsed":393937,"internal_node_id":"0.0-8.0-1.0","task_version":"1.0","jspsych_version":"6.3.1"},{"responses":["left/right arrow keys","True","True"],"num_errors":0,"rt":14524.5,"quiz":1,"trial_type":"two-step-comprehension","trial_index":9,"time_elapsed":408463,"internal_node_id":"0.0-8.0-2.0","task_version":"1.0","jspsych_version":"6.3.1"},{"view_history":"[{\"page_index\":0,\"viewing_time\":6022.29999999702}]","rt":6022.600000008941,"phase":"instructions_1b","trial_type":"two-step-instructions","trial_index":10,"time_elapsed":414489,"internal_node_id":"0.0-9.0-0.0-0.0","task_version":"1.0","jspsych_version":"6.3.1"},{"state_2_ids":[0,1],"state_2_key":1,"state_2_choice":1,"state_2_rt":2035.5999999940395,"outcome":1,"screen_resolution":[1680,1050],"minimum_resolution":1,"trial_type":"alien-practice","trial_index":11,"time_elapsed":418728,"internal_node_id":"0.0-9.0-1.0-0.0","task_version":"1.0","jspsych_version":"6.3.1"},{"state_2_ids":[0,1],"state_2_key":1,"state_2_choice":1,"state_2_rt":988.5999999940395,"outcome":0,"screen_resolution":[1680,1050],"minimum_resolution":1,"trial_type":"alien-practice","trial_index":12,"time_elapsed":421920,"internal_node_id":"0.0-9.0-2.0-0.0","task_version":"1.0","jspsych_version":"6.3.1"},{"state_2_ids":[0,1],"state_2_key":1,"state_2_choice":1,"state_2_rt":436.29999999701977,"outcome":1,"screen_resolution":[1680,1050],"minimum_resolution":1,"trial_type":"alien-practice","trial_index":13,"time_elapsed":424560,"internal_node_id":"0.0-9.0-3.0-0.0","task_version":"1.0","jspsych_version":"6.3.1"},{"state_2_ids":[0,1],"state_2_key":1,"state_2_choice":1,"state_2_rt":452.70000000298023,"outcome":1,"screen_resolution":[1680,1050],"minimum_resolution":1,"trial_type":"alien-practice","trial_index":14,"time_elapsed":427215,"internal_node_id":"0.0-9.0-4.0-0.0","task_version":"1.0","jspsych_version":"6.3.1"},{"state_2_ids":[0,1],"state_2_key":1,"state_2_choice":1,"state_2_rt":461,"outcome":1,"screen_resolution":[1680,1050],"minimum_resolution":1,"trial_type":"alien-practice","trial_index":15,"time_elapsed":429879,"internal_node_id":"0.0-9.0-5.0-0.0","task_version":"1.0","jspsych_version":"6.3.1"},{"view_history":"[{\"page_index\":0,\"viewing_time\":4600.29999999702},{\"page_index\":1,\"viewing_time\":2016},{\"page_index\":2,\"viewing_time\":4808},{\"page_index\":3,\"viewing_time\":8490},{\"page_index\":4,\"viewing_time\":3959.9000000059605},{\"page_index\":5,\"viewing_time\":2628.2000000029802}]","rt":26502.70000000298,"trial_type":"two-step-instructions","trial_index":16,"time_elapsed":456385,"internal_node_id":"0.0-10.0-1.0","task_version":"1.0","jspsych_version":"6.3.1"},{"responses":["left/right arrow keys","False","True"],"num_errors":0,"rt":11174.70000000298,"quiz":2,"trial_type":"two-step-comprehension","trial_index":17,"time_elapsed":467561,"internal_node_id":"0.0-10.0-2.0","task_version":"1.0","jspsych_version":"6.3.1"},{"view_history":"[{\"page_index\":0,\"viewing_time\":3887},{\"page_index\":1,\"viewing_time\":4083.8999999910593},{\"page_index\":2,\"viewing_time\":2760.6000000089407},{\"page_index\":1,\"viewing_time\":5201.20000000298},{\"page_index\":2,\"viewing_time\":4264.199999988079}]","rt":20197.29999999702,"trial_type":"two-step-instructions","trial_index":18,"time_elapsed":487761,"internal_node_id":"0.0-11.0-0.0","task_version":"1.0","jspsych_version":"6.3.1"},{"state_1_ids":[1,0],"state_1_key":1,"state_1_choice":0,"state_1_rt":1651.8999999910593,"transition":1,"state":0,"state_2_ids":[0,1],"state_2_key":1,"state_2_choice":1,"state_2_rt":2518.4000000059605,"outcome":1,"rocket_colors":["#48a782","#955db9"],"planet_colors":["#7f5d5d","#5f6f81"],"screen_resolution":[1680,1050],"minimum_resolution":1,"trial":0,"trial_type":"two-step-trial","trial_index":19,"time_elapsed":493936,"internal_node_id":"0.0-11.0-1.0-0.0","task_version":"1.0","jspsych_version":"6.3.1","missing":false},{"state_1_ids":[1,0],"state_1_key":1,"state_1_choice":0,"state_1_rt":1109.0999999940395,"transition":0,"state":1,"state_2_ids":[2,3],"state_2_key":0,"state_2_choice":2,"state_2_rt":2397.9000000059605,"outcome":0,"rocket_colors":["#48a782","#955db9"],"planet_colors":["#7f5d5d","#5f6f81"],"screen_resolution":[1680,1050],"minimum_resolution":1,"trial":0,"trial_type":"two-step-trial","trial_index":20,"time_elapsed":499448,"internal_node_id":"0.0-11.0-1.0-0.1","task_version":"1.0","jspsych_version":"6.3.1","missing":false},{"state_1_ids":[0,1],"state_1_key":1,"state_1_choice":1,"state_1_rt":845.8999999910593,"transition":1,"state":1,"state_2_ids":[2,3],"state_2_key":1,"state_2_choice":3,"state_2_rt":1335.3999999910593,"outcome":1,"rocket_colors":["#48a782","#955db9"],"planet_colors":["#7f5d5d","#5f6f81"],"screen_resolution":[1680,1050],"minimum_resolution":1,"trial":0,"trial_type":"two-step-trial","trial_index":21,"time_elapsed":503632,"internal_node_id":"0.0-11.0-1.0-0.2","task_version":"1.0","jspsych_version":"6.3.1","missing":false},{"state_1_ids":[0,1],"state_1_key":0,"state_1_choice":0,"state_1_rt":997.6999999880791,"transition":0,"state":1,"state_2_ids":[2,3],"state_2_key":1,"state_2_choice":3,"state_2_rt":1511.2000000029802,"outcome":1,"rocket_colors":["#48a782","#955db9"],"planet_colors":["#7f5d5d","#5f6f81"],"screen_resolution":[1680,1050],"minimum_resolution":1,"trial":0,"trial_type":"two-step-trial","trial_index":22,"time_elapsed":508144,"internal_node_id":"0.0-11.0-1.0-0.3","task_version":"1.0","jspsych_version":"6.3.1","missing":false},{"state_1_ids":[0,1],"state_1_key":0,"state_1_choice":0,"state_1_rt":1341.699999988079,"transition":1,"state":0,"state_2_ids":[0,1],"state_2_key":1,"state_2_choice":1,"state_2_rt":1142.5,"outcome":1,"rocket_colors":["#48a782","#955db9"],"planet_colors":["#7f5d5d","#5f6f81"],"screen_resolution":[1680,1050],"minimum_resolution":1,"trial":0,"trial_type":"two-step-trial","trial_index":23,"time_elapsed":512632,"internal_node_id":"0.0-11.0-1.0-0.4","task_version":"1.0","jspsych_version":"6.3.1","missing":false},{"state_1_ids":[1,0],"state_1_key":1,"state_1_choice":0,"state_1_rt":933.5999999940395,"transition":1,"state":0,"state_2_ids":[0,1],"state_2_key":1,"state_2_choice":1,"state_2_rt":815.0999999940395,"outcome":0,"rocket_colors":["#48a782","#955db9"],"planet_colors":["#7f5d5d","#5f6f81"],"screen_resolution":[1680,1050],"minimum_resolution":1,"trial":0,"trial_type":"two-step-trial","trial_index":24,"time_elapsed":516383,"internal_node_id":"0.0-11.0-1.0-0.5","task_version":"1.0","jspsych_version":"6.3.1","missing":false},{"state_1_ids":[0,1],"state_1_key":0,"state_1_choice":0,"state_1_rt":1110.3999999910593,"transition":0,"state":1,"state_2_ids":[2,3],"state_2_key":1,"state_2_choice":3,"state_2_rt":1335,"outcome":1,"rocket_colors":["#48a782","#955db9"],"planet_colors":["#7f5d5d","#5f6f81"],"screen_resolution":[1680,1050],"minimum_resolution":1,"trial":0,"trial_type":"two-step-trial","trial_index":25,"time_elapsed":520832,"internal_node_id":"0.0-11.0-1.0-0.6","task_version":"1.0","jspsych_version":"6.3.1","missing":false},{"state_1_ids":[0,1],"state_1_key":0,"state_1_choice":0,"state_1_rt":1237.7999999970198,"transition":1,"state":0,"state_2_ids":[0,1],"state_2_key":1,"state_2_choice":1,"state_2_rt":959.0999999940395,"outcome":0,"rocket_colors":["#48a782","#955db9"],"planet_colors":["#7f5d5d","#5f6f81"],"screen_resolution":[1680,1050],"minimum_resolution":1,"trial":0,"trial_type":"two-step-trial","trial_index":26,"time_elapsed":525032,"internal_node_id":"0.0-11.0-1.0-0.7","task_version":"1.0","jspsych_version":"6.3.1","missing":false},{"state_1_ids":[1,0],"state_1_key":1,"state_1_choice":0,"state_1_rt":1205.5,"transition":0,"state":1,"state_2_ids":[2,3],"state_2_key":1,"state_2_choice":3,"state_2_rt":1871.4000000059605,"outcome":0,"rocket_colors":["#48a782","#955db9"],"planet_colors":["#7f5d5d","#5f6f81"],"screen_resolution":[1680,1050],"minimum_resolution":1,"trial":0,"trial_type":"two-step-trial","trial_index":27,"time_elapsed":530112,"internal_node_id":"0.0-11.0-1.0-0.8","task_version":"1.0","jspsych_version":"6.3.1","missing":false},{"state_1_ids":[1,0],"state_1_key":0,"state_1_choice":1,"state_1_rt":1093.4000000059605,"transition":1,"state":1,"state_2_ids":[2,3],"state_2_key":0,"state_2_choice":2,"state_2_rt":2583.5,"outcome":0,"rocket_colors":["#48a782","#955db9"],"planet_colors":["#7f5d5d","#5f6f81"],"screen_resolution":[1680,1050],"minimum_resolution":1,"trial":0,"trial_type":"two-step-trial","trial_index":28,"time_elapsed":535792,"internal_node_id":"0.0-11.0-1.0-0.9","task_version":"1.0","jspsych_version":"6.3.1","missing":false},{"view_history":"[{\"page_index\":0,\"viewing_time\":3356.2999999970198},{\"page_index\":1,\"viewing_time\":2370},{\"page_index\":2,\"viewing_time\":1292},{\"page_index\":3,\"viewing_time\":3582.1000000089407},{\"page_index\":4,\"viewing_time\":8137.899999991059},{\"page_index\":5,\"viewing_time\":10886.10000000894},{\"page_index\":6,\"viewing_time\":4820}]","rt":34444.79999999702,"trial_type":"two-step-instructions","trial_index":29,"time_elapsed":570239,"internal_node_id":"0.0-12.0-1.0","task_version":"1.0","jspsych_version":"6.3.1"},{"responses":["True","False","True"],"num_errors":0,"rt":10548.5,"quiz":3,"trial_type":"two-step-comprehension","trial_index":30,"time_elapsed":580790,"internal_node_id":"0.0-12.0-2.0","task_version":"1.0","jspsych_version":"6.3.1"},{"view_history":"[{\"page_index\":0,\"viewing_time\":1421.2000000029802},{\"page_index\":1,\"viewing_time\":5022},{\"page_index\":2,\"viewing_time\":3460}]","rt":9903.59999999404,"trial_type":"two-step-instructions","trial_index":31,"time_elapsed":590695,"internal_node_id":"0.0-13.0","task_version":"1.0","jspsych_version":"6.3.1"},{"state_1_ids":[0,1],"state_1_key":1,"state_1_choice":1,"state_1_rt":2189.5999999940395,"transition":1,"state":1,"state_2_ids":[2,3],"state_2_key":0,"state_2_choice":2,"state_2_rt":1903.2999999970198,"outcome":0,"rocket_colors":["#a75248","#486ea7"],"planet_colors":["#5b7c65","#706081"],"screen_resolution":[1680,1050],"minimum_resolution":1,"trial":1,"drifts":[0.412,0.317,0.453,0.743],"drift_ix":2,"trial_type":"two-step-trial","trial_index":32,"time_elapsed":596792,"internal_node_id":"0.0-14.0-0.0","task_version":"1.0","jspsych_version":"6.3.1","browser_interactions":0,"missing":false},{"state_1_ids":[0,1],"state_1_key":0,"state_1_choice":0,"state_1_rt":1949.5999999940395,"transition":0,"state":1,"state_2_ids":[2,3],"state_2_key":1,"state_2_choice":3,"state_2_rt":1686.5999999940395,"outcome":0,"rocket_colors":["#a75248","#486ea7"],"planet_colors":["#5b7c65","#706081"],"screen_resolution":[1680,1050],"minimum_resolution":1,"trial":2,"drifts":[0.402,0.305,0.461,0.702],"drift_ix":2,"trial_type":"two-step-trial","trial_index":33,"time_elapsed":602432,"internal_node_id":"0.0-15.0-0.0","task_version":"1.0","jspsych_version":"6.3.1","browser_interactions":0,"missing":false},{"state_1_ids":[1,0],"state_1_key":1,"state_1_choice":0,"state_1_rt":693.6000000089407,"transition":1,"state":0,"state_2_ids":[0,1],"state_2_key":0,"state_2_choice":0,"state_2_rt":1999.2999999970198,"outcome":0,"rocket_colors":["#a75248","#486ea7"],"planet_colors":["#5b7c65","#706081"],"screen_resolution":[1680,1050],"minimum_resolution":1,"trial":3,"drifts":[0.373,0.327,0.445,0.732],"drift_ix":2,"trial_type":"two-step-trial","trial_index":34,"time_elapsed":607128,"internal_node_id":"0.0-16.0-0.0","task_version":"1.0","jspsych_version":"6.3.1","browser_interactions":0,"missing":false},{"state_1_ids":[1,0],"state_1_key":1,"state_1_choice":0,"state_1_rt":845.7000000029802,"transition":0,"state":1,"state_2_ids":[2,3],"state_2_key":1,"state_2_choice":3,"state_2_rt":1214.7000000029802,"outcome":1,"rocket_colors":["#a75248","#486ea7"],"planet_colors":["#5b7c65","#706081"],"screen_resolution":[1680,1050],"minimum_resolution":1,"trial":4,"drifts":[0.381,0.303,0.418,0.736],"drift_ix":2,"trial_type":"two-step-trial","trial_index":35,"time_elapsed":611191,"internal_node_id":"0.0-17.0-0.0","task_version":"1.0","jspsych_version":"6.3.1","browser_interactions":0,"missing":false},{"state_1_ids":[1,0],"state_1_key":1,"state_1_choice":0,"state_1_rt":1030.3999999910593,"transition":0,"state":1,"state_2_ids":[2,3],"state_2_key":1,"state_2_choice":3,"state_2_rt":663.0999999940395,"outcome":1,"rocket_colors":["#a75248","#486ea7"],"planet_colors":["#5b7c65","#706081"],"screen_resolution":[1680,1050],"minimum_resolution":1,"trial":5,"drifts":[0.366,0.363,0.401,0.709],"drift_ix":2,"trial_type":"two-step-trial","trial_index":36,"time_elapsed":614887,"internal_node_id":"0.0-18.0-0.0","task_version":"1.0","jspsych_version":"6.3.1","browser_interactions":0,"missing":false},{"state_1_ids":[1,0],"state_1_key":1,"state_1_choice":0,"state_1_rt":694.2999999970198,"transition":0,"state":1,"state_2_ids":[2,3],"state_2_key":1,"state_2_choice":3,"state_2_rt":567.4000000059605,"outcome":0,"rocket_colors":["#a75248","#486ea7"],"planet_colors":["#5b7c65","#706081"],"screen_resolution":[1680,1050],"minimum_resolution":1,"trial":6,"drifts":[0.393,0.368,0.383,0.711],"drift_ix":2,"trial_type":"two-step-trial","trial_index":37,"time_elapsed":618152,"internal_node_id":"0.0-19.0-0.0","task_version":"1.0","jspsych_version":"6.3.1","browser_interactions":0,"missing":false},{"state_1_ids":[1,0],"state_1_key":0,"state_1_choice":1,"state_1_rt":1173.699999988079,"transition":1,"state":1,"state_2_ids":[2,3],"state_2_key":1,"state_2_choice":3,"state_2_rt":2407.4000000059605,"outcome":0,"rocket_colors":["#a75248","#486ea7"],"planet_colors":["#5b7c65","#706081"],"screen_resolution":[1680,1050],"minimum_resolution":1,"trial":7,"drifts":[0.4,0.405,0.425,0.678],"drift_ix":2,"trial_type":"two-step-trial","trial_index":38,"time_elapsed":623735,"internal_node_id":"0.0-20.0-0.0","task_version":"1.0","jspsych_version":"6.3.1","browser_interactions":0,"missing":false},{"state_1_ids":[1,0],"state_1_key":1,"state_1_choice":0,"state_1_rt":1045.9000000059605,"transition":1,"state":0,"state_2_ids":[0,1],"state_2_key":0,"state_2_choice":0,"state_2_rt":1630.9000000059605,"outcome":0,"rocket_colors":["#a75248","#486ea7"],"planet_colors":["#5b7c65","#706081"],"screen_resolution":[1680,1050],"minimum_resolution":1,"trial":8,"drifts":[0.383,0.388,0.415,0.699],"drift_ix":2,"trial_type":"two-step-trial","trial_index":39,"time_elapsed":628416,"internal_node_id":"0.0-21.0-0.0","task_version":"1.0","jspsych_version":"6.3.1","browser_interactions":0,"missing":false},{"state_1_ids":[1,0],"state_1_key":1,"state_1_choice":0,"state_1_rt":429.6000000089407,"transition":1,"state":0,"state_2_ids":[0,1],"state_2_key":1,"state_2_choice":1,"state_2_rt":526.9000000059605,"outcome":0,"rocket_colors":["#a75248","#486ea7"],"planet_colors":["#5b7c65","#706081"],"screen_resolution":[1680,1050],"minimum_resolution":1,"trial":9,"drifts":[0.347,0.439,0.405,0.713],"drift_ix":2,"trial_type":"two-step-trial","trial_index":40,"time_elapsed":631376,"internal_node_id":"0.0-22.0-0.0","task_version":"1.0","jspsych_version":"6.3.1","browser_interactions":0,"missing":false},{"state_1_ids":[0,1],"state_1_key":0,"state_1_choice":0,"state_1_rt":1349.5,"transition":1,"state":0,"state_2_ids":[0,1],"state_2_key":1,"state_2_choice":1,"state_2_rt":1535.2000000029802,"outcome":0,"rocket_colors":["#a75248","#486ea7"],"planet_colors":["#5b7c65","#706081"],"screen_resolution":[1680,1050],"minimum_resolution":1,"trial":10,"drifts":[0.367,0.459,0.46,0.731],"drift_ix":2,"trial_type":"two-step-trial","trial_index":41,"time_elapsed":636263,"internal_node_id":"0.0-23.0-0.0","task_version":"1.0","jspsych_version":"6.3.1","browser_interactions":0,"missing":false},{"state_1_ids":[0,1],"state_1_key":1,"state_1_choice":1,"state_1_rt":494.5,"transition":1,"state":1,"state_2_ids":[2,3],"state_2_key":1,"state_2_choice":3,"state_2_rt":2247,"outcome":1,"rocket_colors":["#a75248","#486ea7"],"planet_colors":["#5b7c65","#706081"],"screen_resolution":[1680,1050],"minimum_resolution":1,"trial":11,"drifts":[0.397,0.451,0.461,0.701],"drift_ix":2,"trial_type":"two-step-trial","trial_index":42,"time_elapsed":641007,"internal_node_id":"0.0-24.0-0.0","task_version":"1.0","jspsych_version":"6.3.1","browser_interactions":0,"missing":false},{"state_1_ids":[0,1],"state_1_key":1,"state_1_choice":1,"state_1_rt":654.4000000059605,"transition":0,"state":0,"state_2_ids":[0,1],"state_2_key":1,"state_2_choice":1,"state_2_rt":1327.4000000059605,"outcome":0,"rocket_colors":["#a75248","#486ea7"],"planet_colors":["#5b7c65","#706081"],"screen_resolution":[1680,1050],"minimum_resolution":1,"trial":12,"drifts":[0.357,0.426,0.459,0.707],"drift_ix":2,"trial_type":"two-step-trial","trial_index":43,"time_elapsed":644992,"internal_node_id":"0.0-25.0-0.0","task_version":"1.0","jspsych_version":"6.3.1","browser_interactions":0,"missing":false},{"state_1_ids":[0,1],"state_1_key":1,"state_1_choice":1,"state_1_rt":581.9000000059605,"transition":1,"state":1,"state_2_ids":[2,3],"state_2_key":1,"state_2_choice":3,"state_2_rt":2023.0999999940395,"outcome":0,"rocket_colors":["#a75248","#486ea7"],"planet_colors":["#5b7c65","#706081"],"screen_resolution":[1680,1050],"minimum_resolution":1,"trial":13,"drifts":[0.337,0.398,0.428,0.721],"drift_ix":2,"trial_type":"two-step-trial","trial_index":44,"time_elapsed":649600,"internal_node_id":"0.0-26.0-0.0","task_version":"1.0","jspsych_version":"6.3.1","browser_interactions":0,"missing":false},{"state_1_ids":[1,0],"state_1_key":0,"state_1_choice":1,"state_1_rt":1022,"transition":1,"state":1,"state_2_ids":[2,3],"state_2_key":0,"state_2_choice":2,"state_2_rt":1191.0999999940395,"outcome":0,"rocket_colors":["#a75248","#486ea7"],"planet_colors":["#5b7c65","#706081"],"screen_resolution":[1680,1050],"minimum_resolution":1,"trial":14,"drifts":[0.283,0.408,0.384,0.719],"drift_ix":2,"trial_type":"two-step-trial","trial_index":45,"time_elapsed":653818,"internal_node_id":"0.0-27.0-0.0","task_version":"1.0","jspsych_version":"6.3.1","browser_interactions":0,"missing":false},{"state_1_ids":[0,1],"state_1_key":1,"state_1_choice":1,"state_1_rt":683.6000000089407,"transition":1,"state":1,"state_2_ids":[2,3],"state_2_key":1,"state_2_choice":3,"state_2_rt":863,"outcome":1,"rocket_colors":["#a75248","#486ea7"],"planet_colors":["#5b7c65","#706081"],"screen_resolution":[1680,1050],"minimum_resolution":1,"trial":15,"drifts":[0.295,0.37,0.375,0.738],"drift_ix":2,"trial_type":"two-step-trial","trial_index":46,"time_elapsed":657368,"internal_node_id":"0.0-28.0-0.0","task_version":"1.0","jspsych_version":"6.3.1","browser_interactions":0,"missing":false},{"state_1_ids":[0,1],"state_1_key":1,"state_1_choice":1,"state_1_rt":742,"transition":0,"state":0,"state_2_ids":[0,1],"state_2_key":0,"state_2_choice":0,"state_2_rt":2334.8999999910593,"outcome":0,"rocket_colors":["#a75248","#486ea7"],"planet_colors":["#5b7c65","#706081"],"screen_resolution":[1680,1050],"minimum_resolution":1,"trial":16,"drifts":[0.305,0.343,0.325,0.713],"drift_ix":2,"trial_type":"two-step-trial","trial_index":47,"time_elapsed":662448,"internal_node_id":"0.0-29.0-0.0","task_version":"1.0","jspsych_version":"6.3.1","browser_interactions":0,"missing":false},{"state_1_ids":[0,1],"state_1_key":1,"state_1_choice":1,"state_1_rt":517.3999999910593,"transition":1,"state":1,"state_2_ids":[2,3],"state_2_key":1,"state_2_choice":3,"state_2_rt":815.3000000119209,"outcome":1,"rocket_colors":["#a75248","#486ea7"],"planet_colors":["#5b7c65","#706081"],"screen_resolution":[1680,1050],"minimum_resolution":1,"trial":17,"drifts":[0.305,0.313,0.334,0.705],"drift_ix":2,"trial_type":"two-step-trial","trial_index":48,"time_elapsed":665784,"internal_node_id":"0.0-30.0-0.0","task_version":"1.0","jspsych_version":"6.3.1","browser_interactions":0,"missing":false},{"state_1_ids":[0,1],"state_1_key":1,"state_1_choice":1,"state_1_rt":1733.5999999940395,"transition":0,"state":0,"state_2_ids":[0,1],"state_2_key":1,"state_2_choice":1,"state_2_rt":1095.2000000029802,"outcome":1,"rocket_colors":["#a75248","#486ea7"],"planet_colors":["#5b7c65","#706081"],"screen_resolution":[1680,1050],"minimum_resolution":1,"trial":18,"drifts":[0.316,0.314,0.353,0.728],"drift_ix":2,"trial_type":"two-step-trial","trial_index":49,"time_elapsed":670616,"internal_node_id":"0.0-31.0-0.0","task_version":"1.0","jspsych_version":"6.3.1","browser_interactions":0,"missing":false},{"state_1_ids":[0,1],"state_1_key":1,"state_1_choice":1,"state_1_rt":741.8999999910593,"transition":1,"state":1,"state_2_ids":[2,3],"state_2_key":1,"state_2_choice":3,"state_2_rt":575.2000000029802,"outcome":1,"rocket_colors":["#a75248","#486ea7"],"planet_colors":["#5b7c65","#706081"],"screen_resolution":[1680,1050],"minimum_resolution":1,"trial":19,"drifts":[0.317,0.335,0.368,0.745],"drift_ix":2,"trial_type":"two-step-trial","trial_index":50,"time_elapsed":673936,"internal_node_id":"0.0-32.0-0.0","task_version":"1.0","jspsych_version":"6.3.1","browser_interactions":0,"missing":false},{"state_1_ids":[0,1],"state_1_key":1,"state_1_choice":1,"state_1_rt":565.7999999970198,"transition":0,"state":0,"state_2_ids":[0,1],"state_2_key":1,"state_2_choice":1,"state_2_rt":735.6000000089407,"outcome":0,"rocket_colors":["#a75248","#486ea7"],"planet_colors":["#5b7c65","#706081"],"screen_resolution":[1680,1050],"minimum_resolution":1,"trial":20,"drifts":[0.307,0.313,0.421,0.737],"drift_ix":2,"trial_type":"two-step-trial","trial_index":51,"time_elapsed":677240,"internal_node_id":"0.0-33.0-0.0","task_version":"1.0","jspsych_version":"6.3.1","browser_interactions":0,"missing":false},{"state_1_ids":[1,0],"state_1_key":0,"state_1_choice":1,"state_1_rt":1110.0999999940395,"transition":1,"state":1,"state_2_ids":[2,3],"state_2_key":1,"state_2_choice":3,"state_2_rt":1215.0999999940395,"outcome":1,"rocket_colors":["#a75248","#486ea7"],"planet_colors":["#5b7c65","#706081"],"screen_resolution":[1680,1050],"minimum_resolution":1,"trial":21,"drifts":[0.31,0.305,0.401,0.745],"drift_ix":2,"trial_type":"two-step-trial","trial_index":52,"time_elapsed":681568,"internal_node_id":"0.0-34.0-0.0","task_version":"1.0","jspsych_version":"6.3.1","browser_interactions":0,"missing":false},{"state_1_ids":[0,1],"state_1_key":0,"state_1_choice":0,"state_1_rt":750.0999999940395,"transition":1,"state":0,"state_2_ids":[0,1],"state_2_key":1,"state_2_choice":1,"state_2_rt":911.2999999970198,"outcome":0,"rocket_colors":["#a75248","#486ea7"],"planet_colors":["#5b7c65","#706081"],"screen_resolution":[1680,1050],"minimum_resolution":1,"trial":22,"drifts":[0.326,0.31,0.391,0.735],"drift_ix":2,"trial_type":"two-step-trial","trial_index":53,"time_elapsed":685232,"internal_node_id":"0.0-35.0-0.0","task_version":"1.0","jspsych_version":"6.3.1","browser_interactions":0,"missing":false},{"state_1_ids":[0,1],"state_1_key":1,"state_1_choice":1,"state_1_rt":765.7000000029802,"transition":1,"state":1,"state_2_ids":[2,3],"state_2_key":1,"state_2_choice":3,"state_2_rt":655,"outcome":0,"rocket_colors":["#a75248","#486ea7"],"planet_colors":["#5b7c65","#706081"],"screen_resolution":[1680,1050],"minimum_resolution":1,"trial":23,"drifts":[0.331,0.302,0.379,0.741],"drift_ix":2,"trial_type":"two-step-trial","trial_index":54,"time_elapsed":688655,"internal_node_id":"0.0-36.0-0.0","task_version":"1.0","jspsych_version":"6.3.1","browser_interactions":0,"missing":false},{"state_1_ids":[0,1],"state_1_key":0,"state_1_choice":0,"state_1_rt":1206.3999999910593,"transition":0,"state":1,"state_2_ids":[2,3],"state_2_key":1,"state_2_choice":3,"state_2_rt":1622.6000000089407,"outcome":1,"rocket_colors":["#a75248","#486ea7"],"planet_colors":["#5b7c65","#706081"],"screen_resolution":[1680,1050],"minimum_resolution":1,"trial":24,"drifts":[0.358,0.323,0.393,0.738],"drift_ix":2,"trial_type":"two-step-trial","trial_index":55,"time_elapsed":693488,"internal_node_id":"0.0-37.0-0.0","task_version":"1.0","jspsych_version":"6.3.1","browser_interactions":0,"missing":false},{"state_1_ids":[0,1],"state_1_key":0,"state_1_choice":0,"state_1_rt":2213.9000000059605,"transition":1,"state":0,"state_2_ids":[0,1],"state_2_key":0,"state_2_choice":0,"state_2_rt":1543.800000011921,"outcome":0,"rocket_colors":["#a75248","#486ea7"],"planet_colors":["#5b7c65","#706081"],"screen_resolution":[1680,1050],"minimum_resolution":1,"trial":25,"drifts":[0.342,0.299,0.368,0.724],"drift_ix":2,"trial_type":"two-step-trial","trial_index":56,"time_elapsed":699248,"internal_node_id":"0.0-38.0-0.0","task_version":"1.0","jspsych_version":"6.3.1","browser_interactions":0,"missing":false},{"state_1_ids":[0,1],"state_1_key":1,"state_1_choice":1,"state_1_rt":1373.7000000029802,"transition":0,"state":0,"state_2_ids":[0,1],"state_2_key":1,"state_2_choice":1,"state_2_rt":919.2999999970198,"outcome":0,"rocket_colors":["#a75248","#486ea7"],"planet_colors":["#5b7c65","#706081"],"screen_resolution":[1680,1050],"minimum_resolution":1,"trial":26,"drifts":[0.362,0.294,0.373,0.738],"drift_ix":2,"trial_type":"two-step-trial","trial_index":57,"time_elapsed":703544,"internal_node_id":"0.0-39.0-0.0","task_version":"1.0","jspsych_version":"6.3.1","browser_interactions":0,"missing":false},{"state_1_ids":[1,0],"state_1_key":1,"state_1_choice":0,"state_1_rt":1414.2000000029802,"transition":0,"state":1,"state_2_ids":[2,3],"state_2_key":1,"state_2_choice":3,"state_2_rt":711.0999999940395,"outcome":1,"rocket_colors":["#a75248","#486ea7"],"planet_colors":["#5b7c65","#706081"],"screen_resolution":[1680,1050],"minimum_resolution":1,"trial":27,"drifts":[0.332,0.286,0.389,0.683],"drift_ix":2,"trial_type":"two-step-trial","trial_index":58,"time_elapsed":707672,"internal_node_id":"0.0-40.0-0.0","task_version":"1.0","jspsych_version":"6.3.1","browser_interactions":0,"missing":false},{"state_1_ids":[1,0],"state_1_key":1,"state_1_choice":0,"state_1_rt":910.1000000089407,"transition":1,"state":0,"state_2_ids":[0,1],"state_2_key":1,"state_2_choice":1,"state_2_rt":1471.2999999970198,"outcome":0,"rocket_colors":["#a75248","#486ea7"],"planet_colors":["#5b7c65","#706081"],"screen_resolution":[1680,1050],"minimum_resolution":1,"trial":28,"drifts":[0.34,0.303,0.383,0.689],"drift_ix":2,"trial_type":"two-step-trial","trial_index":59,"time_elapsed":712056,"internal_node_id":"0.0-41.0-0.0","task_version":"1.0","jspsych_version":"6.3.1","browser_interactions":0,"missing":false},{"state_1_ids":[0,1],"state_1_key":0,"state_1_choice":0,"state_1_rt":1622.1000000089407,"transition":0,"state":1,"state_2_ids":[2,3],"state_2_key":1,"state_2_choice":3,"state_2_rt":622.7999999970198,"outcome":1,"rocket_colors":["#a75248","#486ea7"],"planet_colors":["#5b7c65","#706081"],"screen_resolution":[1680,1050],"minimum_resolution":1,"trial":29,"drifts":[0.317,0.302,0.385,0.679],"drift_ix":2,"trial_type":"two-step-trial","trial_index":60,"time_elapsed":716303,"internal_node_id":"0.0-42.0-0.0","task_version":"1.0","jspsych_version":"6.3.1","browser_interactions":0,"missing":false},{"state_1_ids":[1,0],"state_1_key":1,"state_1_choice":0,"state_1_rt":670.3999999910593,"transition":1,"state":0,"state_2_ids":[0,1],"state_2_key":1,"state_2_choice":1,"state_2_rt":1031.5,"outcome":0,"rocket_colors":["#a75248","#486ea7"],"planet_colors":["#5b7c65","#706081"],"screen_resolution":[1680,1050],"minimum_resolution":1,"trial":30,"drifts":[0.353,0.346,0.414,0.681],"drift_ix":2,"trial_type":"two-step-trial","trial_index":61,"time_elapsed":720008,"internal_node_id":"0.0-43.0-0.0","task_version":"1.0","jspsych_version":"6.3.1","browser_interactions":0,"missing":false},{"state_1_ids":[1,0],"state_1_key":1,"state_1_choice":0,"state_1_rt":421.79999999701977,"transition":0,"state":1,"state_2_ids":[2,3],"state_2_key":1,"state_2_choice":3,"state_2_rt":687,"outcome":1,"rocket_colors":["#a75248","#486ea7"],"planet_colors":["#5b7c65","#706081"],"screen_resolution":[1680,1050],"minimum_resolution":1,"trial":31,"drifts":[0.325,0.331,0.414,0.647],"drift_ix":2,"trial_type":"two-step-trial","trial_index":62,"time_elapsed":723120,"internal_node_id":"0.0-44.0-0.0","task_version":"1.0","jspsych_version":"6.3.1","browser_interactions":0,"missing":false},{"state_1_ids":[1,0],"state_1_key":1,"state_1_choice":0,"state_1_rt":749.7000000029802,"transition":1,"state":0,"state_2_ids":[0,1],"state_2_key":1,"state_2_choice":1,"state_2_rt":1110.8999999910593,"outcome":0,"rocket_colors":["#a75248","#486ea7"],"planet_colors":["#5b7c65","#706081"],"screen_resolution":[1680,1050],"minimum_resolution":1,"trial":32,"drifts":[0.328,0.33,0.383,0.663],"drift_ix":2,"trial_type":"two-step-trial","trial_index":63,"time_elapsed":726984,"internal_node_id":"0.0-45.0-0.0","task_version":"1.0","jspsych_version":"6.3.1","browser_interactions":0,"missing":false},{"state_1_ids":[0,1],"state_1_key":0,"state_1_choice":0,"state_1_rt":1821.7999999970198,"transition":0,"state":1,"state_2_ids":[2,3],"state_2_key":1,"state_2_choice":3,"state_2_rt":719.2000000029802,"outcome":1,"rocket_colors":["#a75248","#486ea7"],"planet_colors":["#5b7c65","#706081"],"screen_resolution":[1680,1050],"minimum_resolution":1,"trial":33,"drifts":[0.322,0.332,0.362,0.633],"drift_ix":2,"trial_type":"two-step-trial","trial_index":64,"time_elapsed":731529,"internal_node_id":"0.0-46.0-0.0","task_version":"1.0","jspsych_version":"6.3.1","browser_interactions":0,"missing":false},{"state_1_ids":[1,0],"state_1_key":0,"state_1_choice":1,"state_1_rt":1452.5,"transition":0,"state":0,"state_2_ids":[0,1],"state_2_key":0,"state_2_choice":0,"state_2_rt":2047.5,"outcome":0,"rocket_colors":["#a75248","#486ea7"],"planet_colors":["#5b7c65","#706081"],"screen_resolution":[1680,1050],"minimum_resolution":1,"trial":34,"drifts":[0.322,0.307,0.363,0.617],"drift_ix":2,"trial_type":"two-step-trial","trial_index":65,"time_elapsed":737032,"internal_node_id":"0.0-47.0-0.0","task_version":"1.0","jspsych_version":"6.3.1","browser_interactions":0,"missing":false},{"state_1_ids":[1,0],"state_1_key":0,"state_1_choice":1,"state_1_rt":662.0999999940395,"transition":0,"state":0,"state_2_ids":[0,1],"state_2_key":1,"state_2_choice":1,"state_2_rt":606.7999999970198,"outcome":0,"rocket_colors":["#a75248","#486ea7"],"planet_colors":["#5b7c65","#706081"],"screen_resolution":[1680,1050],"minimum_resolution":1,"trial":35,"drifts":[0.297,0.336,0.333,0.65],"drift_ix":2,"trial_type":"two-step-trial","trial_index":66,"time_elapsed":740304,"internal_node_id":"0.0-48.0-0.0","task_version":"1.0","jspsych_version":"6.3.1","browser_interactions":0,"missing":false},{"state_1_ids":[0,1],"state_1_key":0,"state_1_choice":0,"state_1_rt":1422.0999999940395,"transition":1,"state":0,"state_2_ids":[0,1],"state_2_key":1,"state_2_choice":1,"state_2_rt":1095,"outcome":1,"rocket_colors":["#a75248","#486ea7"],"planet_colors":["#5b7c65","#706081"],"screen_resolution":[1680,1050],"minimum_resolution":1,"trial":36,"drifts":[0.326,0.343,0.331,0.633],"drift_ix":2,"trial_type":"two-step-trial","trial_index":67,"time_elapsed":744823,"internal_node_id":"0.0-49.0-0.0","task_version":"1.0","jspsych_version":"6.3.1","browser_interactions":0,"missing":false},{"state_1_ids":[0,1],"state_1_key":0,"state_1_choice":0,"state_1_rt":598.3999999910593,"transition":1,"state":0,"state_2_ids":[0,1],"state_2_key":1,"state_2_choice":1,"state_2_rt":559,"outcome":0,"rocket_colors":["#a75248","#486ea7"],"planet_colors":["#5b7c65","#706081"],"screen_resolution":[1680,1050],"minimum_resolution":1,"trial":37,"drifts":[0.318,0.324,0.327,0.612],"drift_ix":2,"trial_type":"two-step-trial","trial_index":68,"time_elapsed":747983,"internal_node_id":"0.0-50.0-0.0","task_version":"1.0","jspsych_version":"6.3.1","browser_interactions":0,"missing":false},{"state_1_ids":[1,0],"state_1_key":0,"state_1_choice":1,"state_1_rt":406.30000001192093,"transition":1,"state":1,"state_2_ids":[2,3],"state_2_key":1,"state_2_choice":3,"state_2_rt":638.5999999940395,"outcome":0,"rocket_colors":["#a75248","#486ea7"],"planet_colors":["#5b7c65","#706081"],"screen_resolution":[1680,1050],"minimum_resolution":1,"trial":38,"drifts":[0.304,0.324,0.319,0.591],"drift_ix":2,"trial_type":"two-step-trial","trial_index":69,"time_elapsed":751032,"internal_node_id":"0.0-51.0-0.0","task_version":"1.0","jspsych_version":"6.3.1","browser_interactions":0,"missing":false},{"state_1_ids":[0,1],"state_1_key":1,"state_1_choice":1,"state_1_rt":1558,"transition":1,"state":1,"state_2_ids":[2,3],"state_2_key":0,"state_2_choice":2,"state_2_rt":790.5,"outcome":1,"rocket_colors":["#a75248","#486ea7"],"planet_colors":["#5b7c65","#706081"],"screen_resolution":[1680,1050],"minimum_resolution":1,"trial":39,"drifts":[0.283,0.362,0.351,0.561],"drift_ix":2,"trial_type":"two-step-trial","trial_index":70,"time_elapsed":755384,"internal_node_id":"0.0-52.0-0.0","task_version":"1.0","jspsych_version":"6.3.1","browser_interactions":0,"missing":false},{"state_1_ids":[0,1],"state_1_key":1,"state_1_choice":1,"state_1_rt":829.7000000029802,"transition":1,"state":1,"state_2_ids":[2,3],"state_2_key":0,"state_2_choice":2,"state_2_rt":798.7000000029802,"outcome":0,"rocket_colors":["#a75248","#486ea7"],"planet_colors":["#5b7c65","#706081"],"screen_resolution":[1680,1050],"minimum_resolution":1,"trial":40,"drifts":[0.295,0.387,0.331,0.546],"drift_ix":2,"trial_type":"two-step-trial","trial_index":71,"time_elapsed":759016,"internal_node_id":"0.0-53.0-0.0","task_version":"1.0","jspsych_version":"6.3.1","browser_interactions":0,"missing":false},{"state_1_ids":[1,0],"state_1_key":1,"state_1_choice":0,"state_1_rt":829.2999999970198,"transition":1,"state":0,"state_2_ids":[0,1],"state_2_key":1,"state_2_choice":1,"state_2_rt":974.7999999970198,"outcome":0,"rocket_colors":["#a75248","#486ea7"],"planet_colors":["#5b7c65","#706081"],"screen_resolution":[1680,1050],"minimum_resolution":1,"trial":41,"drifts":[0.293,0.385,0.33,0.584],"drift_ix":2,"trial_type":"two-step-trial","trial_index":72,"time_elapsed":762824,"internal_node_id":"0.0-54.0-0.0","task_version":"1.0","jspsych_version":"6.3.1","browser_interactions":0,"missing":false},{"state_1_ids":[1,0],"state_1_key":1,"state_1_choice":0,"state_1_rt":629.6999999880791,"transition":1,"state":0,"state_2_ids":[0,1],"state_2_key":1,"state_2_choice":1,"state_2_rt":1086.800000011921,"outcome":0,"rocket_colors":["#a75248","#486ea7"],"planet_colors":["#5b7c65","#706081"],"screen_resolution":[1680,1050],"minimum_resolution":1,"trial":42,"drifts":[0.304,0.383,0.318,0.562],"drift_ix":2,"trial_type":"two-step-trial","trial_index":73,"time_elapsed":766544,"internal_node_id":"0.0-55.0-0.0","task_version":"1.0","jspsych_version":"6.3.1","browser_interactions":0,"missing":false},{"state_1_ids":[0,1],"state_1_key":0,"state_1_choice":0,"state_1_rt":957.5,"transition":1,"state":0,"state_2_ids":[0,1],"state_2_key":0,"state_2_choice":0,"state_2_rt":1047.2000000029802,"outcome":1,"rocket_colors":["#a75248","#486ea7"],"planet_colors":["#5b7c65","#706081"],"screen_resolution":[1680,1050],"minimum_resolution":1,"trial":43,"drifts":[0.318,0.398,0.315,0.576],"drift_ix":2,"trial_type":"two-step-trial","trial_index":74,"time_elapsed":770552,"internal_node_id":"0.0-56.0-0.0","task_version":"1.0","jspsych_version":"6.3.1","browser_interactions":0,"missing":false},{"state_1_ids":[0,1],"state_1_key":0,"state_1_choice":0,"state_1_rt":677.9000000059605,"transition":1,"state":0,"state_2_ids":[0,1],"state_2_key":0,"state_2_choice":0,"state_2_rt":575.2000000029802,"outcome":0,"rocket_colors":["#a75248","#486ea7"],"planet_colors":["#5b7c65","#706081"],"screen_resolution":[1680,1050],"minimum_resolution":1,"trial":44,"drifts":[0.321,0.371,0.348,0.616],"drift_ix":2,"trial_type":"two-step-trial","trial_index":75,"time_elapsed":773808,"internal_node_id":"0.0-57.0-0.0","task_version":"1.0","jspsych_version":"6.3.1","browser_interactions":0,"missing":false},{"state_1_ids":[1,0],"state_1_key":1,"state_1_choice":0,"state_1_rt":557.7000000029802,"transition":1,"state":0,"state_2_ids":[0,1],"state_2_key":1,"state_2_choice":1,"state_2_rt":743.3999999910593,"outcome":0,"rocket_colors":["#a75248","#486ea7"],"planet_colors":["#5b7c65","#706081"],"screen_resolution":[1680,1050],"minimum_resolution":1,"trial":45,"drifts":[0.319,0.418,0.367,0.598],"drift_ix":2,"trial_type":"two-step-trial","trial_index":76,"time_elapsed":777112,"internal_node_id":"0.0-58.0-0.0","task_version":"1.0","jspsych_version":"6.3.1","browser_interactions":0,"missing":false},{"state_1_ids":[0,1],"state_1_key":0,"state_1_choice":0,"state_1_rt":437.5,"transition":0,"state":1,"state_2_ids":[2,3],"state_2_key":1,"state_2_choice":3,"state_2_rt":806.5999999940395,"outcome":0,"rocket_colors":["#a75248","#486ea7"],"planet_colors":["#5b7c65","#706081"],"screen_resolution":[1680,1050],"minimum_resolution":1,"trial":46,"drifts":[0.326,0.44,0.366,0.588],"drift_ix":2,"trial_type":"two-step-trial","trial_index":77,"time_elapsed":780360,"internal_node_id":"0.0-59.0-0.0","task_version":"1.0","jspsych_version":"6.3.1","browser_interactions":0,"missing":false},{"state_1_ids":[0,1],"state_1_key":0,"state_1_choice":0,"state_1_rt":445.70000000298023,"transition":1,"state":0,"state_2_ids":[0,1],"state_2_key":0,"state_2_choice":0,"state_2_rt":983.5,"outcome":1,"rocket_colors":["#a75248","#486ea7"],"planet_colors":["#5b7c65","#706081"],"screen_resolution":[1680,1050],"minimum_resolution":1,"trial":47,"drifts":[0.315,0.46,0.378,0.597],"drift_ix":2,"trial_type":"two-step-trial","trial_index":78,"time_elapsed":783791,"internal_node_id":"0.0-60.0-0.0","task_version":"1.0","jspsych_version":"6.3.1","browser_interactions":0,"missing":false},{"state_1_ids":[0,1],"state_1_key":0,"state_1_choice":0,"state_1_rt":814.5,"transition":1,"state":0,"state_2_ids":[0,1],"state_2_key":0,"state_2_choice":0,"state_2_rt":543.2000000029802,"outcome":0,"rocket_colors":["#a75248","#486ea7"],"planet_colors":["#5b7c65","#706081"],"screen_resolution":[1680,1050],"minimum_resolution":1,"trial":48,"drifts":[0.281,0.476,0.36,0.571],"drift_ix":2,"trial_type":"two-step-trial","trial_index":79,"time_elapsed":787152,"internal_node_id":"0.0-61.0-0.0","task_version":"1.0","jspsych_version":"6.3.1","browser_interactions":0,"missing":false},{"state_1_ids":[0,1],"state_1_key":1,"state_1_choice":1,"state_1_rt":1086.2999999970198,"transition":0,"state":0,"state_2_ids":[0,1],"state_2_key":1,"state_2_choice":1,"state_2_rt":974.7000000029802,"outcome":0,"rocket_colors":["#a75248","#486ea7"],"planet_colors":["#5b7c65","#706081"],"screen_resolution":[1680,1050],"minimum_resolution":1,"trial":49,"drifts":[0.254,0.439,0.383,0.579],"drift_ix":2,"trial_type":"two-step-trial","trial_index":80,"time_elapsed":791215,"internal_node_id":"0.0-62.0-0.0","task_version":"1.0","jspsych_version":"6.3.1","browser_interactions":0,"missing":false},{"state_1_ids":[1,0],"state_1_key":1,"state_1_choice":0,"state_1_rt":526.2999999970198,"transition":0,"state":1,"state_2_ids":[2,3],"state_2_key":1,"state_2_choice":3,"state_2_rt":822.7000000029802,"outcome":1,"rocket_colors":["#a75248","#486ea7"],"planet_colors":["#5b7c65","#706081"],"screen_resolution":[1680,1050],"minimum_resolution":1,"trial":50,"drifts":[0.303,0.471,0.392,0.592],"drift_ix":2,"trial_type":"two-step-trial","trial_index":81,"time_elapsed":794569,"internal_node_id":"0.0-63.0-0.0","task_version":"1.0","jspsych_version":"6.3.1","browser_interactions":0,"missing":false},{"state_1_ids":[0,1],"state_1_key":0,"state_1_choice":0,"state_1_rt":1661.199999988079,"transition":0,"state":1,"state_2_ids":[2,3],"state_2_key":1,"state_2_choice":3,"state_2_rt":615.0999999940395,"outcome":1,"rocket_colors":["#a75248","#486ea7"],"planet_colors":["#5b7c65","#706081"],"screen_resolution":[1680,1050],"minimum_resolution":1,"trial":51,"drifts":[0.274,0.41,0.377,0.587],"drift_ix":2,"trial_type":"two-step-trial","trial_index":82,"time_elapsed":798847,"internal_node_id":"0.0-64.0-0.0","task_version":"1.0","jspsych_version":"6.3.1","browser_interactions":0,"missing":false},{"state_1_ids":[1,0],"state_1_key":1,"state_1_choice":0,"state_1_rt":918.3999999910593,"transition":1,"state":0,"state_2_ids":[0,1],"state_2_key":0,"state_2_choice":0,"state_2_rt":1550.5999999940395,"outcome":1,"rocket_colors":["#a75248","#486ea7"],"planet_colors":["#5b7c65","#706081"],"screen_resolution":[1680,1050],"minimum_resolution":1,"trial":52,"drifts":[0.29,0.413,0.363,0.572],"drift_ix":2,"trial_type":"two-step-trial","trial_index":83,"time_elapsed":803320,"internal_node_id":"0.0-65.0-0.0","task_version":"1.0","jspsych_version":"6.3.1","browser_interactions":0,"missing":false},{"state_1_ids":[0,1],"state_1_key":0,"state_1_choice":0,"state_1_rt":925.8999999910593,"transition":0,"state":1,"state_2_ids":[2,3],"state_2_key":1,"state_2_choice":3,"state_2_rt":670.9000000059605,"outcome":1,"rocket_colors":["#a75248","#486ea7"],"planet_colors":["#5b7c65","#706081"],"screen_resolution":[1680,1050],"minimum_resolution":1,"trial":53,"drifts":[0.292,0.425,0.318,0.522],"drift_ix":2,"trial_type":"two-step-trial","trial_index":84,"time_elapsed":806920,"internal_node_id":"0.0-66.0-0.0","task_version":"1.0","jspsych_version":"6.3.1","browser_interactions":0,"missing":false},{"state_1_ids":[1,0],"state_1_key":1,"state_1_choice":0,"state_1_rt":815,"transition":1,"state":0,"state_2_ids":[0,1],"state_2_key":0,"state_2_choice":0,"state_2_rt":565.3999999910593,"outcome":0,"rocket_colors":["#a75248","#486ea7"],"planet_colors":["#5b7c65","#706081"],"screen_resolution":[1680,1050],"minimum_resolution":1,"trial":54,"drifts":[0.284,0.449,0.332,0.552],"drift_ix":2,"trial_type":"two-step-trial","trial_index":85,"time_elapsed":810304,"internal_node_id":"0.0-67.0-0.0","task_version":"1.0","jspsych_version":"6.3.1","browser_interactions":0,"missing":false},{"state_1_ids":[1,0],"state_1_key":0,"state_1_choice":1,"state_1_rt":709.5999999940395,"transition":1,"state":1,"state_2_ids":[2,3],"state_2_key":1,"state_2_choice":3,"state_2_rt":775.4000000059605,"outcome":1,"rocket_colors":["#a75248","#486ea7"],"planet_colors":["#5b7c65","#706081"],"screen_resolution":[1680,1050],"minimum_resolution":1,"trial":55,"drifts":[0.253,0.41,0.344,0.579],"drift_ix":2,"trial_type":"two-step-trial","trial_index":86,"time_elapsed":813792,"internal_node_id":"0.0-68.0-0.0","task_version":"1.0","jspsych_version":"6.3.1","browser_interactions":0,"missing":false},{"state_1_ids":[0,1],"state_1_key":1,"state_1_choice":1,"state_1_rt":821.7000000029802,"transition":1,"state":1,"state_2_ids":[2,3],"state_2_key":1,"state_2_choice":3,"state_2_rt":727.1000000089407,"outcome":0,"rocket_colors":["#a75248","#486ea7"],"planet_colors":["#5b7c65","#706081"],"screen_resolution":[1680,1050],"minimum_resolution":1,"trial":56,"drifts":[0.277,0.408,0.373,0.526],"drift_ix":2,"trial_type":"two-step-trial","trial_index":87,"time_elapsed":817344,"internal_node_id":"0.0-69.0-0.0","task_version":"1.0","jspsych_version":"6.3.1","browser_interactions":0,"missing":false},{"state_1_ids":[0,1],"state_1_key":1,"state_1_choice":1,"state_1_rt":958,"transition":0,"state":0,"state_2_ids":[0,1],"state_2_key":1,"state_2_choice":1,"state_2_rt":798.5,"outcome":0,"rocket_colors":["#a75248","#486ea7"],"planet_colors":["#5b7c65","#706081"],"screen_resolution":[1680,1050],"minimum_resolution":1,"trial":57,"drifts":[0.252,0.418,0.356,0.521],"drift_ix":2,"trial_type":"two-step-trial","trial_index":88,"time_elapsed":821104,"internal_node_id":"0.0-70.0-0.0","task_version":"1.0","jspsych_version":"6.3.1","browser_interactions":0,"missing":false},{"state_1_ids":[0,1],"state_1_key":0,"state_1_choice":0,"state_1_rt":629.8000000119209,"transition":0,"state":1,"state_2_ids":[2,3],"state_2_key":0,"state_2_choice":2,"state_2_rt":742.9000000059605,"outcome":0,"rocket_colors":["#a75248","#486ea7"],"planet_colors":["#5b7c65","#706081"],"screen_resolution":[1680,1050],"minimum_resolution":1,"trial":58,"drifts":[0.282,0.462,0.395,0.504],"drift_ix":2,"trial_type":"two-step-trial","trial_index":89,"time_elapsed":824480,"internal_node_id":"0.0-71.0-0.0","task_version":"1.0","jspsych_version":"6.3.1","browser_interactions":0,"missing":false},{"state_1_ids":[1,0],"state_1_key":1,"state_1_choice":0,"state_1_rt":533.8999999910593,"transition":1,"state":0,"state_2_ids":[0,1],"state_2_key":0,"state_2_choice":0,"state_2_rt":1463,"outcome":1,"rocket_colors":["#a75248","#486ea7"],"planet_colors":["#5b7c65","#706081"],"screen_resolution":[1680,1050],"minimum_resolution":1,"trial":59,"drifts":[0.297,0.475,0.39,0.498],"drift_ix":2,"trial_type":"two-step-trial","trial_index":90,"time_elapsed":828480,"internal_node_id":"0.0-72.0-0.0","task_version":"1.0","jspsych_version":"6.3.1","browser_interactions":0,"missing":false},{"state_1_ids":[1,0],"state_1_key":0,"state_1_choice":1,"state_1_rt":1422.199999988079,"transition":0,"state":0,"state_2_ids":[0,1],"state_2_key":1,"state_2_choice":1,"state_2_rt":1086.800000011921,"outcome":0,"rocket_colors":["#a75248","#486ea7"],"planet_colors":["#5b7c65","#706081"],"screen_resolution":[1680,1050],"minimum_resolution":1,"trial":60,"drifts":[0.295,0.463,0.364,0.52],"drift_ix":2,"trial_type":"two-step-trial","trial_index":91,"time_elapsed":832991,"internal_node_id":"0.0-73.0-0.0","task_version":"1.0","jspsych_version":"6.3.1","browser_interactions":0,"missing":false},{"state_1_ids":[1,0],"state_1_key":0,"state_1_choice":1,"state_1_rt":470.5,"transition":1,"state":1,"state_2_ids":[2,3],"state_2_key":1,"state_2_choice":3,"state_2_rt":687.3000000119209,"outcome":1,"rocket_colors":["#a75248","#486ea7"],"planet_colors":["#5b7c65","#706081"],"screen_resolution":[1680,1050],"minimum_resolution":1,"trial":61,"drifts":[0.295,0.433,0.355,0.543],"drift_ix":2,"trial_type":"two-step-trial","trial_index":92,"time_elapsed":836152,"internal_node_id":"0.0-74.0-0.0","task_version":"1.0","jspsych_version":"6.3.1","browser_interactions":0,"missing":false},{"state_1_ids":[0,1],"state_1_key":1,"state_1_choice":1,"state_1_rt":822.0999999940395,"transition":1,"state":1,"state_2_ids":[2,3],"state_2_key":1,"state_2_choice":3,"state_2_rt":487.1000000089407,"outcome":1,"rocket_colors":["#a75248","#486ea7"],"planet_colors":["#5b7c65","#706081"],"screen_resolution":[1680,1050],"minimum_resolution":1,"trial":62,"drifts":[0.307,0.43,0.353,0.543],"drift_ix":2,"trial_type":"two-step-trial","trial_index":93,"time_elapsed":839464,"internal_node_id":"0.0-75.0-0.0","task_version":"1.0","jspsych_version":"6.3.1","browser_interactions":0,"missing":false},{"state_1_ids":[0,1],"state_1_key":1,"state_1_choice":1,"state_1_rt":510.40000000596046,"transition":1,"state":1,"state_2_ids":[2,3],"state_2_key":1,"state_2_choice":3,"state_2_rt":615.4000000059605,"outcome":1,"rocket_colors":["#a75248","#486ea7"],"planet_colors":["#5b7c65","#706081"],"screen_resolution":[1680,1050],"minimum_resolution":1,"trial":63,"drifts":[0.353,0.426,0.367,0.529],"drift_ix":2,"trial_type":"two-step-trial","trial_index":94,"time_elapsed":842592,"internal_node_id":"0.0-76.0-0.0","task_version":"1.0","jspsych_version":"6.3.1","browser_interactions":0,"missing":false},{"state_1_ids":[0,1],"state_1_key":1,"state_1_choice":1,"state_1_rt":557.9000000059605,"transition":1,"state":1,"state_2_ids":[2,3],"state_2_key":1,"state_2_choice":3,"state_2_rt":567.4000000059605,"outcome":0,"rocket_colors":["#a75248","#486ea7"],"planet_colors":["#5b7c65","#706081"],"screen_resolution":[1680,1050],"minimum_resolution":1,"trial":64,"drifts":[0.37,0.432,0.33,0.47],"drift_ix":2,"trial_type":"two-step-trial","trial_index":95,"time_elapsed":845720,"internal_node_id":"0.0-77.0-0.0","task_version":"1.0","jspsych_version":"6.3.1","browser_interactions":0,"missing":false},{"state_1_ids":[1,0],"state_1_key":0,"state_1_choice":1,"state_1_rt":1173.800000011921,"transition":1,"state":1,"state_2_ids":[2,3],"state_2_key":0,"state_2_choice":2,"state_2_rt":775,"outcome":1,"rocket_colors":["#a75248","#486ea7"],"planet_colors":["#5b7c65","#706081"],"screen_resolution":[1680,1050],"minimum_resolution":1,"trial":65,"drifts":[0.377,0.393,0.348,0.501],"drift_ix":2,"trial_type":"two-step-trial","trial_index":96,"time_elapsed":849671,"internal_node_id":"0.0-78.0-0.0","task_version":"1.0","jspsych_version":"6.3.1","browser_interactions":0,"missing":false},{"state_1_ids":[0,1],"state_1_key":1,"state_1_choice":1,"state_1_rt":726.3999999910593,"transition":1,"state":1,"state_2_ids":[2,3],"state_2_key":0,"state_2_choice":2,"state_2_rt":678.6000000089407,"outcome":1,"rocket_colors":["#a75248","#486ea7"],"planet_colors":["#5b7c65","#706081"],"screen_resolution":[1680,1050],"minimum_resolution":1,"trial":66,"drifts":[0.345,0.371,0.258,0.459],"drift_ix":2,"trial_type":"two-step-trial","trial_index":97,"time_elapsed":853079,"internal_node_id":"0.0-79.0-0.0","task_version":"1.0","jspsych_version":"6.3.1","browser_interactions":0,"missing":false},{"state_1_ids":[0,1],"state_1_key":1,"state_1_choice":1,"state_1_rt":638.3000000119209,"transition":1,"state":1,"state_2_ids":[2,3],"state_2_key":0,"state_2_choice":2,"state_2_rt":567.2000000029802,"outcome":0,"rocket_colors":["#a75248","#486ea7"],"planet_colors":["#5b7c65","#706081"],"screen_resolution":[1680,1050],"minimum_resolution":1,"trial":67,"drifts":[0.332,0.355,0.256,0.426],"drift_ix":2,"trial_type":"two-step-trial","trial_index":98,"time_elapsed":856288,"internal_node_id":"0.0-80.0-0.0","task_version":"1.0","jspsych_version":"6.3.1","browser_interactions":0,"missing":false},{"state_1_ids":[0,1],"state_1_key":1,"state_1_choice":1,"state_1_rt":414,"transition":0,"state":0,"state_2_ids":[0,1],"state_2_key":1,"state_2_choice":1,"state_2_rt":807.5,"outcome":0,"rocket_colors":["#a75248","#486ea7"],"planet_colors":["#5b7c65","#706081"],"screen_resolution":[1680,1050],"minimum_resolution":1,"trial":68,"drifts":[0.331,0.398,0.311,0.426],"drift_ix":2,"trial_type":"two-step-trial","trial_index":99,"time_elapsed":859512,"internal_node_id":"0.0-81.0-0.0","task_version":"1.0","jspsych_version":"6.3.1","browser_interactions":0,"missing":false},{"state_1_ids":[0,1],"state_1_key":1,"state_1_choice":1,"state_1_rt":438.20000000298023,"transition":0,"state":0,"state_2_ids":[0,1],"state_2_key":0,"state_2_choice":0,"state_2_rt":439.59999999403954,"outcome":0,"rocket_colors":["#a75248","#486ea7"],"planet_colors":["#5b7c65","#706081"],"screen_resolution":[1680,1050],"minimum_resolution":1,"trial":69,"drifts":[0.325,0.426,0.326,0.384],"drift_ix":2,"trial_type":"two-step-trial","trial_index":100,"time_elapsed":862392,"internal_node_id":"0.0-82.0-0.0","task_version":"1.0","jspsych_version":"6.3.1","browser_interactions":0,"missing":false},{"state_1_ids":[0,1],"state_1_key":0,"state_1_choice":0,"state_1_rt":462,"transition":0,"state":1,"state_2_ids":[2,3],"state_2_key":1,"state_2_choice":3,"state_2_rt":966.7999999970198,"outcome":0,"rocket_colors":["#a75248","#486ea7"],"planet_colors":["#5b7c65","#706081"],"screen_resolution":[1680,1050],"minimum_resolution":1,"trial":70,"drifts":[0.293,0.475,0.305,0.375],"drift_ix":2,"trial_type":"two-step-trial","trial_index":101,"time_elapsed":865823,"internal_node_id":"0.0-83.0-0.0","task_version":"1.0","jspsych_version":"6.3.1","browser_interactions":0,"missing":false},{"state_1_ids":[0,1],"state_1_key":0,"state_1_choice":0,"state_1_rt":790.7000000029802,"transition":0,"state":1,"state_2_ids":[2,3],"state_2_key":0,"state_2_choice":2,"state_2_rt":743.1000000089407,"outcome":0,"rocket_colors":["#a75248","#486ea7"],"planet_colors":["#5b7c65","#706081"],"screen_resolution":[1680,1050],"minimum_resolution":1,"trial":71,"drifts":[0.268,0.51,0.303,0.365],"drift_ix":2,"trial_type":"two-step-trial","trial_index":102,"time_elapsed":869360,"internal_node_id":"0.0-84.0-0.0","task_version":"1.0","jspsych_version":"6.3.1","browser_interactions":0,"missing":false},{"state_1_ids":[1,0],"state_1_key":0,"state_1_choice":1,"state_1_rt":886,"transition":1,"state":1,"state_2_ids":[2,3],"state_2_key":1,"state_2_choice":3,"state_2_rt":663.5999999940395,"outcome":0,"rocket_colors":["#a75248","#486ea7"],"planet_colors":["#5b7c65","#706081"],"screen_resolution":[1680,1050],"minimum_resolution":1,"trial":72,"drifts":[0.294,0.507,0.326,0.359],"drift_ix":2,"trial_type":"two-step-trial","trial_index":103,"time_elapsed":872911,"internal_node_id":"0.0-85.0-0.0","task_version":"1.0","jspsych_version":"6.3.1","browser_interactions":0,"missing":false},{"state_1_ids":[0,1],"state_1_key":0,"state_1_choice":0,"state_1_rt":542.0999999940395,"transition":0,"state":1,"state_2_ids":[2,3],"state_2_key":1,"state_2_choice":3,"state_2_rt":1199.2999999970198,"outcome":0,"rocket_colors":["#a75248","#486ea7"],"planet_colors":["#5b7c65","#706081"],"screen_resolution":[1680,1050],"minimum_resolution":1,"trial":73,"drifts":[0.296,0.541,0.313,0.367],"drift_ix":2,"trial_type":"two-step-trial","trial_index":104,"time_elapsed":876655,"internal_node_id":"0.0-86.0-0.0","task_version":"1.0","jspsych_version":"6.3.1","browser_interactions":0,"missing":false},{"state_1_ids":[0,1],"state_1_key":0,"state_1_choice":0,"state_1_rt":518.0999999940395,"transition":0,"state":1,"state_2_ids":[2,3],"state_2_key":0,"state_2_choice":2,"state_2_rt":662.7999999970198,"outcome":1,"rocket_colors":["#a75248","#486ea7"],"planet_colors":["#5b7c65","#706081"],"screen_resolution":[1680,1050],"minimum_resolution":1,"trial":74,"drifts":[0.282,0.491,0.339,0.374],"drift_ix":2,"trial_type":"two-step-trial","trial_index":105,"time_elapsed":879840,"internal_node_id":"0.0-87.0-0.0","task_version":"1.0","jspsych_version":"6.3.1","browser_interactions":0,"missing":false},{"state_1_ids":[1,0],"state_1_key":1,"state_1_choice":0,"state_1_rt":830.0999999940395,"transition":0,"state":1,"state_2_ids":[2,3],"state_2_key":0,"state_2_choice":2,"state_2_rt":439.29999999701977,"outcome":0,"rocket_colors":["#a75248","#486ea7"],"planet_colors":["#5b7c65","#706081"],"screen_resolution":[1680,1050],"minimum_resolution":1,"trial":75,"drifts":[0.336,0.513,0.333,0.367],"drift_ix":2,"trial_type":"two-step-trial","trial_index":106,"time_elapsed":883112,"internal_node_id":"0.0-88.0-0.0","task_version":"1.0","jspsych_version":"6.3.1","browser_interactions":0,"missing":false},{"state_1_ids":[1,0],"state_1_key":0,"state_1_choice":1,"state_1_rt":485.80000001192093,"transition":0,"state":0,"state_2_ids":[0,1],"state_2_key":1,"state_2_choice":1,"state_2_rt":854.9000000059605,"outcome":0,"rocket_colors":["#a75248","#486ea7"],"planet_colors":["#5b7c65","#706081"],"screen_resolution":[1680,1050],"minimum_resolution":1,"trial":76,"drifts":[0.344,0.538,0.274,0.339],"drift_ix":2,"trial_type":"two-step-trial","trial_index":107,"time_elapsed":886459,"internal_node_id":"0.0-89.0-0.0","task_version":"1.0","jspsych_version":"6.3.1","browser_interactions":0,"missing":false},{"state_1_ids":[0,1],"state_1_key":0,"state_1_choice":0,"state_1_rt":482.40000000596046,"transition":0,"state":1,"state_2_ids":[2,3],"state_2_key":0,"state_2_choice":2,"state_2_rt":518.7000000029802,"outcome":1,"rocket_colors":["#a75248","#486ea7"],"planet_colors":["#5b7c65","#706081"],"screen_resolution":[1680,1050],"minimum_resolution":1,"trial":77,"drifts":[0.322,0.54,0.262,0.343],"drift_ix":2,"trial_type":"two-step-trial","trial_index":108,"time_elapsed":889464,"internal_node_id":"0.0-90.0-0.0","task_version":"1.0","jspsych_version":"6.3.1","browser_interactions":0,"missing":false},{"state_1_ids":[1,0],"state_1_key":1,"state_1_choice":0,"state_1_rt":902,"transition":0,"state":1,"state_2_ids":[2,3],"state_2_key":0,"state_2_choice":2,"state_2_rt":415.29999999701977,"outcome":0,"rocket_colors":["#a75248","#486ea7"],"planet_colors":["#5b7c65","#706081"],"screen_resolution":[1680,1050],"minimum_resolution":1,"trial":78,"drifts":[0.351,0.561,0.265,0.342],"drift_ix":2,"trial_type":"two-step-trial","trial_index":109,"time_elapsed":892784,"internal_node_id":"0.0-91.0-0.0","task_version":"1.0","jspsych_version":"6.3.1","browser_interactions":0,"missing":false},{"state_1_ids":[0,1],"state_1_key":1,"state_1_choice":1,"state_1_rt":806.0999999940395,"transition":0,"state":0,"state_2_ids":[0,1],"state_2_key":1,"state_2_choice":1,"state_2_rt":694.9000000059605,"outcome":0,"rocket_colors":["#a75248","#486ea7"],"planet_colors":["#5b7c65","#706081"],"screen_resolution":[1680,1050],"minimum_resolution":1,"trial":79,"drifts":[0.335,0.543,0.286,0.35],"drift_ix":2,"trial_type":"two-step-trial","trial_index":110,"time_elapsed":896287,"internal_node_id":"0.0-92.0-0.0","task_version":"1.0","jspsych_version":"6.3.1","browser_interactions":0,"missing":false},{"state_1_ids":[0,1],"state_1_key":1,"state_1_choice":1,"state_1_rt":446.1000000089407,"transition":0,"state":0,"state_2_ids":[0,1],"state_2_key":0,"state_2_choice":0,"state_2_rt":454.6000000089407,"outcome":0,"rocket_colors":["#a75248","#486ea7"],"planet_colors":["#5b7c65","#706081"],"screen_resolution":[1680,1050],"minimum_resolution":1,"trial":80,"drifts":[0.328,0.536,0.289,0.405],"drift_ix":2,"trial_type":"two-step-trial","trial_index":111,"time_elapsed":899192,"internal_node_id":"0.0-93.0-0.0","task_version":"1.0","jspsych_version":"6.3.1","browser_interactions":0,"missing":false},{"state_1_ids":[0,1],"state_1_key":0,"state_1_choice":0,"state_1_rt":558.0999999940395,"transition":0,"state":1,"state_2_ids":[2,3],"state_2_key":1,"state_2_choice":3,"state_2_rt":702.7000000029802,"outcome":0,"rocket_colors":["#a75248","#486ea7"],"planet_colors":["#5b7c65","#706081"],"screen_resolution":[1680,1050],"minimum_resolution":1,"trial":81,"drifts":[0.286,0.534,0.265,0.391],"drift_ix":2,"trial_type":"two-step-trial","trial_index":112,"time_elapsed":902455,"internal_node_id":"0.0-94.0-0.0","task_version":"1.0","jspsych_version":"6.3.1","browser_interactions":0,"missing":false},{"state_1_ids":[0,1],"state_1_key":0,"state_1_choice":0,"state_1_rt":502.1000000089407,"transition":0,"state":1,"state_2_ids":[2,3],"state_2_key":0,"state_2_choice":2,"state_2_rt":407.20000000298023,"outcome":0,"rocket_colors":["#a75248","#486ea7"],"planet_colors":["#5b7c65","#706081"],"screen_resolution":[1680,1050],"minimum_resolution":1,"trial":82,"drifts":[0.307,0.553,0.256,0.373],"drift_ix":2,"trial_type":"two-step-trial","trial_index":113,"time_elapsed":905369,"internal_node_id":"0.0-95.0-0.0","task_version":"1.0","jspsych_version":"6.3.1","browser_interactions":0,"missing":false},{"state_1_ids":[1,0],"state_1_key":0,"state_1_choice":1,"state_1_rt":381.20000000298023,"transition":1,"state":1,"state_2_ids":[2,3],"state_2_key":1,"state_2_choice":3,"state_2_rt":622.4000000059605,"outcome":0,"rocket_colors":["#a75248","#486ea7"],"planet_colors":["#5b7c65","#706081"],"screen_resolution":[1680,1050],"minimum_resolution":1,"trial":83,"drifts":[0.306,0.564,0.273,0.38],"drift_ix":2,"trial_type":"two-step-trial","trial_index":114,"time_elapsed":908377,"internal_node_id":"0.0-96.0-0.0","task_version":"1.0","jspsych_version":"6.3.1","browser_interactions":0,"missing":false},{"state_1_ids":[1,0],"state_1_key":0,"state_1_choice":1,"state_1_rt":348.80000001192093,"transition":1,"state":1,"state_2_ids":[2,3],"state_2_key":1,"state_2_choice":3,"state_2_rt":479,"outcome":1,"rocket_colors":["#a75248","#486ea7"],"planet_colors":["#5b7c65","#706081"],"screen_resolution":[1680,1050],"minimum_resolution":1,"trial":84,"drifts":[0.263,0.564,0.275,0.397],"drift_ix":2,"trial_type":"two-step-trial","trial_index":115,"time_elapsed":911208,"internal_node_id":"0.0-97.0-0.0","task_version":"1.0","jspsych_version":"6.3.1","browser_interactions":0,"missing":false},{"state_1_ids":[1,0],"state_1_key":0,"state_1_choice":1,"state_1_rt":453.70000000298023,"transition":1,"state":1,"state_2_ids":[2,3],"state_2_key":1,"state_2_choice":3,"state_2_rt":479.29999999701977,"outcome":0,"rocket_colors":["#a75248","#486ea7"],"planet_colors":["#5b7c65","#706081"],"screen_resolution":[1680,1050],"minimum_resolution":1,"trial":85,"drifts":[0.295,0.592,0.3,0.406],"drift_ix":2,"trial_type":"two-step-trial","trial_index":116,"time_elapsed":914144,"internal_node_id":"0.0-98.0-0.0","task_version":"1.0","jspsych_version":"6.3.1","browser_interactions":0,"missing":false},{"state_1_ids":[0,1],"state_1_key":1,"state_1_choice":1,"state_1_rt":774.2999999970198,"transition":1,"state":1,"state_2_ids":[2,3],"state_2_key":0,"state_2_choice":2,"state_2_rt":535.3000000119209,"outcome":0,"rocket_colors":["#a75248","#486ea7"],"planet_colors":["#5b7c65","#706081"],"screen_resolution":[1680,1050],"minimum_resolution":1,"trial":86,"drifts":[0.266,0.571,0.324,0.417],"drift_ix":2,"trial_type":"two-step-trial","trial_index":117,"time_elapsed":917457,"internal_node_id":"0.0-99.0-0.0","task_version":"1.0","jspsych_version":"6.3.1","browser_interactions":0,"missing":false},{"state_1_ids":[0,1],"state_1_key":1,"state_1_choice":1,"state_1_rt":428.5,"transition":0,"state":0,"state_2_ids":[0,1],"state_2_key":1,"state_2_choice":1,"state_2_rt":695.0999999940395,"outcome":1,"rocket_colors":["#a75248","#486ea7"],"planet_colors":["#5b7c65","#706081"],"screen_resolution":[1680,1050],"minimum_resolution":1,"trial":87,"drifts":[0.25,0.532,0.345,0.39],"drift_ix":2,"trial_type":"two-step-trial","trial_index":118,"time_elapsed":920584,"internal_node_id":"0.0-100.0-0.0","task_version":"1.0","jspsych_version":"6.3.1","browser_interactions":0,"missing":false},{"state_1_ids":[1,0],"state_1_key":1,"state_1_choice":0,"state_1_rt":598.0999999940395,"transition":1,"state":0,"state_2_ids":[0,1],"state_2_key":1,"state_2_choice":1,"state_2_rt":407.29999999701977,"outcome":0,"rocket_colors":["#a75248","#486ea7"],"planet_colors":["#5b7c65","#706081"],"screen_resolution":[1680,1050],"minimum_resolution":1,"trial":88,"drifts":[0.258,0.529,0.341,0.378],"drift_ix":2,"trial_type":"two-step-trial","trial_index":119,"time_elapsed":923592,"internal_node_id":"0.0-101.0-0.0","task_version":"1.0","jspsych_version":"6.3.1","browser_interactions":0,"missing":false},{"state_1_ids":[1,0],"state_1_key":0,"state_1_choice":1,"state_1_rt":662,"transition":1,"state":1,"state_2_ids":[2,3],"state_2_key":1,"state_2_choice":3,"state_2_rt":519.0999999940395,"outcome":0,"rocket_colors":["#a75248","#486ea7"],"planet_colors":["#5b7c65","#706081"],"screen_resolution":[1680,1050],"minimum_resolution":1,"trial":89,"drifts":[0.266,0.533,0.306,0.41],"drift_ix":2,"trial_type":"two-step-trial","trial_index":120,"time_elapsed":926776,"internal_node_id":"0.0-102.0-0.0","task_version":"1.0","jspsych_version":"6.3.1","browser_interactions":0,"missing":false},{"state_1_ids":[0,1],"state_1_key":0,"state_1_choice":0,"state_1_rt":614,"transition":1,"state":0,"state_2_ids":[0,1],"state_2_key":0,"state_2_choice":0,"state_2_rt":647,"outcome":0,"rocket_colors":["#a75248","#486ea7"],"planet_colors":["#5b7c65","#706081"],"screen_resolution":[1680,1050],"minimum_resolution":1,"trial":90,"drifts":[0.254,0.554,0.297,0.382],"drift_ix":2,"trial_type":"two-step-trial","trial_index":121,"time_elapsed":930051,"internal_node_id":"0.0-103.0-0.0","task_version":"1.0","jspsych_version":"6.3.1","browser_interactions":0,"missing":false},{"state_1_ids":[1,0],"state_1_key":1,"state_1_choice":0,"state_1_rt":874.8999999910593,"transition":1,"state":0,"state_2_ids":[0,1],"state_2_key":1,"state_2_choice":1,"state_2_rt":590.9000000059605,"outcome":1,"rocket_colors":["#a75248","#486ea7"],"planet_colors":["#5b7c65","#706081"],"screen_resolution":[1680,1050],"minimum_resolution":1,"trial":91,"drifts":[0.265,0.543,0.313,0.38],"drift_ix":2,"trial_type":"two-step-trial","trial_index":122,"time_elapsed":933520,"internal_node_id":"0.0-104.0-0.0","task_version":"1.0","jspsych_version":"6.3.1","browser_interactions":0,"missing":false},{"state_1_ids":[1,0],"state_1_key":1,"state_1_choice":0,"state_1_rt":509.5,"transition":1,"state":0,"state_2_ids":[0,1],"state_2_key":1,"state_2_choice":1,"state_2_rt":470.79999999701977,"outcome":1,"rocket_colors":["#a75248","#486ea7"],"planet_colors":["#5b7c65","#706081"],"screen_resolution":[1680,1050],"minimum_resolution":1,"trial":92,"drifts":[0.259,0.54,0.279,0.363],"drift_ix":2,"trial_type":"two-step-trial","trial_index":123,"time_elapsed":936504,"internal_node_id":"0.0-105.0-0.0","task_version":"1.0","jspsych_version":"6.3.1","browser_interactions":0,"missing":false},{"state_1_ids":[1,0],"state_1_key":1,"state_1_choice":0,"state_1_rt":525.9000000059605,"transition":0,"state":1,"state_2_ids":[2,3],"state_2_key":1,"state_2_choice":3,"state_2_rt":1926.7000000029802,"outcome":0,"rocket_colors":["#a75248","#486ea7"],"planet_colors":["#5b7c65","#706081"],"screen_resolution":[1680,1050],"minimum_resolution":1,"trial":93,"drifts":[0.251,0.565,0.296,0.35],"drift_ix":2,"trial_type":"two-step-trial","trial_index":124,"time_elapsed":940960,"internal_node_id":"0.0-106.0-0.0","task_version":"1.0","jspsych_version":"6.3.1","browser_interactions":0,"missing":false},{"state_1_ids":[1,0],"state_1_key":1,"state_1_choice":0,"state_1_rt":493.79999999701977,"transition":0,"state":1,"state_2_ids":[2,3],"state_2_key":0,"state_2_choice":2,"state_2_rt":422.90000000596046,"outcome":1,"rocket_colors":["#a75248","#486ea7"],"planet_colors":["#5b7c65","#706081"],"screen_resolution":[1680,1050],"minimum_resolution":1,"trial":94,"drifts":[0.276,0.543,0.275,0.322],"drift_ix":2,"trial_type":"two-step-trial","trial_index":125,"time_elapsed":943880,"internal_node_id":"0.0-107.0-0.0","task_version":"1.0","jspsych_version":"6.3.1","browser_interactions":0,"missing":false},{"state_1_ids":[0,1],"state_1_key":0,"state_1_choice":0,"state_1_rt":845.8000000119209,"transition":1,"state":0,"state_2_ids":[0,1],"state_2_key":1,"state_2_choice":1,"state_2_rt":1215.5,"outcome":0,"rocket_colors":["#a75248","#486ea7"],"planet_colors":["#5b7c65","#706081"],"screen_resolution":[1680,1050],"minimum_resolution":1,"trial":95,"drifts":[0.317,0.539,0.285,0.291],"drift_ix":2,"trial_type":"two-step-trial","trial_index":126,"time_elapsed":947943,"internal_node_id":"0.0-108.0-0.0","task_version":"1.0","jspsych_version":"6.3.1","browser_interactions":0,"missing":false},{"state_1_ids":[1,0],"state_1_key":0,"state_1_choice":1,"state_1_rt":686.5,"transition":0,"state":0,"state_2_ids":[0,1],"state_2_key":1,"state_2_choice":1,"state_2_rt":734.8000000119209,"outcome":1,"rocket_colors":["#a75248","#486ea7"],"planet_colors":["#5b7c65","#706081"],"screen_resolution":[1680,1050],"minimum_resolution":1,"trial":96,"drifts":[0.325,0.583,0.251,0.276],"drift_ix":2,"trial_type":"two-step-trial","trial_index":127,"time_elapsed":951368,"internal_node_id":"0.0-109.0-0.0","task_version":"1.0","jspsych_version":"6.3.1","browser_interactions":0,"missing":false},{"state_1_ids":[0,1],"state_1_key":1,"state_1_choice":1,"state_1_rt":781.7000000029802,"transition":1,"state":1,"state_2_ids":[2,3],"state_2_key":1,"state_2_choice":3,"state_2_rt":622.9000000059605,"outcome":1,"rocket_colors":["#a75248","#486ea7"],"planet_colors":["#5b7c65","#706081"],"screen_resolution":[1680,1050],"minimum_resolution":1,"trial":97,"drifts":[0.352,0.597,0.278,0.336],"drift_ix":2,"trial_type":"two-step-trial","trial_index":128,"time_elapsed":954776,"internal_node_id":"0.0-110.0-0.0","task_version":"1.0","jspsych_version":"6.3.1","browser_interactions":0,"missing":false},{"state_1_ids":[1,0],"state_1_key":0,"state_1_choice":1,"state_1_rt":821.9000000059605,"transition":0,"state":0,"state_2_ids":[0,1],"state_2_key":1,"state_2_choice":1,"state_2_rt":455.20000000298023,"outcome":0,"rocket_colors":["#a75248","#486ea7"],"planet_colors":["#5b7c65","#706081"],"screen_resolution":[1680,1050],"minimum_resolution":1,"trial":98,"drifts":[0.369,0.601,0.316,0.324],"drift_ix":2,"trial_type":"two-step-trial","trial_index":129,"time_elapsed":958055,"internal_node_id":"0.0-111.0-0.0","task_version":"1.0","jspsych_version":"6.3.1","browser_interactions":0,"missing":false},{"state_1_ids":[0,1],"state_1_key":0,"state_1_choice":0,"state_1_rt":398.40000000596046,"transition":0,"state":1,"state_2_ids":[2,3],"state_2_key":0,"state_2_choice":2,"state_2_rt":807.1000000089407,"outcome":1,"rocket_colors":["#a75248","#486ea7"],"planet_colors":["#5b7c65","#706081"],"screen_resolution":[1680,1050],"minimum_resolution":1,"trial":99,"drifts":[0.338,0.574,0.29,0.307],"drift_ix":2,"trial_type":"two-step-trial","trial_index":130,"time_elapsed":961264,"internal_node_id":"0.0-112.0-0.0","task_version":"1.0","jspsych_version":"6.3.1","browser_interactions":0,"missing":false},{"state_1_ids":[1,0],"state_1_key":1,"state_1_choice":0,"state_1_rt":726.0999999940395,"transition":1,"state":0,"state_2_ids":[0,1],"state_2_key":0,"state_2_choice":0,"state_2_rt":823.5,"outcome":0,"rocket_colors":["#a75248","#486ea7"],"planet_colors":["#5b7c65","#706081"],"screen_resolution":[1680,1050],"minimum_resolution":1,"trial":100,"drifts":[0.348,0.567,0.294,0.264],"drift_ix":2,"trial_type":"two-step-trial","trial_index":131,"time_elapsed":964816,"internal_node_id":"0.0-113.0-0.0","task_version":"1.0","jspsych_version":"6.3.1","browser_interactions":0,"missing":false},{"view_history":"[{\"page_index\":0,\"viewing_time\":16566.29999999702},{\"page_index\":1,\"viewing_time\":6011.5}]","rt":22578.20000000298,"trial_type":"two-step-instructions","trial_index":132,"time_elapsed":987395,"internal_node_id":"0.0-114.0","task_version":"1.0","jspsych_version":"6.3.1"},{"state_1_ids":[0,1],"state_1_key":1,"state_1_choice":1,"state_1_rt":3017.5999999940395,"transition":0,"state":0,"state_2_ids":[0,1],"state_2_key":1,"state_2_choice":1,"state_2_rt":759.3999999910593,"outcome":1,"rocket_colors":["#a75248","#486ea7"],"planet_colors":["#5b7c65","#706081"],"screen_resolution":[1680,1050],"minimum_resolution":1,"trial":101,"drifts":[0.332,0.536,0.335,0.261],"drift_ix":2,"trial_type":"two-step-trial","trial_index":133,"time_elapsed":993176,"internal_node_id":"0.0-115.0-0.0","task_version":"1.0","jspsych_version":"6.3.1","browser_interactions":0,"missing":false},{"state_1_ids":[1,0],"state_1_key":0,"state_1_choice":1,"state_1_rt":1269.7000000029802,"transition":0,"state":0,"state_2_ids":[0,1],"state_2_key":1,"state_2_choice":1,"state_2_rt":503.20000000298023,"outcome":0,"rocket_colors":["#a75248","#486ea7"],"planet_colors":["#5b7c65","#706081"],"screen_resolution":[1680,1050],"minimum_resolution":1,"trial":102,"drifts":[0.331,0.521,0.359,0.268],"drift_ix":2,"trial_type":"two-step-trial","trial_index":134,"time_elapsed":996952,"internal_node_id":"0.0-116.0-0.0","task_version":"1.0","jspsych_version":"6.3.1","browser_interactions":0,"missing":false},{"state_1_ids":[0,1],"state_1_key":1,"state_1_choice":1,"state_1_rt":1005.6999999880791,"transition":1,"state":1,"state_2_ids":[2,3],"state_2_key":1,"state_2_choice":3,"state_2_rt":935.3999999910593,"outcome":0,"rocket_colors":["#a75248","#486ea7"],"planet_colors":["#5b7c65","#706081"],"screen_resolution":[1680,1050],"minimum_resolution":1,"trial":103,"drifts":[0.317,0.518,0.371,0.309],"drift_ix":2,"trial_type":"two-step-trial","trial_index":135,"time_elapsed":1000896,"internal_node_id":"0.0-117.0-0.0","task_version":"1.0","jspsych_version":"6.3.1","browser_interactions":0,"missing":false},{"state_1_ids":[1,0],"state_1_key":1,"state_1_choice":0,"state_1_rt":909.8999999910593,"transition":1,"state":0,"state_2_ids":[0,1],"state_2_key":0,"state_2_choice":0,"state_2_rt":1206.7999999970198,"outcome":0,"rocket_colors":["#a75248","#486ea7"],"planet_colors":["#5b7c65","#706081"],"screen_resolution":[1680,1050],"minimum_resolution":1,"trial":104,"drifts":[0.334,0.493,0.341,0.296],"drift_ix":2,"trial_type":"two-step-trial","trial_index":136,"time_elapsed":1005016,"internal_node_id":"0.0-118.0-0.0","task_version":"1.0","jspsych_version":"6.3.1","browser_interactions":0,"missing":false},{"state_1_ids":[1,0],"state_1_key":0,"state_1_choice":1,"state_1_rt":581.5,"transition":1,"state":1,"state_2_ids":[2,3],"state_2_key":1,"state_2_choice":3,"state_2_rt":623.0999999940395,"outcome":1,"rocket_colors":["#a75248","#486ea7"],"planet_colors":["#5b7c65","#706081"],"screen_resolution":[1680,1050],"minimum_resolution":1,"trial":105,"drifts":[0.349,0.494,0.34,0.27],"drift_ix":2,"trial_type":"two-step-trial","trial_index":137,"time_elapsed":1008224,"internal_node_id":"0.0-119.0-0.0","task_version":"1.0","jspsych_version":"6.3.1","browser_interactions":0,"missing":false},{"state_1_ids":[0,1],"state_1_key":1,"state_1_choice":1,"state_1_rt":646,"transition":1,"state":1,"state_2_ids":[2,3],"state_2_key":1,"state_2_choice":3,"state_2_rt":471,"outcome":0,"rocket_colors":["#a75248","#486ea7"],"planet_colors":["#5b7c65","#706081"],"screen_resolution":[1680,1050],"minimum_resolution":1,"trial":106,"drifts":[0.302,0.497,0.307,0.282],"drift_ix":2,"trial_type":"two-step-trial","trial_index":138,"time_elapsed":1011345,"internal_node_id":"0.0-120.0-0.0","task_version":"1.0","jspsych_version":"6.3.1","browser_interactions":0,"missing":false},{"state_1_ids":[1,0],"state_1_key":0,"state_1_choice":1,"state_1_rt":1333,"transition":0,"state":0,"state_2_ids":[0,1],"state_2_key":0,"state_2_choice":0,"state_2_rt":975,"outcome":1,"rocket_colors":["#a75248","#486ea7"],"planet_colors":["#5b7c65","#706081"],"screen_resolution":[1680,1050],"minimum_resolution":1,"trial":107,"drifts":[0.336,0.523,0.294,0.315],"drift_ix":2,"trial_type":"two-step-trial","trial_index":139,"time_elapsed":1015656,"internal_node_id":"0.0-121.0-0.0","task_version":"1.0","jspsych_version":"6.3.1","browser_interactions":0,"missing":false},{"state_1_ids":[0,1],"state_1_key":1,"state_1_choice":1,"state_1_rt":869.7999999970198,"transition":1,"state":1,"state_2_ids":[2,3],"state_2_key":1,"state_2_choice":3,"state_2_rt":1015.5999999940395,"outcome":0,"rocket_colors":["#a75248","#486ea7"],"planet_colors":["#5b7c65","#706081"],"screen_resolution":[1680,1050],"minimum_resolution":1,"trial":108,"drifts":[0.381,0.482,0.317,0.324],"drift_ix":2,"trial_type":"two-step-trial","trial_index":140,"time_elapsed":1019544,"internal_node_id":"0.0-122.0-0.0","task_version":"1.0","jspsych_version":"6.3.1","browser_interactions":0,"missing":false},{"state_1_ids":[1,0],"state_1_key":0,"state_1_choice":1,"state_1_rt":525.8999999910593,"transition":0,"state":0,"state_2_ids":[0,1],"state_2_key":0,"state_2_choice":0,"state_2_rt":742.8999999910593,"outcome":0,"rocket_colors":["#a75248","#486ea7"],"planet_colors":["#5b7c65","#706081"],"screen_resolution":[1680,1050],"minimum_resolution":1,"trial":109,"drifts":[0.342,0.505,0.32,0.33],"drift_ix":2,"trial_type":"two-step-trial","trial_index":141,"time_elapsed":1022816,"internal_node_id":"0.0-123.0-0.0","task_version":"1.0","jspsych_version":"6.3.1","browser_interactions":0,"missing":false},{"state_1_ids":[0,1],"state_1_key":0,"state_1_choice":0,"state_1_rt":1182.2000000029802,"transition":0,"state":1,"state_2_ids":[2,3],"state_2_key":1,"state_2_choice":3,"state_2_rt":1286.5,"outcome":1,"rocket_colors":["#a75248","#486ea7"],"planet_colors":["#5b7c65","#706081"],"screen_resolution":[1680,1050],"minimum_resolution":1,"trial":110,"drifts":[0.337,0.526,0.318,0.349],"drift_ix":2,"trial_type":"two-step-trial","trial_index":142,"time_elapsed":1027289,"internal_node_id":"0.0-124.0-0.0","task_version":"1.0","jspsych_version":"6.3.1","browser_interactions":0,"missing":false},{"state_1_ids":[0,1],"state_1_key":0,"state_1_choice":0,"state_1_rt":541.7999999970198,"transition":0,"state":1,"state_2_ids":[2,3],"state_2_key":1,"state_2_choice":3,"state_2_rt":694.8000000119209,"outcome":0,"rocket_colors":["#a75248","#486ea7"],"planet_colors":["#5b7c65","#706081"],"screen_resolution":[1680,1050],"minimum_resolution":1,"trial":111,"drifts":[0.374,0.551,0.269,0.35],"drift_ix":2,"trial_type":"two-step-trial","trial_index":143,"time_elapsed":1030529,"internal_node_id":"0.0-125.0-0.0","task_version":"1.0","jspsych_version":"6.3.1","browser_interactions":0,"missing":false},{"state_1_ids":[0,1],"state_1_key":0,"state_1_choice":0,"state_1_rt":477.5,"transition":0,"state":1,"state_2_ids":[2,3],"state_2_key":0,"state_2_choice":2,"state_2_rt":847.5999999940395,"outcome":0,"rocket_colors":["#a75248","#486ea7"],"planet_colors":["#5b7c65","#706081"],"screen_resolution":[1680,1050],"minimum_resolution":1,"trial":112,"drifts":[0.355,0.517,0.255,0.331],"drift_ix":2,"trial_type":"two-step-trial","trial_index":144,"time_elapsed":1033856,"internal_node_id":"0.0-126.0-0.0","task_version":"1.0","jspsych_version":"6.3.1","browser_interactions":0,"missing":false},{"state_1_ids":[0,1],"state_1_key":1,"state_1_choice":1,"state_1_rt":374.5,"transition":1,"state":1,"state_2_ids":[2,3],"state_2_key":0,"state_2_choice":2,"state_2_rt":1086.699999988079,"outcome":1,"rocket_colors":["#a75248","#486ea7"],"planet_colors":["#5b7c65","#706081"],"screen_resolution":[1680,1050],"minimum_resolution":1,"trial":113,"drifts":[0.331,0.507,0.283,0.271],"drift_ix":2,"trial_type":"two-step-trial","trial_index":145,"time_elapsed":1037320,"internal_node_id":"0.0-127.0-0.0","task_version":"1.0","jspsych_version":"6.3.1","browser_interactions":0,"missing":false},{"state_1_ids":[1,0],"state_1_key":1,"state_1_choice":0,"state_1_rt":2030.5,"transition":1,"state":0,"state_2_ids":[0,1],"state_2_key":1,"state_2_choice":1,"state_2_rt":846.5999999940395,"outcome":0,"rocket_colors":["#a75248","#486ea7"],"planet_colors":["#5b7c65","#706081"],"screen_resolution":[1680,1050],"minimum_resolution":1,"trial":114,"drifts":[0.326,0.467,0.284,0.267],"drift_ix":2,"trial_type":"two-step-trial","trial_index":146,"time_elapsed":1042200,"internal_node_id":"0.0-128.0-0.0","task_version":"1.0","jspsych_version":"6.3.1","browser_interactions":0,"missing":false},{"state_1_ids":[1,0],"state_1_key":0,"state_1_choice":1,"state_1_rt":462.19999998807907,"transition":1,"state":1,"state_2_ids":[2,3],"state_2_key":0,"state_2_choice":2,"state_2_rt":751.0999999940395,"outcome":1,"rocket_colors":["#a75248","#486ea7"],"planet_colors":["#5b7c65","#706081"],"screen_resolution":[1680,1050],"minimum_resolution":1,"trial":115,"drifts":[0.313,0.494,0.291,0.251],"drift_ix":2,"trial_type":"two-step-trial","trial_index":147,"time_elapsed":1045416,"internal_node_id":"0.0-129.0-0.0","task_version":"1.0","jspsych_version":"6.3.1","browser_interactions":0,"missing":false},{"state_1_ids":[0,1],"state_1_key":1,"state_1_choice":1,"state_1_rt":838.1000000089407,"transition":1,"state":1,"state_2_ids":[2,3],"state_2_key":0,"state_2_choice":2,"state_2_rt":510.59999999403954,"outcome":1,"rocket_colors":["#a75248","#486ea7"],"planet_colors":["#5b7c65","#706081"],"screen_resolution":[1680,1050],"minimum_resolution":1,"trial":116,"drifts":[0.319,0.494,0.296,0.273],"drift_ix":2,"trial_type":"two-step-trial","trial_index":148,"time_elapsed":1048769,"internal_node_id":"0.0-130.0-0.0","task_version":"1.0","jspsych_version":"6.3.1","browser_interactions":0,"missing":false},{"state_1_ids":[1,0],"state_1_key":0,"state_1_choice":1,"state_1_rt":765.5,"transition":0,"state":0,"state_2_ids":[0,1],"state_2_key":0,"state_2_choice":0,"state_2_rt":1430.7999999970198,"outcome":0,"rocket_colors":["#a75248","#486ea7"],"planet_colors":["#5b7c65","#706081"],"screen_resolution":[1680,1050],"minimum_resolution":1,"trial":117,"drifts":[0.297,0.492,0.312,0.277],"drift_ix":2,"trial_type":"two-step-trial","trial_index":149,"time_elapsed":1052968,"internal_node_id":"0.0-131.0-0.0","task_version":"1.0","jspsych_version":"6.3.1","browser_interactions":0,"missing":false},{"state_1_ids":[1,0],"state_1_key":0,"state_1_choice":1,"state_1_rt":549.9000000059605,"transition":0,"state":0,"state_2_ids":[0,1],"state_2_key":1,"state_2_choice":1,"state_2_rt":1302.7999999970198,"outcome":1,"rocket_colors":["#a75248","#486ea7"],"planet_colors":["#5b7c65","#706081"],"screen_resolution":[1680,1050],"minimum_resolution":1,"trial":118,"drifts":[0.288,0.513,0.36,0.275],"drift_ix":2,"trial_type":"two-step-trial","trial_index":150,"time_elapsed":1056825,"internal_node_id":"0.0-132.0-0.0","task_version":"1.0","jspsych_version":"6.3.1","browser_interactions":0,"missing":false},{"state_1_ids":[1,0],"state_1_key":0,"state_1_choice":1,"state_1_rt":693,"transition":1,"state":1,"state_2_ids":[2,3],"state_2_key":1,"state_2_choice":3,"state_2_rt":607.5,"outcome":0,"rocket_colors":["#a75248","#486ea7"],"planet_colors":["#5b7c65","#706081"],"screen_resolution":[1680,1050],"minimum_resolution":1,"trial":119,"drifts":[0.304,0.552,0.392,0.266],"drift_ix":2,"trial_type":"two-step-trial","trial_index":151,"time_elapsed":1060128,"internal_node_id":"0.0-133.0-0.0","task_version":"1.0","jspsych_version":"6.3.1","browser_interactions":0,"missing":false},{"state_1_ids":[1,0],"state_1_key":0,"state_1_choice":1,"state_1_rt":438.09999999403954,"transition":1,"state":1,"state_2_ids":[2,3],"state_2_key":0,"state_2_choice":2,"state_2_rt":655.7999999970198,"outcome":1,"rocket_colors":["#a75248","#486ea7"],"planet_colors":["#5b7c65","#706081"],"screen_resolution":[1680,1050],"minimum_resolution":1,"trial":120,"drifts":[0.295,0.538,0.367,0.253],"drift_ix":2,"trial_type":"two-step-trial","trial_index":152,"time_elapsed":1063224,"internal_node_id":"0.0-134.0-0.0","task_version":"1.0","jspsych_version":"6.3.1","browser_interactions":0,"missing":false},{"state_1_ids":[0,1],"state_1_key":1,"state_1_choice":1,"state_1_rt":774.1999999880791,"transition":1,"state":1,"state_2_ids":[2,3],"state_2_key":0,"state_2_choice":2,"state_2_rt":1183,"outcome":0,"rocket_colors":["#a75248","#486ea7"],"planet_colors":["#5b7c65","#706081"],"screen_resolution":[1680,1050],"minimum_resolution":1,"trial":121,"drifts":[0.268,0.49,0.389,0.267],"drift_ix":2,"trial_type":"two-step-trial","trial_index":153,"time_elapsed":1067184,"internal_node_id":"0.0-135.0-0.0","task_version":"1.0","jspsych_version":"6.3.1","browser_interactions":0,"missing":false},{"state_1_ids":[1,0],"state_1_key":1,"state_1_choice":0,"state_1_rt":942.0999999940395,"transition":1,"state":0,"state_2_ids":[0,1],"state_2_key":1,"state_2_choice":1,"state_2_rt":711.1999999880791,"outcome":1,"rocket_colors":["#a75248","#486ea7"],"planet_colors":["#5b7c65","#706081"],"screen_resolution":[1680,1050],"minimum_resolution":1,"trial":122,"drifts":[0.292,0.548,0.366,0.262],"drift_ix":2,"trial_type":"two-step-trial","trial_index":154,"time_elapsed":1070840,"internal_node_id":"0.0-136.0-0.0","task_version":"1.0","jspsych_version":"6.3.1","browser_interactions":0,"missing":false},{"state_1_ids":[1,0],"state_1_key":1,"state_1_choice":0,"state_1_rt":502,"transition":1,"state":0,"state_2_ids":[0,1],"state_2_key":1,"state_2_choice":1,"state_2_rt":454.69999998807907,"outcome":0,"rocket_colors":["#a75248","#486ea7"],"planet_colors":["#5b7c65","#706081"],"screen_resolution":[1680,1050],"minimum_resolution":1,"trial":123,"drifts":[0.287,0.579,0.38,0.276],"drift_ix":2,"trial_type":"two-step-trial","trial_index":155,"time_elapsed":1073800,"internal_node_id":"0.0-137.0-0.0","task_version":"1.0","jspsych_version":"6.3.1","browser_interactions":0,"missing":false},{"state_1_ids":[0,1],"state_1_key":0,"state_1_choice":0,"state_1_rt":1710.6000000089407,"transition":1,"state":0,"state_2_ids":[0,1],"state_2_key":0,"state_2_choice":0,"state_2_rt":623,"outcome":1,"rocket_colors":["#a75248","#486ea7"],"planet_colors":["#5b7c65","#706081"],"screen_resolution":[1680,1050],"minimum_resolution":1,"trial":124,"drifts":[0.296,0.64,0.405,0.262],"drift_ix":2,"trial_type":"two-step-trial","trial_index":156,"time_elapsed":1078136,"internal_node_id":"0.0-138.0-0.0","task_version":"1.0","jspsych_version":"6.3.1","browser_interactions":0,"missing":false},{"state_1_ids":[0,1],"state_1_key":0,"state_1_choice":0,"state_1_rt":806,"transition":0,"state":1,"state_2_ids":[2,3],"state_2_key":0,"state_2_choice":2,"state_2_rt":415.1000000089407,"outcome":0,"rocket_colors":["#a75248","#486ea7"],"planet_colors":["#5b7c65","#706081"],"screen_resolution":[1680,1050],"minimum_resolution":1,"trial":125,"drifts":[0.25,0.637,0.448,0.25],"drift_ix":2,"trial_type":"two-step-trial","trial_index":157,"time_elapsed":1081361,"internal_node_id":"0.0-139.0-0.0","task_version":"1.0","jspsych_version":"6.3.1","browser_interactions":0,"missing":false},{"state_1_ids":[0,1],"state_1_key":1,"state_1_choice":1,"state_1_rt":653.5,"transition":1,"state":1,"state_2_ids":[2,3],"state_2_key":1,"state_2_choice":3,"state_2_rt":543.0999999940395,"outcome":0,"rocket_colors":["#a75248","#486ea7"],"planet_colors":["#5b7c65","#706081"],"screen_resolution":[1680,1050],"minimum_resolution":1,"trial":126,"drifts":[0.255,0.666,0.447,0.257],"drift_ix":2,"trial_type":"two-step-trial","trial_index":158,"time_elapsed":1084560,"internal_node_id":"0.0-140.0-0.0","task_version":"1.0","jspsych_version":"6.3.1","browser_interactions":0,"missing":false},{"state_1_ids":[1,0],"state_1_key":0,"state_1_choice":1,"state_1_rt":462.5,"transition":1,"state":1,"state_2_ids":[2,3],"state_2_key":0,"state_2_choice":2,"state_2_rt":615.4000000059605,"outcome":0,"rocket_colors":["#a75248","#486ea7"],"planet_colors":["#5b7c65","#706081"],"screen_resolution":[1680,1050],"minimum_resolution":1,"trial":127,"drifts":[0.281,0.695,0.433,0.272],"drift_ix":2,"trial_type":"two-step-trial","trial_index":159,"time_elapsed":1087641,"internal_node_id":"0.0-141.0-0.0","task_version":"1.0","jspsych_version":"6.3.1","browser_interactions":0,"missing":false},{"state_1_ids":[1,0],"state_1_key":1,"state_1_choice":0,"state_1_rt":453.19999998807907,"transition":1,"state":0,"state_2_ids":[0,1],"state_2_key":1,"state_2_choice":1,"state_2_rt":494.3999999910593,"outcome":1,"rocket_colors":["#a75248","#486ea7"],"planet_colors":["#5b7c65","#706081"],"screen_resolution":[1680,1050],"minimum_resolution":1,"trial":128,"drifts":[0.277,0.667,0.42,0.278],"drift_ix":2,"trial_type":"two-step-trial","trial_index":160,"time_elapsed":1090592,"internal_node_id":"0.0-142.0-0.0","task_version":"1.0","jspsych_version":"6.3.1","browser_interactions":0,"missing":false},{"state_1_ids":[1,0],"state_1_key":1,"state_1_choice":0,"state_1_rt":430.1000000089407,"transition":1,"state":0,"state_2_ids":[0,1],"state_2_key":1,"state_2_choice":1,"state_2_rt":439.5,"outcome":0,"rocket_colors":["#a75248","#486ea7"],"planet_colors":["#5b7c65","#706081"],"screen_resolution":[1680,1050],"minimum_resolution":1,"trial":129,"drifts":[0.318,0.661,0.46,0.294],"drift_ix":2,"trial_type":"two-step-trial","trial_index":161,"time_elapsed":1093463,"internal_node_id":"0.0-143.0-0.0","task_version":"1.0","jspsych_version":"6.3.1","browser_interactions":0,"missing":false},{"state_1_ids":[0,1],"state_1_key":1,"state_1_choice":1,"state_1_rt":918.2999999970198,"transition":1,"state":1,"state_2_ids":[2,3],"state_2_key":0,"state_2_choice":2,"state_2_rt":1887.5,"outcome":0,"rocket_colors":["#a75248","#486ea7"],"planet_colors":["#5b7c65","#706081"],"screen_resolution":[1680,1050],"minimum_resolution":1,"trial":130,"drifts":[0.306,0.677,0.461,0.259],"drift_ix":2,"trial_type":"two-step-trial","trial_index":162,"time_elapsed":1098272,"internal_node_id":"0.0-144.0-0.0","task_version":"1.0","jspsych_version":"6.3.1","browser_interactions":0,"missing":false},{"state_1_ids":[1,0],"state_1_key":0,"state_1_choice":1,"state_1_rt":733.7999999970198,"transition":1,"state":1,"state_2_ids":[2,3],"state_2_key":1,"state_2_choice":3,"state_2_rt":694.7999999970198,"outcome":1,"rocket_colors":["#a75248","#486ea7"],"planet_colors":["#5b7c65","#706081"],"screen_resolution":[1680,1050],"minimum_resolution":1,"trial":131,"drifts":[0.35,0.655,0.474,0.278],"drift_ix":2,"trial_type":"two-step-trial","trial_index":163,"time_elapsed":1101704,"internal_node_id":"0.0-145.0-0.0","task_version":"1.0","jspsych_version":"6.3.1","browser_interactions":0,"missing":false},{"state_1_ids":[1,0],"state_1_key":0,"state_1_choice":1,"state_1_rt":486.09999999403954,"transition":1,"state":1,"state_2_ids":[2,3],"state_2_key":1,"state_2_choice":3,"state_2_rt":615.4000000059605,"outcome":1,"rocket_colors":["#a75248","#486ea7"],"planet_colors":["#5b7c65","#706081"],"screen_resolution":[1680,1050],"minimum_resolution":1,"trial":132,"drifts":[0.352,0.663,0.445,0.297],"drift_ix":2,"trial_type":"two-step-trial","trial_index":164,"time_elapsed":1104807,"internal_node_id":"0.0-146.0-0.0","task_version":"1.0","jspsych_version":"6.3.1","browser_interactions":0,"missing":false},{"state_1_ids":[0,1],"state_1_key":1,"state_1_choice":1,"state_1_rt":686.1999999880791,"transition":1,"state":1,"state_2_ids":[2,3],"state_2_key":1,"state_2_choice":3,"state_2_rt":726.5999999940395,"outcome":0,"rocket_colors":["#a75248","#486ea7"],"planet_colors":["#5b7c65","#706081"],"screen_resolution":[1680,1050],"minimum_resolution":1,"trial":133,"drifts":[0.374,0.662,0.412,0.314],"drift_ix":2,"trial_type":"two-step-trial","trial_index":165,"time_elapsed":1108224,"internal_node_id":"0.0-147.0-0.0","task_version":"1.0","jspsych_version":"6.3.1","browser_interactions":0,"missing":false},{"state_1_ids":[0,1],"state_1_key":1,"state_1_choice":1,"state_1_rt":429.8999999910593,"transition":1,"state":1,"state_2_ids":[2,3],"state_2_key":0,"state_2_choice":2,"state_2_rt":479.1000000089407,"outcome":0,"rocket_colors":["#a75248","#486ea7"],"planet_colors":["#5b7c65","#706081"],"screen_resolution":[1680,1050],"minimum_resolution":1,"trial":134,"drifts":[0.405,0.666,0.424,0.315],"drift_ix":2,"trial_type":"two-step-trial","trial_index":166,"time_elapsed":1111136,"internal_node_id":"0.0-148.0-0.0","task_version":"1.0","jspsych_version":"6.3.1","browser_interactions":0,"missing":false},{"state_1_ids":[1,0],"state_1_key":0,"state_1_choice":1,"state_1_rt":550.1000000089407,"transition":1,"state":1,"state_2_ids":[2,3],"state_2_key":1,"state_2_choice":3,"state_2_rt":846.7999999970198,"outcome":0,"rocket_colors":["#a75248","#486ea7"],"planet_colors":["#5b7c65","#706081"],"screen_resolution":[1680,1050],"minimum_resolution":1,"trial":135,"drifts":[0.43,0.696,0.452,0.345],"drift_ix":2,"trial_type":"two-step-trial","trial_index":167,"time_elapsed":1114535,"internal_node_id":"0.0-149.0-0.0","task_version":"1.0","jspsych_version":"6.3.1","browser_interactions":0,"missing":false},{"state_1_ids":[1,0],"state_1_key":1,"state_1_choice":0,"state_1_rt":438.59999999403954,"transition":1,"state":0,"state_2_ids":[0,1],"state_2_key":1,"state_2_choice":1,"state_2_rt":791.0999999940395,"outcome":1,"rocket_colors":["#a75248","#486ea7"],"planet_colors":["#5b7c65","#706081"],"screen_resolution":[1680,1050],"minimum_resolution":1,"trial":136,"drifts":[0.426,0.681,0.444,0.337],"drift_ix":2,"trial_type":"two-step-trial","trial_index":168,"time_elapsed":1117767,"internal_node_id":"0.0-150.0-0.0","task_version":"1.0","jspsych_version":"6.3.1","browser_interactions":0,"missing":false},{"state_1_ids":[1,0],"state_1_key":1,"state_1_choice":0,"state_1_rt":526.1999999880791,"transition":1,"state":0,"state_2_ids":[0,1],"state_2_key":1,"state_2_choice":1,"state_2_rt":551.1999999880791,"outcome":1,"rocket_colors":["#a75248","#486ea7"],"planet_colors":["#5b7c65","#706081"],"screen_resolution":[1680,1050],"minimum_resolution":1,"trial":137,"drifts":[0.411,0.674,0.45,0.299],"drift_ix":2,"trial_type":"two-step-trial","trial_index":169,"time_elapsed":1120847,"internal_node_id":"0.0-151.0-0.0","task_version":"1.0","jspsych_version":"6.3.1","browser_interactions":0,"missing":false},{"state_1_ids":[1,0],"state_1_key":0,"state_1_choice":1,"state_1_rt":478.09999999403954,"transition":1,"state":1,"state_2_ids":[2,3],"state_2_key":1,"state_2_choice":3,"state_2_rt":903.2000000029802,"outcome":0,"rocket_colors":["#a75248","#486ea7"],"planet_colors":["#5b7c65","#706081"],"screen_resolution":[1680,1050],"minimum_resolution":1,"trial":138,"drifts":[0.414,0.699,0.459,0.339],"drift_ix":2,"trial_type":"two-step-trial","trial_index":170,"time_elapsed":1124233,"internal_node_id":"0.0-152.0-0.0","task_version":"1.0","jspsych_version":"6.3.1","browser_interactions":0,"missing":false},{"state_1_ids":[0,1],"state_1_key":0,"state_1_choice":0,"state_1_rt":789.0999999940395,"transition":1,"state":0,"state_2_ids":[0,1],"state_2_key":1,"state_2_choice":1,"state_2_rt":479.09999999403954,"outcome":1,"rocket_colors":["#a75248","#486ea7"],"planet_colors":["#5b7c65","#706081"],"screen_resolution":[1680,1050],"minimum_resolution":1,"trial":139,"drifts":[0.394,0.734,0.462,0.307],"drift_ix":2,"trial_type":"two-step-trial","trial_index":171,"time_elapsed":1127504,"internal_node_id":"0.0-153.0-0.0","task_version":"1.0","jspsych_version":"6.3.1","browser_interactions":0,"missing":false},{"state_1_ids":[1,0],"state_1_key":1,"state_1_choice":0,"state_1_rt":725.9000000059605,"transition":1,"state":0,"state_2_ids":[0,1],"state_2_key":1,"state_2_choice":1,"state_2_rt":494.09999999403954,"outcome":0,"rocket_colors":["#a75248","#486ea7"],"planet_colors":["#5b7c65","#706081"],"screen_resolution":[1680,1050],"minimum_resolution":1,"trial":140,"drifts":[0.361,0.693,0.467,0.292],"drift_ix":2,"trial_type":"two-step-trial","trial_index":172,"time_elapsed":1130728,"internal_node_id":"0.0-154.0-0.0","task_version":"1.0","jspsych_version":"6.3.1","browser_interactions":0,"missing":false},{"state_1_ids":[1,0],"state_1_key":1,"state_1_choice":0,"state_1_rt":501.8999999910593,"transition":1,"state":0,"state_2_ids":[0,1],"state_2_key":0,"state_2_choice":0,"state_2_rt":671.1000000089407,"outcome":1,"rocket_colors":["#a75248","#486ea7"],"planet_colors":["#5b7c65","#706081"],"screen_resolution":[1680,1050],"minimum_resolution":1,"trial":141,"drifts":[0.354,0.722,0.46,0.26],"drift_ix":2,"trial_type":"two-step-trial","trial_index":173,"time_elapsed":1133904,"internal_node_id":"0.0-155.0-0.0","task_version":"1.0","jspsych_version":"6.3.1","browser_interactions":0,"missing":false},{"state_1_ids":[1,0],"state_1_key":1,"state_1_choice":0,"state_1_rt":406.09999999403954,"transition":1,"state":0,"state_2_ids":[0,1],"state_2_key":0,"state_2_choice":0,"state_2_rt":471.09999999403954,"outcome":1,"rocket_colors":["#a75248","#486ea7"],"planet_colors":["#5b7c65","#706081"],"screen_resolution":[1680,1050],"minimum_resolution":1,"trial":142,"drifts":[0.353,0.749,0.428,0.301],"drift_ix":2,"trial_type":"two-step-trial","trial_index":174,"time_elapsed":1136784,"internal_node_id":"0.0-156.0-0.0","task_version":"1.0","jspsych_version":"6.3.1","browser_interactions":0,"missing":false},{"state_1_ids":[1,0],"state_1_key":1,"state_1_choice":0,"state_1_rt":381.8999999910593,"transition":1,"state":0,"state_2_ids":[0,1],"state_2_key":0,"state_2_choice":0,"state_2_rt":478.59999999403954,"outcome":0,"rocket_colors":["#a75248","#486ea7"],"planet_colors":["#5b7c65","#706081"],"screen_resolution":[1680,1050],"minimum_resolution":1,"trial":143,"drifts":[0.361,0.73,0.409,0.316],"drift_ix":2,"trial_type":"two-step-trial","trial_index":175,"time_elapsed":1139648,"internal_node_id":"0.0-157.0-0.0","task_version":"1.0","jspsych_version":"6.3.1","browser_interactions":0,"missing":false},{"state_1_ids":[1,0],"state_1_key":1,"state_1_choice":0,"state_1_rt":381.5,"transition":0,"state":1,"state_2_ids":[2,3],"state_2_key":1,"state_2_choice":3,"state_2_rt":630.7999999970198,"outcome":1,"rocket_colors":["#a75248","#486ea7"],"planet_colors":["#5b7c65","#706081"],"screen_resolution":[1680,1050],"minimum_resolution":1,"trial":144,"drifts":[0.295,0.721,0.424,0.316],"drift_ix":2,"trial_type":"two-step-trial","trial_index":176,"time_elapsed":1142663,"internal_node_id":"0.0-158.0-0.0","task_version":"1.0","jspsych_version":"6.3.1","browser_interactions":0,"missing":false},{"state_1_ids":[0,1],"state_1_key":0,"state_1_choice":0,"state_1_rt":1086.2999999970198,"transition":1,"state":0,"state_2_ids":[0,1],"state_2_key":0,"state_2_choice":0,"state_2_rt":919.2000000029802,"outcome":1,"rocket_colors":["#a75248","#486ea7"],"planet_colors":["#5b7c65","#706081"],"screen_resolution":[1680,1050],"minimum_resolution":1,"trial":145,"drifts":[0.287,0.742,0.437,0.287],"drift_ix":2,"trial_type":"two-step-trial","