[{"success":true,"timeout":false,"failed_images":[],"failed_audio":[],"failed_video":[],"trial_type":"preload","trial_index":0,"time_elapsed":306,"internal_node_id":"0.0-0.0","task_version":"1.0","jspsych_version":"6.3.1"},{"success":true,"trial_type":"fullscreen","trial_index":1,"time_elapsed":3718,"internal_node_id":"0.0-1.0","task_version":"1.0","jspsych_version":"6.3.1"},{"view_history":[{"page_index":0,"viewing_time":5869}],"rt":5869.9000000003725,"trial_type":"instructions","trial_index":2,"time_elapsed":9593,"internal_node_id":"0.0-2.0","task_version":"1.0","jspsych_version":"6.3.1"},{"responses":{"Q06":"1","Q07":"1","Q02":"1","Q05":"1","Q08":"3","Q01":"0","Q04":"1","Q03":"1"},"rt":87239.5,"item_order":[5,6,1,4,7,0,3,2],"radio_events":[9120.599999999627,20534,25544.5,31445.5,41183.699999999255,53245,75352.09999999963,83317.69999999925],"key_events":[],"mouse_events":[0.19999999925494194,9120.599999999627,19734,20534,25544.5,30559.099999999627,31445.5,41183.699999999255,53245,75352.09999999963,83317.69999999925,87237.40000000037],"straightlining":0.75,"zigzagging":0.2857142857142857,"honeypot":0,"survey":"mania","trial_type":"survey-template","trial_index":3,"time_elapsed":96840,"internal_node_id":"0.0-3.0","task_version":"1.0","jspsych_version":"6.3.1"},{"responses":{"Q01":"5","Q02":"3","Q05":"2","Q07":"3","Q04":"4","Q06":"5","Q03":"5"},"rt":33406.5,"item_order":[0,1,4,6,3,5,2],"radio_events":[3300.199999999255,9875.199999999255,11225.599999999627,13542.599999999627,18499.199999999255,20424.099999999627,29297,31732.5],"key_events":[],"mouse_events":[3300.199999999255,7296.299999998882,9875.199999999255,11225.599999999627,13542.599999999627,18499.199999999255,20424.099999999627,25262.699999999255,29297,31732.5,33403.59999999963],"straightlining":0.2857142857142857,"zigzagging":0.5,"honeypot":0,"survey":"artistic","trial_type":"survey-template","trial_index":4,"time_elapsed":130251,"internal_node_id":"0.0-4.0","task_version":"1.0","jspsych_version":"6.3.1"},{"responses":{"Q06":"1","Q04":"1","Q03":"0","Q01":"0","Q02":"0","Q08":"0","Q05":"0","Q07":"0"},"rt":34002.699999999255,"item_order":[5,3,2,0,1,7,4,6],"radio_events":[7180.5999999996275,9247.099999999627,10658.599999999627,12371.5,14259.099999999627,18347.199999999255,19964.199999999255,21652.099999999627,30959.5],"key_events":[],"mouse_events":[7180.5999999996275,9247.099999999627,10658.599999999627,12371.5,14259.099999999627,16909.199999999255,17645.199999999255,18347.199999999255,19060.900000000373,19964.199999999255,21652.099999999627,30959.5,34001.199999999255],"straightlining":0.75,"zigzagging":0.14285714285714285,"honeypot":0,"survey":"anxiety","trial_type":"survey-template","trial_index":5,"time_elapsed":164259,"internal_node_id":"0.0-5.0","task_version":"1.0","jspsych_version":"6.3.1"},{"responses":{"Q02":"3","Q04":"4","Q03":"4","Q07":"6","Q01":"4","Q06":"3","Q05":"3"},"rt":19208.200000001118,"item_order":[1,3,2,6,0,5,4],"radio_events":[3918.5999999996275,6071.300000000745,7010.5999999996275,8801.599999999627,10259.800000000745,12645.900000000373,17278.099999999627,18318.300000000745],"key_events":[],"mouse_events":[3918.5999999996275,6071.300000000745,7010.5999999996275,8801.599999999627,10259.800000000745,12645.900000000373,17278.099999999627,18318.300000000745,19206],"straightlining":0.42857142857142855,"zigzagging":0.3333333333333333,"honeypot":0,"survey":"greed","trial_type":"survey-template","trial_index":6,"time_elapsed":183472,"internal_node_id":"0.0-6.0","task_version":"1.0","jspsych_version":"6.3.1"},{"responses":{"Q07":"0","Q06":"0","Q04":"0","Q05":"0","Q08":"0","Q02":"0","Q03":"0","Q01":"0"},"rt":39844.300000000745,"item_order":[6,5,3,4,7,1,2,0],"radio_events":[4272,10813,17230.800000000745,20209,24325.700000001118,28058.700000001118,35129.40000000037,38400.90000000037],"key_events":[],"mouse_events":[4272,10308.5,10813,17230.800000000745,20209,24325.700000001118,28058.700000001118,35129.40000000037,38400.90000000037,39843.300000000745],"straightlining":1,"zigzagging":0,"honeypot":0,"survey":"depression","trial_type":"survey-template","trial_index":7,"time_elapsed":223320,"internal_node_id":"0.0-7.0","task_version":"1.0","jspsych_version":"6.3.1"},{"view_history":"[{\"page_index\":0,\"viewing_time\":14931.099999999627},{\"page_index\":1,\"viewing_time\":2653.699999999255},{\"page_index\":2,\"viewing_time\":2309.60000000149},{\"page_index\":3,\"viewing_time\":15201.799999998882},{\"page_index\":4,\"viewing_time\":6208.5},{\"page_index\":5,\"viewing_time\":1797.0999999996275},{\"page_index\":6,\"viewing_time\":1294.9000000003725},{\"page_index\":7,\"viewing_time\":2204.2000000011176},{\"page_index\":8,\"viewing_time\":5008.5999999996275},{\"page_index\":9,\"viewing_time\":10179.099999999627},{\"page_index\":10,\"viewing_time\":3687.4000000003725}]","rt":65478.09999999963,"trial_type":"two-step-instructions","trial_index":8,"time_elapsed":288806,"internal_node_id":"0.0-8.0-1.0","task_version":"1.0","jspsych_version":"6.3.1"},{"responses":["left/right arrow keys","True","True"],"num_errors":0,"rt":12550.799999998882,"quiz":1,"trial_type":"two-step-comprehension","trial_index":9,"time_elapsed":301362,"internal_node_id":"0.0-8.0-2.0","task_version":"1.0","jspsych_version":"6.3.1"},{"view_history":"[{\"page_index\":0,\"viewing_time\":7536.699999999255}]","rt":7537.39999999851,"phase":"instructions_1b","trial_type":"two-step-instructions","trial_index":10,"time_elapsed":308907,"internal_node_id":"0.0-9.0-0.0-0.0","task_version":"1.0","jspsych_version":"6.3.1"},{"state_2_ids":[0,1],"state_2_key":0,"state_2_choice":0,"state_2_rt":715,"outcome":0,"screen_resolution":[1512,945],"minimum_resolution":1,"trial_type":"alien-practice","trial_index":11,"time_elapsed":311831,"internal_node_id":"0.0-9.0-1.0-0.0","task_version":"1.0","jspsych_version":"6.3.1"},{"state_2_ids":[0,1],"state_2_key":1,"state_2_choice":1,"state_2_rt":630.2999999988824,"outcome":0,"screen_resolution":[1512,945],"minimum_resolution":1,"trial_type":"alien-practice","trial_index":12,"time_elapsed":314675,"internal_node_id":"0.0-9.0-2.0-0.0","task_version":"1.0","jspsych_version":"6.3.1"},{"state_2_ids":[0,1],"state_2_key":0,"state_2_choice":0,"state_2_rt":486.2000000011176,"outcome":0,"screen_resolution":[1512,945],"minimum_resolution":1,"trial_type":"alien-practice","trial_index":13,"time_elapsed":317375,"internal_node_id":"0.0-9.0-3.0-0.0","task_version":"1.0","jspsych_version":"6.3.1"},{"state_2_ids":[0,1],"state_2_key":1,"state_2_choice":1,"state_2_rt":383.69999999925494,"outcome":1,"screen_resolution":[1512,945],"minimum_resolution":1,"trial_type":"alien-practice","trial_index":14,"time_elapsed":319969,"internal_node_id":"0.0-9.0-4.0-0.0","task_version":"1.0","jspsych_version":"6.3.1"},{"state_2_ids":[0,1],"state_2_key":1,"state_2_choice":1,"state_2_rt":411.19999999925494,"outcome":1,"screen_resolution":[1512,945],"minimum_resolution":1,"trial_type":"alien-practice","trial_index":15,"time_elapsed":322593,"internal_node_id":"0.0-9.0-5.0-0.0","task_version":"1.0","jspsych_version":"6.3.1"},{"state_2_ids":[0,1],"state_2_key":1,"state_2_choice":1,"state_2_rt":429.7000000011176,"outcome":1,"screen_resolution":[1512,945],"minimum_resolution":1,"trial_type":"alien-practice","trial_index":16,"time_elapsed":325234,"internal_node_id":"0.0-9.0-6.0-0.0","task_version":"1.0","jspsych_version":"6.3.1"},{"view_history":"[{\"page_index\":0,\"viewing_time\":4286.0999999996275},{\"page_index\":1,\"viewing_time\":1794.4000000003725},{\"page_index\":2,\"viewing_time\":8015.4000000003725},{\"page_index\":3,\"viewing_time\":10941.300000000745},{\"page_index\":4,\"viewing_time\":3813.199999999255},{\"page_index\":5,\"viewing_time\":4153.9000000003725}]","rt":33004.59999999963,"trial_type":"two-step-instructions","trial_index":17,"time_elapsed":358244,"internal_node_id":"0.0-10.0-1.0","task_version":"1.0","jspsych_version":"6.3.1"},{"responses":["left/right arrow keys","False","True"],"num_errors":0,"rt":10638.599999999627,"quiz":2,"trial_type":"two-step-comprehension","trial_index":18,"time_elapsed":368886,"internal_node_id":"0.0-10.0-2.0","task_version":"1.0","jspsych_version":"6.3.1"},{"view_history":"[{\"page_index\":0,\"viewing_time\":10036.400000000373},{\"page_index\":1,\"viewing_time\":3744.9000000003725},{\"page_index\":2,\"viewing_time\":10376.599999999627}]","rt":24158.300000000745,"trial_type":"two-step-instructions","trial_index":19,"time_elapsed":393052,"internal_node_id":"0.0-11.0-0.0","task_version":"1.0","jspsych_version":"6.3.1"},{"state_1_ids":[0,1],"state_1_key":0,"state_1_choice":0,"state_1_rt":1271.5,"transition":1,"state":0,"state_2_ids":[0,1],"state_2_key":1,"state_2_choice":1,"state_2_rt":1623.0999999996275,"outcome":1,"rocket_colors":["#955db9","#48a782"],"planet_colors":["#7f5d5d","#5f6f81"],"screen_resolution":[1512,945],"minimum_resolution":1,"trial":0,"trial_type":"two-step-trial","trial_index":20,"time_elapsed":397959,"internal_node_id":"0.0-11.0-1.0-0.0","task_version":"1.0","jspsych_version":"6.3.1","missing":false},{"state_1_ids":[0,1],"state_1_key":0,"state_1_choice":0,"state_1_rt":1260.300000000745,"transition":1,"state":0,"state_2_ids":[0,1],"state_2_key":1,"state_2_choice":1,"state_2_rt":502.2999999988824,"outcome":1,"rocket_colors":["#955db9","#48a782"],"planet_colors":["#7f5d5d","#5f6f81"],"screen_resolution":[1512,945],"minimum_resolution":1,"trial":0,"trial_type":"two-step-trial","trial_index":21,"time_elapsed":401732,"internal_node_id":"0.0-11.0-1.0-0.1","task_version":"1.0","jspsych_version":"6.3.1","missing":false},{"state_1_ids":[1,0],"state_1_key":1,"state_1_choice":0,"state_1_rt":1510.7999999988824,"transition":1,"state":0,"state_2_ids":[0,1],"state_2_key":1,"state_2_choice":1,"state_2_rt":606.5,"outcome":0,"rocket_colors":["#955db9","#48a782"],"planet_colors":["#7f5d5d","#5f6f81"],"screen_resolution":[1512,945],"minimum_resolution":1,"trial":0,"trial_type":"two-step-trial","trial_index":22,"time_elapsed":405859,"internal_node_id":"0.0-11.0-1.0-0.2","task_version":"1.0","jspsych_version":"6.3.1","missing":false},{"state_1_ids":[1,0],"state_1_key":1,"state_1_choice":0,"state_1_rt":865.5999999996275,"transition":0,"state":1,"state_2_ids":[2,3],"state_2_key":0,"state_2_choice":2,"state_2_rt":2828.2999999988824,"outcome":1,"rocket_colors":["#955db9","#48a782"],"planet_colors":["#7f5d5d","#5f6f81"],"screen_resolution":[1512,945],"minimum_resolution":1,"trial":0,"trial_type":"two-step-trial","trial_index":23,"time_elapsed":411565,"internal_node_id":"0.0-11.0-1.0-0.3","task_version":"1.0","jspsych_version":"6.3.1","missing":false},{"state_1_ids":[1,0],"state_1_key":1,"state_1_choice":0,"state_1_rt":1579.6000000014901,"transition":0,"state":1,"state_2_ids":[2,3],"state_2_key":0,"state_2_choice":2,"state_2_rt":660,"outcome":0,"rocket_colors":["#955db9","#48a782"],"planet_colors":["#7f5d5d","#5f6f81"],"screen_resolution":[1512,945],"minimum_resolution":1,"trial":0,"trial_type":"two-step-trial","trial_index":24,"time_elapsed":415815,"internal_node_id":"0.0-11.0-1.0-0.4","task_version":"1.0","jspsych_version":"6.3.1","missing":false},{"state_1_ids":[1,0],"state_1_key":1,"state_1_choice":0,"state_1_rt":2160.199999999255,"transition":0,"state":1,"state_2_ids":[2,3],"state_2_key":0,"state_2_choice":2,"state_2_rt":819,"outcome":0,"rocket_colors":["#955db9","#48a782"],"planet_colors":["#7f5d5d","#5f6f81"],"screen_resolution":[1512,945],"minimum_resolution":1,"trial":0,"trial_type":"two-step-trial","trial_index":25,"time_elapsed":420803,"internal_node_id":"0.0-11.0-1.0-0.5","task_version":"1.0","jspsych_version":"6.3.1","missing":false},{"state_1_ids":[1,0],"state_1_key":1,"state_1_choice":0,"state_1_rt":873.0999999996275,"transition":1,"state":0,"state_2_ids":[0,1],"state_2_key":1,"state_2_choice":1,"state_2_rt":956.1000000014901,"outcome":0,"rocket_colors":["#955db9","#48a782"],"planet_colors":["#7f5d5d","#5f6f81"],"screen_resolution":[1512,945],"minimum_resolution":1,"trial":0,"trial_type":"two-step-trial","trial_index":26,"time_elapsed":424644,"internal_node_id":"0.0-11.0-1.0-0.6","task_version":"1.0","jspsych_version":"6.3.1","missing":false},{"state_1_ids":[0,1],"state_1_key":1,"state_1_choice":1,"state_1_rt":1003.9000000003725,"transition":0,"state":0,"state_2_ids":[0,1],"state_2_key":1,"state_2_choice":1,"state_2_rt":830.8000000007451,"outcome":1,"rocket_colors":["#955db9","#48a782"],"planet_colors":["#7f5d5d","#5f6f81"],"screen_resolution":[1512,945],"minimum_resolution":1,"trial":0,"trial_type":"two-step-trial","trial_index":27,"time_elapsed":428493,"internal_node_id":"0.0-11.0-1.0-0.7","task_version":"1.0","jspsych_version":"6.3.1","missing":false},{"state_1_ids":[1,0],"state_1_key":0,"state_1_choice":1,"state_1_rt":928.6999999992549,"transition":0,"state":0,"state_2_ids":[0,1],"state_2_key":1,"state_2_choice":1,"state_2_rt":610,"outcome":0,"rocket_colors":["#955db9","#48a782"],"planet_colors":["#7f5d5d","#5f6f81"],"screen_resolution":[1512,945],"minimum_resolution":1,"trial":0,"trial_type":"two-step-trial","trial_index":28,"time_elapsed":432045,"internal_node_id":"0.0-11.0-1.0-0.8","task_version":"1.0","jspsych_version":"6.3.1","missing":false},{"state_1_ids":[1,0],"state_1_key":0,"state_1_choice":1,"state_1_rt":680.5,"transition":1,"state":1,"state_2_ids":[2,3],"state_2_key":1,"state_2_choice":3,"state_2_rt":1067.3999999985099,"outcome":1,"rocket_colors":["#955db9","#48a782"],"planet_colors":["#7f5d5d","#5f6f81"],"screen_resolution":[1512,945],"minimum_resolution":1,"trial":0,"trial_type":"two-step-trial","trial_index":29,"time_elapsed":435807,"internal_node_id":"0.0-11.0-1.0-0.9","task_version":"1.0","jspsych_version":"6.3.1","missing":false},{"view_history":"[{\"page_index\":0,\"viewing_time\":2674.0999999996275},{\"page_index\":1,\"viewing_time\":4343.5999999996275},{\"page_index\":2,\"viewing_time\":1446.0999999996275},{\"page_index\":3,\"viewing_time\":4788.700000001118},{\"page_index\":4,\"viewing_time\":11548.299999998882},{\"page_index\":5,\"viewing_time\":18004.10000000149},{\"page_index\":6,\"viewing_time\":5923.5999999996275}]","rt":48729,"trial_type":"two-step-instructions","trial_index":30,"time_elapsed":484542,"internal_node_id":"0.0-12.0-1.0","task_version":"1.0","jspsych_version":"6.3.1"},{"responses":["True","False","True"],"num_errors":0,"rt":14976.599999999627,"quiz":3,"trial_type":"two-step-comprehension","trial_index":31,"time_elapsed":499522,"internal_node_id":"0.0-12.0-2.0","task_version":"1.0","jspsych_version":"6.3.1"},{"view_history":"[{\"page_index\":0,\"viewing_time\":1914.699999999255},{\"page_index\":1,\"viewing_time\":5681.300000000745},{\"page_index\":2,\"viewing_time\":2327.9000000003725}]","rt":9925.900000000373,"trial_type":"two-step-instructions","trial_index":32,"time_elapsed":509456,"internal_node_id":"0.0-13.0","task_version":"1.0","jspsych_version":"6.3.1"},{"state_1_ids":[0,1],"state_1_key":0,"state_1_choice":0,"state_1_rt":762.6999999992549,"transition":1,"state":0,"state_2_ids":[0,1],"state_2_key":0,"state_2_choice":0,"state_2_rt":1070,"outcome":1,"rocket_colors":["#a75248","#486ea7"],"planet_colors":["#706081","#5b7c65"],"screen_resolution":[1512,945],"minimum_resolution":1,"trial":1,"drifts":[0.44,0.385,0.62,0.421],"drift_ix":1,"trial_type":"two-step-trial","trial_index":33,"time_elapsed":513303,"internal_node_id":"0.0-14.0-0.0","task_version":"1.0","jspsych_version":"6.3.1","browser_interactions":0,"missing":false},{"state_1_ids":[1,0],"state_1_key":1,"state_1_choice":0,"state_1_rt":1297.5999999996275,"transition":1,"state":0,"state_2_ids":[0,1],"state_2_key":0,"state_2_choice":0,"state_2_rt":530.3000000007451,"outcome":0,"rocket_colors":["#a75248","#486ea7"],"planet_colors":["#706081","#5b7c65"],"screen_resolution":[1512,945],"minimum_resolution":1,"trial":2,"drifts":[0.427,0.383,0.623,0.388],"drift_ix":1,"trial_type":"two-step-trial","trial_index":34,"time_elapsed":517146,"internal_node_id":"0.0-15.0-0.0","task_version":"1.0","jspsych_version":"6.3.1","browser_interactions":0,"missing":false},{"state_1_ids":[0,1],"state_1_key":0,"state_1_choice":0,"state_1_rt":788.7999999988824,"transition":0,"state":1,"state_2_ids":[2,3],"state_2_key":0,"state_2_choice":2,"state_2_rt":1534.5,"outcome":1,"rocket_colors":["#a75248","#486ea7"],"planet_colors":["#706081","#5b7c65"],"screen_resolution":[1512,945],"minimum_resolution":1,"trial":3,"drifts":[0.366,0.399,0.638,0.394],"drift_ix":1,"trial_type":"two-step-trial","trial_index":35,"time_elapsed":521482,"internal_node_id":"0.0-16.0-0.0","task_version":"1.0","jspsych_version":"6.3.1","browser_interactions":0,"missing":false},{"state_1_ids":[1,0],"state_1_key":0,"state_1_choice":1,"state_1_rt":1271.2999999988824,"transition":0,"state":0,"state_2_ids":[0,1],"state_2_key":0,"state_2_choice":0,"state_2_rt":1230,"outcome":1,"rocket_colors":["#a75248","#486ea7"],"planet_colors":["#706081","#5b7c65"],"screen_resolution":[1512,945],"minimum_resolution":1,"trial":4,"drifts":[0.352,0.371,0.644,0.424],"drift_ix":1,"trial_type":"two-step-trial","trial_index":36,"time_elapsed":525998,"internal_node_id":"0.0-17.0-0.0","task_version":"1.0","jspsych_version":"6.3.1","browser_interactions":0,"missing":false},{"state_1_ids":[1,0],"state_1_key":0,"state_1_choice":1,"state_1_rt":998.0999999996275,"transition":1,"state":1,"state_2_ids":[2,3],"state_2_key":0,"state_2_choice":2,"state_2_rt":1340.3999999985099,"outcome":1,"rocket_colors":["#a75248","#486ea7"],"planet_colors":["#706081","#5b7c65"],"screen_resolution":[1512,945],"minimum_resolution":1,"trial":5,"drifts":[0.387,0.418,0.671,0.445],"drift_ix":1,"trial_type":"two-step-trial","trial_index":37,"time_elapsed":530346,"internal_node_id":"0.0-18.0-0.0","task_version":"1.0","jspsych_version":"6.3.1","browser_interactions":0,"missing":false},{"state_1_ids":[1,0],"state_1_key":0,"state_1_choice":1,"state_1_rt":1283.5,"transition":1,"state":1,"state_2_ids":[2,3],"state_2_key":0,"state_2_choice":2,"state_2_rt":697,"outcome":1,"rocket_colors":["#a75248","#486ea7"],"planet_colors":["#706081","#5b7c65"],"screen_resolution":[1512,945],"minimum_resolution":1,"trial":6,"drifts":[0.376,0.44,0.655,0.477],"drift_ix":1,"trial_type":"two-step-trial","trial_index":38,"time_elapsed":534340,"internal_node_id":"0.0-19.0-0.0","task_version":"1.0","jspsych_version":"6.3.1","browser_interactions":0,"missing":false},{"state_1_ids":[0,1],"state_1_key":1,"state_1_choice":1,"state_1_rt":834.0999999996275,"transition":1,"state":1,"state_2_ids":[2,3],"state_2_key":0,"state_2_choice":2,"state_2_rt":475.30000000074506,"outcome":1,"rocket_colors":["#a75248","#486ea7"],"planet_colors":["#706081","#5b7c65"],"screen_resolution":[1512,945],"minimum_resolution":1,"trial":7,"drifts":[0.376,0.46,0.674,0.453],"drift_ix":1,"trial_type":"two-step-trial","trial_index":39,"time_elapsed":537661,"internal_node_id":"0.0-20.0-0.0","task_version":"1.0","jspsych_version":"6.3.1","browser_interactions":0,"missing":false},{"state_1_ids":[1,0],"state_1_key":0,"state_1_choice":1,"state_1_rt":1830,"transition":1,"state":1,"state_2_ids":[2,3],"state_2_key":0,"state_2_choice":2,"state_2_rt":490.59999999962747,"outcome":1,"rocket_colors":["#a75248","#486ea7"],"planet_colors":["#706081","#5b7c65"],"screen_resolution":[1512,945],"minimum_resolution":1,"trial":8,"drifts":[0.37,0.476,0.645,0.47],"drift_ix":1,"trial_type":"two-step-trial","trial_index":40,"time_elapsed":541991,"internal_node_id":"0.0-21.0-0.0","task_version":"1.0","jspsych_version":"6.3.1","browser_interactions":0,"missing":false},{"state_1_ids":[1,0],"state_1_key":0,"state_1_choice":1,"state_1_rt":876.3999999985099,"transition":1,"state":1,"state_2_ids":[2,3],"state_2_key":0,"state_2_choice":2,"state_2_rt":659.5999999996275,"outcome":0,"rocket_colors":["#a75248","#486ea7"],"planet_colors":["#706081","#5b7c65"],"screen_resolution":[1512,945],"minimum_resolution":1,"trial":9,"drifts":[0.349,0.439,0.653,0.482],"drift_ix":1,"trial_type":"two-step-trial","trial_index":41,"time_elapsed":545538,"internal_node_id":"0.0-22.0-0.0","task_version":"1.0","jspsych_version":"6.3.1","browser_interactions":0,"missing":false},{"state_1_ids":[1,0],"state_1_key":0,"state_1_choice":1,"state_1_rt":864.5999999996275,"transition":1,"state":1,"state_2_ids":[2,3],"state_2_key":0,"state_2_choice":2,"state_2_rt":551.6999999992549,"outcome":1,"rocket_colors":["#a75248","#486ea7"],"planet_colors":["#706081","#5b7c65"],"screen_resolution":[1512,945],"minimum_resolution":1,"trial":10,"drifts":[0.347,0.471,0.629,0.478],"drift_ix":1,"trial_type":"two-step-trial","trial_index":42,"time_elapsed":548969,"internal_node_id":"0.0-23.0-0.0","task_version":"1.0","jspsych_version":"6.3.1","browser_interactions":0,"missing":false},{"state_1_ids":[0,1],"state_1_key":1,"state_1_choice":1,"state_1_rt":1348.9000000003725,"transition":0,"state":0,"state_2_ids":[0,1],"state_2_key":0,"state_2_choice":0,"state_2_rt":1293.4000000003725,"outcome":0,"rocket_colors":["#a75248","#486ea7"],"planet_colors":["#706081","#5b7c65"],"screen_resolution":[1512,945],"minimum_resolution":1,"trial":11,"drifts":[0.346,0.411,0.666,0.456],"drift_ix":1,"trial_type":"two-step-trial","trial_index":43,"time_elapsed":553624,"internal_node_id":"0.0-24.0-0.0","task_version":"1.0","jspsych_version":"6.3.1","browser_interactions":0,"missing":false},{"state_1_ids":[0,1],"state_1_key":1,"state_1_choice":1,"state_1_rt":1263,"transition":1,"state":1,"state_2_ids":[2,3],"state_2_key":0,"state_2_choice":2,"state_2_rt":569.5,"outcome":1,"rocket_colors":["#a75248","#486ea7"],"planet_colors":["#706081","#5b7c65"],"screen_resolution":[1512,945],"minimum_resolution":1,"trial":12,"drifts":[0.371,0.413,0.638,0.405],"drift_ix":1,"trial_type":"two-step-trial","trial_index":44,"time_elapsed":557467,"internal_node_id":"0.0-25.0-0.0","task_version":"1.0","jspsych_version":"6.3.1","browser_interactions":0,"missing":false},{"state_1_ids":[1,0],"state_1_key":0,"state_1_choice":1,"state_1_rt":852.5999999996275,"transition":1,"state":1,"state_2_ids":[2,3],"state_2_key":0,"state_2_choice":2,"state_2_rt":499.90000000037253,"outcome":1,"rocket_colors":["#a75248","#486ea7"],"planet_colors":["#706081","#5b7c65"],"screen_resolution":[1512,945],"minimum_resolution":1,"trial":13,"drifts":[0.354,0.425,0.641,0.388],"drift_ix":1,"trial_type":"two-step-trial","trial_index":45,"time_elapsed":560828,"internal_node_id":"0.0-26.0-0.0","task_version":"1.0","jspsych_version":"6.3.1","browser_interactions":0,"missing":false},{"state_1_ids":[1,0],"state_1_key":0,"state_1_choice":1,"state_1_rt":932.9000000003725,"transition":0,"state":0,"state_2_ids":[0,1],"state_2_key":1,"state_2_choice":1,"state_2_rt":1424.4000000003725,"outcome":0,"rocket_colors":["#a75248","#486ea7"],"planet_colors":["#706081","#5b7c65"],"screen_resolution":[1512,945],"minimum_resolution":1,"trial":14,"drifts":[0.315,0.45,0.635,0.335],"drift_ix":1,"trial_type":"two-step-trial","trial_index":46,"time_elapsed":565194,"internal_node_id":"0.0-27.0-0.0","task_version":"1.0","jspsych_version":"6.3.1","browser_interactions":0,"missing":false},{"state_1_ids":[0,1],"state_1_key":0,"state_1_choice":0,"state_1_rt":553.0999999996275,"transition":1,"state":0,"state_2_ids":[0,1],"state_2_key":0,"state_2_choice":0,"state_2_rt":1130.0999999996275,"outcome":1,"rocket_colors":["#a75248","#486ea7"],"planet_colors":["#706081","#5b7c65"],"screen_resolution":[1512,945],"minimum_resolution":1,"trial":15,"drifts":[0.291,0.41,0.635,0.339],"drift_ix":1,"trial_type":"two-step-trial","trial_index":47,"time_elapsed":568890,"internal_node_id":"0.0-28.0-0.0","task_version":"1.0","jspsych_version":"6.3.1","browser_interactions":0,"missing":false},{"state_1_ids":[0,1],"state_1_key":1,"state_1_choice":1,"state_1_rt":972.1999999992549,"transition":1,"state":1,"state_2_ids":[2,3],"state_2_key":0,"state_2_choice":2,"state_2_rt":435.30000000074506,"outcome":0,"rocket_colors":["#a75248","#486ea7"],"planet_colors":["#706081","#5b7c65"],"screen_resolution":[1512,945],"minimum_resolution":1,"trial":16,"drifts":[0.3,0.409,0.61,0.364],"drift_ix":1,"trial_type":"two-step-trial","trial_index":48,"time_elapsed":572311,"internal_node_id":"0.0-29.0-0.0","task_version":"1.0","jspsych_version":"6.3.1","browser_interactions":0,"missing":false},{"state_1_ids":[1,0],"state_1_key":0,"state_1_choice":1,"state_1_rt":500.59999999962747,"transition":1,"state":1,"state_2_ids":[2,3],"state_2_key":0,"state_2_choice":2,"state_2_rt":532.5999999996275,"outcome":0,"rocket_colors":["#a75248","#486ea7"],"planet_colors":["#706081","#5b7c65"],"screen_resolution":[1512,945],"minimum_resolution":1,"trial":17,"drifts":[0.3,0.418,0.639,0.392],"drift_ix":1,"trial_type":"two-step-trial","trial_index":49,"time_elapsed":575353,"internal_node_id":"0.0-30.0-0.0","task_version":"1.0","jspsych_version":"6.3.1","browser_interactions":0,"missing":false},{"state_1_ids":[1,0],"state_1_key":0,"state_1_choice":1,"state_1_rt":640.5999999996275,"transition":0,"state":0,"state_2_ids":[0,1],"state_2_key":0,"state_2_choice":0,"state_2_rt":1340.5,"outcome":1,"rocket_colors":["#a75248","#486ea7"],"planet_colors":["#706081","#5b7c65"],"screen_resolution":[1512,945],"minimum_resolution":1,"trial":18,"drifts":[0.308,0.463,0.63,0.375],"drift_ix":1,"trial_type":"two-step-trial","trial_index":50,"time_elapsed":579346,"internal_node_id":"0.0-31.0-0.0","task_version":"1.0","jspsych_version":"6.3.1","browser_interactions":0,"missing":false},{"state_1_ids":[0,1],"state_1_key":1,"state_1_choice":1,"state_1_rt":735.4000000003725,"transition":1,"state":1,"state_2_ids":[2,3],"state_2_key":0,"state_2_choice":2,"state_2_rt":419.90000000037253,"outcome":1,"rocket_colors":["#a75248","#486ea7"],"planet_colors":["#706081","#5b7c65"],"screen_resolution":[1512,945],"minimum_resolution":1,"trial":19,"drifts":[0.345,0.475,0.617,0.402],"drift_ix":1,"trial_type":"two-step-trial","trial_index":51,"time_elapsed":582516,"internal_node_id":"0.0-32.0-0.0","task_version":"1.0","jspsych_version":"6.3.1","browser_interactions":0,"missing":false},{"state_1_ids":[0,1],"state_1_key":1,"state_1_choice":1,"state_1_rt":527.0999999996275,"transition":1,"state":1,"state_2_ids":[2,3],"state_2_key":0,"state_2_choice":2,"state_2_rt":524,"outcome":0,"rocket_colors":["#a75248","#486ea7"],"planet_colors":["#706081","#5b7c65"],"screen_resolution":[1512,945],"minimum_resolution":1,"trial":20,"drifts":[0.39,0.463,0.595,0.433],"drift_ix":1,"trial_type":"two-step-trial","trial_index":52,"time_elapsed":585581,"internal_node_id":"0.0-33.0-0.0","task_version":"1.0","jspsych_version":"6.3.1","browser_interactions":0,"missing":false},{"state_1_ids":[1,0],"state_1_key":0,"state_1_choice":1,"state_1_rt":630.6999999992549,"transition":0,"state":0,"state_2_ids":[0,1],"state_2_key":0,"state_2_choice":0,"state_2_rt":1087.9000000003725,"outcome":1,"rocket_colors":["#a75248","#486ea7"],"planet_colors":["#706081","#5b7c65"],"screen_resolution":[1512,945],"minimum_resolution":1,"trial":21,"drifts":[0.413,0.433,0.607,0.447],"drift_ix":1,"trial_type":"two-step-trial","trial_index":53,"time_elapsed":589313,"internal_node_id":"0.0-34.0-0.0","task_version":"1.0","jspsych_version":"6.3.1","browser_interactions":0,"missing":false},{"state_1_ids":[0,1],"state_1_key":0,"state_1_choice":0,"state_1_rt":563,"transition":1,"state":0,"state_2_ids":[0,1],"state_2_key":0,"state_2_choice":0,"state_2_rt":748.5999999996275,"outcome":1,"rocket_colors":["#a75248","#486ea7"],"planet_colors":["#706081","#5b7c65"],"screen_resolution":[1512,945],"minimum_resolution":1,"trial":22,"drifts":[0.397,0.431,0.605,0.426],"drift_ix":1,"trial_type":"two-step-trial","trial_index":54,"time_elapsed":592634,"internal_node_id":"0.0-35.0-0.0","task_version":"1.0","jspsych_version":"6.3.1","browser_interactions":0,"missing":false},{"state_1_ids":[1,0],"state_1_key":1,"state_1_choice":0,"state_1_rt":750.9000000003725,"transition":1,"state":0,"state_2_ids":[0,1],"state_2_key":0,"state_2_choice":0,"state_2_rt":424.5,"outcome":0,"rocket_colors":["#a75248","#486ea7"],"planet_colors":["#706081","#5b7c65"],"screen_resolution":[1512,945],"minimum_resolution":1,"trial":23,"drifts":[0.375,0.426,0.617,0.383],"drift_ix":1,"trial_type":"two-step-trial","trial_index":55,"time_elapsed":595821,"internal_node_id":"0.0-36.0-0.0","task_version":"1.0","jspsych_version":"6.3.1","browser_interactions":0,"missing":false},{"state_1_ids":[0,1],"state_1_key":0,"state_1_choice":0,"state_1_rt":492.7000000011176,"transition":1,"state":0,"state_2_ids":[0,1],"state_2_key":0,"state_2_choice":0,"state_2_rt":484.90000000037253,"outcome":1,"rocket_colors":["#a75248","#486ea7"],"planet_colors":["#706081","#5b7c65"],"screen_resolution":[1512,945],"minimum_resolution":1,"trial":24,"drifts":[0.396,0.432,0.631,0.356],"drift_ix":1,"trial_type":"two-step-trial","trial_index":56,"time_elapsed":598810,"internal_node_id":"0.0-37.0-0.0","task_version":"1.0","jspsych_version":"6.3.1","browser_interactions":0,"missing":false},{"state_1_ids":[1,0],"state_1_key":0,"state_1_choice":1,"state_1_rt":542.1999999992549,"transition":1,"state":1,"state_2_ids":[2,3],"state_2_key":0,"state_2_choice":2,"state_2_rt":498.40000000037253,"outcome":0,"rocket_colors":["#a75248","#486ea7"],"planet_colors":["#706081","#5b7c65"],"screen_resolution":[1512,945],"minimum_resolution":1,"trial":25,"drifts":[0.352,0.393,0.634,0.357],"drift_ix":1,"trial_type":"two-step-trial","trial_index":57,"time_elapsed":601864,"internal_node_id":"0.0-38.0-0.0","task_version":"1.0","jspsych_version":"6.3.1","browser_interactions":0,"missing":false},{"state_1_ids":[1,0],"state_1_key":0,"state_1_choice":1,"state_1_rt":555.1999999992549,"transition":1,"state":1,"state_2_ids":[2,3],"state_2_key":0,"state_2_choice":2,"state_2_rt":631.5,"outcome":1,"rocket_colors":["#a75248","#486ea7"],"planet_colors":["#706081","#5b7c65"],"screen_resolution":[1512,945],"minimum_resolution":1,"trial":26,"drifts":[0.379,0.371,0.632,0.315],"drift_ix":1,"trial_type":"two-step-trial","trial_index":58,"time_elapsed":605062,"internal_node_id":"0.0-39.0-0.0","task_version":"1.0","jspsych_version":"6.3.1","browser_interactions":0,"missing":false},{"state_1_ids":[1,0],"state_1_key":0,"state_1_choice":1,"state_1_rt":661,"transition":0,"state":0,"state_2_ids":[0,1],"state_2_key":0,"state_2_choice":0,"state_2_rt":554.5999999996275,"outcome":0,"rocket_colors":["#a75248","#486ea7"],"planet_colors":["#706081","#5b7c65"],"screen_resolution":[1512,945],"minimum_resolution":1,"trial":27,"drifts":[0.44,0.355,0.639,0.305],"drift_ix":1,"trial_type":"two-step-trial","trial_index":59,"time_elapsed":608290,"internal_node_id":"0.0-40.0-0.0","task_version":"1.0","jspsych_version":"6.3.1","browser_interactions":0,"missing":false},{"state_1_ids":[0,1],"state_1_key":1,"state_1_choice":1,"state_1_rt":613,"transition":1,"state":1,"state_2_ids":[2,3],"state_2_key":0,"state_2_choice":2,"state_2_rt":297.59999999962747,"outcome":1,"rocket_colors":["#a75248","#486ea7"],"planet_colors":["#706081","#5b7c65"],"screen_resolution":[1512,945],"minimum_resolution":1,"trial":28,"drifts":[0.473,0.399,0.627,0.311],"drift_ix":1,"trial_type":"two-step-trial","trial_index":60,"time_elapsed":611216,"internal_node_id":"0.0-41.0-0.0","task_version":"1.0","jspsych_version":"6.3.1","browser_interactions":0,"missing":false},{"state_1_ids":[0,1],"state_1_key":1,"state_1_choice":1,"state_1_rt":501.19999999925494,"transition":1,"state":1,"state_2_ids":[2,3],"state_2_key":0,"state_2_choice":2,"state_2_rt":289.90000000037253,"outcome":1,"rocket_colors":["#a75248","#486ea7"],"planet_colors":["#706081","#5b7c65"],"screen_resolution":[1512,945],"minimum_resolution":1,"trial":29,"drifts":[0.47,0.426,0.594,0.318],"drift_ix":1,"trial_type":"two-step-trial","trial_index":61,"time_elapsed":614020,"internal_node_id":"0.0-42.0-0.0","task_version":"1.0","jspsych_version":"6.3.1","browser_interactions":0,"missing":false},{"state_1_ids":[0,1],"state_1_key":1,"state_1_choice":1,"state_1_rt":513.8000000007451,"transition":1,"state":1,"state_2_ids":[2,3],"state_2_key":0,"state_2_choice":2,"state_2_rt":301,"outcome":1,"rocket_colors":["#a75248","#486ea7"],"planet_colors":["#706081","#5b7c65"],"screen_resolution":[1512,945],"minimum_resolution":1,"trial":30,"drifts":[0.455,0.475,0.559,0.323],"drift_ix":1,"trial_type":"two-step-trial","trial_index":62,"time_elapsed":616847,"internal_node_id":"0.0-43.0-0.0","task_version":"1.0","jspsych_version":"6.3.1","browser_interactions":0,"missing":false},{"state_1_ids":[0,1],"state_1_key":1,"state_1_choice":1,"state_1_rt":307.69999999925494,"transition":0,"state":0,"state_2_ids":[0,1],"state_2_key":0,"state_2_choice":0,"state_2_rt":269.7000000011176,"outcome":0,"rocket_colors":["#a75248","#486ea7"],"planet_colors":["#706081","#5b7c65"],"screen_resolution":[1512,945],"minimum_resolution":1,"trial":31,"drifts":[0.435,0.51,0.608,0.321],"drift_ix":1,"trial_type":"two-step-trial","trial_index":63,"time_elapsed":619436,"internal_node_id":"0.0-44.0-0.0","task_version":"1.0","jspsych_version":"6.3.1","browser_interactions":0,"missing":false},{"state_1_ids":[1,0],"state_1_key":1,"state_1_choice":0,"state_1_rt":680.1000000014901,"transition":0,"state":1,"state_2_ids":[2,3],"state_2_key":0,"state_2_choice":2,"state_2_rt":910.8000000007451,"outcome":0,"rocket_colors":["#a75248","#486ea7"],"planet_colors":["#706081","#5b7c65"],"screen_resolution":[1512,945],"minimum_resolution":1,"trial":32,"drifts":[0.415,0.507,0.579,0.317],"drift_ix":1,"trial_type":"two-step-trial","trial_index":64,"time_elapsed":623040,"internal_node_id":"0.0-45.0-0.0","task_version":"1.0","jspsych_version":"6.3.1","browser_interactions":0,"missing":false},{"state_1_ids":[1,0],"state_1_key":0,"state_1_choice":1,"state_1_rt":526.1999999992549,"transition":1,"state":1,"state_2_ids":[2,3],"state_2_key":0,"state_2_choice":2,"state_2_rt":309.90000000037253,"outcome":1,"rocket_colors":["#a75248","#486ea7"],"planet_colors":["#706081","#5b7c65"],"screen_resolution":[1512,945],"minimum_resolution":1,"trial":33,"drifts":[0.459,0.542,0.595,0.302],"drift_ix":1,"trial_type":"two-step-trial","trial_index":65,"time_elapsed":625887,"internal_node_id":"0.0-46.0-0.0","task_version":"1.0","jspsych_version":"6.3.1","browser_interactions":0,"missing":false},{"state_1_ids":[0,1],"state_1_key":0,"state_1_choice":0,"state_1_rt":742.9000000003725,"transition":1,"state":0,"state_2_ids":[0,1],"state_2_key":0,"state_2_choice":0,"state_2_rt":517.2000000011176,"outcome":1,"rocket_colors":["#a75248","#486ea7"],"planet_colors":["#706081","#5b7c65"],"screen_resolution":[1512,945],"minimum_resolution":1,"trial":34,"drifts":[0.491,0.491,0.597,0.309],"drift_ix":1,"trial_type":"two-step-trial","trial_index":66,"time_elapsed":629159,"internal_node_id":"0.0-47.0-0.0","task_version":"1.0","jspsych_version":"6.3.1","browser_interactions":0,"missing":false},{"state_1_ids":[1,0],"state_1_key":0,"state_1_choice":1,"state_1_rt":559.8000000007451,"transition":1,"state":1,"state_2_ids":[2,3],"state_2_key":0,"state_2_choice":2,"state_2_rt":403.90000000037253,"outcome":1,"rocket_colors":["#a75248","#486ea7"],"planet_colors":["#706081","#5b7c65"],"screen_resolution":[1512,945],"minimum_resolution":1,"trial":35,"drifts":[0.474,0.513,0.589,0.338],"drift_ix":1,"trial_type":"two-step-trial","trial_index":67,"time_elapsed":632134,"internal_node_id":"0.0-48.0-0.0","task_version":"1.0","jspsych_version":"6.3.1","browser_interactions":0,"missing":false},{"state_1_ids":[1,0],"state_1_key":0,"state_1_choice":1,"state_1_rt":466.40000000037253,"transition":0,"state":0,"state_2_ids":[0,1],"state_2_key":0,"state_2_choice":0,"state_2_rt":709,"outcome":0,"rocket_colors":["#a75248","#486ea7"],"planet_colors":["#706081","#5b7c65"],"screen_resolution":[1512,945],"minimum_resolution":1,"trial":36,"drifts":[0.457,0.538,0.559,0.332],"drift_ix":1,"trial_type":"two-step-trial","trial_index":68,"time_elapsed":635324,"internal_node_id":"0.0-49.0-0.0","task_version":"1.0","jspsych_version":"6.3.1","browser_interactions":0,"missing":false},{"state_1_ids":[0,1],"state_1_key":1,"state_1_choice":1,"state_1_rt":915,"transition":0,"state":0,"state_2_ids":[0,1],"state_2_key":0,"state_2_choice":0,"state_2_rt":711.9000000003725,"outcome":1,"rocket_colors":["#a75248","#486ea7"],"planet_colors":["#706081","#5b7c65"],"screen_resolution":[1512,945],"minimum_resolution":1,"trial":37,"drifts":[0.485,0.54,0.582,0.328],"drift_ix":1,"trial_type":"two-step-trial","trial_index":69,"time_elapsed":638963,"internal_node_id":"0.0-50.0-0.0","task_version":"1.0","jspsych_version":"6.3.1","browser_interactions":0,"missing":false},{"state_1_ids":[1,0],"state_1_key":0,"state_1_choice":1,"state_1_rt":677.1999999992549,"transition":0,"state":0,"state_2_ids":[0,1],"state_2_key":0,"state_2_choice":0,"state_2_rt":491.5,"outcome":1,"rocket_colors":["#a75248","#486ea7"],"planet_colors":["#706081","#5b7c65"],"screen_resolution":[1512,945],"minimum_resolution":1,"trial":38,"drifts":[0.448,0.561,0.557,0.342],"drift_ix":1,"trial_type":"two-step-trial","trial_index":70,"time_elapsed":642144,"internal_node_id":"0.0-51.0-0.0","task_version":"1.0","jspsych_version":"6.3.1","browser_interactions":0,"missing":false},{"state_1_ids":[1,0],"state_1_key":0,"state_1_choice":1,"state_1_rt":511.40000000037253,"transition":1,"state":1,"state_2_ids":[2,3],"state_2_key":0,"state_2_choice":2,"state_2_rt":604.5999999996275,"outcome":0,"rocket_colors":["#a75248","#486ea7"],"planet_colors":["#706081","#5b7c65"],"screen_resolution":[1512,945],"minimum_resolution":1,"trial":39,"drifts":[0.401,0.544,0.587,0.37],"drift_ix":1,"trial_type":"two-step-trial","trial_index":71,"time_elapsed":645273,"internal_node_id":"0.0-52.0-0.0","task_version":"1.0","jspsych_version":"6.3.1","browser_interactions":0,"missing":false},{"state_1_ids":[1,0],"state_1_key":0,"state_1_choice":1,"state_1_rt":349,"transition":1,"state":1,"state_2_ids":[2,3],"state_2_key":0,"state_2_choice":2,"state_2_rt":556.9000000003725,"outcome":1,"rocket_colors":["#a75248","#486ea7"],"planet_colors":["#706081","#5b7c65"],"screen_resolution":[1512,945],"minimum_resolution":1,"trial":40,"drifts":[0.404,0.536,0.602,0.375],"drift_ix":1,"trial_type":"two-step-trial","trial_index":72,"time_elapsed":648188,"internal_node_id":"0.0-53.0-0.0","task_version":"1.0","jspsych_version":"6.3.1","browser_interactions":0,"missing":false},{"state_1_ids":[0,1],"state_1_key":0,"state_1_choice":0,"state_1_rt":419.69999999925494,"transition":1,"state":0,"state_2_ids":[0,1],"state_2_key":0,"state_2_choice":0,"state_2_rt":623.5,"outcome":0,"rocket_colors":["#a75248","#486ea7"],"planet_colors":["#706081","#5b7c65"],"screen_resolution":[1512,945],"minimum_resolution":1,"trial":41,"drifts":[0.396,0.535,0.6,0.41],"drift_ix":1,"trial_type":"two-step-trial","trial_index":73,"time_elapsed":651245,"internal_node_id":"0.0-54.0-0.0","task_version":"1.0","jspsych_version":"6.3.1","browser_interactions":0,"missing":false},{"state_1_ids":[0,1],"state_1_key":0,"state_1_choice":0,"state_1_rt":323.5,"transition":1,"state":0,"state_2_ids":[0,1],"state_2_key":0,"state_2_choice":0,"state_2_rt":466.5,"outcome":1,"rocket_colors":["#a75248","#486ea7"],"planet_colors":["#706081","#5b7c65"],"screen_resolution":[1512,945],"minimum_resolution":1,"trial":42,"drifts":[0.406,0.554,0.6,0.432],"drift_ix":1,"trial_type":"two-step-trial","trial_index":74,"time_elapsed":654046,"internal_node_id":"0.0-55.0-0.0","task_version":"1.0","jspsych_version":"6.3.1","browser_interactions":0,"missing":false},{"state_1_ids":[0,1],"state_1_key":0,"state_1_choice":0,"state_1_rt":369.8999999985099,"transition":1,"state":0,"state_2_ids":[0,1],"state_2_key":0,"state_2_choice":0,"state_2_rt":417.59999999962747,"outcome":0,"rocket_colors":["#a75248","#486ea7"],"planet_colors":["#706081","#5b7c65"],"screen_resolution":[1512,945],"minimum_resolution":1,"trial":43,"drifts":[0.381,0.564,0.612,0.443],"drift_ix":1,"trial_type":"two-step-trial","trial_index":75,"time_elapsed":656845,"internal_node_id":"0.0-56.0-0.0","task_version":"1.0","jspsych_version":"6.3.1","browser_interactions":0,"missing":false},{"state_1_ids":[0,1],"state_1_key":0,"state_1_choice":0,"state_1_rt":560.9000000003725,"transition":0,"state":1,"state_2_ids":[2,3],"state_2_key":0,"state_2_choice":2,"state_2_rt":552.2000000011176,"outcome":1,"rocket_colors":["#a75248","#486ea7"],"planet_colors":["#706081","#5b7c65"],"screen_resolution":[1512,945],"minimum_resolution":1,"trial":44,"drifts":[0.375,0.564,0.659,0.454],"drift_ix":1,"trial_type":"two-step-trial","trial_index":76,"time_elapsed":659968,"internal_node_id":"0.0-57.0-0.0","task_version":"1.0","jspsych_version":"6.3.1","browser_interactions":0,"missing":false},{"state_1_ids":[0,1],"state_1_key":0,"state_1_choice":0,"state_1_rt":760.7000000011176,"transition":1,"state":0,"state_2_ids":[0,1],"state_2_key":0,"state_2_choice":0,"state_2_rt":716.6000000014901,"outcome":1,"rocket_colors":["#a75248","#486ea7"],"planet_colors":["#706081","#5b7c65"],"screen_resolution":[1512,945],"minimum_resolution":1,"trial":45,"drifts":[0.37,0.592,0.676,0.446],"drift_ix":1,"trial_type":"two-step-trial","trial_index":77,"time_elapsed":663457,"internal_node_id":"0.0-58.0-0.0","task_version":"1.0","jspsych_version":"6.3.1","browser_interactions":0,"missing":false},{"state_1_ids":[0,1],"state_1_key":0,"state_1_choice":0,"state_1_rt":628.4000000003725,"transition":1,"state":0,"state_2_ids":[0,1],"state_2_key":0,"state_2_choice":0,"state_2_rt":658.5999999996275,"outcome":0,"rocket_colors":["#a75248","#486ea7"],"planet_colors":["#706081","#5b7c65"],"screen_resolution":[1512,945],"minimum_resolution":1,"trial":46,"drifts":[0.369,0.571,0.682,0.419],"drift_ix":1,"trial_type":"two-step-trial","trial_index":78,"time_elapsed":666755,"internal_node_id":"0.0-59.0-0.0","task_version":"1.0","jspsych_version":"6.3.1","browser_interactions":0,"missing":false},{"state_1_ids":[1,0],"state_1_key":0,"state_1_choice":1,"state_1_rt":515,"transition":0,"state":0,"state_2_ids":[0,1],"state_2_key":0,"state_2_choice":0,"state_2_rt":639.2000000011176,"outcome":0,"rocket_colors":["#a75248","#486ea7"],"planet_colors":["#706081","#5b7c65"],"screen_resolution":[1512,945],"minimum_resolution":1,"trial":47,"drifts":[0.392,0.532,0.65,0.4],"drift_ix":1,"trial_type":"two-step-trial","trial_index":79,"time_elapsed":669924,"internal_node_id":"0.0-60.0-0.0","task_version":"1.0","jspsych_version":"6.3.1","browser_interactions":0,"missing":false},{"state_1_ids":[0,1],"state_1_key":0,"state_1_choice":0,"state_1_rt":388,"transition":1,"state":0,"state_2_ids":[0,1],"state_2_key":0,"state_2_choice":0,"state_2_rt":693.0999999996275,"outcome":1,"rocket_colors":["#a75248","#486ea7"],"planet_colors":["#706081","#5b7c65"],"screen_resolution":[1512,945],"minimum_resolution":1,"trial":48,"drifts":[0.412,0.529,0.637,0.409],"drift_ix":1,"trial_type":"two-step-trial","trial_index":80,"time_elapsed":673019,"internal_node_id":"0.0-61.0-0.0","task_version":"1.0","jspsych_version":"6.3.1","browser_interactions":0,"missing":false},{"state_1_ids":[1,0],"state_1_key":0,"state_1_choice":1,"state_1_rt":464.09999999962747,"transition":0,"state":0,"state_2_ids":[0,1],"state_2_key":0,"state_2_choice":0,"state_2_rt":469,"outcome":1,"rocket_colors":["#a75248","#486ea7"],"planet_colors":["#706081","#5b7c65"],"screen_resolution":[1512,945],"minimum_resolution":1,"trial":49,"drifts":[0.41,0.533,0.637,0.402],"drift_ix":1,"trial_type":"two-step-trial","trial_index":81,"time_elapsed":675967,"internal_node_id":"0.0-62.0-0.0","task_version":"1.0","jspsych_version":"6.3.1","browser_interactions":0,"missing":false},{"state_1_ids":[0,1],"state_1_key":1,"state_1_choice":1,"state_1_rt":614.6999999992549,"transition":1,"state":1,"state_2_ids":[2,3],"state_2_key":0,"state_2_choice":2,"state_2_rt":385.1000000014901,"outcome":0,"rocket_colors":["#a75248","#486ea7"],"planet_colors":["#706081","#5b7c65"],"screen_resolution":[1512,945],"minimum_resolution":1,"trial":50,"drifts":[0.394,0.554,0.63,0.39],"drift_ix":1,"trial_type":"two-step-trial","trial_index":82,"time_elapsed":678981,"internal_node_id":"0.0-63.0-0.0","task_version":"1.0","jspsych_version":"6.3.1","browser_interactions":0,"missing":false},{"state_1_ids":[0,1],"state_1_key":1,"state_1_choice":1,"state_1_rt":615.3999999985099,"transition":1,"state":1,"state_2_ids":[2,3],"state_2_key":1,"state_2_choice":3,"state_2_rt":442.5,"outcome":1,"rocket_colors":["#a75248","#486ea7"],"planet_colors":["#706081","#5b7c65"],"screen_resolution":[1512,945],"minimum_resolution":1,"trial":51,"drifts":[0.351,0.543,0.599,0.412],"drift_ix":1,"trial_type":"two-step-trial","trial_index":83,"time_elapsed":682051,"internal_node_id":"0.0-64.0-0.0","task_version":"1.0","jspsych_version":"6.3.1","browser_interactions":0,"missing":false},{"state_1_ids":[0,1],"state_1_key":1,"state_1_choice":1,"state_1_rt":611.1999999992549,"transition":1,"state":1,"state_2_ids":[2,3],"state_2_key":1,"state_2_choice":3,"state_2_rt":442.90000000037253,"outcome":0,"rocket_colors":["#a75248","#486ea7"],"planet_colors":["#706081","#5b7c65"],"screen_resolution":[1512,945],"minimum_resolution":1,"trial":52,"drifts":[0.355,0.541,0.573,0.402],"drift_ix":1,"trial_type":"two-step-trial","trial_index":84,"time_elapsed":685117,"internal_node_id":"0.0-65.0-0.0","task_version":"1.0","jspsych_version":"6.3.1","browser_interactions":0,"missing":false},{"state_1_ids":[1,0],"state_1_key":0,"state_1_choice":1,"state_1_rt":740.5,"transition":1,"state":1,"state_2_ids":[2,3],"state_2_key":1,"state_2_choice":3,"state_2_rt":528.0999999996275,"outcome":0,"rocket_colors":["#a75248","#486ea7"],"planet_colors":["#706081","#5b7c65"],"screen_resolution":[1512,945],"minimum_resolution":1,"trial":53,"drifts":[0.35,0.565,0.6,0.385],"drift_ix":1,"trial_type":"two-step-trial","trial_index":85,"time_elapsed":688397,"internal_node_id":"0.0-66.0-0.0","task_version":"1.0","jspsych_version":"6.3.1","browser_interactions":0,"missing":false},{"state_1_ids":[1,0],"state_1_key":0,"state_1_choice":1,"state_1_rt":799.2999999988824,"transition":0,"state":0,"state_2_ids":[0,1],"state_2_key":0,"state_2_choice":0,"state_2_rt":562.2999999988824,"outcome":0,"rocket_colors":["#a75248","#486ea7"],"planet_colors":["#706081","#5b7c65"],"screen_resolution":[1512,945],"minimum_resolution":1,"trial":54,"drifts":[0.367,0.543,0.601,0.392],"drift_ix":1,"trial_type":"two-step-trial","trial_index":86,"time_elapsed":691770,"internal_node_id":"0.0-67.0-0.0","task_version":"1.0","jspsych_version":"6.3.1","browser_interactions":0,"missing":false},{"state_1_ids":[0,1],"state_1_key":1,"state_1_choice":1,"state_1_rt":773.9000000003725,"transition":0,"state":0,"state_2_ids":[0,1],"state_2_key":1,"state_2_choice":1,"state_2_rt":811.8000000007451,"outcome":1,"rocket_colors":["#a75248","#486ea7"],"planet_colors":["#706081","#5b7c65"],"screen_resolution":[1512,945],"minimum_resolution":1,"trial":55,"drifts":[0.341,0.54,0.588,0.372],"drift_ix":1,"trial_type":"two-step-trial","trial_index":87,"time_elapsed":695363,"internal_node_id":"0.0-68.0-0.0","task_version":"1.0","jspsych_version":"6.3.1","browser_interactions":0,"missing":false},{"state_1_ids":[0,1],"state_1_key":1,"state_1_choice":1,"state_1_rt":969.0999999996275,"transition":1,"state":1,"state_2_ids":[2,3],"state_2_key":1,"state_2_choice":3,"state_2_rt":611,"outcome":1,"rocket_colors":["#a75248","#486ea7"],"planet_colors":["#706081","#5b7c65"],"screen_resolution":[1512,945],"minimum_resolution":1,"trial":56,"drifts":[0.388,0.584,0.641,0.394],"drift_ix":1,"trial_type":"two-step-trial","trial_index":88,"time_elapsed":698956,"internal_node_id":"0.0-69.0-0.0","task_version":"1.0","jspsych_version":"6.3.1","browser_interactions":0,"missing":false},{"state_1_ids":[1,0],"state_1_key":0,"state_1_choice":1,"state_1_rt":1117,"transition":0,"state":0,"state_2_ids":[0,1],"state_2_key":1,"state_2_choice":1,"state_2_rt":304.90000000037253,"outcome":1,"rocket_colors":["#a75248","#486ea7"],"planet_colors":["#706081","#5b7c65"],"screen_resolution":[1512,945],"minimum_resolution":1,"trial":57,"drifts":[0.373,0.597,0.649,0.355],"drift_ix":1,"trial_type":"two-step-trial","trial_index":89,"time_elapsed":702392,"internal_node_id":"0.0-70.0-0.0","task_version":"1.0","jspsych_version":"6.3.1","browser_interactions":0,"missing":false},{"state_1_ids":[0,1],"state_1_key":1,"state_1_choice":1,"state_1_rt":752.1999999992549,"transition":1,"state":1,"state_2_ids":[2,3],"state_2_key":1,"state_2_choice":3,"state_2_rt":579.5,"outcome":1,"rocket_colors":["#a75248","#486ea7"],"planet_colors":["#706081","#5b7c65"],"screen_resolution":[1512,945],"minimum_resolution":1,"trial":58,"drifts":[0.383,0.601,0.627,0.333],"drift_ix":1,"trial_type":"two-step-trial","trial_index":90,"time_elapsed":705736,"internal_node_id":"0.0-71.0-0.0","task_version":"1.0","jspsych_version":"6.3.1","browser_interactions":0,"missing":false},{"state_1_ids":[0,1],"state_1_key":1,"state_1_choice":1,"state_1_rt":586.8999999985099,"transition":1,"state":1,"state_2_ids":[2,3],"state_2_key":1,"state_2_choice":3,"state_2_rt":682.6999999992549,"outcome":1,"rocket_colors":["#a75248","#486ea7"],"planet_colors":["#706081","#5b7c65"],"screen_resolution":[1512,945],"minimum_resolution":1,"trial":59,"drifts":[0.401,0.574,0.656,0.323],"drift_ix":1,"trial_type":"two-step-trial","trial_index":91,"time_elapsed":709016,"internal_node_id":"0.0-72.0-0.0","task_version":"1.0","jspsych_version":"6.3.1","browser_interactions":0,"missing":false},{"state_1_ids":[0,1],"state_1_key":1,"state_1_choice":1,"state_1_rt":500.80000000074506,"transition":1,"state":1,"state_2_ids":[2,3],"state_2_key":1,"state_2_choice":3,"state_2_rt":466.09999999962747,"outcome":0,"rocket_colors":["#a75248","#486ea7"],"planet_colors":["#706081","#5b7c65"],"screen_resolution":[1512,945],"minimum_resolution":1,"trial":60,"drifts":[0.433,0.567,0.64,0.284],"drift_ix":1,"trial_type":"two-step-trial","trial_index":92,"time_elapsed":711994,"internal_node_id":"0.0-73.0-0.0","task_version":"1.0","jspsych_version":"6.3.1","browser_interactions":0,"missing":false},{"state_1_ids":[1,0],"state_1_key":0,"state_1_choice":1,"state_1_rt":473.1000000014901,"transition":1,"state":1,"state_2_ids":[2,3],"state_2_key":1,"state_2_choice":3,"state_2_rt":294.59999999962747,"outcome":1,"rocket_colors":["#a75248","#486ea7"],"planet_colors":["#706081","#5b7c65"],"screen_resolution":[1512,945],"minimum_resolution":1,"trial":61,"drifts":[0.443,0.536,0.633,0.265],"drift_ix":1,"trial_type":"two-step-trial","trial_index":93,"time_elapsed":714775,"internal_node_id":"0.0-74.0-0.0","task_version":"1.0","jspsych_version":"6.3.1","browser_interactions":0,"missing":false},{"state_1_ids":[0,1],"state_1_key":1,"state_1_choice":1,"state_1_rt":498.09999999962747,"transition":1,"state":1,"state_2_ids":[2,3],"state_2_key":1,"state_2_choice":3,"state_2_rt":960.4000000003725,"outcome":0,"rocket_colors":["#a75248","#486ea7"],"planet_colors":["#706081","#5b7c65"],"screen_resolution":[1512,945],"minimum_resolution":1,"trial":62,"drifts":[0.42,0.521,0.591,0.279],"drift_ix":1,"trial_type":"two-step-trial","trial_index":94,"time_elapsed":718244,"internal_node_id":"0.0-75.0-0.0","task_version":"1.0","jspsych_version":"6.3.1","browser_interactions":0,"missing":false},{"state_1_ids":[0,1],"state_1_key":1,"state_1_choice":1,"state_1_rt":650.4000000003725,"transition":1,"state":1,"state_2_ids":[2,3],"state_2_key":1,"state_2_choice":3,"state_2_rt":336.90000000037253,"outcome":1,"rocket_colors":["#a75248","#486ea7"],"planet_colors":["#706081","#5b7c65"],"screen_resolution":[1512,945],"minimum_resolution":1,"trial":63,"drifts":[0.392,0.519,0.612,0.319],"drift_ix":1,"trial_type":"two-step-trial","trial_index":95,"time_elapsed":721242,"internal_node_id":"0.0-76.0-0.0","task_version":"1.0","jspsych_version":"6.3.1","browser_interactions":0,"missing":false},{"state_1_ids":[0,1],"state_1_key":1,"state_1_choice":1,"state_1_rt":600,"transition":1,"state":1,"state_2_ids":[2,3],"state_2_key":1,"state_2_choice":3,"state_2_rt":402.80000000074506,"outcome":0,"rocket_colors":["#a75248","#486ea7"],"planet_colors":["#706081","#5b7c65"],"screen_resolution":[1512,945],"minimum_resolution":1,"trial":64,"drifts":[0.354,0.493,0.612,0.332],"drift_ix":1,"trial_type":"two-step-trial","trial_index":96,"time_elapsed":724254,"internal_node_id":"0.0-77.0-0.0","task_version":"1.0","jspsych_version":"6.3.1","browser_interactions":0,"missing":false},{"state_1_ids":[1,0],"state_1_key":1,"state_1_choice":0,"state_1_rt":1334.4000000003725,"transition":1,"state":0,"state_2_ids":[0,1],"state_2_key":1,"state_2_choice":1,"state_2_rt":643.9000000003725,"outcome":1,"rocket_colors":["#a75248","#486ea7"],"planet_colors":["#706081","#5b7c65"],"screen_resolution":[1512,945],"minimum_resolution":1,"trial":65,"drifts":[0.379,0.495,0.568,0.327],"drift_ix":1,"trial_type":"two-step-trial","trial_index":97,"time_elapsed":728242,"internal_node_id":"0.0-78.0-0.0","task_version":"1.0","jspsych_version":"6.3.1","browser_interactions":0,"missing":false},{"state_1_ids":[1,0],"state_1_key":1,"state_1_choice":0,"state_1_rt":558.0999999996275,"transition":0,"state":1,"state_2_ids":[2,3],"state_2_key":1,"state_2_choice":3,"state_2_rt":561.6999999992549,"outcome":1,"rocket_colors":["#a75248","#486ea7"],"planet_colors":["#706081","#5b7c65"],"screen_resolution":[1512,945],"minimum_resolution":1,"trial":66,"drifts":[0.383,0.497,0.601,0.305],"drift_ix":1,"trial_type":"two-step-trial","trial_index":98,"time_elapsed":731371,"internal_node_id":"0.0-79.0-0.0","task_version":"1.0","jspsych_version":"6.3.1","browser_interactions":0,"missing":false},{"state_1_ids":[1,0],"state_1_key":1,"state_1_choice":0,"state_1_rt":327.59999999962747,"transition":1,"state":0,"state_2_ids":[0,1],"state_2_key":1,"state_2_choice":1,"state_2_rt":636.2999999988824,"outcome":0,"rocket_colors":["#a75248","#486ea7"],"planet_colors":["#706081","#5b7c65"],"screen_resolution":[1512,945],"minimum_resolution":1,"trial":67,"drifts":[0.425,0.523,0.539,0.345],"drift_ix":1,"trial_type":"two-step-trial","trial_index":99,"time_elapsed":734346,"internal_node_id":"0.0-80.0-0.0","task_version":"1.0","jspsych_version":"6.3.1","browser_interactions":0,"missing":false},{"state_1_ids":[1,0],"state_1_key":1,"state_1_choice":0,"state_1_rt":428.69999999925494,"transition":1,"state":0,"state_2_ids":[0,1],"state_2_key":1,"state_2_choice":1,"state_2_rt":516,"outcome":0,"rocket_colors":["#a75248","#486ea7"],"planet_colors":["#706081","#5b7c65"],"screen_resolution":[1512,945],"minimum_resolution":1,"trial":68,"drifts":[0.432,0.482,0.523,0.353],"drift_ix":1,"trial_type":"two-step-trial","trial_index":100,"time_elapsed":737298,"internal_node_id":"0.0-81.0-0.0","task_version":"1.0","jspsych_version":"6.3.1","browser_interactions":0,"missing":false},{"state_1_ids":[0,1],"state_1_key":1,"state_1_choice":1,"state_1_rt":415.69999999925494,"transition":1,"state":1,"state_2_ids":[2,3],"state_2_key":1,"state_2_choice":3,"state_2_rt":848.5,"outcome":0,"rocket_colors":["#a75248","#486ea7"],"planet_colors":["#706081","#5b7c65"],"screen_resolution":[1512,945],"minimum_resolution":1,"trial":69,"drifts":[0.457,0.505,0.515,0.343],"drift_ix":1,"trial_type":"two-step-trial","trial_index":101,"time_elapsed":740572,"internal_node_id":"0.0-82.0-0.0","task_version":"1.0","jspsych_version":"6.3.1","browser_interactions":0,"missing":false},{"state_1_ids":[1,0],"state_1_key":0,"state_1_choice":1,"state_1_rt":899.3999999985099,"transition":0,"state":0,"state_2_ids":[0,1],"state_2_key":1,"state_2_choice":1,"state_2_rt":375.69999999925494,"outcome":0,"rocket_colors":["#a75248","#486ea7"],"planet_colors":["#706081","#5b7c65"],"screen_resolution":[1512,945],"minimum_resolution":1,"trial":70,"drifts":[0.451,0.526,0.491,0.303],"drift_ix":1,"trial_type":"two-step-trial","trial_index":102,"time_elapsed":743858,"internal_node_id":"0.0-83.0-0.0","task_version":"1.0","jspsych_version":"6.3.1","browser_interactions":0,"missing":false},{"state_1_ids":[0,1],"state_1_key":0,"state_1_choice":0,"state_1_rt":603.7999999988824,"transition":0,"state":1,"state_2_ids":[2,3],"state_2_key":0,"state_2_choice":2,"state_2_rt":642.1000000014901,"outcome":1,"rocket_colors":["#a75248","#486ea7"],"planet_colors":["#706081","#5b7c65"],"screen_resolution":[1512,945],"minimum_resolution":1,"trial":71,"drifts":[0.425,0.552,0.478,0.262],"drift_ix":1,"trial_type":"two-step-trial","trial_index":103,"time_elapsed":747114,"internal_node_id":"0.0-84.0-0.0","task_version":"1.0","jspsych_version":"6.3.1","browser_interactions":0,"missing":false},{"state_1_ids":[0,1],"state_1_key":0,"state_1_choice":0,"state_1_rt":714.9000000003725,"transition":1,"state":0,"state_2_ids":[0,1],"state_2_key":0,"state_2_choice":0,"state_2_rt":487.7000000011176,"outcome":0,"rocket_colors":["#a75248","#486ea7"],"planet_colors":["#706081","#5b7c65"],"screen_resolution":[1512,945],"minimum_resolution":1,"trial":72,"drifts":[0.434,0.518,0.459,0.266],"drift_ix":1,"trial_type":"two-step-trial","trial_index":104,"time_elapsed":750330,"internal_node_id":"0.0-85.0-0.0","task_version":"1.0","jspsych_version":"6.3.1","browser_interactions":0,"missing":false},{"state_1_ids":[0,1],"state_1_key":0,"state_1_choice":0,"state_1_rt":409.7999999988824,"transition":0,"state":1,"state_2_ids":[2,3],"state_2_key":0,"state_2_choice":2,"state_2_rt":444.5,"outcome":0,"rocket_colors":["#a75248","#486ea7"],"planet_colors":["#706081","#5b7c65"],"screen_resolution":[1512,945],"minimum_resolution":1,"trial":73,"drifts":[0.434,0.507,0.435,0.282],"drift_ix":1,"trial_type":"two-step-trial","trial_index":105,"time_elapsed":753198,"internal_node_id":"0.0-86.0-0.0","task_version":"1.0","jspsych_version":"6.3.1","browser_interactions":0,"missing":false},{"state_1_ids":[1,0],"state_1_key":1,"state_1_choice":0,"state_1_rt":566.8000000007451,"transition":1,"state":0,"state_2_ids":[0,1],"state_2_key":0,"state_2_choice":0,"state_2_rt":552.5,"outcome":0,"rocket_colors":["#a75248","#486ea7"],"planet_colors":["#706081","#5b7c65"],"screen_resolution":[1512,945],"minimum_resolution":1,"trial":74,"drifts":[0.474,0.468,0.425,0.256],"drift_ix":1,"trial_type":"two-step-trial","trial_index":106,"time_elapsed":756327,"internal_node_id":"0.0-87.0-0.0","task_version":"1.0","jspsych_version":"6.3.1","browser_interactions":0,"missing":false},{"state_1_ids":[1,0],"state_1_key":1,"state_1_choice":0,"state_1_rt":425.40000000037253,"transition":0,"state":1,"state_2_ids":[2,3],"state_2_key":1,"state_2_choice":3,"state_2_rt":680.5999999996275,"outcome":1,"rocket_colors":["#a75248","#486ea7"],"planet_colors":["#706081","#5b7c65"],"screen_resolution":[1512,945],"minimum_resolution":1,"trial":75,"drifts":[0.46,0.495,0.398,0.253],"drift_ix":1,"trial_type":"two-step-trial","trial_index":107,"time_elapsed":759444,"internal_node_id":"0.0-88.0-0.0","task_version":"1.0","jspsych_version":"6.3.1","browser_interactions":0,"missing":false},{"state_1_ids":[0,1],"state_1_key":0,"state_1_choice":0,"state_1_rt":709.6999999992549,"transition":1,"state":0,"state_2_ids":[0,1],"state_2_key":1,"state_2_choice":1,"state_2_rt":696.1999999992549,"outcome":1,"rocket_colors":["#a75248","#486ea7"],"planet_colors":["#706081","#5b7c65"],"screen_resolution":[1512,945],"minimum_resolution":1,"trial":76,"drifts":[0.432,0.494,0.438,0.256],"drift_ix":1,"trial_type":"two-step-trial","trial_index":108,"time_elapsed":762863,"internal_node_id":"0.0-89.0-0.0","task_version":"1.0","jspsych_version":"6.3.1","browser_interactions":0,"missing":false},{"state_1_ids":[1,0],"state_1_key":1,"state_1_choice":0,"state_1_rt":569.2000000011176,"transition":1,"state":0,"state_2_ids":[0,1],"state_2_key":1,"state_2_choice":1,"state_2_rt":520.5999999996275,"outcome":0,"rocket_colors":["#a75248","#486ea7"],"planet_colors":["#706081","#5b7c65"],"screen_resolution":[1512,945],"minimum_resolution":1,"trial":77,"drifts":[0.461,0.493,0.446,0.27],"drift_ix":1,"trial_type":"two-step-trial","trial_index":109,"time_elapsed":765963,"internal_node_id":"0.0-90.0-0.0","task_version":"1.0","jspsych_version":"6.3.1","browser_interactions":0,"missing":false},{"state_1_ids":[0,1],"state_1_key":0,"state_1_choice":0,"state_1_rt":755.5999999996275,"transition":1,"state":0,"state_2_ids":[0,1],"state_2_key":1,"state_2_choice":1,"state_2_rt":527.3999999985099,"outcome":1,"rocket_colors":["#a75248","#486ea7"],"planet_colors":["#706081","#5b7c65"],"screen_resolution":[1512,945],"minimum_resolution":1,"trial":78,"drifts":[0.514,0.513,0.473,0.268],"drift_ix":1,"trial_type":"two-step-trial","trial_index":110,"time_elapsed":769255,"internal_node_id":"0.0-91.0-0.0","task_version":"1.0","jspsych_version":"6.3.1","browser_interactions":0,"missing":false},{"state_1_ids":[0,1],"state_1_key":0,"state_1_choice":0,"state_1_rt":612.1000000014901,"transition":1,"state":0,"state_2_ids":[0,1],"state_2_key":1,"state_2_choice":1,"state_2_rt":709.8000000007451,"outcome":0,"rocket_colors":["#a75248","#486ea7"],"planet_colors":["#706081","#5b7c65"],"screen_resolution":[1512,945],"minimum_resolution":1,"trial":79,"drifts":[0.504,0.552,0.491,0.291],"drift_ix":1,"trial_type":"two-step-trial","trial_index":111,"time_elapsed":772587,"internal_node_id":"0.0-92.0-0.0","task_version":"1.0","jspsych_version":"6.3.1","browser_interactions":0,"missing":false},{"state_1_ids":[0,1],"state_1_key":1,"state_1_choice":1,"state_1_rt":569.2000000011176,"transition":1,"state":1,"state_2_ids":[2,3],"state_2_key":1,"state_2_choice":3,"state_2_rt":706.4000000003725,"outcome":0,"rocket_colors":["#a75248","#486ea7"],"planet_colors":["#706081","#5b7c65"],"screen_resolution":[1512,945],"minimum_resolution":1,"trial":80,"drifts":[0.513,0.538,0.46,0.295],"drift_ix":1,"trial_type":"two-step-trial","trial_index":112,"time_elapsed":775873,"internal_node_id":"0.0-93.0-0.0","task_version":"1.0","jspsych_version":"6.3.1","browser_interactions":0,"missing":false},{"state_1_ids":[0,1],"state_1_key":1,"state_1_choice":1,"state_1_rt":549.5999999996275,"transition":1,"state":1,"state_2_ids":[2,3],"state_2_key":1,"state_2_choice":3,"state_2_rt":585,"outcome":0,"rocket_colors":["#a75248","#486ea7"],"planet_colors":["#706081","#5b7c65"],"screen_resolution":[1512,945],"minimum_resolution":1,"trial":81,"drifts":[0.523,0.491,0.47,0.326],"drift_ix":1,"trial_type":"two-step-trial","trial_index":113,"time_elapsed":779018,"internal_node_id":"0.0-94.0-0.0","task_version":"1.0","jspsych_version":"6.3.1","browser_interactions":0,"missing":false},{"state_1_ids":[0,1],"state_1_key":1,"state_1_choice":1,"state_1_rt":431.90000000037253,"transition":0,"state":0,"state_2_ids":[0,1],"state_2_key":0,"state_2_choice":0,"state_2_rt":1369.300000000745,"outcome":1,"rocket_colors":["#a75248","#486ea7"],"planet_colors":["#706081","#5b7c65"],"screen_resolution":[1512,945],"minimum_resolution":1,"trial":82,"drifts":[0.525,0.548,0.454,0.36],"drift_ix":1,"trial_type":"two-step-trial","trial_index":114,"time_elapsed":782832,"internal_node_id":"0.0-95.0-0.0","task_version":"1.0","jspsych_version":"6.3.1","browser_interactions":0,"missing":false},{"state_1_ids":[0,1],"state_1_key":1,"state_1_choice":1,"state_1_rt":975.9000000003725,"transition":1,"state":1,"state_2_ids":[2,3],"state_2_key":0,"state_2_choice":2,"state_2_rt":832.1999999992549,"outcome":0,"rocket_colors":["#a75248","#486ea7"],"planet_colors":["#706081","#5b7c65"],"screen_resolution":[1512,945],"minimum_resolution":1,"trial":83,"drifts":[0.538,0.579,0.452,0.325],"drift_ix":1,"trial_type":"two-step-trial","trial_index":115,"time_elapsed":786652,"internal_node_id":"0.0-96.0-0.0","task_version":"1.0","jspsych_version":"6.3.1","browser_interactions":0,"missing":false},{"state_1_ids":[1,0],"state_1_key":0,"state_1_choice":1,"state_1_rt":507.40000000037253,"transition":1,"state":1,"state_2_ids":[2,3],"state_2_key":1,"state_2_choice":3,"state_2_rt":601,"outcome":0,"rocket_colors":["#a75248","#486ea7"],"planet_colors":["#706081","#5b7c65"],"screen_resolution":[1512,945],"minimum_resolution":1,"trial":84,"drifts":[0.524,0.64,0.439,0.371],"drift_ix":1,"trial_type":"two-step-trial","trial_index":116,"time_elapsed":789775,"internal_node_id":"0.0-97.0-0.0","task_version":"1.0","jspsych_version":"6.3.1","browser_interactions":0,"missing":false},{"state_1_ids":[1,0],"state_1_key":0,"state_1_choice":1,"state_1_rt":450.59999999962747,"transition":0,"state":0,"state_2_ids":[0,1],"state_2_key":0,"state_2_choice":0,"state_2_rt":1359.699999999255,"outcome":1,"rocket_colors":["#a75248","#486ea7"],"planet_colors":["#706081","#5b7c65"],"screen_resolution":[1512,945],"minimum_resolution":1,"trial":85,"drifts":[0.524,0.637,0.455,0.377],"drift_ix":1,"trial_type":"two-step-trial","trial_index":117,"time_elapsed":793600,"internal_node_id":"0.0-98.0-0.0","task_version":"1.0","jspsych_version":"6.3.1","browser_interactions":0,"missing":false},{"state_1_ids":[0,1],"state_1_key":0,"state_1_choice":0,"state_1_rt":738.6999999992549,"transition":0,"state":1,"state_2_ids":[2,3],"state_2_key":0,"state_2_choice":2,"state_2_rt":581.3000000007451,"outcome":1,"rocket_colors":["#a75248","#486ea7"],"planet_colors":["#706081","#5b7c65"],"screen_resolution":[1512,945],"minimum_resolution":1,"trial":86,"drifts":[0.535,0.666,0.471,0.392],"drift_ix":1,"trial_type":"two-step-trial","trial_index":118,"time_elapsed":796933,"internal_node_id":"0.0-99.0-0.0","task_version":"1.0","jspsych_version":"6.3.1","browser_interactions":0,"missing":false},{"state_1_ids":[0,1],"state_1_key":0,"state_1_choice":0,"state_1_rt":700,"transition":0,"state":1,"state_2_ids":[2,3],"state_2_key":0,"state_2_choice":2,"state_2_rt":444.2000000011176,"outcome":1,"rocket_colors":["#a75248","#486ea7"],"planet_colors":["#706081","#5b7c65"],"screen_resolution":[1512,945],"minimum_resolution":1,"trial":87,"drifts":[0.504,0.695,0.423,0.387],"drift_ix":1,"trial_type":"two-step-trial","trial_index":119,"time_elapsed":800090,"internal_node_id":"0.0-100.0-0.0","task_version":"1.0","jspsych_version":"6.3.1","browser_interactions":0,"missing":false},{"state_1_ids":[1,0],"state_1_key":0,"state_1_choice":1,"state_1_rt":463.59999999962747,"transition":1,"state":1,"state_2_ids":[2,3],"state_2_key":0,"state_2_choice":2,"state_2_rt":423.5,"outcome":0,"rocket_colors":["#a75248","#486ea7"],"planet_colors":["#706081","#5b7c65"],"screen_resolution":[1512,945],"minimum_resolution":1,"trial":88,"drifts":[0.485,0.667,0.458,0.39],"drift_ix":1,"trial_type":"two-step-trial","trial_index":120,"time_elapsed":802987,"internal_node_id":"0.0-101.0-0.0","task_version":"1.0","jspsych_version":"6.3.1","browser_interactions":0,"missing":false},{"state_1_ids":[1,0],"state_1_key":0,"state_1_choice":1,"state_1_rt":285.5,"transition":1,"state":1,"state_2_ids":[2,3],"state_2_key":0,"state_2_choice":2,"state_2_rt":405.5,"outcome":0,"rocket_colors":["#a75248","#486ea7"],"planet_colors":["#706081","#5b7c65"],"screen_resolution":[1512,945],"minimum_resolution":1,"trial":89,"drifts":[0.47,0.661,0.502,0.408],"drift_ix":1,"trial_type":"two-step-trial","trial_index":121,"time_elapsed":805691,"internal_node_id":"0.0-102.0-0.0","task_version":"1.0","jspsych_version":"6.3.1","browser_interactions":0,"missing":false},{"state_1_ids":[1,0],"state_1_key":0,"state_1_choice":1,"state_1_rt":502.19999999925494,"transition":0,"state":0,"state_2_ids":[0,1],"state_2_key":1,"state_2_choice":1,"state_2_rt":525.7999999988824,"outcome":1,"rocket_colors":["#a75248","#486ea7"],"planet_colors":["#706081","#5b7c65"],"screen_resolution":[1512,945],"minimum_resolution":1,"trial":90,"drifts":[0.46,0.678,0.464,0.349],"drift_ix":1,"trial_type":"two-step-trial","trial_index":122,"time_elapsed":808734,"internal_node_id":"0.0-103.0-0.0","task_version":"1.0","jspsych_version":"6.3.1","browser_interactions":0,"missing":false},{"state_1_ids":[0,1],"state_1_key":1,"state_1_choice":1,"state_1_rt":690.4000000003725,"transition":0,"state":0,"state_2_ids":[0,1],"state_2_key":1,"state_2_choice":1,"state_2_rt":281.40000000037253,"outcome":1,"rocket_colors":["#a75248","#486ea7"],"planet_colors":["#706081","#5b7c65"],"screen_resolution":[1512,945],"minimum_resolution":1,"trial":91,"drifts":[0.46,0.655,0.459,0.313],"drift_ix":1,"trial_type":"two-step-trial","trial_index":123,"time_elapsed":811718,"internal_node_id":"0.0-104.0-0.0","task_version":"1.0","jspsych_version":"6.3.1","browser_interactions":0,"missing":false},{"state_1_ids":[1,0],"state_1_key":0,"state_1_choice":1,"state_1_rt":694.7000000011176,"transition":0,"state":0,"state_2_ids":[0,1],"state_2_key":1,"state_2_choice":1,"state_2_rt":462.19999999925494,"outcome":1,"rocket_colors":["#a75248","#486ea7"],"planet_colors":["#706081","#5b7c65"],"screen_resolution":[1512,945],"minimum_resolution":1,"trial":92,"drifts":[0.459,0.663,0.496,0.332],"drift_ix":1,"trial_type":"two-step-trial","trial_index":124,"time_elapsed":814888,"internal_node_id":"0.0-105.0-0.0","task_version":"1.0","jspsych_version":"6.3.1","browser_interactions":0,"missing":false},{"state_1_ids":[1,0],"state_1_key":0,"state_1_choice":1,"state_1_rt":664.2999999988824,"transition":0,"state":0,"state_2_ids":[0,1],"state_2_key":1,"state_2_choice":1,"state_2_rt":314,"outcome":1,"rocket_colors":["#a75248","#486ea7"],"planet_colors":["#706081","#5b7c65"],"screen_resolution":[1512,945],"minimum_resolution":1,"trial":93,"drifts":[0.47,0.662,0.476,0.3],"drift_ix":1,"trial_type":"two-step-trial","trial_index":125,"time_elapsed":817877,"internal_node_id":"0.0-106.0-0.0","task_version":"1.0","jspsych_version":"6.3.1","browser_interactions":0,"missing":false},{"state_1_ids":[1,0],"state_1_key":0,"state_1_choice":1,"state_1_rt":432.5,"transition":0,"state":0,"state_2_ids":[0,1],"state_2_key":1,"state_2_choice":1,"state_2_rt":278.90000000037253,"outcome":1,"rocket_colors":["#a75248","#486ea7"],"planet_colors":["#706081","#5b7c65"],"screen_resolution":[1512,945],"minimum_resolution":1,"trial":94,"drifts":[0.495,0.666,0.452,0.265],"drift_ix":1,"trial_type":"two-step-trial","trial_index":126,"time_elapsed":820600,"internal_node_id":"0.0-107.0-0.0","task_version":"1.0","jspsych_version":"6.3.1","browser_interactions":0,"missing":false},{"state_1_ids":[0,1],"state_1_key":1,"state_1_choice":1,"state_1_rt":626.4000000003725,"transition":1,"state":1,"state_2_ids":[2,3],"state_2_key":1,"state_2_choice":3,"state_2_rt":258.09999999962747,"outcome":0,"rocket_colors":["#a75248","#486ea7"],"planet_colors":["#706081","#5b7c65"],"screen_resolution":[1512,945],"minimum_resolution":1,"trial":95,"drifts":[0.524,0.697,0.448,0.345],"drift_ix":1,"trial_type":"two-step-trial","trial_index":127,"time_elapsed":823496,"internal_node_id":"0.0-108.0-0.0","task_version":"1.0","jspsych_version":"6.3.1","browser_interactions":0,"missing":false},{"state_1_ids":[1,0],"state_1_key":0,"state_1_choice":1,"state_1_rt":470.59999999962747,"transition":0,"state":0,"state_2_ids":[0,1],"state_2_key":1,"state_2_choice":1,"state_2_rt":463.40000000037253,"outcome":0,"rocket_colors":["#a75248","#486ea7"],"planet_colors":["#706081","#5b7c65"],"screen_resolution":[1512,945],"minimum_resolution":1,"trial":96,"drifts":[0.524,0.681,0.435,0.338],"drift_ix":1,"trial_type":"two-step-trial","trial_index":128,"time_elapsed":826445,"internal_node_id":"0.0-109.0-0.0","task_version":"1.0","jspsych_version":"6.3.1","browser_interactions":0,"missing":false},{"state_1_ids":[1,0],"state_1_key":0,"state_1_choice":1,"state_1_rt":466.80000000074506,"transition":1,"state":1,"state_2_ids":[2,3],"state_2_key":1,"state_2_choice":3,"state_2_rt":365.90000000037253,"outcome":0,"rocket_colors":["#a75248","#486ea7"],"planet_colors":["#706081","#5b7c65"],"screen_resolution":[1512,945],"minimum_resolution":1,"trial":97,"drifts":[0.542,0.675,0.441,0.363],"drift_ix":1,"trial_type":"two-step-trial","trial_index":129,"time_elapsed":829290,"internal_node_id":"0.0-110.0-0.0","task_version":"1.0","jspsych_version":"6.3.1","browser_interactions":0,"missing":false},{"state_1_ids":[0,1],"state_1_key":1,"state_1_choice":1,"state_1_rt":618,"transition":0,"state":0,"state_2_ids":[0,1],"state_2_key":0,"state_2_choice":0,"state_2_rt":484.80000000074506,"outcome":0,"rocket_colors":["#a75248","#486ea7"],"planet_colors":["#706081","#5b7c65"],"screen_resolution":[1512,945],"minimum_resolution":1,"trial":98,"drifts":[0.542,0.7,0.418,0.358],"drift_ix":1,"trial_type":"two-step-trial","trial_index":130,"time_elapsed":832401,"internal_node_id":"0.0-111.0-0.0","task_version":"1.0","jspsych_version":"6.3.1","browser_interactions":0,"missing":false},{"state_1_ids":[1,0],"state_1_key":0,"state_1_choice":1,"state_1_rt":526.5999999996275,"transition":1,"state":1,"state_2_ids":[2,3],"state_2_key":1,"state_2_choice":3,"state_2_rt":371.19999999925494,"outcome":0,"rocket_colors":["#a75248","#486ea7"],"planet_colors":["#706081","#5b7c65"],"screen_resolution":[1512,945],"minimum_resolution":1,"trial":99,"drifts":[0.586,0.735,0.41,0.338],"drift_ix":1,"trial_type":"two-step-trial","trial_index":131,"time_elapsed":835310,"internal_node_id":"0.0-112.0-0.0","task_version":"1.0","jspsych_version":"6.3.1","browser_interactions":0,"missing":false},{"state_1_ids":[1,0],"state_1_key":0,"state_1_choice":1,"state_1_rt":585,"transition":1,"state":1,"state_2_ids":[2,3],"state_2_key":0,"state_2_choice":2,"state_2_rt":451.90000000037253,"outcome":0,"rocket_colors":["#a75248","#486ea7"],"planet_colors":["#706081","#5b7c65"],"screen_resolution":[1512,945],"minimum_resolution":1,"trial":100,"drifts":[0.591,0.693,0.426,0.36],"drift_ix":1,"trial_type":"two-step-trial","trial_index":132,"time_elapsed":838357,"internal_node_id":"0.0-113.0-0.0","task_version":"1.0","jspsych_version":"6.3.1","browser_interactions":0,"missing":false},{"view_history":"[{\"page_index\":0,\"viewing_time\":2072.5999999996275},{\"page_index\":1,\"viewing_time\":1086.5}]","rt":3159.800000000745,"trial_type":"two-step-instructions","trial_index":133,"time_elapsed":841522,"internal_node_id":"0.0-114.0","task_version":"1.0","jspsych_version":"6.3.1"},{"state_1_ids":[0,1],"state_1_key":0,"state_1_choice":0,"state_1_rt":818.0999999996275,"transition":1,"state":0,"state_2_ids":[0,1],"state_2_key":0,"state_2_choice":0,"state_2_rt":588.1999999992549,"outcome":0,"rocket_colors":["#a75248","#486ea7"],"planet_colors":["#706081","#5b7c65"],"screen_resolution":[1512,945],"minimum_resolution":1,"trial":101,"drifts":[0.639,0.722,0.416,0.356],"drift_ix":1,"trial_type":"two-step-trial","trial_index":134,"time_elapsed":844940,"internal_node_id":"0.0-115.0-0.0","task_version":"1.0","jspsych_version":"6.3.1","browser_interactions":0,"missing":false},{"state_1_ids":[0,1],"state_1_key":0,"state_1_choice":0,"state_1_rt":441.5,"transition":0,"state":1,"state_2_ids":[2,3],"state_2_key":0,"state_2_choice":2,"state_2_rt":646,"outcome":1,"rocket_colors":["#a75248","#486ea7"],"planet_colors":["#706081","#5b7c65"],"screen_resolution":[1512,945],"minimum_resolution":1,"trial":102,"drifts":[0.661,0.749,0.353,0.384],"drift_ix":1,"trial_type":"two-step-trial","trial_index":135,"time_elapsed":848040,"internal_node_id":"0.0-116.0-0.0","task_version":"1.0","jspsych_version":"6.3.1","browser_interactions":0,"missing":false},{"state_1_ids":[0,1],"state_1_key":0,"state_1_choice":0,"state_1_rt":782,"transition":1,"state":0,"state_2_ids":[0,1],"state_2_key":0,"state_2_choice":0,"state_2_rt":870.4000000003725,"outcome":0,"rocket_colors":["#a75248","#486ea7"],"planet_colors":["#706081","#5b7c65"],"screen_resolution":[1512,945],"minimum_resolution":1,"trial":103,"drifts":[0.659,0.729,0.293,0.396],"drift_ix":1,"trial_type":"two-step-trial","trial_index":136,"time_elapsed":851703,"internal_node_id":"0.0-117.0-0.0","task_version":"1.0","jspsych_version":"6.3.1","browser_interactions":0,"missing":false},{"state_1_ids":[0,1],"state_1_key":0,"state_1_choice":0,"state_1_rt":416,"transition":0,"state":1,"state_2_ids":[2,3],"state_2_key":0,"state_2_choice":2,"state_2_rt":482.90000000037253,"outcome":0,"rocket_colors":["#a75248","#486ea7"],"planet_colors":["#706081","#5b7c65"],"screen_resolution":[1512,945],"minimum_resolution":1,"trial":104,"drifts":[0.615,0.721,0.288,0.378],"drift_ix":1,"trial_type":"two-step-trial","trial_index":137,"time_elapsed":854611,"internal_node_id":"0.0-118.0-0.0","task_version":"1.0","jspsych_version":"6.3.1","browser_interactions":0,"missing":false},{"state_1_ids":[0,1],"state_1_key":0,"state_1_choice":0,"state_1_rt":467.5,"transition":1,"state":0,"state_2_ids":[0,1],"state_2_key":1,"state_2_choice":1,"state_2_rt":837.2999999988824,"outcome":1,"rocket_colors":["#a75248","#486ea7"],"planet_colors":["#706081","#5b7c65"],"screen_resolution":[1512,945],"minimum_resolution":1,"trial":105,"drifts":[0.562,0.742,0.297,0.343],"drift_ix":1,"trial_type":"two-step-trial","trial_index":138,"time_elapsed":857926,"internal_node_id":"0.0-119.0-0.0","task_version":"1.0","jspsych_version":"6.3.1","browser_interactions":0,"missing":false},{"state_1_ids":[1,0],"state_1_key":1,"state_1_choice":0,"state_1_rt":707.8000000007451,"transition":1,"state":0,"state_2_ids":[0,1],"state_2_key":1,"state_2_choice":1,"state_2_rt":855.2000000011176,"outcome":1,"rocket_colors":["#a75248","#486ea7"],"planet_colors":["#706081","#5b7c65"],"screen_resolution":[1512,945],"minimum_resolution":1,"trial":106,"drifts":[0.532,0.742,0.25,0.332],"drift_ix":1,"trial_type":"two-step-trial","trial_index":139,"time_elapsed":861501,"internal_node_id":"0.0-120.0-0.0","task_version":"1.0","jspsych_version":"6.3.1","browser_interactions":0,"missing":false},{"state_1_ids":[1,0],"state_1_key":1,"state_1_choice":0,"state_1_rt":396.69999999925494,"transition":1,"state":0,"state_2_ids":[0,1],"state_2_key":1,"state_2_choice":1,"state_2_rt":446.2000000011176,"outcome":1,"rocket_colors":["#a75248","#486ea7"],"planet_colors":["#706081","#5b7c65"],"screen_resolution":[1512,945],"minimum_resolution":1,"trial":107,"drifts":[0.531,0.742,0.255,0.33],"drift_ix":1,"trial_type":"two-step-trial","trial_index":140,"time_elapsed":864358,"internal_node_id":"0.0-121.0-0.0","task_version":"1.0","jspsych_version":"6.3.1","browser_interactions":0,"missing":false},{"state_1_ids":[1,0],"state_1_key":1,"state_1_choice":0,"state_1_rt":423.19999999925494,"transition":1,"state":0,"state_2_ids":[0,1],"state_2_key":1,"state_2_choice":1,"state_2_rt":292.59999999962747,"outcome":1,"rocket_colors":["#a75248","#486ea7"],"planet_colors":["#706081","#5b7c65"],"screen_resolution":[1512,945],"minimum_resolution":1,"trial":108,"drifts":[0.576,0.733,0.281,0.338],"drift_ix":1,"trial_type":"two-step-trial","trial_index":141,"time_elapsed":867086,"internal_node_id":"0.0-122.0-0.0","task_version":"1.0","jspsych_version":"6.3.1","browser_interactions":0,"missing":false},{"state_1_ids":[0,1],"state_1_key":0,"state_1_choice":0,"state_1_rt":640.2999999988824,"transition":0,"state":1,"state_2_ids":[2,3],"state_2_key":1,"state_2_choice":3,"state_2_rt":1384.0999999996275,"outcome":0,"rocket_colors":["#a75248","#486ea7"],"planet_colors":["#706081","#5b7c65"],"screen_resolution":[1512,945],"minimum_resolution":1,"trial":109,"drifts":[0.593,0.74,0.277,0.333],"drift_ix":1,"trial_type":"two-step-trial","trial_index":142,"time_elapsed":871120,"internal_node_id":"0.0-123.0-0.0","task_version":"1.0","jspsych_version":"6.3.1","browser_interactions":0,"missing":false},{"state_1_ids":[0,1],"state_1_key":0,"state_1_choice":0,"state_1_rt":377.5,"transition":0,"state":1,"state_2_ids":[2,3],"state_2_key":0,"state_2_choice":2,"state_2_rt":711.3000000007451,"outcome":0,"rocket_colors":["#a75248","#486ea7"],"planet_colors":["#706081","#5b7c65"],"screen_resolution":[1512,945],"minimum_resolution":1,"trial":110,"drifts":[0.57,0.735,0.318,0.349],"drift_ix":1,"trial_type":"two-step-trial","trial_index":143,"time_elapsed":874220,"internal_node_id":"0.0-124.0-0.0","task_version":"1.0","jspsych_version":"6.3.1","browser_interactions":0,"missing":false},{"state_1_ids":[1,0],"state_1_key":1,"state_1_choice":0,"state_1_rt":533.9000000003725,"transition":1,"state":0,"state_2_ids":[0,1],"state_2_key":1,"state_2_choice":1,"state_2_rt":852.5999999996275,"outcome":1,"rocket_colors":["#a75248","#486ea7"],"planet_colors":["#706081","#5b7c65"],"screen_resolution":[1512,945],"minimum_resolution":1,"trial":111,"drifts":[0.566,0.726,0.306,0.333],"drift_ix":1,"trial_type":"two-step-trial","trial_index":144,"time_elapsed":877622,"internal_node_id":"0.0-125.0-0.0","task_version":"1.0","jspsych_version":"6.3.1","browser_interactions":0,"missing":false},{"state_1_ids":[1,0],"state_1_key":1,"state_1_choice":0,"state_1_rt":513,"transition":1,"state":0,"state_2_ids":[0,1],"state_2_key":1,"state_2_choice":1,"state_2_rt":420.2999999988824,"outcome":1,"rocket_colors":["#a75248","#486ea7"],"planet_colors":["#706081","#5b7c65"],"screen_resolution":[1512,945],"minimum_resolution":1,"trial":112,"drifts":[0.552,0.734,0.35,0.354],"drift_ix":1,"trial_type":"two-step-trial","trial_index":145,"time_elapsed":880570,"internal_node_id":"0.0-126.0-0.0","task_version":"1.0","jspsych_version":"6.3.1","browser_interactions":0,"missing":false},{"state_1_ids":[0,1],"state_1_key":0,"state_1_choice":0,"state_1_rt":1526.7000000011176,"transition":1,"state":0,"state_2_ids":[0,1],"state_2_key":1,"state_2_choice":1,"state_2_rt":581.6999999992549,"outcome":1,"rocket_colors":["#a75248","#486ea7"],"planet_colors":["#706081","#5b7c65"],"screen_resolution":[1512,945],"minimum_resolution":1,"trial":113,"drifts":[0.503,0.684,0.352,0.329],"drift_ix":1,"trial_type":"two-step-trial","trial_index":146,"time_elapsed":884692,"internal_node_id":"0.0-127.0-0.0","task_version":"1.0","jspsych_version":"6.3.1","browser_interactions":0,"missing":false},{"state_1_ids":[1,0],"state_1_key":1,"state_1_choice":0,"state_1_rt":880,"transition":1,"state":0,"state_2_ids":[0,1],"state_2_key":1,"state_2_choice":1,"state_2_rt":330.5,"outcome":0,"rocket_colors":["#a75248","#486ea7"],"planet_colors":["#706081","#5b7c65"],"screen_resolution":[1512,945],"minimum_resolution":1,"trial":114,"drifts":[0.517,0.664,0.374,0.314],"drift_ix":1,"trial_type":"two-step-trial","trial_index":147,"time_elapsed":887914,"internal_node_id":"0.0-128.0-0.0","task_version":"1.0","jspsych_version":"6.3.1","browser_interactions":0,"missing":false},{"state_1_ids":[1,0],"state_1_key":1,"state_1_choice":0,"state_1_rt":524.6000000014901,"transition":1,"state":0,"state_2_ids":[0,1],"state_2_key":1,"state_2_choice":1,"state_2_rt":335.90000000037253,"outcome":0,"rocket_colors":["#a75248","#486ea7"],"planet_colors":["#706081","#5b7c65"],"screen_resolution":[1512,945],"minimum_resolution":1,"trial":115,"drifts":[0.505,0.635,0.405,0.281],"drift_ix":1,"trial_type":"two-step-trial","trial_index":148,"time_elapsed":890788,"internal_node_id":"0.0-129.0-0.0","task_version":"1.0","jspsych_version":"6.3.1","browser_interactions":0,"missing":false},{"state_1_ids":[1,0],"state_1_key":1,"state_1_choice":0,"state_1_rt":612.0999999996275,"transition":0,"state":1,"state_2_ids":[2,3],"state_2_key":1,"state_2_choice":3,"state_2_rt":1411,"outcome":1,"rocket_colors":["#a75248","#486ea7"],"planet_colors":["#706081","#5b7c65"],"screen_resolution":[1512,945],"minimum_resolution":1,"trial":116,"drifts":[0.506,0.651,0.43,0.328],"drift_ix":1,"trial_type":"two-step-trial","trial_index":149,"time_elapsed":894822,"internal_node_id":"0.0-130.0-0.0","task_version":"1.0","jspsych_version":"6.3.1","browser_interactions":0,"missing":false},{"state_1_ids":[1,0],"state_1_key":1,"state_1_choice":0,"state_1_rt":552.2000000011176,"transition":0,"state":1,"state_2_ids":[2,3],"state_2_key":1,"state_2_choice":3,"state_2_rt":671.0999999996275,"outcome":0,"rocket_colors":["#a75248","#486ea7"],"planet_colors":["#706081","#5b7c65"],"screen_resolution":[1512,945],"minimum_resolution":1,"trial":117,"drifts":[0.524,0.623,0.426,0.298],"drift_ix":1,"trial_type":"two-step-trial","trial_index":150,"time_elapsed":898056,"internal_node_id":"0.0-131.0-0.0","task_version":"1.0","jspsych_version":"6.3.1","browser_interactions":0,"missing":false},{"state_1_ids":[0,1],"state_1_key":1,"state_1_choice":1,"state_1_rt":406.59999999962747,"transition":1,"state":1,"state_2_ids":[2,3],"state_2_key":1,"state_2_choice":3,"state_2_rt":471.09999999962747,"outcome":0,"rocket_colors":["#a75248","#486ea7"],"planet_colors":["#706081","#5b7c65"],"screen_resolution":[1512,945],"minimum_resolution":1,"trial":118,"drifts":[0.512,0.652,0.411,0.294],"drift_ix":1,"trial_type":"two-step-trial","trial_index":151,"time_elapsed":900946,"internal_node_id":"0.0-132.0-0.0","task_version":"1.0","jspsych_version":"6.3.1","browser_interactions":0,"missing":false},{"state_1_ids":[1,0],"state_1_key":0,"state_1_choice":1,"state_1_rt":552.4000000003725,"transition":1,"state":1,"state_2_ids":[2,3],"state_2_key":1,"state_2_choice":3,"state_2_rt":549,"outcome":0,"rocket_colors":["#a75248","#486ea7"],"planet_colors":["#706081","#5b7c65"],"screen_resolution":[1512,945],"minimum_resolution":1,"trial":119,"drifts":[0.502,0.652,0.413,0.344],"drift_ix":1,"trial_type":"two-step-trial","trial_index":152,"time_elapsed":904058,"internal_node_id":"0.0-133.0-0.0","task_version":"1.0","jspsych_version":"6.3.1","browser_interactions":0,"missing":false},{"state_1_ids":[1,0],"state_1_key":0,"state_1_choice":1,"state_1_rt":522.8000000007451,"transition":0,"state":0,"state_2_ids":[0,1],"state_2_key":1,"state_2_choice":1,"state_2_rt":910.6999999992549,"outcome":1,"rocket_colors":["#a75248","#486ea7"],"planet_colors":["#706081","#5b7c65"],"screen_resolution":[1512,945],"minimum_resolution":1,"trial":120,"drifts":[0.482,0.631,0.394,0.33],"drift_ix":1,"trial_type":"two-step-trial","trial_index":153,"time_elapsed":907500,"internal_node_id":"0.0-134.0-0.0","task_version":"1.0","jspsych_version":"6.3.1","browser_interactions":0,"missing":false},{"state_1_ids":[1,0],"state_1_key":0,"state_1_choice":1,"state_1_rt":865.1000000014901,"transition":1,"state":1,"state_2_ids":[2,3],"state_2_key":0,"state_2_choice":2,"state_2_rt":1076.9000000003725,"outcome":0,"rocket_colors":["#a75248","#486ea7"],"planet_colors":["#706081","#5b7c65"],"screen_resolution":[1512,945],"minimum_resolution":1,"trial":121,"drifts":[0.447,0.633,0.361,0.325],"drift_ix":1,"trial_type":"two-step-trial","trial_index":154,"time_elapsed":911453,"internal_node_id":"0.0-135.0-0.0","task_version":"1.0","jspsych_version":"6.3.1","browser_interactions":0,"missing":false},{"state_1_ids":[1,0],"state_1_key":1,"state_1_choice":0,"state_1_rt":894.4000000003725,"transition":1,"state":0,"state_2_ids":[0,1],"state_2_key":1,"state_2_choice":1,"state_2_rt":573.4000000003725,"outcome":1,"rocket_colors":["#a75248","#486ea7"],"planet_colors":["#706081","#5b7c65"],"screen_resolution":[1512,945],"minimum_resolution":1,"trial":122,"drifts":[0.451,0.597,0.354,0.284],"drift_ix":1,"trial_type":"two-step-trial","trial_index":155,"time_elapsed":914936,"internal_node_id":"0.0-136.0-0.0","task_version":"1.0","jspsych_version":"6.3.1","browser_interactions":0,"missing":false},{"state_1_ids":[1,0],"state_1_key":1,"state_1_choice":0,"state_1_rt":456.30000000074506,"transition":1,"state":0,"state_2_ids":[0,1],"state_2_key":1,"state_2_choice":1,"state_2_rt":681.2000000011176,"outcome":1,"rocket_colors":["#a75248","#486ea7"],"planet_colors":["#706081","#5b7c65"],"screen_resolution":[1512,945],"minimum_resolution":1,"trial":123,"drifts":[0.511,0.55,0.353,0.29],"drift_ix":1,"trial_type":"two-step-trial","trial_index":156,"time_elapsed":918088,"internal_node_id":"0.0-137.0-0.0","task_version":"1.0","jspsych_version":"6.3.1","browser_interactions":0,"missing":false},{"state_1_ids":[0,1],"state_1_key":1,"state_1_choice":1,"state_1_rt":835.3000000007451,"transition":0,"state":0,"state_2_ids":[0,1],"state_2_key":1,"state_2_choice":1,"state_2_rt":544.2000000011176,"outcome":0,"rocket_colors":["#a75248","#486ea7"],"planet_colors":["#706081","#5b7c65"],"screen_resolution":[1512,945],"minimum_resolution":1,"trial":124,"drifts":[0.523,0.509,0.361,0.326],"drift_ix":1,"trial_type":"two-step-trial","trial_index":157,"time_elapsed":921478,"internal_node_id":"0.0-138.0-0.0","task_version":"1.0","jspsych_version":"6.3.1","browser_interactions":0,"missing":false},{"state_1_ids":[1,0],"state_1_key":0,"state_1_choice":1,"state_1_rt":644.5,"transition":1,"state":1,"state_2_ids":[2,3],"state_2_key":0,"state_2_choice":2,"state_2_rt":1247.800000000745,"outcome":0,"rocket_colors":["#a75248","#486ea7"],"planet_colors":["#706081","#5b7c65"],"screen_resolution":[1512,945],"minimum_resolution":1,"trial":125,"drifts":[0.519,0.49,0.295,0.344],"drift_ix":1,"trial_type":"two-step-trial","trial_index":158,"time_elapsed":925385,"internal_node_id":"0.0-139.0-0.0","task_version":"1.0","jspsych_version":"6.3.1","browser_interactions":0,"missing":false},{"state_1_ids":[1,0],"state_1_key":0,"state_1_choice":1,"state_1_rt":660,"transition":1,"state":1,"state_2_ids":[2,3],"state_2_key":1,"state_2_choice":3,"state_2_rt":471.6000000014901,"outcome":1,"rocket_colors":["#a75248","#486ea7"],"planet_colors":["#706081","#5b7c65"],"screen_resolution":[1512,945],"minimum_resolution":1,"trial":126,"drifts":[0.525,0.444,0.287,0.34],"drift_ix":1,"trial_type":"two-step-trial","trial_index":159,"time_elapsed":928531,"internal_node_id":"0.0-140.0-0.0","task_version":"1.0","jspsych_version":"6.3.1","browser_interactions":0,"missing":false},{"state_1_ids":[1,0],"state_1_key":0,"state_1_choice":1,"state_1_rt":734.7000000011176,"transition":0,"state":0,"state_2_ids":[0,1],"state_2_key":1,"state_2_choice":1,"state_2_rt":639.5,"outcome":0,"rocket_colors":["#a75248","#486ea7"],"planet_colors":["#706081","#5b7c65"],"screen_resolution":[1512,945],"minimum_resolution":1,"trial":127,"drifts":[0.473,0.463,0.278,0.293],"drift_ix":1,"trial_type":"two-step-trial","trial_index":160,"time_elapsed":931916,"internal_node_id":"0.0-141.0-0.0","task_version":"1.0","jspsych_version":"6.3.1","browser_interactions":0,"missing":false},{"state_1_ids":[0,1],"state_1_key":0,"state_1_choice":0,"state_1_rt":900.8000000007451,"transition":1,"state":0,"state_2_ids":[0,1],"state_2_key":1,"state_2_choice":1,"state_2_rt":723.9000000003725,"outcome":1,"rocket_colors":["#a75248","#486ea7"],"planet_colors":["#706081","#5b7c65"],"screen_resolution":[1512,945],"minimum_resolution":1,"trial":128,"drifts":[0.496,0.47,0.277,0.271],"drift_ix":1,"trial_type":"two-step-trial","trial_index":161,"time_elapsed":935550,"internal_node_id":"0.0-142.0-0.0","task_version":"1.0","jspsych_version":"6.3.1","browser_interactions":0,"missing":false},{"state_1_ids":[1,0],"state_1_key":0,"state_1_choice":1,"state_1_rt":591.8000000007451,"transition":0,"state":0,"state_2_ids":[0,1],"state_2_key":1,"state_2_choice":1,"state_2_rt":657.5999999996275,"outcome":0,"rocket_colors":["#a75248","#486ea7"],"planet_colors":["#706081","#5b7c65"],"screen_resolution":[1512,945],"minimum_resolution":1,"trial":129,"drifts":[0.477,0.48,0.264,0.281],"drift_ix":1,"trial_type":"two-step-trial","trial_index":162,"time_elapsed":938812,"internal_node_id":"0.0-143.0-0.0","task_version":"1.0","jspsych_version":"6.3.1","browser_interactions":0,"missing":false},{"state_1_ids":[0,1],"state_1_key":1,"state_1_choice":1,"state_1_rt":790,"transition":1,"state":1,"state_2_ids":[2,3],"state_2_key":1,"state_2_choice":3,"state_2_rt":696.5,"outcome":0,"rocket_colors":["#a75248","#486ea7"],"planet_colors":["#706081","#5b7c65"],"screen_resolution":[1512,945],"minimum_resolution":1,"trial":130,"drifts":[0.494,0.486,0.258,0.258],"drift_ix":1,"trial_type":"two-step-trial","trial_index":163,"time_elapsed":942312,"internal_node_id":"0.0-144.0-0.0","task_version":"1.0","jspsych_version":"6.3.1","browser_interactions":0,"missing":false},{"state_1_ids":[1,0],"state_1_key":0,"state_1_choice":1,"state_1_rt":618.3000000007451,"transition":1,"state":1,"state_2_ids":[2,3],"state_2_key":1,"state_2_choice":3,"state_2_rt":329.90000000037253,"outcome":0,"rocket_colors":["#a75248","#486ea7"],"planet_colors":["#706081","#5b7c65"],"screen_resolution":[1512,945],"minimum_resolution":1,"trial":131,"drifts":[0.493,0.471,0.325,0.274],"drift_ix":1,"trial_type":"two-step-trial","trial_index":164,"time_elapsed":945273,"internal_node_id":"0.0-145.0-0.0","task_version":"1.0","jspsych_version":"6.3.1","browser_interactions":0,"missing":false},{"state_1_ids":[1,0],"state_1_key":0,"state_1_choice":1,"state_1_rt":477.2000000011176,"transition":1,"state":1,"state_2_ids":[2,3],"state_2_key":0,"state_2_choice":2,"state_2_rt":493.5,"outcome":0,"rocket_colors":["#a75248","#486ea7"],"planet_colors":["#706081","#5b7c65"],"screen_resolution":[1512,945],"minimum_resolution":1,"trial":132,"drifts":[0.495,0.414,0.29,0.261],"drift_ix":1,"trial_type":"two-step-trial","trial_index":165,"time_elapsed":948257,"internal_node_id":"0.0-146.0-0.0","task_version":"1.0","jspsych_version":"6.3.1","browser_interactions":0,"missing":false},{"state_1_ids":[0,1],"state_1_key":1,"state_1_choice":1,"state_1_rt":878,"transition":1,"state":1,"state_2_ids":[2,3],"state_2_key":1,"state_2_choice":3,"state_2_rt":331.40000000037253,"outcome":0,"rocket_colors":["#a75248","#486ea7"],"planet_colors":["#706081","#5b7c65"],"screen_resolution":[1512,945],"minimum_resolution":1,"trial":133,"drifts":[0.486,0.393,0.318,0.253],"drift_ix":1,"trial_type":"two-step-trial","trial_index":166,"time_elapsed":951479,"internal_node_id":"0.0-147.0-0.0","task_version":"1.0","jspsych_version":"6.3.1","browser_interactions":0,"missing":false},{"state_1_ids":[1,0],"state_1_key":1,"state_1_choice":0,"state_1_rt":853.5999999996275,"transition":0,"state":1,"state_2_ids":[2,3],"state_2_key":1,"state_2_choice":3,"state_2_rt":1136.7000000011176,"outcome":0,"rocket_colors":["#a75248","#486ea7"],"planet_colors":["#706081","#5b7c65"],"screen_resolution":[1512,945],"minimum_resolution":1,"trial":134,"drifts":[0.485,0.381,0.329,0.268],"drift_ix":1,"trial_type":"two-step-trial","trial_index":167,"time_elapsed":955478,"internal_node_id":"0.0-148.0-0.0","task_version":"1.0","jspsych_version":"6.3.1","browser_interactions":0,"missing":false},{"state_1_ids":[1,0],"state_1_key":1,"state_1_choice":0,"state_1_rt":439.1000000014901,"transition":0,"state":1,"state_2_ids":[2,3],"state_2_key":0,"state_2_choice":2,"state_2_rt":757.2000000011176,"outcome":0,"rocket_colors":["#a75248","#486ea7"],"planet_colors":["#706081","#5b7c65"],"screen_resolution":[1512,945],"minimum_resolution":1,"trial":135,"drifts":[0.476,0.33,0.348,0.266],"drift_ix":1,"trial_type":"two-step-trial","trial_index":168,"time_elapsed":958688,"internal_node_id":"0.0-149.0-0.0","task_version":"1.0","jspsych_version":"6.3.1","browser_interactions":0,"missing":false},{"state_1_ids":[1,0],"state_1_key":0,"state_1_choice":1,"state_1_rt":370.19999999925494,"transition":1,"state":1,"state_2_ids":[2,3],"state_2_key":1,"state_2_choice":3,"state_2_rt":556.8000000007451,"outcome":0,"rocket_colors":["#a75248","#486ea7"],"planet_colors":["#706081","#5b7c65"],"screen_resolution":[1512,945],"minimum_resolution":1,"trial":136,"drifts":[0.408,0.356,0.348,0.276],"drift_ix":1,"trial_type":"two-step-trial","trial_index":169,"time_elapsed":961626,"internal_node_id":"0.0-150.0-0.0","task_version":"1.0","jspsych_version":"6.3.1","browser_interactions":0,"missing":false},{"state_1_ids":[0,1],"state_1_key":1,"state_1_choice":1,"state_1_rt":638.1000000014901,"transition":0,"state":0,"state_2_ids":[0,1],"state_2_key":1,"state_2_choice":1,"state_2_rt":528.1000000014901,"outcome":0,"rocket_colors":["#a75248","#486ea7"],"planet_colors":["#706081","#5b7c65"],"screen_resolution":[1512,945],"minimum_resolution":1,"trial":137,"drifts":[0.444,0.402,0.328,0.271],"drift_ix":1,"trial_type":"two-step-trial","trial_index":170,"time_elapsed":964801,"internal_node_id":"0.0-151.0-0.0","task_version":"1.0","jspsych_version":"6.3.1","browser_interactions":0,"missing":false},{"state_1_ids":[0,1],"state_1_key":1,"state_1_choice":1,"state_1_rt":620.4000000003725,"transition":0,"state":0,"state_2_ids":[0,1],"state_2_key":0,"state_2_choice":0,"state_2_rt":469.30000000074506,"outcome":1,"rocket_colors":["#a75248","#486ea7"],"planet_colors":["#706081","#5b7c65"],"screen_resolution":[1512,945],"minimum_resolution":1,"trial":138,"drifts":[0.443,0.378,0.381,0.256],"drift_ix":1,"trial_type":"two-step-trial","trial_index":171,"time_elapsed":967901,"internal_node_id":"0.0-152.0-0.0","task_version":"1.0","jspsych_version":"6.3.1","browser_interactions":0,"missing":false},{"state_1_ids":[1,0],"state_1_key":0,"state_1_choice":1,"state_1_rt":710.2000000011176,"transition":1,"state":1,"state_2_ids":[2,3],"state_2_key":0,"state_2_choice":2,"state_2_rt":882.3000000007451,"outcome":0,"rocket_colors":["#a75248","#486ea7"],"planet_colors":["#706081","#5b7c65"],"screen_resolution":[1512,945],"minimum_resolution":1,"trial":139,"drifts":[0.465,0.376,0.423,0.302],"drift_ix":1,"trial_type":"two-step-trial","trial_index":172,"time_elapsed":971506,"internal_node_id":"0.0-153.0-0.0","task_version":"1.0","jspsych_version":"6.3.1","browser_interactions":0,"missing":false},{"state_1_ids":[0,1],"state_1_key":1,"state_1_choice":1,"state_1_rt":635.0999999996275,"transition":1,"state":1,"state_2_ids":[2,3],"state_2_key":1,"state_2_choice":3,"state_2_rt":674.6000000014901,"outcome":1,"rocket_colors":["#a75248","#486ea7"],"planet_colors":["#706081","#5b7c65"],"screen_resolution":[1512,945],"minimum_resolution":1,"trial":140,"drifts":[0.503,0.356,0.419,0.307],"drift_ix":1,"trial_type":"two-step-trial","trial_index":173,"time_elapsed":974826,"internal_node_id":"0.0-154.0-0.0","task_version":"1.0","jspsych_version":"6.3.1","browser_interactions":0,"missing":false},{"state_1_ids":[1,0],"state_1_key":0,"state_1_choice":1,"state_1_rt":1124.300000000745,"transition":1,"state":1,"state_2_ids":[2,3],"state_2_key":1,"state_2_choice":3,"state_2_rt":539.5,"outcome":0,"rocket_colors":["#a75248","#486ea7"],"planet_colors":["#706081","#5b7c65"],"screen_resolution":[1512,945],"minimum_resolution":1,"trial":141,"drifts":[0.498,0.362,0.406,0.333],"drift_ix":1,"trial_type":"two-step-trial","trial_index":174,"time_elapsed":978501,"internal_node_id":"0.0-155.0-0.0","task_version":"1.0","jspsych_version":"6.3.1","browser_interactions":0,"missing":false},{"state_1_ids":[0,1],"state_1_key":1,"state_1_choice":1,"state_1_rt":456.59999999962747,"transition":1,"state":1,"state_2_ids":[2,3],"state_2_key":1,"state_2_choice":3,"state_2_rt":659.5,"outcome":1,"rocket_colors":["#a75248","#486ea7"],"planet_colors":["#706081","#5b7c65"],"screen_resolution":[1512,945],"minimum_resolution":1,"trial":142,"drifts":[0.462,0.376,0.412,0.337],"drift_ix":1,"trial_type":"two-step-trial","trial_index":175,"time_elapsed":981630,"internal_node_id":"0.0-156.0-0.0","task_version":"1.0","jspsych_version":"6.3.1","browser_interactions":0,"missing":false},{"state_1_ids":[1,0],"state_1_key":1,"state_1_choice":0,"state_1_rt":775.9000000003725,"transition":0,"state":1,"state_2_ids":[2,3],"state_2_key":1,"state_2_choice":3,"state_2_rt":645,"outcome":0,"rocket_colors":["#a75248","#486ea7"],"planet_colors":["#706081","#5b7c65"],"screen_resolution":[1512,945],"minimum_resolution":1,"trial":143,"drifts":[0.494,0.345,0.399,0.358],"drift_ix":1,"trial_type":"two-step-trial","trial_index":176,"time_elapsed":985060,"internal_node_id":"0.0-157.0-0.0","task_version":"1.0","jspsych_version":"6.3.1","browser_interactions":0,"missing":false},{"state_1_ids":[0,1],"state_1_key":1,"state_1_choice":1,"state_1_rt":531.1999999992549,"transition":1,"state":1,"state_2_ids":[2,3],"state_2_key":0,"state_2_choice":2,"state_2_rt":493.90000000037253,"outcome":1,"rocket_colors":["#a75248","#486ea7"],"planet_colors":["#706081","#5b7c65"],"screen_resolution":[1512,945],"minimum_resolution":1,"trial":144,"drifts":[0.471,0.35,0.398,0.37],"drift_ix":1,"trial_type":"two-step-trial","trial_index":177,"time_elapsed":988097,"internal_node_id":"0.0-158.0-0.0","task_version":"1.0","jspsych_version":"6.3.1","browser_interactions":0,"missing":false},{"state_1_ids":[0,1],"state_1_key":1,"state_1_choice":1,"state_1_rt":796.5999999996275,"transition":1,"state":1,"state_2_ids":[2,3],"state_2_key":0,"state_2_choice":2,"state_2_rt":424.59999999962747,"outcome":1,"rocket_colors":["#a75248","#486ea7"],"planet_colors":["#706081","#5b7c65"],"screen_resolution":[1512,945],"minimum_resolution":1,"trial":145,"drifts":[0.465,0.328,0.41,0.376],"drift_ix":1,"trial_type":"two-step-trial","trial_index":178,"time_ela