[{"responses":{"Q09":"1","Q02":"2","Q04":"3","Q05":"1","Q13":"1","Q14":"2","Q10":"1","Q11":"1","Q15":"1","Q06":"2","Q01":"1","Q07":"2","Q03":"1","Q12":"1","Q08":"3"},"rt":139925.00000004657,"survey":"7up7down","trial_type":"survey-template","trial_index":0,"time_elapsed":139959,"internal_node_id":"0.0-0.0","task_version":"screening-mturk"},{"responses":{"Q09":"2","Q10":"1","Q08":"1","Q03":"2","Q06":"1","Q13":"0","Q12":"1","Q04":"1","Q02":"1","Q05":"2","Q07":"3","Q01":"2","Q11":"3"},"rt":99871.99999997392,"survey":"bisbas","trial_type":"survey-template","trial_index":1,"time_elapsed":239850,"internal_node_id":"0.0-1.0","task_version":"screening-mturk"},{"responses":{"Q01":"2","Q07":"3","Q03":"2","Q10":"2","Q15":"3","Q09":"2","Q14":"3","Q05":"3","Q12":"2","Q02":"2","Q08":"3","Q11":"2","Q04":"1","Q06":"2","Q13":"3"},"rt":65584.99999996275,"survey":"shaps","trial_type":"survey-template","trial_index":2,"time_elapsed":305460,"internal_node_id":"0.0-2.0","task_version":"screening-mturk"},{"responses":{"Q01":"2","Q03":"1","Q02":"1"},"rt":30743.999999947846,"survey":"pswq","trial_type":"survey-template","trial_index":3,"time_elapsed":336214,"internal_node_id":"0.0-3.0","task_version":"screening-mturk"},{"responses":{"Q03":"0","Q08":"1","Q06":"2","Q07":"1","Q04":"1","Q05":"0","Q02":"1","Q01":"2"},"rt":23012.000000104308,"survey":"gad7","trial_type":"survey-template","trial_index":4,"time_elapsed":359238,"internal_node_id":"0.0-4.0","task_version":"screening-mturk"},{"view_history":"[{\"page_index\":0,\"viewing_time\":7006.999999983236},{\"page_index\":1,\"viewing_time\":11784.999999916181},{\"page_index\":2,\"viewing_time\":34263.99999996647},{\"page_index\":3,\"viewing_time\":13819.00000013411},{\"page_index\":4,\"viewing_time\":2453.999999910593},{\"page_index\":3,\"viewing_time\":4598.9999999292195},{\"page_index\":4,\"viewing_time\":11945.999999996275},{\"page_index\":5,\"viewing_time\":6055.000000167638},{\"page_index\":6,\"viewing_time\":11321.999999927357},{\"page_index\":7,\"viewing_time\":3516.0000000614673}]","rt":106766.99999999255,"trial_type":"instructions","trial_index":5,"time_elapsed":466010,"internal_node_id":"0.0-5.0-0.0","task_version":"screening-mturk"},{"responses":["True","False","True","False","True"],"num_errors":2,"rt":26652.000000001863,"trial_type":"three-arm-comprehension","trial_index":6,"time_elapsed":492675,"internal_node_id":"0.0-5.0-1.0","task_version":"screening-mturk"},{"view_history":"[{\"page_index\":0,\"viewing_time\":3490.999999921769},{\"page_index\":1,\"viewing_time\":6584.000000031665},{\"page_index\":2,\"viewing_time\":5638.00000003539},{\"page_index\":3,\"viewing_time\":1655.9999999590218},{\"page_index\":4,\"viewing_time\":2813.0000000819564},{\"page_index\":5,\"viewing_time\":2746.999999973923},{\"page_index\":6,\"viewing_time\":1480.9999999124557},{\"page_index\":7,\"viewing_time\":1552.000000141561}]","rt":25964.99999985099,"trial_type":"instructions","trial_index":7,"time_elapsed":518661,"internal_node_id":"0.0-5.1-0.1","task_version":"screening-mturk"},{"responses":["False","True","False","True","True"],"num_errors":2,"rt":22322.99999985844,"trial_type":"three-arm-comprehension","trial_index":8,"time_elapsed":540990,"internal_node_id":"0.0-5.1-1.1","task_version":"screening-mturk"},{"view_history":"[{\"page_index\":0,\"viewing_time\":2574.0000000223517},{\"page_index\":1,\"viewing_time\":1934.0000001247972},{\"page_index\":2,\"viewing_time\":1902.9999999329448},{\"page_index\":3,\"viewing_time\":1302.9999998398125},{\"page_index\":4,\"viewing_time\":6332.000000169501},{\"page_index\":5,\"viewing_time\":1256.9999999832362},{\"page_index\":6,\"viewing_time\":910.9999998472631},{\"page_index\":7,\"viewing_time\":2327.000000048429}]","rt":18540.999999968335,"trial_type":"instructions","trial_index":9,"time_elapsed":559539,"internal_node_id":"0.0-5.2-0.2","task_version":"screening-mturk"},{"responses":["True","False","True","True","False"],"num_errors":4,"rt":8684.000000124797,"trial_type":"three-arm-comprehension","trial_index":10,"time_elapsed":568232,"internal_node_id":"0.0-5.2-1.2","task_version":"screening-mturk"},{"view_history":"[{\"page_index\":0,\"viewing_time\":6121.999999973923},{\"page_index\":1,\"viewing_time\":9275.000000139698},{\"page_index\":2,\"viewing_time\":7797.000000020489},{\"page_index\":3,\"viewing_time\":5430.99999986589},{\"page_index\":4,\"viewing_time\":6120.000000111759},{\"page_index\":5,\"viewing_time\":5642.999999923632},{\"page_index\":6,\"viewing_time\":6073.00000009127},{\"page_index\":7,\"viewing_time\":3138.9999999664724}]","rt":49600.00000009313,"trial_type":"instructions","trial_index":11,"time_elapsed":617840,"internal_node_id":"0.0-5.3-0.3","task_version":"screening-mturk"},{"responses":["True","True","False","False","True"],"num_errors":0,"rt":26918.999999994412,"trial_type":"three-arm-comprehension","trial_index":12,"time_elapsed":644766,"internal_node_id":"0.0-5.3-1.3","task_version":"screening-mturk"},{"view_history":"[{\"page_index\":0,\"viewing_time\":2590.9999997820705}]","rt":2590.9999997820705,"trial_type":"instructions","trial_index":13,"time_elapsed":647363,"internal_node_id":"0.0-6.0","task_version":"screening-mturk"},{"contexts":["blue","red","green"],"outcomes":[1,0,0],"key":37,"choice":0,"rt":6523.999999975786,"outcome":1,"trial":1,"correct":0,"trial_type":"three-arm-trial","trial_index":14,"time_elapsed":655100,"internal_node_id":"0.0-7.0-0.0","task_version":"screening-mturk","missing":false,"accuracy":1},{"contexts":["blue","red","green"],"outcomes":[1,0,1],"key":37,"choice":0,"rt":1325.999999884516,"outcome":1,"trial":2,"correct":0,"trial_type":"three-arm-trial","trial_index":15,"time_elapsed":657633,"internal_node_id":"0.0-8.0-0.0","task_version":"screening-mturk","missing":false,"accuracy":1},{"contexts":["blue","red","green"],"outcomes":[0,1,0],"key":37,"choice":0,"rt":257.9999999143183,"outcome":0,"trial":3,"correct":0,"trial_type":"three-arm-trial","trial_index":16,"time_elapsed":659103,"internal_node_id":"0.0-9.0-0.0","task_version":"screening-mturk","missing":false,"accuracy":1},{"contexts":["blue","red","green"],"outcomes":[0,1,0],"key":38,"choice":1,"rt":1173.0000001844019,"outcome":1,"trial":4,"correct":0,"trial_type":"three-arm-trial","trial_index":17,"time_elapsed":661485,"internal_node_id":"0.0-10.0-0.0","task_version":"screening-mturk","missing":false,"accuracy":0},{"contexts":["blue","red","green"],"outcomes":[1,0,0],"key":39,"choice":2,"rt":1017.9999999236315,"outcome":0,"trial":5,"correct":0,"trial_type":"three-arm-trial","trial_index":18,"time_elapsed":663709,"internal_node_id":"0.0-11.0-0.0","task_version":"screening-mturk","missing":false,"accuracy":0},{"contexts":["blue","red","green"],"outcomes":[1,0,1],"key":38,"choice":1,"rt":293.99999999441206,"outcome":0,"trial":6,"correct":0,"trial_type":"three-arm-trial","trial_index":19,"time_elapsed":665212,"internal_node_id":"0.0-12.0-0.0","task_version":"screening-mturk","missing":false,"accuracy":0},{"contexts":["blue","red","green"],"outcomes":[0,0,0],"key":38,"choice":1,"rt":452.0000000484288,"outcome":0,"trial":7,"correct":0,"trial_type":"three-arm-trial","trial_index":20,"time_elapsed":666871,"internal_node_id":"0.0-13.0-0.0","task_version":"screening-mturk","missing":false,"accuracy":0},{"contexts":["blue","red","green"],"outcomes":[1,0,0],"key":39,"choice":2,"rt":58.99999989196658,"outcome":0,"trial":8,"correct":0,"trial_type":"three-arm-trial","trial_index":21,"time_elapsed":668136,"internal_node_id":"0.0-14.0-0.0","task_version":"screening-mturk","missing":false,"accuracy":0},{"contexts":["blue","red","green"],"outcomes":[1,0,1],"key":37,"choice":0,"rt":324.00000002235174,"outcome":1,"trial":9,"correct":0,"trial_type":"three-arm-trial","trial_index":22,"time_elapsed":669668,"internal_node_id":"0.0-15.0-0.0","task_version":"screening-mturk","missing":false,"accuracy":1},{"contexts":["blue","red","green"],"outcomes":[1,1,1],"key":37,"choice":0,"rt":804.0000000037253,"outcome":1,"trial":10,"correct":0,"trial_type":"three-arm-trial","trial_index":23,"time_elapsed":671677,"internal_node_id":"0.0-16.0-0.0","task_version":"screening-mturk","missing":false,"accuracy":1},{"contexts":["blue","red","green"],"outcomes":[1,0,0],"key":37,"choice":0,"rt":168.99999999441206,"outcome":1,"trial":11,"correct":0,"trial_type":"three-arm-trial","trial_index":24,"time_elapsed":673050,"internal_node_id":"0.0-17.0-0.0","task_version":"screening-mturk","missing":false,"accuracy":1},{"contexts":["blue","red","green"],"outcomes":[1,0,0],"key":38,"choice":1,"rt":710.9999998938292,"outcome":0,"trial":12,"correct":0,"trial_type":"three-arm-trial","trial_index":25,"time_elapsed":674966,"internal_node_id":"0.0-18.0-0.0","task_version":"screening-mturk","missing":false,"accuracy":0},{"contexts":["blue","red","green"],"outcomes":[1,1,0],"key":37,"choice":0,"rt":225.00000009313226,"outcome":1,"trial":13,"correct":0,"trial_type":"three-arm-trial","trial_index":26,"time_elapsed":676398,"internal_node_id":"0.0-19.0-0.0","task_version":"screening-mturk","missing":false,"accuracy":1},{"contexts":["blue","red","green"],"outcomes":[1,0,1],"key":38,"choice":1,"rt":539.0000001061708,"outcome":0,"trial":14,"correct":0,"trial_type":"three-arm-trial","trial_index":27,"time_elapsed":678146,"internal_node_id":"0.0-20.0-0.0","task_version":"screening-mturk","missing":false,"accuracy":0},{"contexts":["blue","red","green"],"outcomes":[1,0,0],"key":39,"choice":2,"rt":705.0000000745058,"outcome":0,"trial":15,"correct":0,"trial_type":"three-arm-trial","trial_index":28,"time_elapsed":680053,"internal_node_id":"0.0-21.0-0.0","task_version":"screening-mturk","missing":false,"accuracy":0},{"contexts":["blue","red","green"],"outcomes":[0,0,0],"key":37,"choice":0,"rt":452.0000000484288,"outcome":0,"trial":16,"correct":2,"trial_type":"three-arm-trial","trial_index":29,"time_elapsed":681713,"internal_node_id":"0.0-22.0-0.0","task_version":"screening-mturk","missing":false,"accuracy":0},{"contexts":["blue","red","green"],"outcomes":[0,0,0],"key":37,"choice":0,"rt":587.000000057742,"outcome":0,"trial":17,"correct":2,"trial_type":"three-arm-trial","trial_index":30,"time_elapsed":683519,"internal_node_id":"0.0-23.0-0.0","task_version":"screening-mturk","missing":false,"accuracy":0},{"contexts":["blue","red","green"],"outcomes":[1,0,0],"key":38,"choice":1,"rt":609.9999998696148,"outcome":0,"trial":18,"correct":2,"trial_type":"three-arm-trial","trial_index":31,"time_elapsed":685336,"internal_node_id":"0.0-24.0-0.0","task_version":"screening-mturk","missing":false,"accuracy":0},{"contexts":["blue","red","green"],"outcomes":[0,0,1],"key":39,"choice":2,"rt":916.0000002011657,"outcome":1,"trial":19,"correct":2,"trial_type":"three-arm-trial","trial_index":32,"time_elapsed":687459,"internal_node_id":"0.0-25.0-0.0","task_version":"screening-mturk","missing":false,"accuracy":1},{"contexts":["blue","red","green"],"outcomes":[0,0,1],"key":39,"choice":2,"rt":132.00000021606684,"outcome":1,"trial":20,"correct":2,"trial_type":"three-arm-trial","trial_index":33,"time_elapsed":688795,"internal_node_id":"0.0-26.0-0.0","task_version":"screening-mturk","missing":false,"accuracy":1},{"contexts":["blue","red","green"],"outcomes":[1,1,1],"key":39,"choice":2,"rt":230.99999991245568,"outcome":1,"trial":21,"correct":2,"trial_type":"three-arm-trial","trial_index":34,"time_elapsed":690232,"internal_node_id":"0.0-27.0-0.0","task_version":"screening-mturk","missing":false,"accuracy":1},{"contexts":["blue","red","green"],"outcomes":[0,1,1],"key":39,"choice":2,"rt":230.99999991245568,"outcome":1,"trial":22,"correct":2,"trial_type":"three-arm-trial","trial_index":35,"time_elapsed":691678,"internal_node_id":"0.0-28.0-0.0","task_version":"screening-mturk","missing":false,"accuracy":1},{"contexts":["blue","red","green"],"outcomes":[0,0,1],"key":39,"choice":2,"rt":114.99999999068677,"outcome":1,"trial":23,"correct":2,"trial_type":"three-arm-trial","trial_index":36,"time_elapsed":692996,"internal_node_id":"0.0-29.0-0.0","task_version":"screening-mturk","missing":false,"accuracy":1},{"contexts":["blue","red","green"],"outcomes":[0,0,1],"key":37,"choice":0,"rt":1000,"outcome":0,"trial":24,"correct":2,"trial_type":"three-arm-trial","trial_index":37,"time_elapsed":695216,"internal_node_id":"0.0-30.0-0.0","task_version":"screening-mturk","missing":false,"accuracy":0},{"contexts":["blue","red","green"],"outcomes":[0,0,1],"key":39,"choice":2,"rt":1003.9999999571592,"outcome":1,"trial":25,"correct":2,"trial_type":"three-arm-trial","trial_index":38,"time_elapsed":697431,"internal_node_id":"0.0-31.0-0.0","task_version":"screening-mturk","missing":false,"accuracy":1},{"contexts":["blue","red","green"],"outcomes":[0,0,1],"key":38,"choice":1,"rt":516.9999999925494,"outcome":0,"trial":26,"correct":2,"trial_type":"three-arm-trial","trial_index":39,"time_elapsed":699159,"internal_node_id":"0.0-32.0-0.0","task_version":"screening-mturk","missing":false,"accuracy":0},{"contexts":["blue","red","green"],"outcomes":[0,0,1],"key":39,"choice":2,"rt":101.00000002421439,"outcome":1,"trial":27,"correct":2,"trial_type":"three-arm-trial","trial_index":40,"time_elapsed":700467,"internal_node_id":"0.0-33.0-0.0","task_version":"screening-mturk","missing":false,"accuracy":1},{"contexts":["blue","red","green"],"outcomes":[0,0,1],"key":39,"choice":2,"rt":129.9999998882413,"outcome":1,"trial":28,"correct":2,"trial_type":"three-arm-trial","trial_index":41,"time_elapsed":701812,"internal_node_id":"0.0-34.0-0.0","task_version":"screening-mturk","missing":false,"accuracy":1},{"contexts":["blue","red","green"],"outcomes":[1,0,0],"key":39,"choice":2,"rt":51.99999990873039,"outcome":0,"trial":29,"correct":2,"trial_type":"three-arm-trial","trial_index":42,"time_elapsed":703081,"internal_node_id":"0.0-35.0-0.0","task_version":"screening-mturk","missing":false,"accuracy":1},{"contexts":["blue","red","green"],"outcomes":[1,0,1],"key":38,"choice":1,"rt":169.9999999254942,"outcome":0,"trial":30,"correct":2,"trial_type":"three-arm-trial","trial_index":43,"time_elapsed":704473,"internal_node_id":"0.0-36.0-0.0","task_version":"screening-mturk","missing":false,"accuracy":0},{"contexts":["blue","red","green"],"outcomes":[1,1,0],"key":37,"choice":0,"rt":84.00000003166497,"outcome":1,"trial":31,"correct":1,"trial_type":"three-arm-trial","trial_index":44,"time_elapsed":705765,"internal_node_id":"0.0-37.0-0.0","task_version":"screening-mturk","missing":false,"accuracy":0},{"contexts":["blue","red","green"],"outcomes":[0,1,0],"key":37,"choice":0,"rt":224.00000016205013,"outcome":0,"trial":32,"correct":1,"trial_type":"three-arm-trial","trial_index":45,"time_elapsed":707192,"internal_node_id":"0.0-38.0-0.0","task_version":"screening-mturk","missing":false,"accuracy":0},{"contexts":["blue","red","green"],"outcomes":[0,1,0],"key":39,"choice":2,"rt":150.99999983794987,"outcome":0,"trial":33,"correct":1,"trial_type":"three-arm-trial","trial_index":46,"time_elapsed":708549,"internal_node_id":"0.0-39.0-0.0","task_version":"screening-mturk","missing":false,"accuracy":0},{"contexts":["blue","red","green"],"outcomes":[0,1,0],"key":38,"choice":1,"rt":179.0000000037253,"outcome":1,"trial":34,"correct":1,"trial_type":"three-arm-trial","trial_index":47,"time_elapsed":709932,"internal_node_id":"0.0-40.0-0.0","task_version":"screening-mturk","missing":false,"accuracy":1},{"contexts":["blue","red","green"],"outcomes":[1,1,0],"key":38,"choice":1,"rt":0.9999999310821295,"outcome":1,"trial":35,"correct":1,"trial_type":"three-arm-trial","trial_index":48,"time_elapsed":711158,"internal_node_id":"0.0-41.0-0.0","task_version":"screening-mturk","missing":false,"accuracy":1},{"contexts":["blue","red","green"],"outcomes":[0,1,1],"key":38,"choice":1,"rt":41.99999989941716,"outcome":1,"trial":36,"correct":1,"trial_type":"three-arm-trial","trial_index":49,"time_elapsed":712434,"internal_node_id":"0.0-42.0-0.0","task_version":"screening-mturk","missing":false,"accuracy":1},{"contexts":["blue","red","green"],"outcomes":[0,1,0],"key":38,"choice":1,"rt":3.000000026077032,"outcome":1,"trial":37,"correct":1,"trial_type":"three-arm-trial","trial_index":50,"time_elapsed":713648,"internal_node_id":"0.0-43.0-0.0","task_version":"screening-mturk","missing":false,"accuracy":1},{"contexts":["blue","red","green"],"outcomes":[0,1,1],"key":38,"choice":1,"rt":91.00000001490116,"outcome":1,"trial":38,"correct":1,"trial_type":"three-arm-trial","trial_index":51,"time_elapsed":714962,"internal_node_id":"0.0-44.0-0.0","task_version":"screening-mturk","missing":false,"accuracy":1},{"contexts":["blue","red","green"],"outcomes":[0,0,0],"key":37,"choice":0,"rt":266.0000000614673,"outcome":0,"trial":39,"correct":1,"trial_type":"three-arm-trial","trial_index":52,"time_elapsed":716443,"internal_node_id":"0.0-45.0-0.0","task_version":"screening-mturk","missing":false,"accuracy":0},{"contexts":["blue","red","green"],"outcomes":[1,1,0],"key":39,"choice":2,"rt":278.9999998640269,"outcome":0,"trial":40,"correct":1,"trial_type":"three-arm-trial","trial_index":53,"time_elapsed":717938,"internal_node_id":"0.0-46.0-0.0","task_version":"screening-mturk","missing":false,"accuracy":0},{"contexts":["blue","red","green"],"outcomes":[0,1,0],"key":38,"choice":1,"rt":158.0000000540167,"outcome":1,"trial":41,"correct":1,"trial_type":"three-arm-trial","trial_index":54,"time_elapsed":719320,"internal_node_id":"0.0-47.0-0.0","task_version":"screening-mturk","missing":false,"accuracy":1},{"contexts":["blue","red","green"],"outcomes":[0,0,0],"key":38,"choice":1,"rt":57.99999996088445,"outcome":0,"trial":42,"correct":1,"trial_type":"three-arm-trial","trial_index":55,"time_elapsed":720588,"internal_node_id":"0.0-48.0-0.0","task_version":"screening-mturk","missing":false,"accuracy":1},{"contexts":["blue","red","green"],"outcomes":[0,1,1],"key":37,"choice":0,"rt":94.99999997206032,"outcome":0,"trial":43,"correct":1,"trial_type":"three-arm-trial","trial_index":56,"time_elapsed":721901,"internal_node_id":"0.0-49.0-0.0","task_version":"screening-mturk","missing":false,"accuracy":0},{"contexts":["blue","red","green"],"outcomes":[0,1,0],"key":39,"choice":2,"rt":59.000000124797225,"outcome":0,"trial":44,"correct":1,"trial_type":"three-arm-trial","trial_index":57,"time_elapsed":723187,"internal_node_id":"0.0-50.0-0.0","task_version":"screening-mturk","missing":false,"accuracy":0},{"contexts":["blue","red","green"],"outcomes":[1,1,0],"key":38,"choice":1,"rt":162.999999942258,"outcome":1,"trial":45,"correct":1,"trial_type":"three-arm-trial","trial_index":58,"time_elapsed":724553,"internal_node_id":"0.0-51.0-0.0","task_version":"screening-mturk","missing":false,"accuracy":1},{"contexts":["blue","red","green"],"outcomes":[0,0,1],"key":38,"choice":1,"rt":91.00000001490116,"outcome":0,"trial":46,"correct":2,"trial_type":"three-arm-trial","trial_index":59,"time_elapsed":725870,"internal_node_id":"0.0-52.0-0.0","task_version":"screening-mturk","missing":false,"accuracy":0},{"contexts":["blue","red","green"],"outcomes":[0,0,1],"key":37,"choice":0,"rt":125,"outcome":0,"trial":47,"correct":2,"trial_type":"three-arm-trial","trial_index":60,"time_elapsed":727196,"internal_node_id":"0.0-53.0-0.0","task_version":"screening-mturk","missing":false,"accuracy":0},{"contexts":["blue","red","green"],"outcomes":[0,1,1],"key":39,"choice":2,"rt":138.00000003539026,"outcome":1,"trial":48,"correct":2,"trial_type":"three-arm-trial","trial_index":61,"time_elapsed":728542,"internal_node_id":"0.0-54.0-0.0","task_version":"screening-mturk","missing":false,"accuracy":1},{"contexts":["blue","red","green"],"outcomes":[0,1,1],"key":39,"choice":2,"rt":23.000000044703484,"outcome":1,"trial":49,"correct":2,"trial_type":"three-arm-trial","trial_index":62,"time_elapsed":729784,"internal_node_id":"0.0-55.0-0.0","task_version":"screening-mturk","missing":false,"accuracy":1},{"contexts":["blue","red","green"],"outcomes":[0,0,1],"key":39,"choice":2,"rt":71.99999992735684,"outcome":1,"trial":50,"correct":2,"trial_type":"three-arm-trial","trial_index":63,"time_elapsed":731065,"internal_node_id":"0.0-56.0-0.0","task_version":"screening-mturk","missing":false,"accuracy":1},{"contexts":["blue","red","green"],"outcomes":[0,1,1],"key":39,"choice":2,"rt":95.99999990314245,"outcome":1,"trial":51,"correct":2,"trial_type":"three-arm-trial","trial_index":64,"time_elapsed":732372,"internal_node_id":"0.0-57.0-0.0","task_version":"screening-mturk","missing":false,"accuracy":1},{"contexts":["blue","red","green"],"outcomes":[0,0,1],"key":39,"choice":2,"rt":10.000000009313226,"outcome":1,"trial":52,"correct":2,"trial_type":"three-arm-trial","trial_index":65,"time_elapsed":733629,"internal_node_id":"0.0-58.0-0.0","task_version":"screening-mturk","missing":false,"accuracy":1},{"contexts":["blue","red","green"],"outcomes":[0,0,1],"key":39,"choice":2,"rt":216.00000001490116,"outcome":1,"trial":53,"correct":2,"trial_type":"three-arm-trial","trial_index":66,"time_elapsed":735090,"internal_node_id":"0.0-59.0-0.0","task_version":"screening-mturk","missing":false,"accuracy":1},{"contexts":["blue","red","green"],"outcomes":[1,0,1],"key":39,"choice":2,"rt":74.99999995343387,"outcome":1,"trial":54,"correct":2,"trial_type":"three-arm-trial","trial_index":67,"time_elapsed":736374,"internal_node_id":"0.0-60.0-0.0","task_version":"screening-mturk","missing":false,"accuracy":1},{"contexts":["blue","red","green"],"outcomes":[0,0,0],"key":37,"choice":0,"rt":142.99999992363155,"outcome":0,"trial":55,"correct":2,"trial_type":"three-arm-trial","trial_index":68,"time_elapsed":737743,"internal_node_id":"0.0-61.0-0.0","task_version":"screening-mturk","missing":false,"accuracy":0},{"contexts":["blue","red","green"],"outcomes":[0,0,1],"key":39,"choice":2,"rt":129.0000001899898,"outcome":1,"trial":56,"correct":2,"trial_type":"three-arm-trial","trial_index":69,"time_elapsed":739080,"internal_node_id":"0.0-62.0-0.0","task_version":"screening-mturk","missing":false,"accuracy":1},{"contexts":["blue","red","green"],"outcomes":[0,1,1],"key":39,"choice":2,"rt":47.0000000204891,"outcome":1,"trial":57,"correct":2,"trial_type":"three-arm-trial","trial_index":70,"time_elapsed":740340,"internal_node_id":"0.0-63.0-0.0","task_version":"screening-mturk","missing":false,"accuracy":1},{"contexts":["blue","red","green"],"outcomes":[0,0,1],"key":39,"choice":2,"rt":171.00000008940697,"outcome":1,"trial":58,"correct":2,"trial_type":"three-arm-trial","trial_index":71,"time_elapsed":741723,"internal_node_id":"0.0-64.0-0.0","task_version":"screening-mturk","missing":false,"accuracy":1},{"contexts":["blue","red","green"],"outcomes":[1,0,1],"key":39,"choice":2,"rt":656.9999998901039,"outcome":1,"trial":59,"correct":2,"trial_type":"three-arm-trial","trial_index":72,"time_elapsed":743590,"internal_node_id":"0.0-65.0-0.0","task_version":"screening-mturk","missing":false,"accuracy":1},{"contexts":["blue","red","green"],"outcomes":[1,1,0],"key":39,"choice":2,"rt":57.00000002980232,"outcome":0,"trial":60,"correct":2,"trial_type":"three-arm-trial","trial_index":73,"time_elapsed":744856,"internal_node_id":"0.0-66.0-0.0","task_version":"screening-mturk","missing":false,"accuracy":1},{"contexts":["blue","red","green"],"outcomes":[1,1,0],"key":39,"choice":2,"rt":207.0000001695007,"outcome":0,"trial":61,"correct":1,"trial_type":"three-arm-trial","trial_index":74,"time_elapsed":746279,"internal_node_id":"0.0-67.0-0.0","task_version":"screening-mturk","missing":false,"accuracy":0},{"contexts":["blue","red","green"],"outcomes":[0,1,0],"key":38,"choice":1,"rt":266.0000000614673,"outcome":1,"trial":62,"correct":1,"trial_type":"three-arm-trial","trial_index":75,"time_elapsed":747749,"internal_node_id":"0.0-68.0-0.0","task_version":"screening-mturk","missing":false,"accuracy":1},{"contexts":["blue","red","green"],"outcomes":[0,1,0],"key":38,"choice":1,"rt":165.99999996833503,"outcome":1,"trial":63,"correct":1,"trial_type":"three-arm-trial","trial_index":76,"time_elapsed":749121,"internal_node_id":"0.0-69.0-0.0","task_version":"screening-mturk","missing":false,"accuracy":1},{"contexts":["blue","red","green"],"outcomes":[0,1,1],"key":38,"choice":1,"rt":128.00000002607703,"outcome":1,"trial":64,"correct":1,"trial_type":"three-arm-trial","trial_index":77,"time_elapsed":750465,"internal_node_id":"0.0-70.0-0.0","task_version":"screening-mturk","missing":false,"accuracy":1},{"contexts":["blue","red","green"],"outcomes":[1,0,0],"key":38,"choice":1,"rt":155.9999999590218,"outcome":0,"trial":65,"correct":1,"trial_type":"three-arm-trial","trial_index":78,"time_elapsed":751826,"internal_node_id":"0.0-71.0-0.0","task_version":"screening-mturk","missing":false,"accuracy":1},{"contexts":["blue","red","green"],"outcomes":[1,1,0],"key":37,"choice":0,"rt":3.000000026077032,"outcome":1,"trial":66,"correct":1,"trial_type":"three-arm-trial","trial_index":79,"time_elapsed":753068,"internal_node_id":"0.0-72.0-0.0","task_version":"screening-mturk","missing":false,"accuracy":0},{"contexts":["blue","red","green"],"outcomes":[0,0,0],"key":37,"choice":0,"rt":94.99999997206032,"outcome":0,"trial":67,"correct":1,"trial_type":"three-arm-trial","trial_index":80,"time_elapsed":754372,"internal_node_id":"0.0-73.0-0.0","task_version":"screening-mturk","missing":false,"accuracy":0},{"contexts":["blue","red","green"],"outcomes":[1,1,0],"key":39,"choice":2,"rt":68.9999999012798,"outcome":0,"trial":68,"correct":1,"trial_type":"three-arm-trial","trial_index":81,"time_elapsed":755659,"internal_node_id":"0.0-74.0-0.0","task_version":"screening-mturk","missing":false,"accuracy":0},{"contexts":["blue","red","green"],"outcomes":[0,1,0],"key":38,"choice":1,"rt":202.00000004842877,"outcome":1,"trial":69,"correct":1,"trial_type":"three-arm-trial","trial_index":82,"time_elapsed":757074,"internal_node_id":"0.0-75.0-0.0","task_version":"screening-mturk","missing":false,"accuracy":1},{"contexts":["blue","red","green"],"outcomes":[0,0,0],"key":38,"choice":1,"rt":137.00000010430813,"outcome":0,"trial":70,"correct":1,"trial_type":"three-arm-trial","trial_index":83,"time_elapsed":758444,"internal_node_id":"0.0-76.0-0.0","task_version":"screening-mturk","missing":false,"accuracy":1},{"contexts":["blue","red","green"],"outcomes":[0,0,0],"key":37,"choice":0,"rt":261.9999998714775,"outcome":0,"trial":71,"correct":1,"trial_type":"three-arm-trial","trial_index":84,"time_elapsed":759910,"internal_node_id":"0.0-77.0-0.0","task_version":"screening-mturk","missing":false,"accuracy":0},{"contexts":["blue","red","green"],"outcomes":[0,0,1],"key":39,"choice":2,"rt":838.9999999199063,"outcome":1,"trial":72,"correct":1,"trial_type":"three-arm-trial","trial_index":85,"time_elapsed":761956,"internal_node_id":"0.0-78.0-0.0","task_version":"screening-mturk","missing":false,"accuracy":0},{"contexts":["blue","red","green"],"outcomes":[0,1,0],"key":39,"choice":2,"rt":161.00000008009374,"outcome":0,"trial":73,"correct":1,"trial_type":"three-arm-trial","trial_index":86,"time_elapsed":763329,"internal_node_id":"0.0-79.0-0.0","task_version":"screening-mturk","missing":false,"accuracy":0},{"contexts":["blue","red","green"],"outcomes":[0,1,0],"key":38,"choice":1,"rt":1210.9999998938292,"outcome":1,"trial":74,"correct":1,"trial_type":"three-arm-trial","trial_index":87,"time_elapsed":765753,"internal_node_id":"0.0-80.0-0.0","task_version":"screening-mturk","missing":false,"accuracy":1},{"contexts":["blue","red","green"],"outcomes":[0,1,0],"key":38,"choice":1,"rt":313.0000000819564,"outcome":1,"trial":75,"correct":1,"trial_type":"three-arm-trial","trial_index":88,"time_elapsed":767342,"internal_node_id":"0.0-81.0-0.0","task_version":"screening-mturk","missing":false,"accuracy":1},{"contexts":["blue","red","green"],"outcomes":[0,0,1],"key":38,"choice":1,"rt":3013.9999999664724,"outcome":0,"trial":76,"correct":2,"trial_type":"three-arm-trial","trial_index":89,"time_elapsed":771571,"internal_node_id":"0.0-82.0-0.0","task_version":"screening-mturk","missing":false,"accuracy":0},{"contexts":["blue","red","green"],"outcomes":[0,0,1],"key":37,"choice":0,"rt":80.0000000745058,"outcome":0,"trial":77,"correct":2,"trial_type":"three-arm-trial","trial_index":90,"time_elapsed":772855,"internal_node_id":"0.0-83.0-0.0","task_version":"screening-mturk","missing":false,"accuracy":0},{"contexts":["blue","red","green"],"outcomes":[1,0,1],"key":39,"choice":2,"rt":121.99999997392297,"outcome":1,"trial":78,"correct":2,"trial_type":"three-arm-trial","trial_index":91,"time_elapsed":774184,"internal_node_id":"0.0-84.0-0.0","task_version":"screening-mturk","missing":false,"accuracy":1},{"contexts":["blue","red","green"],"outcomes":[0,0,0],"key":39,"choice":2,"rt":153.00000016577542,"outcome":0,"trial":79,"correct":2,"trial_type":"three-arm-trial","trial_index":92,"time_elapsed":775547,"internal_node_id":"0.0-85.0-0.0","task_version":"screening-mturk","missing":false,"accuracy":1},{"contexts":["blue","red","green"],"outcomes":[0,0,1],"key":38,"choice":1,"rt":270.9999999497086,"outcome":0,"trial":80,"correct":2,"trial_type":"three-arm-trial","trial_index":93,"time_elapsed":777028,"internal_node_id":"0.0-86.0-0.0","task_version":"screening-mturk","missing":false,"accuracy":0},{"contexts":["blue","red","green"],"outcomes":[0,0,1],"key":37,"choice":0,"rt":62.99999984912574,"outcome":0,"trial":81,"correct":2,"trial_type":"three-arm-trial","trial_index":94,"time_elapsed":778304,"internal_node_id":"0.0-87.0-0.0","task_version":"screening-mturk","missing":false,"accuracy":0},{"contexts":["blue","red","green"],"outcomes":[0,0,0],"key":39,"choice":2,"rt":136.99999987147748,"outcome":0,"trial":82,"correct":2,"trial_type":"three-arm-trial","trial_index":95,"time_elapsed":779651,"internal_node_id":"0.0-88.0-0.0","task_version":"screening-mturk","missing":false,"accuracy":1},{"contexts":["blue","red","green"],"outcomes":[0,0,0],"key":38,"choice":1,"rt":47.999999951571226,"outcome":0,"trial":83,"correct":2,"trial_type":"three-arm-trial","trial_index":96,"time_elapsed":780910,"internal_node_id":"0.0-89.0-0.0","task_version":"screening-mturk","missing":false,"accuracy":0},{"contexts":["blue","red","green"],"outcomes":[0,0,1],"key":37,"choice":0,"rt":926.0000002104789,"outcome":0,"trial":84,"correct":2,"trial_type":"three-arm-trial","trial_index":97,"time_elapsed":783059,"internal_node_id":"0.0-90.0-0.0","task_version":"screening-mturk","missing":false,"accuracy":0},{"contexts":["blue","red","green"],"outcomes":[0,0,0],"key":39,"choice":2,"rt":467.9999998770654,"outcome":0,"trial":85,"correct":2,"trial_type":"three-arm-trial","trial_index":98,"time_elapsed":784735,"internal_node_id":"0.0-91.0-0.0","task_version":"screening-mturk","missing":false,"accuracy":1},{"contexts":["blue","red","green"],"outcomes":[0,0,1],"key":38,"choice":1,"rt":820.0000000651926,"outcome":0,"trial":86,"correct":2,"trial_type":"three-arm-trial","trial_index":99,"time_elapsed":786761,"internal_node_id":"0.0-92.0-0.0","task_version":"screening-mturk","missing":false,"accuracy":0},{"contexts":["blue","red","green"],"outcomes":[0,0,0],"key":37,"choice":0,"rt":754.9999998882413,"outcome":0,"trial":87,"correct":2,"trial_type":"three-arm-trial","trial_index":100,"time_elapsed":788731,"internal_node_id":"0.0-93.0-0.0","task_version":"screening-mturk","missing":false,"accuracy":0},{"contexts":["blue","red","green"],"outcomes":[0,0,1],"key":37,"choice":0,"rt":109.99999986961484,"outcome":0,"trial":88,"correct":2,"trial_type":"three-arm-trial","trial_index":101,"time_elapsed":790050,"internal_node_id":"0.0-94.0-0.0","task_version":"screening-mturk","missing":false,"accuracy":0},{"contexts":["blue","red","green"],"outcomes":[0,0,1],"key":37,"choice":0,"rt":111.99999996460974,"outcome":0,"trial":89,"correct":2,"trial_type":"three-arm-trial","trial_index":102,"time_elapsed":791373,"internal_node_id":"0.0-95.0-0.0","task_version":"screening-mturk","missing":false,"accuracy":0},{"contexts":["blue","red","green"],"outcomes":[0,0,1],"key":39,"choice":2,"rt":10.000000009313226,"outcome":1,"trial":90,"correct":2,"trial_type":"three-arm-trial","trial_index":103,"time_elapsed":792592,"internal_node_id":"0.0-96.0-0.0","task_version":"screening-mturk","missing":false,"accuracy":1},{"rt":26009.00000007823,"responses":{"age":"33","gender-categorical":"Female","gender-free-response":"","ethnicity":"Not Hispanic or Latino","race":["White"],"language":"Yes","fluency":"Very well","prolific":"Yes","prolific-this-study":"No"},"survey":"demographics","trial_type":"survey-demo","trial_index":104,"time_elapsed":818627,"internal_node_id":"0.0-97.0","task_version":"screening-mturk","interactions":"[{\"event\":\"blur\",\"trial\":9,\"time\":552066},{\"event\":\"focus\",\"trial\":9,\"time\":553509}]"}]