[{"responses":{"Q08":"2","Q11":"1","Q01":"2","Q07":"2","Q14":"3","Q10":"2","Q05":"2","Q15":"1","Q09":"3","Q13":"2","Q12":"2","Q03":"3","Q04":"2","Q06":"2","Q02":"2"},"rt":93272.4000000162,"survey":"shaps","trial_type":"survey-template","trial_index":0,"time_elapsed":93327,"internal_node_id":"0.0-0.0","task_version":"screening-mturk"},{"responses":{"Q04":"1","Q06":"2","Q05":"2","Q08":"1","Q01":"2","Q07":"2","Q02":"3","Q03":"2"},"rt":39143.5749999946,"survey":"gad7","trial_type":"survey-template","trial_index":1,"time_elapsed":132474,"internal_node_id":"0.0-1.0","task_version":"screening-mturk"},{"responses":{"Q05":"2","Q01":"3","Q02":"2","Q11":"2","Q04":"3","Q03":"2","Q08":"1","Q10":"2","Q09":"1","Q06":"2","Q12":"2","Q14":"3","Q07":"2","Q15":"2","Q13":"1"},"rt":66612.03000007663,"survey":"7up7down","trial_type":"survey-template","trial_index":2,"time_elapsed":199098,"internal_node_id":"0.0-2.0","task_version":"screening-mturk"},{"responses":{"Q13":"2","Q04":"3","Q06":"2","Q12":"1","Q02":"1","Q03":"2","Q11":"2","Q09":"2","Q10":"1","Q01":"2","Q05":"2","Q07":"1","Q08":"2"},"rt":53042.69999999087,"survey":"bisbas","trial_type":"survey-template","trial_index":3,"time_elapsed":252150,"internal_node_id":"0.0-3.0","task_version":"screening-mturk"},{"responses":{"Q01":"3","Q03":"2","Q02":"3"},"rt":14819.359999964945,"survey":"pswq","trial_type":"survey-template","trial_index":4,"time_elapsed":266974,"internal_node_id":"0.0-4.0","task_version":"screening-mturk"},{"view_history":"[{\"page_index\":0,\"viewing_time\":10556.004999903962},{\"page_index\":1,\"viewing_time\":39412.40500006825},{\"page_index\":2,\"viewing_time\":17169.314999948256},{\"page_index\":3,\"viewing_time\":23815.595000050962},{\"page_index\":4,\"viewing_time\":18317.444999935105},{\"page_index\":5,\"viewing_time\":11203.410000074655},{\"page_index\":6,\"viewing_time\":7991.359999985434},{\"page_index\":7,\"viewing_time\":6283.779999939725}]","rt":134751.06499996036,"trial_type":"instructions","trial_index":5,"time_elapsed":401729,"internal_node_id":"0.0-5.0-0.0","task_version":"screening-mturk"},{"responses":["True","True","False","False","False"],"num_errors":1,"rt":30495.45000004582,"trial_type":"three-arm-comprehension","trial_index":6,"time_elapsed":432231,"internal_node_id":"0.0-5.0-1.0","task_version":"screening-mturk"},{"view_history":"[{\"page_index\":0,\"viewing_time\":2314.9399999529123},{\"page_index\":1,\"viewing_time\":1504.1350000537932},{\"page_index\":2,\"viewing_time\":1155.3999999305233},{\"page_index\":3,\"viewing_time\":880.5550000397488},{\"page_index\":4,\"viewing_time\":989.1800000332296},{\"page_index\":5,\"viewing_time\":894.3849999923259},{\"page_index\":6,\"viewing_time\":903.3699999563396},{\"page_index\":7,\"viewing_time\":941.190000041388}]","rt":9583.884999970905,"trial_type":"instructions","trial_index":7,"time_elapsed":441827,"internal_node_id":"0.0-5.1-0.1","task_version":"screening-mturk"},{"responses":["True","True","True","False","False"],"num_errors":2,"rt":8888.355000060983,"trial_type":"three-arm-comprehension","trial_index":8,"time_elapsed":450721,"internal_node_id":"0.0-5.1-1.1","task_version":"screening-mturk"},{"view_history":"[{\"page_index\":0,\"viewing_time\":1944.3500000052154},{\"page_index\":1,\"viewing_time\":569.4900000235066},{\"page_index\":2,\"viewing_time\":514.6099999547005},{\"page_index\":3,\"viewing_time\":447.2300000488758},{\"page_index\":4,\"viewing_time\":642.8450000239536},{\"page_index\":5,\"viewing_time\":605.1399999996647},{\"page_index\":6,\"viewing_time\":520.2149999095127},{\"page_index\":7,\"viewing_time\":657.9149999888614}]","rt":5902.400000020862,"trial_type":"instructions","trial_index":9,"time_elapsed":456630,"internal_node_id":"0.0-5.2-0.2","task_version":"screening-mturk"},{"responses":["True","True","False","False","True"],"num_errors":0,"rt":151264.19000001624,"trial_type":"three-arm-comprehension","trial_index":10,"time_elapsed":607902,"internal_node_id":"0.0-5.2-1.2","task_version":"screening-mturk"},{"view_history":"[{\"page_index\":0,\"viewing_time\":12059.26000000909}]","rt":12059.859999921173,"trial_type":"instructions","trial_index":11,"time_elapsed":619972,"internal_node_id":"0.0-6.0","task_version":"screening-mturk"},{"contexts":["red","blue","green"],"outcomes":[1,0,1],"key":39,"choice":2,"rt":4762.089999974705,"outcome":1,"trial":1,"correct":0,"trial_type":"three-arm-trial","trial_index":12,"time_elapsed":625942,"internal_node_id":"0.0-7.0-0.0","task_version":"screening-mturk","missing":false,"accuracy":0},{"contexts":["red","blue","green"],"outcomes":[1,0,0],"key":39,"choice":2,"rt":1904.285000055097,"outcome":0,"trial":2,"correct":0,"trial_type":"three-arm-trial","trial_index":13,"time_elapsed":629053,"internal_node_id":"0.0-8.0-0.0","task_version":"screening-mturk","missing":false,"accuracy":0},{"contexts":["red","blue","green"],"outcomes":[1,0,0],"key":37,"choice":0,"rt":446.93000009283423,"outcome":1,"trial":3,"correct":0,"trial_type":"three-arm-trial","trial_index":14,"time_elapsed":630739,"internal_node_id":"0.0-9.0-0.0","task_version":"screening-mturk","missing":false,"accuracy":1},{"contexts":["red","blue","green"],"outcomes":[1,0,0],"key":38,"choice":1,"rt":2001.1249999515712,"outcome":0,"trial":4,"correct":0,"trial_type":"three-arm-trial","trial_index":15,"time_elapsed":633959,"internal_node_id":"0.0-10.0-0.0","task_version":"screening-mturk","missing":false,"accuracy":0},{"contexts":["red","blue","green"],"outcomes":[1,0,0],"key":37,"choice":0,"rt":80.72500000707805,"outcome":1,"trial":5,"correct":0,"trial_type":"three-arm-trial","trial_index":16,"time_elapsed":635248,"internal_node_id":"0.0-11.0-0.0","task_version":"screening-mturk","missing":false,"accuracy":1},{"contexts":["red","blue","green"],"outcomes":[0,0,0],"key":37,"choice":0,"rt":1151.6800000099465,"outcome":0,"trial":6,"correct":0,"trial_type":"three-arm-trial","trial_index":17,"time_elapsed":637623,"internal_node_id":"0.0-12.0-0.0","task_version":"screening-mturk","missing":false,"accuracy":1},{"contexts":["red","blue","green"],"outcomes":[1,0,0],"key":39,"choice":2,"rt":454.46999999694526,"outcome":0,"trial":7,"correct":0,"trial_type":"three-arm-trial","trial_index":18,"time_elapsed":639284,"internal_node_id":"0.0-13.0-0.0","task_version":"screening-mturk","missing":false,"accuracy":0},{"contexts":["red","blue","green"],"outcomes":[1,0,0],"key":37,"choice":0,"rt":100.1300000352785,"outcome":1,"trial":8,"correct":0,"trial_type":"three-arm-trial","trial_index":19,"time_elapsed":640618,"internal_node_id":"0.0-14.0-0.0","task_version":"screening-mturk","missing":false,"accuracy":1},{"contexts":["red","blue","green"],"outcomes":[1,0,0],"key":37,"choice":0,"rt":3054.744999972172,"outcome":1,"trial":9,"correct":0,"trial_type":"three-arm-trial","trial_index":20,"time_elapsed":644879,"internal_node_id":"0.0-15.0-0.0","task_version":"screening-mturk","missing":false,"accuracy":1},{"contexts":["red","blue","green"],"outcomes":[1,0,0],"key":38,"choice":1,"rt":1744.8200000217184,"outcome":0,"trial":10,"correct":0,"trial_type":"three-arm-trial","trial_index":21,"time_elapsed":647828,"internal_node_id":"0.0-16.0-0.0","task_version":"screening-mturk","missing":false,"accuracy":0},{"contexts":["red","blue","green"],"outcomes":[1,0,0],"key":37,"choice":0,"rt":1288.869999931194,"outcome":1,"trial":11,"correct":0,"trial_type":"three-arm-trial","trial_index":22,"time_elapsed":650342,"internal_node_id":"0.0-17.0-0.0","task_version":"screening-mturk","missing":false,"accuracy":1},{"contexts":["red","blue","green"],"outcomes":[1,0,1],"key":39,"choice":2,"rt":1246.8150000786409,"outcome":1,"trial":12,"correct":0,"trial_type":"three-arm-trial","trial_index":23,"time_elapsed":652798,"internal_node_id":"0.0-18.0-0.0","task_version":"screening-mturk","missing":false,"accuracy":0},{"contexts":["red","blue","green"],"outcomes":[1,0,0],"key":39,"choice":2,"rt":1233.695000060834,"outcome":0,"trial":13,"correct":0,"trial_type":"three-arm-trial","trial_index":24,"time_elapsed":655276,"internal_node_id":"0.0-19.0-0.0","task_version":"screening-mturk","missing":false,"accuracy":0},{"contexts":["red","blue","green"],"outcomes":[1,0,1],"key":37,"choice":0,"rt":1176.0050000157207,"outcome":1,"trial":14,"correct":0,"trial_type":"three-arm-trial","trial_index":25,"time_elapsed":657660,"internal_node_id":"0.0-20.0-0.0","task_version":"screening-mturk","missing":false,"accuracy":1},{"contexts":["red","blue","green"],"outcomes":[0,0,1],"key":38,"choice":1,"rt":995.1649999711663,"outcome":0,"trial":15,"correct":0,"trial_type":"three-arm-trial","trial_index":26,"time_elapsed":659861,"internal_node_id":"0.0-21.0-0.0","task_version":"screening-mturk","missing":false,"accuracy":0},{"contexts":["red","blue","green"],"outcomes":[0,0,0],"key":37,"choice":0,"rt":788.5150000220165,"outcome":0,"trial":16,"correct":1,"trial_type":"three-arm-trial","trial_index":27,"time_elapsed":661854,"internal_node_id":"0.0-22.0-0.0","task_version":"screening-mturk","missing":false,"accuracy":0},{"contexts":["red","blue","green"],"outcomes":[0,1,1],"key":39,"choice":2,"rt":675.139999948442,"outcome":1,"trial":17,"correct":1,"trial_type":"three-arm-trial","trial_index":28,"time_elapsed":663778,"internal_node_id":"0.0-23.0-0.0","task_version":"screening-mturk","missing":false,"accuracy":0},{"contexts":["red","blue","green"],"outcomes":[0,1,0],"key":37,"choice":0,"rt":2550.139999948442,"outcome":0,"trial":18,"correct":1,"trial_type":"three-arm-trial","trial_index":29,"time_elapsed":667672,"internal_node_id":"0.0-24.0-0.0","task_version":"screening-mturk","missing":false,"accuracy":0},{"contexts":["red","blue","green"],"outcomes":[0,1,0],"key":37,"choice":0,"rt":2004.1549999732524,"outcome":0,"trial":19,"correct":1,"trial_type":"three-arm-trial","trial_index":30,"time_elapsed":670887,"internal_node_id":"0.0-25.0-0.0","task_version":"screening-mturk","missing":false,"accuracy":0},{"contexts":["red","blue","green"],"outcomes":[0,1,0],"key":39,"choice":2,"rt":768.9499999396503,"outcome":0,"trial":20,"correct":1,"trial_type":"three-arm-trial","trial_index":31,"time_elapsed":672915,"internal_node_id":"0.0-26.0-0.0","task_version":"screening-mturk","missing":false,"accuracy":0},{"contexts":["red","blue","green"],"outcomes":[1,1,0],"key":38,"choice":1,"rt":202.9050000710413,"outcome":1,"trial":21,"correct":1,"trial_type":"three-arm-trial","trial_index":32,"time_elapsed":674322,"internal_node_id":"0.0-27.0-0.0","task_version":"screening-mturk","missing":false,"accuracy":1},{"contexts":["red","blue","green"],"outcomes":[0,1,0],"key":38,"choice":1,"rt":1868.7050000298768,"outcome":1,"trial":22,"correct":1,"trial_type":"three-arm-trial","trial_index":33,"time_elapsed":677405,"internal_node_id":"0.0-28.0-0.0","task_version":"screening-mturk","missing":false,"accuracy":1},{"contexts":["red","blue","green"],"outcomes":[0,0,0],"key":37,"choice":0,"rt":1848.71499997098,"outcome":0,"trial":23,"correct":1,"trial_type":"three-arm-trial","trial_index":34,"time_elapsed":680464,"internal_node_id":"0.0-29.0-0.0","task_version":"screening-mturk","missing":false,"accuracy":0},{"contexts":["red","blue","green"],"outcomes":[0,1,1],"key":38,"choice":1,"rt":899.0000000922009,"outcome":1,"trial":24,"correct":1,"trial_type":"three-arm-trial","trial_index":35,"time_elapsed":682568,"internal_node_id":"0.0-30.0-0.0","task_version":"screening-mturk","missing":false,"accuracy":1},{"contexts":["red","blue","green"],"outcomes":[0,1,0],"key":38,"choice":1,"rt":1156.6800000146031,"outcome":1,"trial":25,"correct":1,"trial_type":"three-arm-trial","trial_index":36,"time_elapsed":685019,"internal_node_id":"0.0-31.0-0.0","task_version":"screening-mturk","missing":false,"accuracy":1},{"contexts":["red","blue","green"],"outcomes":[0,1,1],"key":38,"choice":1,"rt":1021.1999999592081,"outcome":1,"trial":26,"correct":1,"trial_type":"three-arm-trial","trial_index":37,"time_elapsed":687252,"internal_node_id":"0.0-32.0-0.0","task_version":"screening-mturk","missing":false,"accuracy":1},{"contexts":["red","blue","green"],"outcomes":[0,1,0],"key":38,"choice":1,"rt":938.7049999786541,"outcome":1,"trial":27,"correct":1,"trial_type":"three-arm-trial","trial_index":38,"time_elapsed":689401,"internal_node_id":"0.0-33.0-0.0","task_version":"screening-mturk","missing":false,"accuracy":1},{"contexts":["red","blue","green"],"outcomes":[1,1,0],"key":38,"choice":1,"rt":794.2599999951199,"outcome":1,"trial":28,"correct":1,"trial_type":"three-arm-trial","trial_index":39,"time_elapsed":691448,"internal_node_id":"0.0-34.0-0.0","task_version":"screening-mturk","missing":false,"accuracy":1},{"contexts":["red","blue","green"],"outcomes":[0,0,0],"key":38,"choice":1,"rt":949.8049999820068,"outcome":0,"trial":29,"correct":1,"trial_type":"three-arm-trial","trial_index":40,"time_elapsed":693601,"internal_node_id":"0.0-35.0-0.0","task_version":"screening-mturk","missing":false,"accuracy":1},{"contexts":["red","blue","green"],"outcomes":[0,1,1],"key":37,"choice":0,"rt":456.60499995574355,"outcome":0,"trial":30,"correct":1,"trial_type":"three-arm-trial","trial_index":41,"time_elapsed":695264,"internal_node_id":"0.0-36.0-0.0","task_version":"screening-mturk","missing":false,"accuracy":0},{"contexts":["red","blue","green"],"outcomes":[1,0,0],"key":38,"choice":1,"rt":927.2150000324473,"outcome":0,"trial":31,"correct":0,"trial_type":"three-arm-trial","trial_index":42,"time_elapsed":697397,"internal_node_id":"0.0-37.0-0.0","task_version":"screening-mturk","missing":false,"accuracy":0},{"contexts":["red","blue","green"],"outcomes":[1,0,0],"key":39,"choice":2,"rt":1293.1350000435486,"outcome":0,"trial":32,"correct":0,"trial_type":"three-arm-trial","trial_index":43,"time_elapsed":700148,"internal_node_id":"0.0-38.0-0.0","task_version":"screening-mturk","missing":false,"accuracy":0},{"contexts":["red","blue","green"],"outcomes":[1,0,1],"key":37,"choice":0,"rt":1427.3850000463426,"outcome":1,"trial":33,"correct":0,"trial_type":"three-arm-trial","trial_index":44,"time_elapsed":702827,"internal_node_id":"0.0-39.0-0.0","task_version":"screening-mturk","missing":false,"accuracy":1},{"contexts":["red","blue","green"],"outcomes":[1,0,0],"key":37,"choice":0,"rt":1211.005000048317,"outcome":1,"trial":34,"correct":0,"trial_type":"three-arm-trial","trial_index":45,"time_elapsed":705251,"internal_node_id":"0.0-40.0-0.0","task_version":"screening-mturk","missing":false,"accuracy":1},{"contexts":["red","blue","green"],"outcomes":[1,0,0],"key":37,"choice":0,"rt":600.304999970831,"outcome":1,"trial":35,"correct":0,"trial_type":"three-arm-trial","trial_index":46,"time_elapsed":707087,"internal_node_id":"0.0-41.0-0.0","task_version":"screening-mturk","missing":false,"accuracy":1},{"contexts":["red","blue","green"],"outcomes":[0,1,0],"key":37,"choice":0,"rt":568.0450000800192,"outcome":0,"trial":36,"correct":0,"trial_type":"three-arm-trial","trial_index":47,"time_elapsed":708887,"internal_node_id":"0.0-42.0-0.0","task_version":"screening-mturk","missing":false,"accuracy":1},{"contexts":["red","blue","green"],"outcomes":[1,0,0],"key":37,"choice":0,"rt":1563.0700000328943,"outcome":1,"trial":37,"correct":0,"trial_type":"three-arm-trial","trial_index":48,"time_elapsed":711879,"internal_node_id":"0.0-43.0-0.0","task_version":"screening-mturk","missing":false,"accuracy":1},{"contexts":["red","blue","green"],"outcomes":[0,1,0],"key":37,"choice":0,"rt":785.3200000245124,"outcome":0,"trial":38,"correct":0,"trial_type":"three-arm-trial","trial_index":49,"time_elapsed":713870,"internal_node_id":"0.0-44.0-0.0","task_version":"screening-mturk","missing":false,"accuracy":1},{"contexts":["red","blue","green"],"outcomes":[1,0,0],"key":38,"choice":1,"rt":808.8800000259653,"outcome":0,"trial":39,"correct":0,"trial_type":"three-arm-trial","trial_index":50,"time_elapsed":715884,"internal_node_id":"0.0-45.0-0.0","task_version":"screening-mturk","missing":false,"accuracy":0},{"contexts":["red","blue","green"],"outcomes":[1,0,0],"key":37,"choice":0,"rt":679.0950000286102,"outcome":1,"trial":40,"correct":0,"trial_type":"three-arm-trial","trial_index":51,"time_elapsed":717773,"internal_node_id":"0.0-46.0-0.0","task_version":"screening-mturk","missing":false,"accuracy":1},{"contexts":["red","blue","green"],"outcomes":[1,1,1],"key":39,"choice":2,"rt":1047.6900000358,"outcome":1,"trial":41,"correct":0,"trial_type":"three-arm-trial","trial_index":52,"time_elapsed":720036,"internal_node_id":"0.0-47.0-0.0","task_version":"screening-mturk","missing":false,"accuracy":0},{"contexts":["red","blue","green"],"outcomes":[1,0,0],"key":39,"choice":2,"rt":626.1200000299141,"outcome":0,"trial":42,"correct":0,"trial_type":"three-arm-trial","trial_index":53,"time_elapsed":721868,"internal_node_id":"0.0-48.0-0.0","task_version":"screening-mturk","missing":false,"accuracy":0},{"contexts":["red","blue","green"],"outcomes":[1,0,0],"key":37,"choice":0,"rt":670.4400000162423,"outcome":1,"trial":43,"correct":0,"trial_type":"three-arm-trial","trial_index":54,"time_elapsed":723745,"internal_node_id":"0.0-49.0-0.0","task_version":"screening-mturk","missing":false,"accuracy":1},{"contexts":["red","blue","green"],"outcomes":[0,0,0],"key":37,"choice":0,"rt":1733.1799999810755,"outcome":0,"trial":44,"correct":0,"trial_type":"three-arm-trial","trial_index":55,"time_elapsed":726709,"internal_node_id":"0.0-50.0-0.0","task_version":"screening-mturk","missing":false,"accuracy":1},{"contexts":["red","blue","green"],"outcomes":[1,1,0],"key":38,"choice":1,"rt":705.640000058338,"outcome":1,"trial":45,"correct":0,"trial_type":"three-arm-trial","trial_index":56,"time_elapsed":728622,"internal_node_id":"0.0-51.0-0.0","task_version":"screening-mturk","missing":false,"accuracy":0},{"contexts":["red","blue","green"],"outcomes":[0,0,1],"key":38,"choice":1,"rt":940.3800000436604,"outcome":0,"trial":46,"correct":2,"trial_type":"three-arm-trial","trial_index":57,"time_elapsed":730771,"internal_node_id":"0.0-52.0-0.0","task_version":"screening-mturk","missing":false,"accuracy":0},{"contexts":["red","blue","green"],"outcomes":[0,1,1],"key":37,"choice":0,"rt":809.4649999402463,"outcome":0,"trial":47,"correct":2,"trial_type":"three-arm-trial","trial_index":58,"time_elapsed":732795,"internal_node_id":"0.0-53.0-0.0","task_version":"screening-mturk","missing":false,"accuracy":0},{"contexts":["red","blue","green"],"outcomes":[0,0,1],"key":39,"choice":2,"rt":638.4750000433996,"outcome":1,"trial":48,"correct":2,"trial_type":"three-arm-trial","trial_index":59,"time_elapsed":734640,"internal_node_id":"0.0-54.0-0.0","task_version":"screening-mturk","missing":false,"accuracy":1},{"contexts":["red","blue","green"],"outcomes":[0,0,1],"key":39,"choice":2,"rt":931.6349999280646,"outcome":1,"trial":49,"correct":2,"trial_type":"three-arm-trial","trial_index":60,"time_elapsed":736809,"internal_node_id":"0.0-55.0-0.0","task_version":"screening-mturk","missing":false,"accuracy":1},{"contexts":["red","blue","green"],"outcomes":[0,0,1],"key":38,"choice":1,"rt":3246.059999917634,"outcome":0,"trial":50,"correct":2,"trial_type":"three-arm-trial","trial_index":61,"time_elapsed":741258,"internal_node_id":"0.0-56.0-0.0","task_version":"screening-mturk","missing":false,"accuracy":0},{"contexts":["red","blue","green"],"outcomes":[0,0,1],"key":39,"choice":2,"rt":706.319999997504,"outcome":1,"trial":51,"correct":2,"trial_type":"three-arm-trial","trial_index":62,"time_elapsed":743176,"internal_node_id":"0.0-57.0-0.0","task_version":"screening-mturk","missing":false,"accuracy":1},{"contexts":["red","blue","green"],"outcomes":[1,0,1],"key":37,"choice":0,"rt":730.3449999308214,"outcome":1,"trial":52,"correct":2,"trial_type":"three-arm-trial","trial_index":63,"time_elapsed":745120,"internal_node_id":"0.0-58.0-0.0","task_version":"screening-mturk","missing":false,"accuracy":0},{"contexts":["red","blue","green"],"outcomes":[0,0,1],"key":37,"choice":0,"rt":546.9499999890104,"outcome":0,"trial":53,"correct":2,"trial_type":"three-arm-trial","trial_index":64,"time_elapsed":746872,"internal_node_id":"0.0-59.0-0.0","task_version":"screening-mturk","missing":false,"accuracy":0},{"contexts":["red","blue","green"],"outcomes":[0,0,1],"key":39,"choice":2,"rt":379.0250000311062,"outcome":1,"trial":54,"correct":2,"trial_type":"three-arm-trial","trial_index":65,"time_elapsed":748521,"internal_node_id":"0.0-60.0-0.0","task_version":"screening-mturk","missing":false,"accuracy":1},{"contexts":["red","blue","green"],"outcomes":[1,0,1],"key":39,"choice":2,"rt":670.5150000052527,"outcome":1,"trial":55,"correct":2,"trial_type":"three-arm-trial","trial_index":66,"time_elapsed":750469,"internal_node_id":"0.0-61.0-0.0","task_version":"screening-mturk","missing":false,"accuracy":1},{"contexts":["red","blue","green"],"outcomes":[0,0,1],"key":39,"choice":2,"rt":416.95500002242625,"outcome":1,"trial":56,"correct":2,"trial_type":"three-arm-trial","trial_index":67,"time_elapsed":752105,"internal_node_id":"0.0-62.0-0.0","task_version":"screening-mturk","missing":false,"accuracy":1},{"contexts":["red","blue","green"],"outcomes":[0,1,1],"key":39,"choice":2,"rt":618.3100000489503,"outcome":1,"trial":57,"correct":2,"trial_type":"three-arm-trial","trial_index":68,"time_elapsed":753927,"internal_node_id":"0.0-63.0-0.0","task_version":"screening-mturk","missing":false,"accuracy":1},{"contexts":["red","blue","green"],"outcomes":[0,0,1],"key":39,"choice":2,"rt":666.2650000071153,"outcome":1,"trial":58,"correct":2,"trial_type":"three-arm-trial","trial_index":69,"time_elapsed":755804,"internal_node_id":"0.0-64.0-0.0","task_version":"screening-mturk","missing":false,"accuracy":1},{"contexts":["red","blue","green"],"outcomes":[0,0,1],"key":39,"choice":2,"rt":595.2600000891834,"outcome":1,"trial":59,"correct":2,"trial_type":"three-arm-trial","trial_index":70,"time_elapsed":757629,"internal_node_id":"0.0-65.0-0.0","task_version":"screening-mturk","missing":false,"accuracy":1},{"contexts":["red","blue","green"],"outcomes":[0,0,0],"key":39,"choice":2,"rt":659.6450000070035,"outcome":0,"trial":60,"correct":2,"trial_type":"three-arm-trial","trial_index":71,"time_elapsed":759496,"internal_node_id":"0.0-66.0-0.0","task_version":"screening-mturk","missing":false,"accuracy":1},{"contexts":["red","blue","green"],"outcomes":[0,1,1],"key":38,"choice":1,"rt":601.2800000607967,"outcome":1,"trial":61,"correct":1,"trial_type":"three-arm-trial","trial_index":72,"time_elapsed":761323,"internal_node_id":"0.0-67.0-0.0","task_version":"screening-mturk","missing":false,"accuracy":1},{"contexts":["red","blue","green"],"outcomes":[0,1,1],"key":38,"choice":1,"rt":662.1300000697374,"outcome":1,"trial":62,"correct":1,"trial_type":"three-arm-trial","trial_index":73,"time_elapsed":763202,"internal_node_id":"0.0-68.0-0.0","task_version":"screening-mturk","missing":false,"accuracy":1},{"contexts":["red","blue","green"],"outcomes":[0,1,0],"key":38,"choice":1,"rt":824.7800000244752,"outcome":1,"trial":63,"correct":1,"trial_type":"three-arm-trial","trial_index":74,"time_elapsed":765238,"internal_node_id":"0.0-69.0-0.0","task_version":"screening-mturk","missing":false,"accuracy":1},{"contexts":["red","blue","green"],"outcomes":[0,1,0],"key":38,"choice":1,"rt":672.7299999911338,"outcome":1,"trial":64,"correct":1,"trial_type":"three-arm-trial","trial_index":75,"time_elapsed":767130,"internal_node_id":"0.0-70.0-0.0","task_version":"screening-mturk","missing":false,"accuracy":1},{"contexts":["red","blue","green"],"outcomes":[0,1,0],"key":38,"choice":1,"rt":755.4950000485405,"outcome":1,"trial":65,"correct":1,"trial_type":"three-arm-trial","trial_index":76,"time_elapsed":769108,"internal_node_id":"0.0-71.0-0.0","task_version":"screening-mturk","missing":false,"accuracy":1},{"contexts":["red","blue","green"],"outcomes":[0,0,0],"key":38,"choice":1,"rt":655.7249999605119,"outcome":0,"trial":66,"correct":1,"trial_type":"three-arm-trial","trial_index":77,"time_elapsed":770974,"internal_node_id":"0.0-72.0-0.0","task_version":"screening-mturk","missing":false,"accuracy":1},{"contexts":["red","blue","green"],"outcomes":[0,1,0],"key":37,"choice":0,"rt":702.214999939315,"outcome":0,"trial":67,"correct":1,"trial_type":"three-arm-trial","trial_index":78,"time_elapsed":772882,"internal_node_id":"0.0-73.0-0.0","task_version":"screening-mturk","missing":false,"accuracy":0},{"contexts":["red","blue","green"],"outcomes":[0,1,0],"key":39,"choice":2,"rt":446.5499999932945,"outcome":0,"trial":68,"correct":1,"trial_type":"three-arm-trial","trial_index":79,"time_elapsed":774590,"internal_node_id":"0.0-74.0-0.0","task_version":"screening-mturk","missing":false,"accuracy":0},{"contexts":["red","blue","green"],"outcomes":[0,1,0],"key":37,"choice":0,"rt":729.5549999689683,"outcome":0,"trial":69,"correct":1,"trial_type":"three-arm-trial","trial_index":80,"time_elapsed":776558,"internal_node_id":"0.0-75.0-0.0","task_version":"screening-mturk","missing":false,"accuracy":0},{"contexts":["red","blue","green"],"outcomes":[0,1,0],"key":38,"choice":1,"rt":264.8150000022724,"outcome":1,"trial":70,"correct":1,"trial_type":"three-arm-trial","trial_index":81,"time_elapsed":778030,"internal_node_id":"0.0-76.0-0.0","task_version":"screening-mturk","missing":false,"accuracy":1},{"contexts":["red","blue","green"],"outcomes":[0,1,0],"key":38,"choice":1,"rt":582.8050000127405,"outcome":1,"trial":71,"correct":1,"trial_type":"three-arm-trial","trial_index":82,"time_elapsed":779826,"internal_node_id":"0.0-77.0-0.0","task_version":"screening-mturk","missing":false,"accuracy":1},{"contexts":["red","blue","green"],"outcomes":[1,1,0],"key":38,"choice":1,"rt":644.1399999894202,"outcome":1,"trial":72,"correct":1,"trial_type":"three-arm-trial","trial_index":83,"time_elapsed":781726,"internal_node_id":"0.0-78.0-0.0","task_version":"screening-mturk","missing":false,"accuracy":1},{"contexts":["red","blue","green"],"outcomes":[0,1,0],"key":38,"choice":1,"rt":738.5549999307841,"outcome":1,"trial":73,"correct":1,"trial_type":"three-arm-trial","trial_index":84,"time_elapsed":783676,"internal_node_id":"0.0-79.0-0.0","task_version":"screening-mturk","missing":false,"accuracy":1},{"contexts":["red","blue","green"],"outcomes":[0,1,0],"key":38,"choice":1,"rt":632.3400000110269,"outcome":1,"trial":74,"correct":1,"trial_type":"three-arm-trial","trial_index":85,"time_elapsed":785522,"internal_node_id":"0.0-80.0-0.0","task_version":"screening-mturk","missing":false,"accuracy":1},{"contexts":["red","blue","green"],"outcomes":[0,0,0],"key":38,"choice":1,"rt":657.2350000496954,"outcome":0,"trial":75,"correct":1,"trial_type":"three-arm-trial","trial_index":86,"time_elapsed":787401,"internal_node_id":"0.0-81.0-0.0","task_version":"screening-mturk","missing":false,"accuracy":1},{"contexts":["red","blue","green"],"outcomes":[0,0,0],"key":39,"choice":2,"rt":566.274999990128,"outcome":0,"trial":76,"correct":2,"trial_type":"three-arm-trial","trial_index":87,"time_elapsed":789174,"internal_node_id":"0.0-82.0-0.0","task_version":"screening-mturk","missing":false,"accuracy":1},{"contexts":["red","blue","green"],"outcomes":[1,0,1],"key":38,"choice":1,"rt":318.1000000331551,"outcome":0,"trial":77,"correct":2,"trial_type":"three-arm-trial","trial_index":88,"time_elapsed":790702,"internal_node_id":"0.0-83.0-0.0","task_version":"screening-mturk","missing":false,"accuracy":0},{"contexts":["red","blue","green"],"outcomes":[0,0,1],"key":37,"choice":0,"rt":798.5299999127164,"outcome":0,"trial":78,"correct":2,"trial_type":"three-arm-trial","trial_index":89,"time_elapsed":792728,"internal_node_id":"0.0-84.0-0.0","task_version":"screening-mturk","missing":false,"accuracy":0},{"contexts":["red","blue","green"],"outcomes":[0,0,1],"key":38,"choice":1,"rt":316.86500005889684,"outcome":0,"trial":79,"correct":2,"trial_type":"three-arm-trial","trial_index":90,"time_elapsed":794249,"internal_node_id":"0.0-85.0-0.0","task_version":"screening-mturk","missing":false,"accuracy":0},{"contexts":["red","blue","green"],"outcomes":[0,1,1],"key":39,"choice":2,"rt":973.8549999892712,"outcome":1,"trial":80,"correct":2,"trial_type":"three-arm-trial","trial_index":91,"time_elapsed":796439,"internal_node_id":"0.0-86.0-0.0","task_version":"screening-mturk","missing":false,"accuracy":1},{"contexts":["red","blue","green"],"outcomes":[0,0,0],"key":39,"choice":2,"rt":372.13000003248453,"outcome":0,"trial":81,"correct":2,"trial_type":"three-arm-trial","trial_index":92,"time_elapsed":798018,"internal_node_id":"0.0-87.0-0.0","task_version":"screening-mturk","missing":false,"accuracy":1},{"contexts":["red","blue","green"],"outcomes":[0,0,1],"key":37,"choice":0,"rt":637.1550000039861,"outcome":0,"trial":82,"correct":2,"trial_type":"three-arm-trial","trial_index":93,"time_elapsed":799871,"internal_node_id":"0.0-88.0-0.0","task_version":"screening-mturk","missing":false,"accuracy":0},{"contexts":["red","blue","green"],"outcomes":[0,0,1],"key":38,"choice":1,"rt":1023.5749999992549,"outcome":0,"trial":83,"correct":2,"trial_type":"three-arm-trial","trial_index":94,"time_elapsed":802133,"internal_node_id":"0.0-89.0-0.0","task_version":"screening-mturk","missing":false,"accuracy":0},{"contexts":["red","blue","green"],"outcomes":[0,0,0],"key":37,"choice":0,"rt":45.03499995917082,"outcome":0,"trial":84,"correct":2,"trial_type":"three-arm-trial","trial_index":95,"time_elapsed":803445,"internal_node_id":"0.0-90.0-0.0","task_version":"screening-mturk","missing":false,"accuracy":0},{"contexts":["red","blue","green"],"outcomes":[0,0,1],"key":38,"choice":1,"rt":183.67499997839332,"outcome":0,"trial":85,"correct":2,"trial_type":"three-arm-trial","trial_index":96,"time_elapsed":804846,"internal_node_id":"0.0-91.0-0.0","task_version":"screening-mturk","missing":false,"accuracy":0},{"contexts":["red","blue","green"],"outcomes":[0,1,1],"key":39,"choice":2,"rt":1207.1500000311062,"outcome":1,"trial":86,"correct":2,"trial_type":"three-arm-trial","trial_index":97,"time_elapsed":807261,"internal_node_id":"0.0-92.0-0.0","task_version":"screening-mturk","missing":false,"accuracy":1},{"contexts":["red","blue","green"],"outcomes":[0,0,1],"key":39,"choice":2,"rt":709.9199999356642,"outcome":1,"trial":87,"correct":2,"trial_type":"three-arm-trial","trial_index":98,"time_elapsed":809196,"internal_node_id":"0.0-93.0-0.0","task_version":"screening-mturk","missing":false,"accuracy":1},{"contexts":["red","blue","green"],"outcomes":[0,0,1],"key":39,"choice":2,"rt":747.1000000368804,"outcome":1,"trial":88,"correct":2,"trial_type":"three-arm-trial","trial_index":99,"time_elapsed":811422,"internal_node_id":"0.0-94.0-0.0","task_version":"screening-mturk","missing":false,"accuracy":1},{"contexts":["red","blue","green"],"outcomes":[0,0,1],"key":39,"choice":2,"rt":1635.5450000846758,"outcome":1,"trial":89,"correct":2,"trial_type":"three-arm-trial","trial_index":100,"time_elapsed":814367,"internal_node_id":"0.0-95.0-0.0","task_version":"screening-mturk","missing":false,"accuracy":1},{"contexts":["red","blue","green"],"outcomes":[0,0,1],"key":39,"choice":2,"rt":3538.7149999151006,"outcome":1,"trial":90,"correct":2,"trial_type":"three-arm-trial","trial_index":101,"time_elapsed":819143,"internal_node_id":"0.0-96.0-0.0","task_version":"screening-mturk","missing":false,"accuracy":1},{"rt":78566.02999998722,"responses":{"age":"24","gender-categorical":"Male","gender-free-response":"","ethnicity":"Not Hispanic or Latino","race":["White"],"language":"Yes","fluency":"Very well","prolific":"No","prolific-this-study":"No"},"survey":"demographics","trial_type":"survey-demo","trial_index":102,"time_elapsed":897729,"internal_node_id":"0.0-97.0","task_version":"screening-mturk","interactions":"[{\"event\":\"blur\",\"trial\":10,\"time\":462643},{\"event\":\"focus\",\"trial\":10,\"time\":519527}]"}]