[{"responses":{"Q12":"2","Q13":"2","Q03":"0","Q04":"0","Q08":"2","Q09":"2","Q05":"3","Q07":"2","Q10":"2","Q02":"3","Q11":"1","Q06":"2","Q01":"3"},"rt":26679.810000001453,"survey":"bisbas","trial_type":"survey-template","trial_index":0,"time_elapsed":26693,"internal_node_id":"0.0-0.0","task_version":"screening-mturk"},{"responses":{"Q03":"2","Q08":"1","Q12":"2","Q07":"3","Q02":"0","Q13":"2","Q15":"2","Q11":"1","Q06":"2","Q10":"1","Q09":"1","Q14":"3","Q01":"3","Q04":"3","Q05":"2"},"rt":41633.915000013076,"survey":"shaps","trial_type":"survey-template","trial_index":1,"time_elapsed":68335,"internal_node_id":"0.0-1.0","task_version":"screening-mturk"},{"responses":{"Q03":"3","Q02":"3","Q01":"3"},"rt":5205.9250000165775,"survey":"pswq","trial_type":"survey-template","trial_index":2,"time_elapsed":73547,"internal_node_id":"0.0-2.0","task_version":"screening-mturk"},{"responses":{"Q05":"0","Q03":"1","Q04":"1","Q01":"1","Q02":"1","Q06":"2","Q07":"0","Q08":"0"},"rt":14866.365000023507,"survey":"gad7","trial_type":"survey-template","trial_index":3,"time_elapsed":88420,"internal_node_id":"0.0-3.0","task_version":"screening-mturk"},{"responses":{"Q10":"1","Q12":"1","Q07":"3","Q11":"2","Q02":"0","Q05":"0","Q01":"0","Q13":"0","Q15":"1","Q06":"1","Q14":"0","Q08":"2","Q03":"1","Q09":"1","Q04":"1"},"rt":31312.36500001978,"survey":"7up7down","trial_type":"survey-template","trial_index":4,"time_elapsed":119741,"internal_node_id":"0.0-4.0","task_version":"screening-mturk"},{"view_history":"[{\"page_index\":0,\"viewing_time\":2101.105000008829},{\"page_index\":1,\"viewing_time\":2214.6100000245497},{\"page_index\":2,\"viewing_time\":2131.089999922551},{\"page_index\":3,\"viewing_time\":1967.9500000784174},{\"page_index\":4,\"viewing_time\":1860.9699999215081},{\"page_index\":5,\"viewing_time\":1245.9149999776855},{\"page_index\":6,\"viewing_time\":2188.880000030622},{\"page_index\":7,\"viewing_time\":573.0899999616668}]","rt":14284.660000004806,"trial_type":"instructions","trial_index":5,"time_elapsed":134031,"internal_node_id":"0.0-5.0-0.0","task_version":"screening-mturk"},{"responses":["True","True","True","True","True"],"num_errors":2,"rt":15281.220000004396,"trial_type":"three-arm-comprehension","trial_index":6,"time_elapsed":149315,"internal_node_id":"0.0-5.0-1.0","task_version":"screening-mturk"},{"view_history":"[{\"page_index\":0,\"viewing_time\":1471.2499999441206},{\"page_index\":1,\"viewing_time\":412.8800000762567},{\"page_index\":2,\"viewing_time\":368.82500001229346},{\"page_index\":3,\"viewing_time\":586.2549999728799},{\"page_index\":4,\"viewing_time\":422.980000032112},{\"page_index\":5,\"viewing_time\":357.954999897629},{\"page_index\":6,\"viewing_time\":1262.455000076443},{\"page_index\":7,\"viewing_time\":1390.5650000087917}]","rt":6273.455000016838,"trial_type":"instructions","trial_index":7,"time_elapsed":155595,"internal_node_id":"0.0-5.1-0.1","task_version":"screening-mturk"},{"responses":["True","True","False","False","True"],"num_errors":0,"rt":10060.905000078492,"trial_type":"three-arm-comprehension","trial_index":8,"time_elapsed":165658,"internal_node_id":"0.0-5.1-1.1","task_version":"screening-mturk"},{"view_history":"[{\"page_index\":0,\"viewing_time\":1667.8250000113621}]","rt":1668.08500001207,"trial_type":"instructions","trial_index":9,"time_elapsed":167333,"internal_node_id":"0.0-6.0","task_version":"screening-mturk"},{"contexts":["blue","green","red"],"outcomes":[0,1,0],"key":38,"choice":1,"rt":3995.4000000143424,"outcome":1,"trial":1,"correct":1,"trial_type":"three-arm-trial","trial_index":10,"time_elapsed":172532,"internal_node_id":"0.0-7.0-0.0","task_version":"screening-mturk","missing":false,"accuracy":1},{"contexts":["blue","green","red"],"outcomes":[1,1,1],"key":38,"choice":1,"rt":320.84499998018146,"outcome":1,"trial":2,"correct":1,"trial_type":"three-arm-trial","trial_index":11,"time_elapsed":174058,"internal_node_id":"0.0-8.0-0.0","task_version":"screening-mturk","missing":false,"accuracy":1},{"contexts":["blue","green","red"],"outcomes":[0,1,0],"key":38,"choice":1,"rt":338.8500000583008,"outcome":1,"trial":3,"correct":1,"trial_type":"three-arm-trial","trial_index":12,"time_elapsed":175604,"internal_node_id":"0.0-9.0-0.0","task_version":"screening-mturk","missing":false,"accuracy":1},{"contexts":["blue","green","red"],"outcomes":[1,1,0],"key":38,"choice":1,"rt":97.52499999012798,"outcome":1,"trial":4,"correct":1,"trial_type":"three-arm-trial","trial_index":13,"time_elapsed":176909,"internal_node_id":"0.0-10.0-0.0","task_version":"screening-mturk","missing":false,"accuracy":1},{"contexts":["blue","green","red"],"outcomes":[0,1,0],"key":38,"choice":1,"rt":16.154999961145222,"outcome":1,"trial":5,"correct":1,"trial_type":"three-arm-trial","trial_index":14,"time_elapsed":178131,"internal_node_id":"0.0-11.0-0.0","task_version":"screening-mturk","missing":false,"accuracy":1},{"contexts":["blue","green","red"],"outcomes":[0,1,0],"key":38,"choice":1,"rt":10.480000055395067,"outcome":1,"trial":6,"correct":1,"trial_type":"three-arm-trial","trial_index":15,"time_elapsed":179348,"internal_node_id":"0.0-12.0-0.0","task_version":"screening-mturk","missing":false,"accuracy":1},{"contexts":["blue","green","red"],"outcomes":[0,1,0],"key":38,"choice":1,"rt":152.81499992124736,"outcome":1,"trial":7,"correct":1,"trial_type":"three-arm-trial","trial_index":16,"time_elapsed":180707,"internal_node_id":"0.0-13.0-0.0","task_version":"screening-mturk","missing":false,"accuracy":1},{"contexts":["blue","green","red"],"outcomes":[0,0,0],"key":38,"choice":1,"rt":26.58000006340444,"outcome":0,"trial":8,"correct":1,"trial_type":"three-arm-trial","trial_index":17,"time_elapsed":181939,"internal_node_id":"0.0-14.0-0.0","task_version":"screening-mturk","missing":false,"accuracy":1},{"contexts":["blue","green","red"],"outcomes":[0,1,0],"key":38,"choice":1,"rt":858.3550000330433,"outcome":1,"trial":9,"correct":1,"trial_type":"three-arm-trial","trial_index":18,"time_elapsed":184004,"internal_node_id":"0.0-15.0-0.0","task_version":"screening-mturk","missing":false,"accuracy":1},{"contexts":["blue","green","red"],"outcomes":[0,1,0],"key":38,"choice":1,"rt":73.74999998137355,"outcome":1,"trial":10,"correct":1,"trial_type":"three-arm-trial","trial_index":19,"time_elapsed":185283,"internal_node_id":"0.0-16.0-0.0","task_version":"screening-mturk","missing":false,"accuracy":1},{"contexts":["blue","green","red"],"outcomes":[0,1,0],"key":38,"choice":1,"rt":17.4000000115484,"outcome":1,"trial":11,"correct":1,"trial_type":"three-arm-trial","trial_index":20,"time_elapsed":186507,"internal_node_id":"0.0-17.0-0.0","task_version":"screening-mturk","missing":false,"accuracy":1},{"contexts":["blue","green","red"],"outcomes":[0,1,0],"key":38,"choice":1,"rt":162.3700000345707,"outcome":1,"trial":12,"correct":1,"trial_type":"three-arm-trial","trial_index":21,"time_elapsed":187875,"internal_node_id":"0.0-18.0-0.0","task_version":"screening-mturk","missing":false,"accuracy":1},{"contexts":["blue","green","red"],"outcomes":[0,1,1],"key":38,"choice":1,"rt":41.25999996904284,"outcome":1,"trial":13,"correct":1,"trial_type":"three-arm-trial","trial_index":22,"time_elapsed":189123,"internal_node_id":"0.0-19.0-0.0","task_version":"screening-mturk","missing":false,"accuracy":1},{"contexts":["blue","green","red"],"outcomes":[0,1,0],"key":38,"choice":1,"rt":73.15999991260469,"outcome":1,"trial":14,"correct":1,"trial_type":"three-arm-trial","trial_index":23,"time_elapsed":190403,"internal_node_id":"0.0-20.0-0.0","task_version":"screening-mturk","missing":false,"accuracy":1},{"contexts":["blue","green","red"],"outcomes":[0,1,0],"key":38,"choice":1,"rt":74.09999996889383,"outcome":1,"trial":15,"correct":1,"trial_type":"three-arm-trial","trial_index":24,"time_elapsed":191683,"internal_node_id":"0.0-21.0-0.0","task_version":"screening-mturk","missing":false,"accuracy":1},{"contexts":["blue","green","red"],"outcomes":[1,0,0],"key":38,"choice":1,"rt":97.69500000402331,"outcome":0,"trial":16,"correct":0,"trial_type":"three-arm-trial","trial_index":25,"time_elapsed":192988,"internal_node_id":"0.0-22.0-0.0","task_version":"screening-mturk","missing":false,"accuracy":0},{"contexts":["blue","green","red"],"outcomes":[1,0,0],"key":38,"choice":1,"rt":48.61000005621463,"outcome":0,"trial":17,"correct":0,"trial_type":"three-arm-trial","trial_index":26,"time_elapsed":194243,"internal_node_id":"0.0-23.0-0.0","task_version":"screening-mturk","missing":false,"accuracy":0},{"contexts":["blue","green","red"],"outcomes":[1,0,0],"key":38,"choice":1,"rt":545.3199999174103,"outcome":0,"trial":18,"correct":0,"trial_type":"three-arm-trial","trial_index":27,"time_elapsed":195995,"internal_node_id":"0.0-24.0-0.0","task_version":"screening-mturk","missing":false,"accuracy":0},{"contexts":["blue","green","red"],"outcomes":[0,0,0],"key":37,"choice":0,"rt":153.61499995924532,"outcome":0,"trial":19,"correct":0,"trial_type":"three-arm-trial","trial_index":28,"time_elapsed":197355,"internal_node_id":"0.0-25.0-0.0","task_version":"screening-mturk","missing":false,"accuracy":1},{"contexts":["blue","green","red"],"outcomes":[1,0,0],"key":39,"choice":2,"rt":96.64500004146248,"outcome":0,"trial":20,"correct":0,"trial_type":"three-arm-trial","trial_index":29,"time_elapsed":198659,"internal_node_id":"0.0-26.0-0.0","task_version":"screening-mturk","missing":false,"accuracy":0},{"contexts":["blue","green","red"],"outcomes":[0,0,1],"key":38,"choice":1,"rt":17.165000084787607,"outcome":0,"trial":21,"correct":0,"trial_type":"three-arm-trial","trial_index":30,"time_elapsed":199883,"internal_node_id":"0.0-27.0-0.0","task_version":"screening-mturk","missing":false,"accuracy":0},{"contexts":["blue","green","red"],"outcomes":[0,0,0],"key":37,"choice":0,"rt":9.844999993219972,"outcome":0,"trial":22,"correct":0,"trial_type":"three-arm-trial","trial_index":31,"time_elapsed":201102,"internal_node_id":"0.0-28.0-0.0","task_version":"screening-mturk","missing":false,"accuracy":1},{"contexts":["blue","green","red"],"outcomes":[0,0,0],"key":39,"choice":2,"rt":30.41000000666827,"outcome":0,"trial":23,"correct":0,"trial_type":"three-arm-trial","trial_index":32,"time_elapsed":202339,"internal_node_id":"0.0-29.0-0.0","task_version":"screening-mturk","missing":false,"accuracy":0},{"contexts":["blue","green","red"],"outcomes":[1,0,0],"key":38,"choice":1,"rt":481.02000006474555,"outcome":0,"trial":24,"correct":0,"trial_type":"three-arm-trial","trial_index":33,"time_elapsed":204028,"internal_node_id":"0.0-30.0-0.0","task_version":"screening-mturk","missing":false,"accuracy":0},{"contexts":["blue","green","red"],"outcomes":[1,0,0],"key":38,"choice":1,"rt":649.1349999560043,"outcome":0,"trial":25,"correct":0,"trial_type":"three-arm-trial","trial_index":34,"time_elapsed":205884,"internal_node_id":"0.0-31.0-0.0","task_version":"screening-mturk","missing":false,"accuracy":0},{"contexts":["blue","green","red"],"outcomes":[1,0,0],"key":37,"choice":0,"rt":6.940000108443201,"outcome":1,"trial":26,"correct":0,"trial_type":"three-arm-trial","trial_index":35,"time_elapsed":207097,"internal_node_id":"0.0-32.0-0.0","task_version":"screening-mturk","missing":false,"accuracy":1},{"contexts":["blue","green","red"],"outcomes":[1,0,0],"key":37,"choice":0,"rt":147.3400000249967,"outcome":1,"trial":27,"correct":0,"trial_type":"three-arm-trial","trial_index":36,"time_elapsed":208450,"internal_node_id":"0.0-33.0-0.0","task_version":"screening-mturk","missing":false,"accuracy":1},{"contexts":["blue","green","red"],"outcomes":[1,0,0],"key":37,"choice":0,"rt":187.25499999709427,"outcome":1,"trial":28,"correct":0,"trial_type":"three-arm-trial","trial_index":37,"time_elapsed":209842,"internal_node_id":"0.0-34.0-0.0","task_version":"screening-mturk","missing":false,"accuracy":1},{"contexts":["blue","green","red"],"outcomes":[1,0,0],"key":37,"choice":0,"rt":170.24500004481524,"outcome":1,"trial":29,"correct":0,"trial_type":"three-arm-trial","trial_index":38,"time_elapsed":211219,"internal_node_id":"0.0-35.0-0.0","task_version":"screening-mturk","missing":false,"accuracy":1},{"contexts":["blue","green","red"],"outcomes":[1,1,0],"key":37,"choice":0,"rt":177.46499995701015,"outcome":1,"trial":30,"correct":0,"trial_type":"three-arm-trial","trial_index":39,"time_elapsed":212602,"internal_node_id":"0.0-36.0-0.0","task_version":"screening-mturk","missing":false,"accuracy":1},{"contexts":["blue","green","red"],"outcomes":[0,1,0],"key":37,"choice":0,"rt":185.75499998405576,"outcome":0,"trial":31,"correct":1,"trial_type":"three-arm-trial","trial_index":40,"time_elapsed":213997,"internal_node_id":"0.0-37.0-0.0","task_version":"screening-mturk","missing":false,"accuracy":0},{"contexts":["blue","green","red"],"outcomes":[0,1,0],"key":37,"choice":0,"rt":254.95500001125038,"outcome":0,"trial":32,"correct":1,"trial_type":"three-arm-trial","trial_index":41,"time_elapsed":215458,"internal_node_id":"0.0-38.0-0.0","task_version":"screening-mturk","missing":false,"accuracy":0},{"contexts":["blue","green","red"],"outcomes":[0,1,0],"key":39,"choice":2,"rt":122.0699999248609,"outcome":0,"trial":33,"correct":1,"trial_type":"three-arm-trial","trial_index":42,"time_elapsed":216786,"internal_node_id":"0.0-39.0-0.0","task_version":"screening-mturk","missing":false,"accuracy":0},{"contexts":["blue","green","red"],"outcomes":[1,1,0],"key":39,"choice":2,"rt":97.9700000025332,"outcome":0,"trial":34,"correct":1,"trial_type":"three-arm-trial","trial_index":43,"time_elapsed":218089,"internal_node_id":"0.0-40.0-0.0","task_version":"screening-mturk","missing":false,"accuracy":0},{"contexts":["blue","green","red"],"outcomes":[0,1,0],"key":38,"choice":1,"rt":594.6199999889359,"outcome":1,"trial":35,"correct":1,"trial_type":"three-arm-trial","trial_index":44,"time_elapsed":219890,"internal_node_id":"0.0-41.0-0.0","task_version":"screening-mturk","missing":false,"accuracy":1},{"contexts":["blue","green","red"],"outcomes":[0,1,0],"key":38,"choice":1,"rt":49.5299999602139,"outcome":1,"trial":36,"correct":1,"trial_type":"three-arm-trial","trial_index":45,"time_elapsed":221147,"internal_node_id":"0.0-42.0-0.0","task_version":"screening-mturk","missing":false,"accuracy":1},{"contexts":["blue","green","red"],"outcomes":[1,1,0],"key":38,"choice":1,"rt":120.98000000696629,"outcome":1,"trial":37,"correct":1,"trial_type":"three-arm-trial","trial_index":46,"time_elapsed":222474,"internal_node_id":"0.0-43.0-0.0","task_version":"screening-mturk","missing":false,"accuracy":1},{"contexts":["blue","green","red"],"outcomes":[0,1,0],"key":38,"choice":1,"rt":514.2650000052527,"outcome":1,"trial":38,"correct":1,"trial_type":"three-arm-trial","trial_index":47,"time_elapsed":224195,"internal_node_id":"0.0-44.0-0.0","task_version":"screening-mturk","missing":false,"accuracy":1},{"contexts":["blue","green","red"],"outcomes":[1,0,0],"key":38,"choice":1,"rt":409.19499995652586,"outcome":0,"trial":39,"correct":1,"trial_type":"three-arm-trial","trial_index":48,"time_elapsed":225809,"internal_node_id":"0.0-45.0-0.0","task_version":"screening-mturk","missing":false,"accuracy":1},{"contexts":["blue","green","red"],"outcomes":[0,1,0],"key":39,"choice":2,"rt":387.1849999995902,"outcome":0,"trial":40,"correct":1,"trial_type":"three-arm-trial","trial_index":49,"time_elapsed":227403,"internal_node_id":"0.0-46.0-0.0","task_version":"screening-mturk","missing":false,"accuracy":0},{"contexts":["blue","green","red"],"outcomes":[0,1,0],"key":39,"choice":2,"rt":177.52999998629093,"outcome":0,"trial":41,"correct":1,"trial_type":"three-arm-trial","trial_index":50,"time_elapsed":228786,"internal_node_id":"0.0-47.0-0.0","task_version":"screening-mturk","missing":false,"accuracy":0},{"contexts":["blue","green","red"],"outcomes":[0,1,0],"key":37,"choice":0,"rt":258.37999989744276,"outcome":0,"trial":42,"correct":1,"trial_type":"three-arm-trial","trial_index":51,"time_elapsed":230250,"internal_node_id":"0.0-48.0-0.0","task_version":"screening-mturk","missing":false,"accuracy":0},{"contexts":["blue","green","red"],"outcomes":[0,1,1],"key":37,"choice":0,"rt":233.86500007472932,"outcome":0,"trial":43,"correct":1,"trial_type":"three-arm-trial","trial_index":52,"time_elapsed":231690,"internal_node_id":"0.0-49.0-0.0","task_version":"screening-mturk","missing":false,"accuracy":0},{"contexts":["blue","green","red"],"outcomes":[0,1,0],"key":39,"choice":2,"rt":297.95999999623746,"outcome":0,"trial":44,"correct":1,"trial_type":"three-arm-trial","trial_index":53,"time_elapsed":233194,"internal_node_id":"0.0-50.0-0.0","task_version":"screening-mturk","missing":false,"accuracy":0},{"contexts":["blue","green","red"],"outcomes":[1,1,0],"key":38,"choice":1,"rt":352.8449999867007,"outcome":1,"trial":45,"correct":1,"trial_type":"three-arm-trial","trial_index":54,"time_elapsed":234754,"internal_node_id":"0.0-51.0-0.0","task_version":"screening-mturk","missing":false,"accuracy":1},{"contexts":["blue","green","red"],"outcomes":[1,0,1],"key":38,"choice":1,"rt":129.31500002741814,"outcome":0,"trial":46,"correct":0,"trial_type":"three-arm-trial","trial_index":55,"time_elapsed":236089,"internal_node_id":"0.0-52.0-0.0","task_version":"screening-mturk","missing":false,"accuracy":0},{"contexts":["blue","green","red"],"outcomes":[1,1,0],"key":38,"choice":1,"rt":123.11499996576458,"outcome":1,"trial":47,"correct":0,"trial_type":"three-arm-trial","trial_index":56,"time_elapsed":237418,"internal_node_id":"0.0-53.0-0.0","task_version":"screening-mturk","missing":false,"accuracy":0},{"contexts":["blue","green","red"],"outcomes":[0,0,0],"key":38,"choice":1,"rt":106.38999997172505,"outcome":0,"trial":48,"correct":0,"trial_type":"three-arm-trial","trial_index":57,"time_elapsed":238731,"internal_node_id":"0.0-54.0-0.0","task_version":"screening-mturk","missing":false,"accuracy":0},{"contexts":["blue","green","red"],"outcomes":[1,1,0],"key":38,"choice":1,"rt":48.90500009059906,"outcome":1,"trial":49,"correct":0,"trial_type":"three-arm-trial","trial_index":58,"time_elapsed":239986,"internal_node_id":"0.0-55.0-0.0","task_version":"screening-mturk","missing":false,"accuracy":0},{"contexts":["blue","green","red"],"outcomes":[1,0,1],"key":38,"choice":1,"rt":162.10000007413328,"outcome":0,"trial":50,"correct":0,"trial_type":"three-arm-trial","trial_index":59,"time_elapsed":241354,"internal_node_id":"0.0-56.0-0.0","task_version":"screening-mturk","missing":false,"accuracy":0},{"contexts":["blue","green","red"],"outcomes":[1,0,0],"key":38,"choice":1,"rt":194.2249999847263,"outcome":0,"trial":51,"correct":0,"trial_type":"three-arm-trial","trial_index":60,"time_elapsed":242754,"internal_node_id":"0.0-57.0-0.0","task_version":"screening-mturk","missing":false,"accuracy":0},{"contexts":["blue","green","red"],"outcomes":[1,0,0],"key":37,"choice":0,"rt":665.6799999764189,"outcome":1,"trial":52,"correct":0,"trial_type":"three-arm-trial","trial_index":61,"time_elapsed":244626,"internal_node_id":"0.0-58.0-0.0","task_version":"screening-mturk","missing":false,"accuracy":1},{"contexts":["blue","green","red"],"outcomes":[1,0,0],"key":37,"choice":0,"rt":297.5700000533834,"outcome":1,"trial":53,"correct":0,"trial_type":"three-arm-trial","trial_index":62,"time_elapsed":246130,"internal_node_id":"0.0-59.0-0.0","task_version":"screening-mturk","missing":false,"accuracy":1},{"contexts":["blue","green","red"],"outcomes":[1,0,0],"key":37,"choice":0,"rt":377.80000001657754,"outcome":1,"trial":54,"correct":0,"trial_type":"three-arm-trial","trial_index":63,"time_elapsed":247713,"internal_node_id":"0.0-60.0-0.0","task_version":"screening-mturk","missing":false,"accuracy":1},{"contexts":["blue","green","red"],"outcomes":[1,0,0],"key":37,"choice":0,"rt":362.3799999477342,"outcome":1,"trial":55,"correct":0,"trial_type":"three-arm-trial","trial_index":64,"time_elapsed":249282,"internal_node_id":"0.0-61.0-0.0","task_version":"screening-mturk","missing":false,"accuracy":1},{"contexts":["blue","green","red"],"outcomes":[1,0,0],"key":37,"choice":0,"rt":218.0800000205636,"outcome":1,"trial":56,"correct":0,"trial_type":"three-arm-trial","trial_index":65,"time_elapsed":250706,"internal_node_id":"0.0-62.0-0.0","task_version":"screening-mturk","missing":false,"accuracy":1},{"contexts":["blue","green","red"],"outcomes":[1,0,0],"key":37,"choice":0,"rt":65.97499991767108,"outcome":1,"trial":57,"correct":0,"trial_type":"three-arm-trial","trial_index":66,"time_elapsed":251978,"internal_node_id":"0.0-63.0-0.0","task_version":"screening-mturk","missing":false,"accuracy":1},{"contexts":["blue","green","red"],"outcomes":[1,0,0],"key":37,"choice":0,"rt":17.765000113286078,"outcome":1,"trial":58,"correct":0,"trial_type":"three-arm-trial","trial_index":67,"time_elapsed":253202,"internal_node_id":"0.0-64.0-0.0","task_version":"screening-mturk","missing":false,"accuracy":1},{"contexts":["blue","green","red"],"outcomes":[1,0,0],"key":37,"choice":0,"rt":49.54000003635883,"outcome":1,"trial":59,"correct":0,"trial_type":"three-arm-trial","trial_index":68,"time_elapsed":254458,"internal_node_id":"0.0-65.0-0.0","task_version":"screening-mturk","missing":false,"accuracy":1},{"contexts":["blue","green","red"],"outcomes":[1,1,0],"key":37,"choice":0,"rt":0.2050000475719571,"outcome":1,"trial":60,"correct":0,"trial_type":"three-arm-trial","trial_index":69,"time_elapsed":255666,"internal_node_id":"0.0-66.0-0.0","task_version":"screening-mturk","missing":false,"accuracy":1},{"contexts":["blue","green","red"],"outcomes":[0,1,1],"key":37,"choice":0,"rt":176.5300000552088,"outcome":0,"trial":61,"correct":1,"trial_type":"three-arm-trial","trial_index":70,"time_elapsed":257049,"internal_node_id":"0.0-67.0-0.0","task_version":"screening-mturk","missing":false,"accuracy":0},{"contexts":["blue","green","red"],"outcomes":[0,1,0],"key":39,"choice":2,"rt":242.13499994948506,"outcome":0,"trial":62,"correct":1,"trial_type":"three-arm-trial","trial_index":71,"time_elapsed":258498,"internal_node_id":"0.0-68.0-0.0","task_version":"screening-mturk","missing":false,"accuracy":0},{"contexts":["blue","green","red"],"outcomes":[1,1,0],"key":38,"choice":1,"rt":281.8100000731647,"outcome":1,"trial":63,"correct":1,"trial_type":"three-arm-trial","trial_index":72,"time_elapsed":259987,"internal_node_id":"0.0-69.0-0.0","task_version":"screening-mturk","missing":false,"accuracy":1},{"contexts":["blue","green","red"],"outcomes":[0,0,0],"key":38,"choice":1,"rt":25.015000021085143,"outcome":0,"trial":64,"correct":1,"trial_type":"three-arm-trial","trial_index":73,"time_elapsed":261217,"internal_node_id":"0.0-70.0-0.0","task_version":"screening-mturk","missing":false,"accuracy":1},{"contexts":["blue","green","red"],"outcomes":[0,1,0],"key":38,"choice":1,"rt":66.11000001430511,"outcome":1,"trial":65,"correct":1,"trial_type":"three-arm-trial","trial_index":74,"time_elapsed":262489,"internal_node_id":"0.0-71.0-0.0","task_version":"screening-mturk","missing":false,"accuracy":1},{"contexts":["blue","green","red"],"outcomes":[1,0,0],"key":38,"choice":1,"rt":178.3399999840185,"outcome":0,"trial":66,"correct":1,"trial_type":"three-arm-trial","trial_index":75,"time_elapsed":263874,"internal_node_id":"0.0-72.0-0.0","task_version":"screening-mturk","missing":false,"accuracy":1},{"contexts":["blue","green","red"],"outcomes":[0,1,0],"key":38,"choice":1,"rt":41.5150000480935,"outcome":1,"trial":67,"correct":1,"trial_type":"three-arm-trial","trial_index":76,"time_elapsed":265122,"internal_node_id":"0.0-73.0-0.0","task_version":"screening-mturk","missing":false,"accuracy":1},{"contexts":["blue","green","red"],"outcomes":[0,1,0],"key":38,"choice":1,"rt":41.225000051781535,"outcome":1,"trial":68,"correct":1,"trial_type":"three-arm-trial","trial_index":77,"time_elapsed":266370,"internal_node_id":"0.0-74.0-0.0","task_version":"screening-mturk","missing":false,"accuracy":1},{"contexts":["blue","green","red"],"outcomes":[0,0,0],"key":38,"choice":1,"rt":97.99500007648021,"outcome":0,"trial":69,"correct":1,"trial_type":"three-arm-trial","trial_index":78,"time_elapsed":267674,"internal_node_id":"0.0-75.0-0.0","task_version":"screening-mturk","missing":false,"accuracy":1},{"contexts":["blue","green","red"],"outcomes":[0,1,0],"key":38,"choice":1,"rt":553.7999999942258,"outcome":1,"trial":70,"correct":1,"trial_type":"three-arm-trial","trial_index":79,"time_elapsed":269434,"internal_node_id":"0.0-76.0-0.0","task_version":"screening-mturk","missing":false,"accuracy":1},{"contexts":["blue","green","red"],"outcomes":[1,1,1],"key":38,"choice":1,"rt":160.51499999593943,"outcome":1,"trial":71,"correct":1,"trial_type":"three-arm-trial","trial_index":80,"time_elapsed":270802,"internal_node_id":"0.0-77.0-0.0","task_version":"screening-mturk","missing":false,"accuracy":1},{"contexts":["blue","green","red"],"outcomes":[0,1,0],"key":38,"choice":1,"rt":17.875000019557774,"outcome":1,"trial":72,"correct":1,"trial_type":"three-arm-trial","trial_index":81,"time_elapsed":272026,"internal_node_id":"0.0-78.0-0.0","task_version":"screening-mturk","missing":false,"accuracy":1},{"contexts":["blue","green","red"],"outcomes":[0,1,0],"key":38,"choice":1,"rt":169.11499993875623,"outcome":1,"trial":73,"correct":1,"trial_type":"three-arm-trial","trial_index":82,"time_elapsed":273402,"internal_node_id":"0.0-79.0-0.0","task_version":"screening-mturk","missing":false,"accuracy":1},{"contexts":["blue","green","red"],"outcomes":[0,1,1],"key":38,"choice":1,"rt":6.555000087246299,"outcome":1,"trial":74,"correct":1,"trial_type":"three-arm-trial","trial_index":83,"time_elapsed":274616,"internal_node_id":"0.0-80.0-0.0","task_version":"screening-mturk","missing":false,"accuracy":1},{"contexts":["blue","green","red"],"outcomes":[0,1,0],"key":38,"choice":1,"rt":156.07999998610467,"outcome":1,"trial":75,"correct":1,"trial_type":"three-arm-trial","trial_index":84,"time_elapsed":275978,"internal_node_id":"0.0-81.0-0.0","task_version":"screening-mturk","missing":false,"accuracy":1},{"contexts":["blue","green","red"],"outcomes":[1,0,0],"key":38,"choice":1,"rt":146.08999993652105,"outcome":0,"trial":76,"correct":0,"trial_type":"three-arm-trial","trial_index":85,"time_elapsed":277330,"internal_node_id":"0.0-82.0-0.0","task_version":"screening-mturk","missing":false,"accuracy":0},{"contexts":["blue","green","red"],"outcomes":[1,1,0],"key":38,"choice":1,"rt":521.2649999884889,"outcome":1,"trial":77,"correct":0,"trial_type":"three-arm-trial","trial_index":86,"time_elapsed":279058,"internal_node_id":"0.0-83.0-0.0","task_version":"screening-mturk","missing":false,"accuracy":0},{"contexts":["blue","green","red"],"outcomes":[1,0,0],"key":38,"choice":1,"rt":169.39000005368143,"outcome":0,"trial":78,"correct":0,"trial_type":"three-arm-trial","trial_index":87,"time_elapsed":280434,"internal_node_id":"0.0-84.0-0.0","task_version":"screening-mturk","missing":false,"accuracy":0},{"contexts":["blue","green","red"],"outcomes":[1,0,1],"key":38,"choice":1,"rt":2800.5200000479817,"outcome":0,"trial":79,"correct":0,"trial_type":"three-arm-trial","trial_index":88,"time_elapsed":284442,"internal_node_id":"0.0-85.0-0.0","task_version":"screening-mturk","missing":false,"accuracy":0},{"contexts":["blue","green","red"],"outcomes":[1,0,0],"key":38,"choice":1,"rt":33.57999993022531,"outcome":0,"trial":80,"correct":0,"trial_type":"three-arm-trial","trial_index":89,"time_elapsed":285683,"internal_node_id":"0.0-86.0-0.0","task_version":"screening-mturk","missing":false,"accuracy":0},{"contexts":["blue","green","red"],"outcomes":[0,0,0],"key":37,"choice":0,"rt":96.96499991696328,"outcome":0,"trial":81,"correct":0,"trial_type":"three-arm-trial","trial_index":90,"time_elapsed":286986,"internal_node_id":"0.0-87.0-0.0","task_version":"screening-mturk","missing":false,"accuracy":1},{"contexts":["blue","green","red"],"outcomes":[1,1,1],"key":37,"choice":0,"rt":81.97000005748123,"outcome":1,"trial":82,"correct":0,"trial_type":"three-arm-trial","trial_index":91,"time_elapsed":288274,"internal_node_id":"0.0-88.0-0.0","task_version":"screening-mturk","missing":false,"accuracy":1},{"contexts":["blue","green","red"],"outcomes":[0,0,1],"key":37,"choice":0,"rt":113.17999998573214,"outcome":0,"trial":83,"correct":0,"trial_type":"three-arm-trial","trial_index":92,"time_elapsed":289593,"internal_node_id":"0.0-89.0-0.0","task_version":"screening-mturk","missing":false,"accuracy":1},{"contexts":["blue","green","red"],"outcomes":[1,0,0],"key":37,"choice":0,"rt":66.385000012815,"outcome":1,"trial":84,"correct":0,"trial_type":"three-arm-trial","trial_index":93,"time_elapsed":290865,"internal_node_id":"0.0-90.0-0.0","task_version":"screening-mturk","missing":false,"accuracy":1},{"contexts":["blue","green","red"],"outcomes":[1,0,0],"key":37,"choice":0,"rt":107.45999997016042,"outcome":1,"trial":85,"correct":0,"trial_type":"three-arm-trial","trial_index":94,"time_elapsed":292178,"internal_node_id":"0.0-91.0-0.0","task_version":"screening-mturk","missing":false,"accuracy":1},{"contexts":["blue","green","red"],"outcomes":[1,0,0],"key":37,"choice":0,"rt":49.24000008031726,"outcome":1,"trial":86,"correct":0,"trial_type":"three-arm-trial","trial_index":95,"time_elapsed":293434,"internal_node_id":"0.0-92.0-0.0","task_version":"screening-mturk","missing":false,"accuracy":1},{"contexts":["blue","green","red"],"outcomes":[1,1,0],"key":37,"choice":0,"rt":153.7450000178069,"outcome":1,"trial":87,"correct":0,"trial_type":"three-arm-trial","trial_index":96,"time_elapsed":294795,"internal_node_id":"0.0-93.0-0.0","task_version":"screening-mturk","missing":false,"accuracy":1},{"contexts":["blue","green","red"],"outcomes":[1,0,0],"key":37,"choice":0,"rt":18.325000070035458,"outcome":1,"trial":88,"correct":0,"trial_type":"three-arm-trial","trial_index":97,"time_elapsed":296018,"internal_node_id":"0.0-94.0-0.0","task_version":"screening-mturk","missing":false,"accuracy":1},{"contexts":["blue","green","red"],"outcomes":[1,0,0],"key":37,"choice":0,"rt":161.45500005222857,"outcome":1,"trial":89,"correct":0,"trial_type":"three-arm-trial","trial_index":98,"time_elapsed":297386,"internal_node_id":"0.0-95.0-0.0","task_version":"screening-mturk","missing":false,"accuracy":1},{"contexts":["blue","green","red"],"outcomes":[1,0,0],"key":37,"choice":0,"rt":169.774999958463,"outcome":1,"trial":90,"correct":0,"trial_type":"three-arm-trial","trial_index":99,"time_elapsed":298762,"internal_node_id":"0.0-96.0-0.0","task_version":"screening-mturk","missing":false,"accuracy":1},{"rt":50813.87499999255,"responses":{"age":"23","gender-categorical":"Male","gender-free-response":"","ethnicity":"Not Hispanic or Latino","race":["American Indian/Alaska Native"],"language":"Yes","fluency":"Very well","prolific":"No","prolific-this-study":"No"},"survey":"demographics","trial_type":"survey-demo","trial_index":100,"time_elapsed":349585,"internal_node_id":"0.0-97.0","task_version":"screening-mturk","interactions":"[{\"event\":\"blur\",\"trial\":1,\"time\":31972},{\"event\":\"focus\",\"trial\":1,\"time\":32690},{\"event\":\"blur\",\"trial\":1,\"time\":38342},{\"event\":\"focus\",\"trial\":1,\"time\":39568},{\"event\":\"blur\",\"trial\":1,\"time\":44813},{\"event\":\"focus\",\"trial\":1,\"time\":48367},{\"event\":\"blur\",\"trial\":1,\"time\":49507},{\"event\":\"focus\",\"trial\":1,\"time\":50109},{\"event\":\"blur\",\"trial\":87,\"time\":280147},{\"event\":\"focus\",\"trial\":88,\"time\":283006},{\"event\":\"blur\",\"trial\":100,\"time\":300337},{\"event\":\"focus\",\"trial\":100,\"time\":336661}]"}]