[{"responses":{"Q05":"2","Q12":"1","Q13":"3","Q08":"2","Q04":"2","Q09":"1","Q03":"2","Q02":"2","Q10":"1","Q14":"1","Q15":"3","Q01":"2","Q07":"2","Q06":"1","Q11":"2"},"rt":47521.294999999554,"survey":"7up7down","trial_type":"survey-template","trial_index":0,"time_elapsed":47549,"internal_node_id":"0.0-0.0","task_version":"screening-mturk"},{"responses":{"Q07":"2","Q15":"2","Q14":"3","Q06":"2","Q12":"3","Q10":"1","Q02":"1","Q01":"2","Q03":"2","Q04":"1","Q11":"2","Q08":"3","Q05":"3","Q13":"2","Q09":"1"},"rt":59540.030000000115,"survey":"shaps","trial_type":"survey-template","trial_index":1,"time_elapsed":107107,"internal_node_id":"0.0-1.0","task_version":"screening-mturk"},{"responses":{"Q03":"3","Q01":"2","Q02":"4"},"rt":8797.970000000525,"survey":"pswq","trial_type":"survey-template","trial_index":2,"time_elapsed":115914,"internal_node_id":"0.0-2.0","task_version":"screening-mturk"},{"responses":{"Q03":"2","Q10":"3","Q07":"2","Q08":"2","Q05":"1","Q12":"2","Q06":"3","Q13":"1","Q01":"1","Q11":"2","Q09":"3","Q04":"2","Q02":"2"},"rt":99278.37999999974,"survey":"bisbas","trial_type":"survey-template","trial_index":3,"time_elapsed":215208,"internal_node_id":"0.0-3.0","task_version":"screening-mturk"},{"responses":{"Q07":"2","Q02":"2","Q05":"1","Q08":"0","Q06":"1","Q03":"3","Q04":"2","Q01":"3"},"rt":224896.55500000025,"survey":"gad7","trial_type":"survey-template","trial_index":4,"time_elapsed":440117,"internal_node_id":"0.0-4.0","task_version":"screening-mturk"},{"view_history":"[{\"page_index\":0,\"viewing_time\":6654.199999999953},{\"page_index\":1,\"viewing_time\":9326.315000000235},{\"page_index\":2,\"viewing_time\":47346.290000000445},{\"page_index\":3,\"viewing_time\":2514.80499999976},{\"page_index\":4,\"viewing_time\":1274.8849999998347},{\"page_index\":5,\"viewing_time\":797.1450000004261},{\"page_index\":6,\"viewing_time\":759.7149999992689},{\"page_index\":7,\"viewing_time\":4530.030000000785}]","rt":73208.23000000021,"trial_type":"instructions","trial_index":5,"time_elapsed":513333,"internal_node_id":"0.0-5.0-0.0","task_version":"screening-mturk"},{"responses":["True","False","False","True","True"],"num_errors":2,"rt":12068.25500000018,"trial_type":"three-arm-comprehension","trial_index":6,"time_elapsed":525413,"internal_node_id":"0.0-5.0-1.0","task_version":"screening-mturk"},{"view_history":"[{\"page_index\":0,\"viewing_time\":1100.3199999995995},{\"page_index\":1,\"viewing_time\":556.9650000006659},{\"page_index\":2,\"viewing_time\":391.81999999983236},{\"page_index\":3,\"viewing_time\":679.1450000000186},{\"page_index\":4,\"viewing_time\":488.46999999939},{\"page_index\":5,\"viewing_time\":428.2050000000745},{\"page_index\":6,\"viewing_time\":427.9200000001583},{\"page_index\":7,\"viewing_time\":486.8900000001304}]","rt":4560.309999999823,"trial_type":"instructions","trial_index":7,"time_elapsed":529982,"internal_node_id":"0.0-5.1-0.1","task_version":"screening-mturk"},{"responses":["True","True","True","True","True"],"num_errors":2,"rt":20005.42500000028,"trial_type":"three-arm-comprehension","trial_index":8,"time_elapsed":550001,"internal_node_id":"0.0-5.1-1.1","task_version":"screening-mturk"},{"view_history":"[{\"page_index\":0,\"viewing_time\":13823.125000000815},{\"page_index\":1,\"viewing_time\":102129.15999999945},{\"page_index\":2,\"viewing_time\":41151.01500000048},{\"page_index\":3,\"viewing_time\":84331.47499999986},{\"page_index\":4,\"viewing_time\":30961.435000000172},{\"page_index\":5,\"viewing_time\":7007.165000000037},{\"page_index\":6,\"viewing_time\":12651.774999999325},{\"page_index\":7,\"viewing_time\":20783.2850000005}]","rt":312839.28500000003,"trial_type":"instructions","trial_index":9,"time_elapsed":862855,"internal_node_id":"0.0-5.2-0.2","task_version":"screening-mturk"},{"responses":["True","False","False","False","True"],"num_errors":1,"rt":197372.9800000002,"trial_type":"three-arm-comprehension","trial_index":10,"time_elapsed":1060238,"internal_node_id":"0.0-5.2-1.2","task_version":"screening-mturk"},{"view_history":"[{\"page_index\":0,\"viewing_time\":23863.989999999758},{\"page_index\":1,\"viewing_time\":594.7150000000838},{\"page_index\":2,\"viewing_time\":265.01499999989755},{\"page_index\":3,\"viewing_time\":208.2399999999907},{\"page_index\":4,\"viewing_time\":544.315000000177},{\"page_index\":5,\"viewing_time\":564.2600000000093},{\"page_index\":6,\"viewing_time\":539.3000000005122},{\"page_index\":7,\"viewing_time\":575.9499999994878}]","rt":27156.509999999776,"trial_type":"instructions","trial_index":11,"time_elapsed":1087403,"internal_node_id":"0.0-5.3-0.3","task_version":"screening-mturk"},{"responses":["True","True","False","False","True"],"num_errors":0,"rt":5932.574999999953,"trial_type":"three-arm-comprehension","trial_index":12,"time_elapsed":1093343,"internal_node_id":"0.0-5.3-1.3","task_version":"screening-mturk"},{"view_history":"[{\"page_index\":0,\"viewing_time\":1177.0800000003073}]","rt":1178.0450000003912,"trial_type":"instructions","trial_index":13,"time_elapsed":1094530,"internal_node_id":"0.0-6.0","task_version":"screening-mturk"},{"contexts":["blue","green","red"],"outcomes":[0,0,1],"key":38,"choice":1,"rt":7510.51500000013,"outcome":0,"trial":1,"correct":2,"trial_type":"three-arm-trial","trial_index":14,"time_elapsed":1103251,"internal_node_id":"0.0-7.0-0.0","task_version":"screening-mturk","missing":false,"accuracy":0},{"contexts":["blue","green","red"],"outcomes":[0,0,1],"key":39,"choice":2,"rt":2853.035000000149,"outcome":1,"trial":2,"correct":2,"trial_type":"three-arm-trial","trial_index":15,"time_elapsed":1107314,"internal_node_id":"0.0-8.0-0.0","task_version":"screening-mturk","missing":false,"accuracy":1},{"contexts":["blue","green","red"],"outcomes":[1,1,1],"key":37,"choice":0,"rt":469.31500000017695,"outcome":1,"trial":3,"correct":2,"trial_type":"three-arm-trial","trial_index":16,"time_elapsed":1108990,"internal_node_id":"0.0-9.0-0.0","task_version":"screening-mturk","missing":false,"accuracy":0},{"contexts":["blue","green","red"],"outcomes":[0,0,1],"key":39,"choice":2,"rt":379.92000000039116,"outcome":1,"trial":4,"correct":2,"trial_type":"three-arm-trial","trial_index":17,"time_elapsed":1110575,"internal_node_id":"0.0-10.0-0.0","task_version":"screening-mturk","missing":false,"accuracy":1},{"contexts":["blue","green","red"],"outcomes":[0,0,1],"key":38,"choice":1,"rt":221.94500000029802,"outcome":0,"trial":5,"correct":2,"trial_type":"three-arm-trial","trial_index":18,"time_elapsed":1112007,"internal_node_id":"0.0-11.0-0.0","task_version":"screening-mturk","missing":false,"accuracy":0},{"contexts":["blue","green","red"],"outcomes":[0,0,1],"key":37,"choice":0,"rt":137.91500000027008,"outcome":0,"trial":6,"correct":2,"trial_type":"three-arm-trial","trial_index":19,"time_elapsed":1113351,"internal_node_id":"0.0-12.0-0.0","task_version":"screening-mturk","missing":false,"accuracy":0},{"contexts":["blue","green","red"],"outcomes":[0,0,1],"key":39,"choice":2,"rt":90.72999999998137,"outcome":1,"trial":7,"correct":2,"trial_type":"three-arm-trial","trial_index":20,"time_elapsed":1114654,"internal_node_id":"0.0-13.0-0.0","task_version":"screening-mturk","missing":false,"accuracy":1},{"contexts":["blue","green","red"],"outcomes":[0,0,1],"key":38,"choice":1,"rt":298.88500000024214,"outcome":0,"trial":8,"correct":2,"trial_type":"three-arm-trial","trial_index":21,"time_elapsed":1116159,"internal_node_id":"0.0-14.0-0.0","task_version":"screening-mturk","missing":false,"accuracy":0},{"contexts":["blue","green","red"],"outcomes":[0,1,1],"key":39,"choice":2,"rt":106.71999999973923,"outcome":1,"trial":9,"correct":2,"trial_type":"three-arm-trial","trial_index":22,"time_elapsed":1117473,"internal_node_id":"0.0-15.0-0.0","task_version":"screening-mturk","missing":false,"accuracy":1},{"contexts":["blue","green","red"],"outcomes":[0,0,0],"key":37,"choice":0,"rt":462.9699999995064,"outcome":0,"trial":10,"correct":2,"trial_type":"three-arm-trial","trial_index":23,"time_elapsed":1119142,"internal_node_id":"0.0-16.0-0.0","task_version":"screening-mturk","missing":false,"accuracy":0},{"contexts":["blue","green","red"],"outcomes":[0,0,1],"key":37,"choice":0,"rt":175.89500000025146,"outcome":0,"trial":11,"correct":2,"trial_type":"three-arm-trial","trial_index":24,"time_elapsed":1120524,"internal_node_id":"0.0-17.0-0.0","task_version":"screening-mturk","missing":false,"accuracy":0},{"contexts":["blue","green","red"],"outcomes":[0,1,1],"key":38,"choice":1,"rt":36.68500000005588,"outcome":1,"trial":12,"correct":2,"trial_type":"three-arm-trial","trial_index":25,"time_elapsed":1121772,"internal_node_id":"0.0-18.0-0.0","task_version":"screening-mturk","missing":false,"accuracy":0},{"contexts":["blue","green","red"],"outcomes":[1,0,1],"key":39,"choice":2,"rt":2157.0149999996647,"outcome":1,"trial":13,"correct":2,"trial_type":"three-arm-trial","trial_index":26,"time_elapsed":1125137,"internal_node_id":"0.0-19.0-0.0","task_version":"screening-mturk","missing":false,"accuracy":1},{"contexts":["blue","green","red"],"outcomes":[1,1,1],"key":37,"choice":0,"rt":2178.8950000000186,"outcome":1,"trial":14,"correct":2,"trial_type":"three-arm-trial","trial_index":27,"time_elapsed":1128522,"internal_node_id":"0.0-20.0-0.0","task_version":"screening-mturk","missing":false,"accuracy":0},{"contexts":["blue","green","red"],"outcomes":[0,0,1],"key":37,"choice":0,"rt":1632.9500000001863,"outcome":0,"trial":15,"correct":2,"trial_type":"three-arm-trial","trial_index":28,"time_elapsed":1131369,"internal_node_id":"0.0-21.0-0.0","task_version":"screening-mturk","missing":false,"accuracy":0},{"contexts":["blue","green","red"],"outcomes":[1,1,0],"key":39,"choice":2,"rt":191.79499999969266,"outcome":0,"trial":16,"correct":0,"trial_type":"three-arm-trial","trial_index":29,"time_elapsed":1132773,"internal_node_id":"0.0-22.0-0.0","task_version":"screening-mturk","missing":false,"accuracy":0},{"contexts":["blue","green","red"],"outcomes":[0,0,0],"key":38,"choice":1,"rt":1292.8350000001956,"outcome":0,"trial":17,"correct":0,"trial_type":"three-arm-trial","trial_index":30,"time_elapsed":1135272,"internal_node_id":"0.0-23.0-0.0","task_version":"screening-mturk","missing":false,"accuracy":0},{"contexts":["blue","green","red"],"outcomes":[0,0,0],"key":39,"choice":2,"rt":420.9749999998603,"outcome":0,"trial":18,"correct":0,"trial_type":"three-arm-trial","trial_index":31,"time_elapsed":1136904,"internal_node_id":"0.0-24.0-0.0","task_version":"screening-mturk","missing":false,"accuracy":0},{"contexts":["blue","green","red"],"outcomes":[1,0,0],"key":39,"choice":2,"rt":1427.380000000121,"outcome":0,"trial":19,"correct":0,"trial_type":"three-arm-trial","trial_index":32,"time_elapsed":1139543,"internal_node_id":"0.0-25.0-0.0","task_version":"screening-mturk","missing":false,"accuracy":0},{"contexts":["blue","green","red"],"outcomes":[0,0,0],"key":38,"choice":1,"rt":98.28999999980442,"outcome":0,"trial":20,"correct":0,"trial_type":"three-arm-trial","trial_index":33,"time_elapsed":1140849,"internal_node_id":"0.0-26.0-0.0","task_version":"screening-mturk","missing":false,"accuracy":0},{"contexts":["blue","green","red"],"outcomes":[1,0,0],"key":37,"choice":0,"rt":883.1450000007171,"outcome":1,"trial":21,"correct":0,"trial_type":"three-arm-trial","trial_index":34,"time_elapsed":1142939,"internal_node_id":"0.0-27.0-0.0","task_version":"screening-mturk","missing":false,"accuracy":1},{"contexts":["blue","green","red"],"outcomes":[1,0,1],"key":39,"choice":2,"rt":827.4900000006892,"outcome":1,"trial":22,"correct":0,"trial_type":"three-arm-trial","trial_index":35,"time_elapsed":1144974,"internal_node_id":"0.0-28.0-0.0","task_version":"screening-mturk","missing":false,"accuracy":0},{"contexts":["blue","green","red"],"outcomes":[1,0,1],"key":37,"choice":0,"rt":12.015000000130385,"outcome":1,"trial":23,"correct":0,"trial_type":"three-arm-trial","trial_index":36,"time_elapsed":1146196,"internal_node_id":"0.0-29.0-0.0","task_version":"screening-mturk","missing":false,"accuracy":1},{"contexts":["blue","green","red"],"outcomes":[1,0,0],"key":39,"choice":2,"rt":66.57999999960884,"outcome":0,"trial":24,"correct":0,"trial_type":"three-arm-trial","trial_index":37,"time_elapsed":1147471,"internal_node_id":"0.0-30.0-0.0","task_version":"screening-mturk","missing":false,"accuracy":0},{"contexts":["blue","green","red"],"outcomes":[0,1,0],"key":37,"choice":0,"rt":243.65500000026077,"outcome":0,"trial":25,"correct":0,"trial_type":"three-arm-trial","trial_index":38,"time_elapsed":1148922,"internal_node_id":"0.0-31.0-0.0","task_version":"screening-mturk","missing":false,"accuracy":1},{"contexts":["blue","green","red"],"outcomes":[1,0,0],"key":38,"choice":1,"rt":156.7249999998603,"outcome":0,"trial":26,"correct":0,"trial_type":"three-arm-trial","trial_index":39,"time_elapsed":1150296,"internal_node_id":"0.0-32.0-0.0","task_version":"screening-mturk","missing":false,"accuracy":0},{"contexts":["blue","green","red"],"outcomes":[1,1,1],"key":37,"choice":0,"rt":159.81500000017695,"outcome":1,"trial":27,"correct":0,"trial_type":"three-arm-trial","trial_index":40,"time_elapsed":1151663,"internal_node_id":"0.0-33.0-0.0","task_version":"screening-mturk","missing":false,"accuracy":1},{"contexts":["blue","green","red"],"outcomes":[1,0,0],"key":39,"choice":2,"rt":25.894999999785796,"outcome":0,"trial":28,"correct":0,"trial_type":"three-arm-trial","trial_index":41,"time_elapsed":1152895,"internal_node_id":"0.0-34.0-0.0","task_version":"screening-mturk","missing":false,"accuracy":0},{"contexts":["blue","green","red"],"outcomes":[1,0,0],"key":38,"choice":1,"rt":112.07499999995343,"outcome":0,"trial":29,"correct":0,"trial_type":"three-arm-trial","trial_index":42,"time_elapsed":1154217,"internal_node_id":"0.0-35.0-0.0","task_version":"screening-mturk","missing":false,"accuracy":0},{"contexts":["blue","green","red"],"outcomes":[0,0,0],"key":37,"choice":0,"rt":39.639999999897555,"outcome":0,"trial":30,"correct":0,"trial_type":"three-arm-trial","trial_index":43,"time_elapsed":1155506,"internal_node_id":"0.0-36.0-0.0","task_version":"screening-mturk","missing":false,"accuracy":1},{"contexts":["blue","green","red"],"outcomes":[0,0,0],"key":39,"choice":2,"rt":16.175000000512227,"outcome":0,"trial":31,"correct":2,"trial_type":"three-arm-trial","trial_index":44,"time_elapsed":1156729,"internal_node_id":"0.0-37.0-0.0","task_version":"screening-mturk","missing":false,"accuracy":1},{"contexts":["blue","green","red"],"outcomes":[0,1,1],"key":38,"choice":1,"rt":1217.1699999999255,"outcome":1,"trial":32,"correct":2,"trial_type":"three-arm-trial","trial_index":45,"time_elapsed":1159153,"internal_node_id":"0.0-38.0-0.0","task_version":"screening-mturk","missing":false,"accuracy":0},{"contexts":["blue","green","red"],"outcomes":[0,1,1],"key":39,"choice":2,"rt":86.32500000018626,"outcome":1,"trial":33,"correct":2,"trial_type":"three-arm-trial","trial_index":46,"time_elapsed":1160450,"internal_node_id":"0.0-39.0-0.0","task_version":"screening-mturk","missing":false,"accuracy":1},{"contexts":["blue","green","red"],"outcomes":[0,0,0],"key":38,"choice":1,"rt":26.380000000353903,"outcome":0,"trial":34,"correct":2,"trial_type":"three-arm-trial","trial_index":47,"time_elapsed":1161684,"internal_node_id":"0.0-40.0-0.0","task_version":"screening-mturk","missing":false,"accuracy":0},{"contexts":["blue","green","red"],"outcomes":[1,0,0],"key":37,"choice":0,"rt":234.32499999948777,"outcome":1,"trial":35,"correct":2,"trial_type":"three-arm-trial","trial_index":48,"time_elapsed":1163126,"internal_node_id":"0.0-41.0-0.0","task_version":"screening-mturk","missing":false,"accuracy":0},{"contexts":["blue","green","red"],"outcomes":[1,1,1],"key":39,"choice":2,"rt":172.26500000013039,"outcome":1,"trial":36,"correct":2,"trial_type":"three-arm-trial","trial_index":49,"time_elapsed":1164503,"internal_node_id":"0.0-42.0-0.0","task_version":"screening-mturk","missing":false,"accuracy":1},{"contexts":["blue","green","red"],"outcomes":[0,0,1],"key":38,"choice":1,"rt":57.70999999996275,"outcome":0,"trial":37,"correct":2,"trial_type":"three-arm-trial","trial_index":50,"time_elapsed":1165769,"internal_node_id":"0.0-43.0-0.0","task_version":"screening-mturk","missing":false,"accuracy":0},{"contexts":["blue","green","red"],"outcomes":[0,0,1],"key":39,"choice":2,"rt":32.02999999932945,"outcome":1,"trial":38,"correct":2,"trial_type":"three-arm-trial","trial_index":51,"time_elapsed":1167058,"internal_node_id":"0.0-44.0-0.0","task_version":"screening-mturk","missing":false,"accuracy":1},{"contexts":["blue","green","red"],"outcomes":[1,0,0],"key":37,"choice":0,"rt":190.2249999991618,"outcome":1,"trial":39,"correct":2,"trial_type":"three-arm-trial","trial_index":52,"time_elapsed":1168455,"internal_node_id":"0.0-45.0-0.0","task_version":"screening-mturk","missing":false,"accuracy":0},{"contexts":["blue","green","red"],"outcomes":[0,0,1],"key":39,"choice":2,"rt":107.67000000039116,"outcome":1,"trial":40,"correct":2,"trial_type":"three-arm-trial","trial_index":53,"time_elapsed":1169773,"internal_node_id":"0.0-46.0-0.0","task_version":"screening-mturk","missing":false,"accuracy":1},{"contexts":["blue","green","red"],"outcomes":[0,0,1],"key":37,"choice":0,"rt":657.4000000001397,"outcome":0,"trial":41,"correct":2,"trial_type":"three-arm-trial","trial_index":54,"time_elapsed":1171638,"internal_node_id":"0.0-47.0-0.0","task_version":"screening-mturk","missing":false,"accuracy":0},{"contexts":["blue","green","red"],"outcomes":[0,0,0],"key":38,"choice":1,"rt":330.25,"outcome":0,"trial":42,"correct":2,"trial_type":"three-arm-trial","trial_index":55,"time_elapsed":1173175,"internal_node_id":"0.0-48.0-0.0","task_version":"screening-mturk","missing":false,"accuracy":0},{"contexts":["blue","green","red"],"outcomes":[0,0,1],"key":39,"choice":2,"rt":52.609999999636784,"outcome":1,"trial":43,"correct":2,"trial_type":"three-arm-trial","trial_index":56,"time_elapsed":1174439,"internal_node_id":"0.0-49.0-0.0","task_version":"screening-mturk","missing":false,"accuracy":1},{"contexts":["blue","green","red"],"outcomes":[0,0,0],"key":37,"choice":0,"rt":242.73499999986961,"outcome":0,"trial":44,"correct":2,"trial_type":"three-arm-trial","trial_index":57,"time_elapsed":1175889,"internal_node_id":"0.0-50.0-0.0","task_version":"screening-mturk","missing":false,"accuracy":0},{"contexts":["blue","green","red"],"outcomes":[0,1,1],"key":39,"choice":2,"rt":163.20500000054017,"outcome":1,"trial":45,"correct":2,"trial_type":"three-arm-trial","trial_index":58,"time_elapsed":1177262,"internal_node_id":"0.0-51.0-0.0","task_version":"screening-mturk","missing":false,"accuracy":1},{"contexts":["blue","green","red"],"outcomes":[0,1,0],"key":37,"choice":0,"rt":369.3599999996368,"outcome":0,"trial":46,"correct":1,"trial_type":"three-arm-trial","trial_index":59,"time_elapsed":1178840,"internal_node_id":"0.0-52.0-0.0","task_version":"screening-mturk","missing":false,"accuracy":0},{"contexts":["blue","green","red"],"outcomes":[1,1,1],"key":38,"choice":1,"rt":232.87000000081025,"outcome":1,"trial":47,"correct":1,"trial_type":"three-arm-trial","trial_index":60,"time_elapsed":1180281,"internal_node_id":"0.0-53.0-0.0","task_version":"screening-mturk","missing":false,"accuracy":1},{"contexts":["blue","green","red"],"outcomes":[0,0,0],"key":39,"choice":2,"rt":191.669999999227,"outcome":0,"trial":48,"correct":1,"trial_type":"three-arm-trial","trial_index":61,"time_elapsed":1181677,"internal_node_id":"0.0-54.0-0.0","task_version":"screening-mturk","missing":false,"accuracy":0},{"contexts":["blue","green","red"],"outcomes":[0,1,0],"key":37,"choice":0,"rt":139.64000000036322,"outcome":0,"trial":49,"correct":1,"trial_type":"three-arm-trial","trial_index":62,"time_elapsed":1183024,"internal_node_id":"0.0-55.0-0.0","task_version":"screening-mturk","missing":false,"accuracy":0},{"contexts":["blue","green","red"],"outcomes":[0,1,0],"key":38,"choice":1,"rt":255.8500000005588,"outcome":1,"trial":50,"correct":1,"trial_type":"three-arm-trial","trial_index":63,"time_elapsed":1184487,"internal_node_id":"0.0-56.0-0.0","task_version":"screening-mturk","missing":false,"accuracy":1},{"contexts":["blue","green","red"],"outcomes":[1,0,0],"key":39,"choice":2,"rt":82.9199999999255,"outcome":0,"trial":51,"correct":1,"trial_type":"three-arm-trial","trial_index":64,"time_elapsed":1185780,"internal_node_id":"0.0-57.0-0.0","task_version":"screening-mturk","missing":false,"accuracy":0},{"contexts":["blue","green","red"],"outcomes":[0,0,0],"key":39,"choice":2,"rt":11.445000000065193,"outcome":0,"trial":52,"correct":1,"trial_type":"three-arm-trial","trial_index":65,"time_elapsed":1186997,"internal_node_id":"0.0-58.0-0.0","task_version":"screening-mturk","missing":false,"accuracy":0},{"contexts":["blue","green","red"],"outcomes":[0,1,1],"key":39,"choice":2,"rt":245.16500000027008,"outcome":1,"trial":53,"correct":1,"trial_type":"three-arm-trial","trial_index":66,"time_elapsed":1188454,"internal_node_id":"0.0-59.0-0.0","task_version":"screening-mturk","missing":false,"accuracy":0},{"contexts":["blue","green","red"],"outcomes":[0,1,1],"key":38,"choice":1,"rt":154.26000000024214,"outcome":1,"trial":54,"correct":1,"trial_type":"three-arm-trial","trial_index":67,"time_elapsed":1189815,"internal_node_id":"0.0-60.0-0.0","task_version":"screening-mturk","missing":false,"accuracy":1},{"contexts":["blue","green","red"],"outcomes":[0,1,0],"key":39,"choice":2,"rt":81.50000000023283,"outcome":0,"trial":55,"correct":1,"trial_type":"three-arm-trial","trial_index":68,"time_elapsed":1191108,"internal_node_id":"0.0-61.0-0.0","task_version":"screening-mturk","missing":false,"accuracy":0},{"contexts":["blue","green","red"],"outcomes":[0,1,0],"key":38,"choice":1,"rt":619.295000000624,"outcome":1,"trial":56,"correct":1,"trial_type":"three-arm-trial","trial_index":69,"time_elapsed":1192942,"internal_node_id":"0.0-62.0-0.0","task_version":"screening-mturk","missing":false,"accuracy":1},{"contexts":["blue","green","red"],"outcomes":[1,1,0],"key":37,"choice":0,"rt":164.20000000018626,"outcome":1,"trial":57,"correct":1,"trial_type":"three-arm-trial","trial_index":70,"time_elapsed":1194314,"internal_node_id":"0.0-63.0-0.0","task_version":"screening-mturk","missing":false,"accuracy":0},{"contexts":["blue","green","red"],"outcomes":[0,1,0],"key":39,"choice":2,"rt":118.91500000003725,"outcome":0,"trial":58,"correct":1,"trial_type":"three-arm-trial","trial_index":71,"time_elapsed":1195639,"internal_node_id":"0.0-64.0-0.0","task_version":"screening-mturk","missing":false,"accuracy":0},{"contexts":["blue","green","red"],"outcomes":[1,1,0],"key":38,"choice":1,"rt":209.9400000006426,"outcome":1,"trial":59,"correct":1,"trial_type":"three-arm-trial","trial_index":72,"time_elapsed":1197055,"internal_node_id":"0.0-65.0-0.0","task_version":"screening-mturk","missing":false,"accuracy":1},{"contexts":["blue","green","red"],"outcomes":[0,1,0],"key":37,"choice":0,"rt":105.55499999923632,"outcome":0,"trial":60,"correct":1,"trial_type":"three-arm-trial","trial_index":73,"time_elapsed":1198367,"internal_node_id":"0.0-66.0-0.0","task_version":"screening-mturk","missing":false,"accuracy":0},{"contexts":["blue","green","red"],"outcomes":[1,0,0],"key":39,"choice":2,"rt":47.72499999939464,"outcome":0,"trial":61,"correct":0,"trial_type":"three-arm-trial","trial_index":74,"time_elapsed":1199621,"internal_node_id":"0.0-67.0-0.0","task_version":"screening-mturk","missing":false,"accuracy":0},{"contexts":["blue","green","red"],"outcomes":[1,0,0],"key":38,"choice":1,"rt":450.714999999851,"outcome":0,"trial":62,"correct":0,"trial_type":"three-arm-trial","trial_index":75,"time_elapsed":1201279,"internal_node_id":"0.0-68.0-0.0","task_version":"screening-mturk","missing":false,"accuracy":0},{"contexts":["blue","green","red"],"outcomes":[1,1,1],"key":38,"choice":1,"rt":122.29000000027008,"outcome":1,"trial":63,"correct":0,"trial_type":"three-arm-trial","trial_index":76,"time_elapsed":1202611,"internal_node_id":"0.0-69.0-0.0","task_version":"screening-mturk","missing":false,"accuracy":0},{"contexts":["blue","green","red"],"outcomes":[1,0,0],"key":39,"choice":2,"rt":46.94000000017695,"outcome":0,"trial":64,"correct":0,"trial_type":"three-arm-trial","trial_index":77,"time_elapsed":1203866,"internal_node_id":"0.0-70.0-0.0","task_version":"screening-mturk","missing":false,"accuracy":0},{"contexts":["blue","green","red"],"outcomes":[1,0,0],"key":37,"choice":0,"rt":43.89500000071712,"outcome":1,"trial":65,"correct":0,"trial_type":"three-arm-trial","trial_index":78,"time_elapsed":1205120,"internal_node_id":"0.0-71.0-0.0","task_version":"screening-mturk","missing":false,"accuracy":1},{"contexts":["blue","green","red"],"outcomes":[1,0,1],"key":39,"choice":2,"rt":42.1500000001397,"outcome":1,"trial":66,"correct":0,"trial_type":"three-arm-trial","trial_index":79,"time_elapsed":1206392,"internal_node_id":"0.0-72.0-0.0","task_version":"screening-mturk","missing":false,"accuracy":0},{"contexts":["blue","green","red"],"outcomes":[1,0,0],"key":37,"choice":0,"rt":952.7049999996088,"outcome":1,"trial":67,"correct":0,"trial_type":"three-arm-trial","trial_index":80,"time_elapsed":1208556,"internal_node_id":"0.0-73.0-0.0","task_version":"screening-mturk","missing":false,"accuracy":1},{"contexts":["blue","green","red"],"outcomes":[1,1,0],"key":38,"choice":1,"rt":348.29499999969266,"outcome":1,"trial":68,"correct":0,"trial_type":"three-arm-trial","trial_index":81,"time_elapsed":1210112,"internal_node_id":"0.0-74.0-0.0","task_version":"screening-mturk","missing":false,"accuracy":0},{"contexts":["blue","green","red"],"outcomes":[0,0,0],"key":39,"choice":2,"rt":123.0050000003539,"outcome":0,"trial":69,"correct":0,"trial_type":"three-arm-trial","trial_index":82,"time_elapsed":1211444,"internal_node_id":"0.0-75.0-0.0","task_version":"screening-mturk","missing":false,"accuracy":0},{"contexts":["blue","green","red"],"outcomes":[1,1,0],"key":37,"choice":0,"rt":91.9800000002142,"outcome":1,"trial":70,"correct":0,"trial_type":"three-arm-trial","trial_index":83,"time_elapsed":1212744,"internal_node_id":"0.0-76.0-0.0","task_version":"screening-mturk","missing":false,"accuracy":1},{"contexts":["blue","green","red"],"outcomes":[0,0,0],"key":39,"choice":2,"rt":392.55999999912456,"outcome":0,"trial":71,"correct":0,"trial_type":"three-arm-trial","trial_index":84,"time_elapsed":1214344,"internal_node_id":"0.0-77.0-0.0","task_version":"screening-mturk","missing":false,"accuracy":0},{"contexts":["blue","green","red"],"outcomes":[1,0,0],"key":38,"choice":1,"rt":256.84499999973923,"outcome":0,"trial":72,"correct":0,"trial_type":"three-arm-trial","trial_index":85,"time_elapsed":1215808,"internal_node_id":"0.0-78.0-0.0","task_version":"screening-mturk","missing":false,"accuracy":0},{"contexts":["blue","green","red"],"outcomes":[1,0,0],"key":37,"choice":0,"rt":123.71499999961816,"outcome":1,"trial":73,"correct":0,"trial_type":"three-arm-trial","trial_index":86,"time_elapsed":1217137,"internal_node_id":"0.0-79.0-0.0","task_version":"screening-mturk","missing":false,"accuracy":1},{"contexts":["blue","green","red"],"outcomes":[1,0,0],"key":39,"choice":2,"rt":279.5950000002049,"outcome":0,"trial":74,"correct":0,"trial_type":"three-arm-trial","trial_index":87,"time_elapsed":1218621,"internal_node_id":"0.0-80.0-0.0","task_version":"screening-mturk","missing":false,"accuracy":0},{"contexts":["blue","green","red"],"outcomes":[0,0,0],"key":39,"choice":2,"rt":220.96499999961816,"outcome":0,"trial":75,"correct":0,"trial_type":"three-arm-trial","trial_index":88,"time_elapsed":1220056,"internal_node_id":"0.0-81.0-0.0","task_version":"screening-mturk","missing":false,"accuracy":0},{"contexts":["blue","green","red"],"outcomes":[0,1,0],"key":38,"choice":1,"rt":1232.5449999999255,"outcome":1,"trial":76,"correct":2,"trial_type":"three-arm-trial","trial_index":89,"time_elapsed":1222495,"internal_node_id":"0.0-82.0-0.0","task_version":"screening-mturk","missing":false,"accuracy":0},{"contexts":["blue","green","red"],"outcomes":[0,1,1],"key":39,"choice":2,"rt":63.86999999987893,"outcome":1,"trial":77,"correct":2,"trial_type":"three-arm-trial","trial_index":90,"time_elapsed":1223769,"internal_node_id":"0.0-83.0-0.0","task_version":"screening-mturk","missing":false,"accuracy":1},{"contexts":["blue","green","red"],"outcomes":[0,1,1],"key":38,"choice":1,"rt":671.1749999995809,"outcome":1,"trial":78,"correct":2,"trial_type":"three-arm-trial","trial_index":91,"time_elapsed":1225646,"internal_node_id":"0.0-84.0-0.0","task_version":"screening-mturk","missing":false,"accuracy":0},{"contexts":["blue","green","red"],"outcomes":[0,1,1],"key":39,"choice":2,"rt":50.90999999991618,"outcome":1,"trial":79,"correct":2,"trial_type":"three-arm-trial","trial_index":92,"time_elapsed":1226905,"internal_node_id":"0.0-85.0-0.0","task_version":"screening-mturk","missing":false,"accuracy":1},{"contexts":["blue","green","red"],"outcomes":[0,0,1],"key":38,"choice":1,"rt":143.27500000037253,"outcome":0,"trial":80,"correct":2,"trial_type":"three-arm-trial","trial_index":93,"time_elapsed":1228256,"internal_node_id":"0.0-86.0-0.0","task_version":"screening-mturk","missing":false,"accuracy":0},{"contexts":["blue","green","red"],"outcomes":[0,0,1],"key":37,"choice":0,"rt":164.05500000016764,"outcome":0,"trial":81,"correct":2,"trial_type":"three-arm-trial","trial_index":94,"time_elapsed":1229627,"internal_node_id":"0.0-87.0-0.0","task_version":"screening-mturk","missing":false,"accuracy":0},{"contexts":["blue","green","red"],"outcomes":[0,0,1],"key":38,"choice":1,"rt":71.5449999999255,"outcome":0,"trial":82,"correct":2,"trial_type":"three-arm-trial","trial_index":95,"time_elapsed":1230906,"internal_node_id":"0.0-88.0-0.0","task_version":"screening-mturk","missing":false,"accuracy":0},{"contexts":["blue","green","red"],"outcomes":[0,1,1],"key":39,"choice":2,"rt":158.6499999994412,"outcome":1,"trial":83,"correct":2,"trial_type":"three-arm-trial","trial_index":96,"time_elapsed":1232272,"internal_node_id":"0.0-89.0-0.0","task_version":"screening-mturk","missing":false,"accuracy":1},{"contexts":["blue","green","red"],"outcomes":[0,0,1],"key":39,"choice":2,"rt":308.6999999994878,"outcome":1,"trial":84,"correct":2,"trial_type":"three-arm-trial","trial_index":97,"time_elapsed":1233786,"internal_node_id":"0.0-90.0-0.0","task_version":"screening-mturk","missing":false,"accuracy":1},{"contexts":["blue","green","red"],"outcomes":[0,0,1],"key":39,"choice":2,"rt":1184.0950000006706,"outcome":1,"trial":85,"correct":2,"trial_type":"three-arm-trial","trial_index":98,"time_elapsed":1236178,"internal_node_id":"0.0-91.0-0.0","task_version":"screening-mturk","missing":false,"accuracy":1},{"contexts":["blue","green","red"],"outcomes":[1,0,1],"key":38,"choice":1,"rt":768.570000000298,"outcome":0,"trial":86,"correct":2,"trial_type":"three-arm-trial","trial_index":99,"time_elapsed":1238153,"internal_node_id":"0.0-92.0-0.0","task_version":"screening-mturk","missing":false,"accuracy":0},{"contexts":["blue","green","red"],"outcomes":[0,0,1],"key":39,"choice":2,"rt":279.0900000000838,"outcome":1,"trial":87,"correct":2,"trial_type":"three-arm-trial","trial_index":100,"time_elapsed":1239640,"internal_node_id":"0.0-93.0-0.0","task_version":"screening-mturk","missing":false,"accuracy":1},{"contexts":["blue","green","red"],"outcomes":[0,0,1],"key":39,"choice":2,"rt":43.98999999999069,"outcome":1,"trial":88,"correct":2,"trial_type":"three-arm-trial","trial_index":101,"time_elapsed":1240890,"internal_node_id":"0.0-94.0-0.0","task_version":"screening-mturk","missing":false,"accuracy":1},{"contexts":["blue","green","red"],"outcomes":[0,0,1],"key":39,"choice":2,"rt":126.75500000012107,"outcome":1,"trial":89,"correct":2,"trial_type":"three-arm-trial","trial_index":102,"time_elapsed":1242223,"internal_node_id":"0.0-95.0-0.0","task_version":"screening-mturk","missing":false,"accuracy":1},{"contexts":["blue","green","red"],"outcomes":[1,0,1],"key":37,"choice":0,"rt":219.24500000011176,"outcome":1,"trial":90,"correct":2,"trial_type":"three-arm-trial","trial_index":103,"time_elapsed":1243648,"internal_node_id":"0.0-96.0-0.0","task_version":"screening-mturk","missing":false,"accuracy":0},{"rt":70178.0950000002,"responses":{"age":"57","gender-categorical":"Male","gender-free-response":"","ethnicity":"Not Hispanic or Latino","race":["White"],"language":"Yes","fluency":"Very well","prolific":"Yes","prolific-this-study":"No"},"survey":"demographics","trial_type":"survey-demo","trial_index":104,"time_elapsed":1313867,"internal_node_id":"0.0-97.0","task_version":"screening-mturk","interactions":"[{\"event\":\"blur\",\"trial\":3,\"time\":139130},{\"event\":\"focus\",\"trial\":3,\"time\":140647},{\"event\":\"blur\",\"trial\":3,\"time\":142594},{\"event\":\"focus\",\"trial\":3,\"time\":204407},{\"event\":\"blur\",\"trial\":5,\"time\":453317},{\"event\":\"focus\",\"trial\":5,\"time\":454623},{\"event\":\"blur\",\"trial\":5,\"time\":487886},{\"event\":\"focus\",\"trial\":5,\"time\":491357},{\"event\":\"blur\",\"trial\":5,\"time\":495375},{\"event\":\"focus\",\"trial\":5,\"time\":495694},{\"event\":\"blur\",\"trial\":5,\"time\":496349},{\"event\":\"focus\",\"trial\":5,\"time\":502110},{\"event\":\"blur\",\"trial\":8,\"time\":532877},{\"event\":\"focus\",\"trial\":8,\"time\":535718},{\"event\":\"blur\",\"trial\":10,\"time\":1028631},{\"event\":\"focus\",\"trial\":10,\"time\":1031343},{\"event\":\"blur\",\"trial\":11,\"time\":1080611},{\"event\":\"focus\",\"trial\":11,\"time\":1082193},{\"event\":\"blur\",\"trial\":14,\"time\":1096559},{\"event\":\"focus\",\"trial\":14,\"time\":1096905}]"}]