[{"responses":{"Q09":"2","Q10":"3","Q03":"2","Q06":"2","Q13":"3","Q04":"3","Q11":"3","Q08":"2","Q07":"3","Q12":"3","Q05":"2","Q14":"2","Q02":"2","Q15":"3","Q01":"2"},"rt":46495.24499999825,"survey":"shaps","trial_type":"survey-template","trial_index":0,"time_elapsed":46504,"internal_node_id":"0.0-0.0","task_version":"screening-mturk"},{"responses":{"Q05":"3","Q08":"2","Q06":"2","Q11":"3","Q09":"3","Q10":"2","Q12":"3","Q07":"3","Q03":"1","Q13":"3","Q01":"2","Q04":"2","Q02":"1"},"rt":87596.96999995504,"survey":"bisbas","trial_type":"survey-template","trial_index":1,"time_elapsed":134107,"internal_node_id":"0.0-1.0","task_version":"screening-mturk"},{"responses":{"Q08":"0","Q04":"1","Q02":"1","Q05":"1","Q01":"1","Q06":"1","Q03":"1","Q07":"0"},"rt":24519.759999937378,"survey":"gad7","trial_type":"survey-template","trial_index":2,"time_elapsed":158634,"internal_node_id":"0.0-2.0","task_version":"screening-mturk"},{"responses":{"Q05":"1","Q09":"1","Q11":"0","Q13":"0","Q12":"1","Q06":"0","Q14":"0","Q07":"0","Q08":"1","Q10":"1","Q01":"1","Q04":"0","Q03":"0","Q15":"0","Q02":"0"},"rt":65463.349999976344,"survey":"7up7down","trial_type":"survey-template","trial_index":3,"time_elapsed":224102,"internal_node_id":"0.0-3.0","task_version":"screening-mturk"},{"responses":{"Q02":"1","Q01":"1","Q03":"1"},"rt":8472.674999968149,"survey":"pswq","trial_type":"survey-template","trial_index":4,"time_elapsed":232579,"internal_node_id":"0.0-4.0","task_version":"screening-mturk"},{"view_history":"[{\"page_index\":0,\"viewing_time\":4606.610000017099},{\"page_index\":1,\"viewing_time\":4344.520000042394},{\"page_index\":2,\"viewing_time\":6296.850000042468},{\"page_index\":3,\"viewing_time\":3152.674999902956},{\"page_index\":4,\"viewing_time\":21255.27000008151},{\"page_index\":5,\"viewing_time\":7996.139999944717},{\"page_index\":6,\"viewing_time\":2362.3849999858066},{\"page_index\":7,\"viewing_time\":2386.9000000413507},{\"page_index\":6,\"viewing_time\":214.52499995939434},{\"page_index\":5,\"viewing_time\":160.74000007938594},{\"page_index\":4,\"viewing_time\":162.0600000023842},{\"page_index\":3,\"viewing_time\":177.03999998047948},{\"page_index\":2,\"viewing_time\":5115.800000028685},{\"page_index\":3,\"viewing_time\":997.0049998955801},{\"page_index\":4,\"viewing_time\":361.5500000305474},{\"page_index\":5,\"viewing_time\":324.17500007431954},{\"page_index\":6,\"viewing_time\":317.80499999877065},{\"page_index\":7,\"viewing_time\":1331.3849999103695}]","rt":61563.700000057,"trial_type":"instructions","trial_index":5,"time_elapsed":294150,"internal_node_id":"0.0-5.0-0.0","task_version":"screening-mturk"},{"responses":["True","False","False","True","True"],"num_errors":2,"rt":13830.629999982193,"trial_type":"three-arm-comprehension","trial_index":6,"time_elapsed":307983,"internal_node_id":"0.0-5.0-1.0","task_version":"screening-mturk"},{"view_history":"[{\"page_index\":0,\"viewing_time\":2289.2200000351295},{\"page_index\":1,\"viewing_time\":3859.234999981709},{\"page_index\":2,\"viewing_time\":664.2850000644103},{\"page_index\":3,\"viewing_time\":235.3550000116229},{\"page_index\":4,\"viewing_time\":269.1999999806285},{\"page_index\":5,\"viewing_time\":208.97499995771796},{\"page_index\":6,\"viewing_time\":404.37000000383705},{\"page_index\":7,\"viewing_time\":700.0199999893084},{\"page_index\":6,\"viewing_time\":593.5499999905005},{\"page_index\":7,\"viewing_time\":328.914999961853}]","rt":9553.380000055768,"trial_type":"instructions","trial_index":7,"time_elapsed":317541,"internal_node_id":"0.0-5.1-0.1","task_version":"screening-mturk"},{"responses":["True","False","False","True","True"],"num_errors":2,"rt":10698.525000014342,"trial_type":"three-arm-comprehension","trial_index":8,"time_elapsed":328242,"internal_node_id":"0.0-5.1-1.1","task_version":"screening-mturk"},{"view_history":"[{\"page_index\":0,\"viewing_time\":1141.3249999750406},{\"page_index\":1,\"viewing_time\":236.8449999485165},{\"page_index\":2,\"viewing_time\":499.29000006522983},{\"page_index\":3,\"viewing_time\":676.355000003241},{\"page_index\":4,\"viewing_time\":4930.689999950118},{\"page_index\":5,\"viewing_time\":200.3350000595674},{\"page_index\":6,\"viewing_time\":222.72499999962747},{\"page_index\":7,\"viewing_time\":460.4099999414757}]","rt":8368.96499991417,"trial_type":"instructions","trial_index":9,"time_elapsed":336615,"internal_node_id":"0.0-5.2-0.2","task_version":"screening-mturk"},{"responses":["True","True","False","False","True"],"num_errors":0,"rt":10101.619999972172,"trial_type":"three-arm-comprehension","trial_index":10,"time_elapsed":346719,"internal_node_id":"0.0-5.2-1.2","task_version":"screening-mturk"},{"view_history":"[{\"page_index\":0,\"viewing_time\":2177.4699999950826}]","rt":2177.7299999957904,"trial_type":"instructions","trial_index":11,"time_elapsed":348903,"internal_node_id":"0.0-6.0","task_version":"screening-mturk"},{"contexts":["blue","red","green"],"outcomes":[1,0,0],"key":37,"choice":0,"rt":2203.555000014603,"outcome":1,"trial":1,"correct":2,"trial_type":"three-arm-trial","trial_index":12,"time_elapsed":352309,"internal_node_id":"0.0-7.0-0.0","task_version":"screening-mturk","missing":false,"accuracy":0},{"contexts":["blue","red","green"],"outcomes":[0,0,1],"key":37,"choice":0,"rt":1117.9799999808893,"outcome":0,"trial":2,"correct":2,"trial_type":"three-arm-trial","trial_index":13,"time_elapsed":354635,"internal_node_id":"0.0-8.0-0.0","task_version":"screening-mturk","missing":false,"accuracy":0},{"contexts":["blue","red","green"],"outcomes":[0,1,1],"key":37,"choice":0,"rt":328.4849999472499,"outcome":0,"trial":3,"correct":2,"trial_type":"three-arm-trial","trial_index":14,"time_elapsed":356168,"internal_node_id":"0.0-9.0-0.0","task_version":"screening-mturk","missing":false,"accuracy":0},{"contexts":["blue","red","green"],"outcomes":[0,0,1],"key":37,"choice":0,"rt":664.1799999633804,"outcome":0,"trial":4,"correct":2,"trial_type":"three-arm-trial","trial_index":15,"time_elapsed":358037,"internal_node_id":"0.0-10.0-0.0","task_version":"screening-mturk","missing":false,"accuracy":0},{"contexts":["blue","red","green"],"outcomes":[0,0,1],"key":38,"choice":1,"rt":347.234999993816,"outcome":0,"trial":5,"correct":2,"trial_type":"three-arm-trial","trial_index":16,"time_elapsed":359589,"internal_node_id":"0.0-11.0-0.0","task_version":"screening-mturk","missing":false,"accuracy":0},{"contexts":["blue","red","green"],"outcomes":[0,1,1],"key":37,"choice":0,"rt":395.4749999102205,"outcome":0,"trial":6,"correct":2,"trial_type":"three-arm-trial","trial_index":17,"time_elapsed":361197,"internal_node_id":"0.0-12.0-0.0","task_version":"screening-mturk","missing":false,"accuracy":0},{"contexts":["blue","red","green"],"outcomes":[0,0,1],"key":39,"choice":2,"rt":586.2450000131503,"outcome":1,"trial":7,"correct":2,"trial_type":"three-arm-trial","trial_index":18,"time_elapsed":362990,"internal_node_id":"0.0-13.0-0.0","task_version":"screening-mturk","missing":false,"accuracy":1},{"contexts":["blue","red","green"],"outcomes":[0,0,1],"key":37,"choice":0,"rt":368.01499989815056,"outcome":0,"trial":8,"correct":2,"trial_type":"three-arm-trial","trial_index":19,"time_elapsed":364567,"internal_node_id":"0.0-14.0-0.0","task_version":"screening-mturk","missing":false,"accuracy":0},{"contexts":["blue","red","green"],"outcomes":[0,0,1],"key":39,"choice":2,"rt":172.3750000819564,"outcome":1,"trial":9,"correct":2,"trial_type":"three-arm-trial","trial_index":20,"time_elapsed":365945,"internal_node_id":"0.0-15.0-0.0","task_version":"screening-mturk","missing":false,"accuracy":1},{"contexts":["blue","red","green"],"outcomes":[0,1,1],"key":38,"choice":1,"rt":404.6000000089407,"outcome":1,"trial":10,"correct":2,"trial_type":"three-arm-trial","trial_index":21,"time_elapsed":367555,"internal_node_id":"0.0-16.0-0.0","task_version":"screening-mturk","missing":false,"accuracy":0},{"contexts":["blue","red","green"],"outcomes":[0,0,1],"key":39,"choice":2,"rt":145.70500003173947,"outcome":1,"trial":11,"correct":2,"trial_type":"three-arm-trial","trial_index":22,"time_elapsed":368906,"internal_node_id":"0.0-17.0-0.0","task_version":"screening-mturk","missing":false,"accuracy":1},{"contexts":["blue","red","green"],"outcomes":[0,0,1],"key":38,"choice":1,"rt":173.91499993391335,"outcome":0,"trial":12,"correct":2,"trial_type":"three-arm-trial","trial_index":23,"time_elapsed":370287,"internal_node_id":"0.0-18.0-0.0","task_version":"screening-mturk","missing":false,"accuracy":0},{"contexts":["blue","red","green"],"outcomes":[0,0,1],"key":39,"choice":2,"rt":332.094999961555,"outcome":1,"trial":13,"correct":2,"trial_type":"three-arm-trial","trial_index":24,"time_elapsed":371824,"internal_node_id":"0.0-19.0-0.0","task_version":"screening-mturk","missing":false,"accuracy":1},{"contexts":["blue","red","green"],"outcomes":[0,0,1],"key":39,"choice":2,"rt":8.354999939911067,"outcome":1,"trial":14,"correct":2,"trial_type":"three-arm-trial","trial_index":25,"time_elapsed":373040,"internal_node_id":"0.0-20.0-0.0","task_version":"screening-mturk","missing":false,"accuracy":1},{"contexts":["blue","red","green"],"outcomes":[0,1,1],"key":39,"choice":2,"rt":620.4300000099465,"outcome":1,"trial":15,"correct":2,"trial_type":"three-arm-trial","trial_index":26,"time_elapsed":374865,"internal_node_id":"0.0-21.0-0.0","task_version":"screening-mturk","missing":false,"accuracy":1},{"contexts":["blue","red","green"],"outcomes":[1,1,0],"key":39,"choice":2,"rt":363.4049999527633,"outcome":0,"trial":16,"correct":0,"trial_type":"three-arm-trial","trial_index":27,"time_elapsed":376438,"internal_node_id":"0.0-22.0-0.0","task_version":"screening-mturk","missing":false,"accuracy":0},{"contexts":["blue","red","green"],"outcomes":[1,1,0],"key":39,"choice":2,"rt":397.6750000147149,"outcome":0,"trial":17,"correct":0,"trial_type":"three-arm-trial","trial_index":28,"time_elapsed":378044,"internal_node_id":"0.0-23.0-0.0","task_version":"screening-mturk","missing":false,"accuracy":0},{"contexts":["blue","red","green"],"outcomes":[0,0,0],"key":37,"choice":0,"rt":334.68500000890344,"outcome":0,"trial":18,"correct":0,"trial_type":"three-arm-trial","trial_index":29,"time_elapsed":379583,"internal_node_id":"0.0-24.0-0.0","task_version":"screening-mturk","missing":false,"accuracy":1},{"contexts":["blue","red","green"],"outcomes":[1,1,0],"key":39,"choice":2,"rt":132.96499999705702,"outcome":0,"trial":19,"correct":0,"trial_type":"three-arm-trial","trial_index":30,"time_elapsed":380924,"internal_node_id":"0.0-25.0-0.0","task_version":"screening-mturk","missing":false,"accuracy":0},{"contexts":["blue","red","green"],"outcomes":[1,0,0],"key":38,"choice":1,"rt":66.10499997623265,"outcome":0,"trial":20,"correct":0,"trial_type":"three-arm-trial","trial_index":31,"time_elapsed":382195,"internal_node_id":"0.0-26.0-0.0","task_version":"screening-mturk","missing":false,"accuracy":0},{"contexts":["blue","red","green"],"outcomes":[0,0,0],"key":39,"choice":2,"rt":124.8999999370426,"outcome":0,"trial":21,"correct":0,"trial_type":"three-arm-trial","trial_index":32,"time_elapsed":383525,"internal_node_id":"0.0-27.0-0.0","task_version":"screening-mturk","missing":false,"accuracy":0},{"contexts":["blue","red","green"],"outcomes":[1,1,0],"key":38,"choice":1,"rt":109.01999997440726,"outcome":1,"trial":22,"correct":0,"trial_type":"three-arm-trial","trial_index":33,"time_elapsed":384839,"internal_node_id":"0.0-28.0-0.0","task_version":"screening-mturk","missing":false,"accuracy":0},{"contexts":["blue","red","green"],"outcomes":[1,0,0],"key":38,"choice":1,"rt":460.28999995905906,"outcome":0,"trial":23,"correct":0,"trial_type":"three-arm-trial","trial_index":34,"time_elapsed":386505,"internal_node_id":"0.0-29.0-0.0","task_version":"screening-mturk","missing":false,"accuracy":0},{"contexts":["blue","red","green"],"outcomes":[0,0,0],"key":38,"choice":1,"rt":21.21499995701015,"outcome":0,"trial":24,"correct":0,"trial_type":"three-arm-trial","trial_index":35,"time_elapsed":387733,"internal_node_id":"0.0-30.0-0.0","task_version":"screening-mturk","missing":false,"accuracy":0},{"contexts":["blue","red","green"],"outcomes":[1,0,1],"key":37,"choice":0,"rt":448.75000009778887,"outcome":1,"trial":25,"correct":0,"trial_type":"three-arm-trial","trial_index":36,"time_elapsed":389389,"internal_node_id":"0.0-31.0-0.0","task_version":"screening-mturk","missing":false,"accuracy":1},{"contexts":["blue","red","green"],"outcomes":[0,1,0],"key":37,"choice":0,"rt":154.74999998696148,"outcome":0,"trial":26,"correct":0,"trial_type":"three-arm-trial","trial_index":37,"time_elapsed":390750,"internal_node_id":"0.0-32.0-0.0","task_version":"screening-mturk","missing":false,"accuracy":1},{"contexts":["blue","red","green"],"outcomes":[1,0,0],"key":37,"choice":0,"rt":364.05000009108335,"outcome":1,"trial":27,"correct":0,"trial_type":"three-arm-trial","trial_index":38,"time_elapsed":392321,"internal_node_id":"0.0-33.0-0.0","task_version":"screening-mturk","missing":false,"accuracy":1},{"contexts":["blue","red","green"],"outcomes":[1,1,1],"key":39,"choice":2,"rt":2201.649999944493,"outcome":1,"trial":28,"correct":0,"trial_type":"three-arm-trial","trial_index":39,"time_elapsed":395728,"internal_node_id":"0.0-34.0-0.0","task_version":"screening-mturk","missing":false,"accuracy":0},{"contexts":["blue","red","green"],"outcomes":[0,0,0],"key":38,"choice":1,"rt":1217.6350000081584,"outcome":0,"trial":29,"correct":0,"trial_type":"three-arm-trial","trial_index":40,"time_elapsed":398152,"internal_node_id":"0.0-35.0-0.0","task_version":"screening-mturk","missing":false,"accuracy":0},{"contexts":["blue","red","green"],"outcomes":[1,1,0],"key":37,"choice":0,"rt":260.7699999352917,"outcome":1,"trial":30,"correct":0,"trial_type":"three-arm-trial","trial_index":41,"time_elapsed":399618,"internal_node_id":"0.0-36.0-0.0","task_version":"screening-mturk","missing":false,"accuracy":1},{"contexts":["blue","red","green"],"outcomes":[0,0,1],"key":37,"choice":0,"rt":103.97000005468726,"outcome":0,"trial":31,"correct":2,"trial_type":"three-arm-trial","trial_index":42,"time_elapsed":400927,"internal_node_id":"0.0-37.0-0.0","task_version":"screening-mturk","missing":false,"accuracy":0},{"contexts":["blue","red","green"],"outcomes":[0,0,1],"key":38,"choice":1,"rt":56.19999999180436,"outcome":0,"trial":32,"correct":2,"trial_type":"three-arm-trial","trial_index":43,"time_elapsed":402189,"internal_node_id":"0.0-38.0-0.0","task_version":"screening-mturk","missing":false,"accuracy":0},{"contexts":["blue","red","green"],"outcomes":[0,0,0],"key":39,"choice":2,"rt":407.17500005848706,"outcome":0,"trial":33,"correct":2,"trial_type":"three-arm-trial","trial_index":44,"time_elapsed":403802,"internal_node_id":"0.0-39.0-0.0","task_version":"screening-mturk","missing":false,"accuracy":1},{"contexts":["blue","red","green"],"outcomes":[0,0,0],"key":37,"choice":0,"rt":457.605000003241,"outcome":0,"trial":34,"correct":2,"trial_type":"three-arm-trial","trial_index":45,"time_elapsed":405468,"internal_node_id":"0.0-40.0-0.0","task_version":"screening-mturk","missing":false,"accuracy":0},{"contexts":["blue","red","green"],"outcomes":[0,0,0],"key":38,"choice":1,"rt":314.7599999792874,"outcome":0,"trial":35,"correct":2,"trial_type":"three-arm-trial","trial_index":46,"time_elapsed":406988,"internal_node_id":"0.0-41.0-0.0","task_version":"screening-mturk","missing":false,"accuracy":0},{"contexts":["blue","red","green"],"outcomes":[0,1,0],"key":37,"choice":0,"rt":264.4700000528246,"outcome":0,"trial":36,"correct":2,"trial_type":"three-arm-trial","trial_index":47,"time_elapsed":408459,"internal_node_id":"0.0-42.0-0.0","task_version":"screening-mturk","missing":false,"accuracy":0},{"contexts":["blue","red","green"],"outcomes":[0,0,1],"key":37,"choice":0,"rt":599.430000060238,"outcome":0,"trial":37,"correct":2,"trial_type":"three-arm-trial","trial_index":48,"time_elapsed":410265,"internal_node_id":"0.0-43.0-0.0","task_version":"screening-mturk","missing":false,"accuracy":0},{"contexts":["blue","red","green"],"outcomes":[0,0,1],"key":37,"choice":0,"rt":505.8600000338629,"outcome":0,"trial":38,"correct":2,"trial_type":"three-arm-trial","trial_index":49,"time_elapsed":411978,"internal_node_id":"0.0-44.0-0.0","task_version":"screening-mturk","missing":false,"accuracy":0},{"contexts":["blue","red","green"],"outcomes":[0,1,1],"key":38,"choice":1,"rt":25.544999982230365,"outcome":1,"trial":39,"correct":2,"trial_type":"three-arm-trial","trial_index":50,"time_elapsed":413208,"internal_node_id":"0.0-45.0-0.0","task_version":"screening-mturk","missing":false,"accuracy":0},{"contexts":["blue","red","green"],"outcomes":[0,0,1],"key":39,"choice":2,"rt":47.94499999843538,"outcome":1,"trial":40,"correct":2,"trial_type":"three-arm-trial","trial_index":51,"time_elapsed":414463,"internal_node_id":"0.0-46.0-0.0","task_version":"screening-mturk","missing":false,"accuracy":1},{"contexts":["blue","red","green"],"outcomes":[0,1,1],"key":39,"choice":2,"rt":159.45999999530613,"outcome":1,"trial":41,"correct":2,"trial_type":"three-arm-trial","trial_index":52,"time_elapsed":415829,"internal_node_id":"0.0-47.0-0.0","task_version":"screening-mturk","missing":false,"accuracy":1},{"contexts":["blue","red","green"],"outcomes":[0,0,1],"key":39,"choice":2,"rt":216.93500003311783,"outcome":1,"trial":42,"correct":2,"trial_type":"three-arm-trial","trial_index":53,"time_elapsed":417253,"internal_node_id":"0.0-48.0-0.0","task_version":"screening-mturk","missing":false,"accuracy":1},{"contexts":["blue","red","green"],"outcomes":[0,1,1],"key":39,"choice":2,"rt":309.804999968037,"outcome":1,"trial":43,"correct":2,"trial_type":"three-arm-trial","trial_index":54,"time_elapsed":418772,"internal_node_id":"0.0-49.0-0.0","task_version":"screening-mturk","missing":false,"accuracy":1},{"contexts":["blue","red","green"],"outcomes":[1,0,1],"key":39,"choice":2,"rt":285.6100000208244,"outcome":1,"trial":44,"correct":2,"trial_type":"three-arm-trial","trial_index":55,"time_elapsed":420264,"internal_node_id":"0.0-50.0-0.0","task_version":"screening-mturk","missing":false,"accuracy":1},{"contexts":["blue","red","green"],"outcomes":[0,0,0],"key":39,"choice":2,"rt":284.9500000011176,"outcome":0,"trial":45,"correct":2,"trial_type":"three-arm-trial","trial_index":56,"time_elapsed":421753,"internal_node_id":"0.0-51.0-0.0","task_version":"screening-mturk","missing":false,"accuracy":1},{"contexts":["blue","red","green"],"outcomes":[1,0,1],"key":38,"choice":1,"rt":42.16499999165535,"outcome":0,"trial":46,"correct":0,"trial_type":"three-arm-trial","trial_index":57,"time_elapsed":423002,"internal_node_id":"0.0-52.0-0.0","task_version":"screening-mturk","missing":false,"accuracy":0},{"contexts":["blue","red","green"],"outcomes":[1,0,1],"key":39,"choice":2,"rt":128.2999999821186,"outcome":1,"trial":47,"correct":0,"trial_type":"three-arm-trial","trial_index":58,"time_elapsed":424336,"internal_node_id":"0.0-53.0-0.0","task_version":"screening-mturk","missing":false,"accuracy":0},{"contexts":["blue","red","green"],"outcomes":[0,0,0],"key":39,"choice":2,"rt":94.58500007167459,"outcome":0,"trial":48,"correct":0,"trial_type":"three-arm-trial","trial_index":59,"time_elapsed":425637,"internal_node_id":"0.0-54.0-0.0","task_version":"screening-mturk","missing":false,"accuracy":0},{"contexts":["blue","red","green"],"outcomes":[0,0,0],"key":38,"choice":1,"rt":7.774999947287142,"outcome":0,"trial":49,"correct":0,"trial_type":"three-arm-trial","trial_index":60,"time_elapsed":426852,"internal_node_id":"0.0-55.0-0.0","task_version":"screening-mturk","missing":false,"accuracy":0},{"contexts":["blue","red","green"],"outcomes":[1,0,0],"key":37,"choice":0,"rt":201.43999997526407,"outcome":1,"trial":50,"correct":0,"trial_type":"three-arm-trial","trial_index":61,"time_elapsed":428262,"internal_node_id":"0.0-56.0-0.0","task_version":"screening-mturk","missing":false,"accuracy":1},{"contexts":["blue","red","green"],"outcomes":[1,0,0],"key":37,"choice":0,"rt":139.90999991074204,"outcome":1,"trial":51,"correct":0,"trial_type":"three-arm-trial","trial_index":62,"time_elapsed":429608,"internal_node_id":"0.0-57.0-0.0","task_version":"screening-mturk","missing":false,"accuracy":1},{"contexts":["blue","red","green"],"outcomes":[1,1,0],"key":37,"choice":0,"rt":146.12499997019768,"outcome":1,"trial":52,"correct":0,"trial_type":"three-arm-trial","trial_index":63,"time_elapsed":430959,"internal_node_id":"0.0-58.0-0.0","task_version":"screening-mturk","missing":false,"accuracy":1},{"contexts":["blue","red","green"],"outcomes":[1,0,0],"key":37,"choice":0,"rt":277.765000006184,"outcome":1,"trial":53,"correct":0,"trial_type":"three-arm-trial","trial_index":64,"time_elapsed":432442,"internal_node_id":"0.0-59.0-0.0","task_version":"screening-mturk","missing":false,"accuracy":1},{"contexts":["blue","red","green"],"outcomes":[1,0,0],"key":37,"choice":0,"rt":317.67000001855195,"outcome":1,"trial":54,"correct":0,"trial_type":"three-arm-trial","trial_index":65,"time_elapsed":433964,"internal_node_id":"0.0-60.0-0.0","task_version":"screening-mturk","missing":false,"accuracy":1},{"contexts":["blue","red","green"],"outcomes":[1,0,0],"key":37,"choice":0,"rt":297.554999939166,"outcome":1,"trial":55,"correct":0,"trial_type":"three-arm-trial","trial_index":66,"time_elapsed":435467,"internal_node_id":"0.0-61.0-0.0","task_version":"screening-mturk","missing":false,"accuracy":1},{"contexts":["blue","red","green"],"outcomes":[1,0,0],"key":37,"choice":0,"rt":276.0149999521673,"outcome":1,"trial":56,"correct":0,"trial_type":"three-arm-trial","trial_index":67,"time_elapsed":436949,"internal_node_id":"0.0-62.0-0.0","task_version":"screening-mturk","missing":false,"accuracy":1},{"contexts":["blue","red","green"],"outcomes":[0,0,0],"key":37,"choice":0,"rt":157.92500006500632,"outcome":0,"trial":57,"correct":0,"trial_type":"three-arm-trial","trial_index":68,"time_elapsed":438316,"internal_node_id":"0.0-63.0-0.0","task_version":"screening-mturk","missing":false,"accuracy":1},{"contexts":["blue","red","green"],"outcomes":[1,0,0],"key":39,"choice":2,"rt":46.41000006813556,"outcome":0,"trial":58,"correct":0,"trial_type":"three-arm-trial","trial_index":69,"time_elapsed":439569,"internal_node_id":"0.0-64.0-0.0","task_version":"screening-mturk","missing":false,"accuracy":0},{"contexts":["blue","red","green"],"outcomes":[1,0,1],"key":37,"choice":0,"rt":248.0900000082329,"outcome":1,"trial":59,"correct":0,"trial_type":"three-arm-trial","trial_index":70,"time_elapsed":441024,"internal_node_id":"0.0-65.0-0.0","task_version":"screening-mturk","missing":false,"accuracy":1},{"contexts":["blue","red","green"],"outcomes":[1,0,1],"key":37,"choice":0,"rt":232.20999992918223,"outcome":1,"trial":60,"correct":0,"trial_type":"three-arm-trial","trial_index":71,"time_elapsed":442461,"internal_node_id":"0.0-66.0-0.0","task_version":"screening-mturk","missing":false,"accuracy":1},{"contexts":["blue","red","green"],"outcomes":[1,0,0],"key":37,"choice":0,"rt":276.0599999455735,"outcome":1,"trial":61,"correct":1,"trial_type":"three-arm-trial","trial_index":72,"time_elapsed":443943,"internal_node_id":"0.0-67.0-0.0","task_version":"screening-mturk","missing":false,"accuracy":0},{"contexts":["blue","red","green"],"outcomes":[0,1,0],"key":37,"choice":0,"rt":222.07999997772276,"outcome":0,"trial":62,"correct":1,"trial_type":"three-arm-trial","trial_index":73,"time_elapsed":445370,"internal_node_id":"0.0-68.0-0.0","task_version":"screening-mturk","missing":false,"accuracy":0},{"contexts":["blue","red","green"],"outcomes":[1,1,0],"key":37,"choice":0,"rt":305.90500007383525,"outcome":1,"trial":63,"correct":1,"trial_type":"three-arm-trial","trial_index":74,"time_elapsed":446881,"internal_node_id":"0.0-69.0-0.0","task_version":"screening-mturk","missing":false,"accuracy":0},{"contexts":["blue","red","green"],"outcomes":[0,0,0],"key":37,"choice":0,"rt":369.87999989651144,"outcome":0,"trial":64,"correct":1,"trial_type":"three-arm-trial","trial_index":75,"time_elapsed":448459,"internal_node_id":"0.0-70.0-0.0","task_version":"screening-mturk","missing":false,"accuracy":0},{"contexts":["blue","red","green"],"outcomes":[0,1,1],"key":38,"choice":1,"rt":210.97999997437,"outcome":1,"trial":65,"correct":1,"trial_type":"three-arm-trial","trial_index":76,"time_elapsed":449876,"internal_node_id":"0.0-71.0-0.0","task_version":"screening-mturk","missing":false,"accuracy":1},{"contexts":["blue","red","green"],"outcomes":[0,1,0],"key":37,"choice":0,"rt":3048.2199999969453,"outcome":0,"trial":66,"correct":1,"trial_type":"three-arm-trial","trial_index":77,"time_elapsed":454134,"internal_node_id":"0.0-72.0-0.0","task_version":"screening-mturk","missing":false,"accuracy":0},{"contexts":["blue","red","green"],"outcomes":[0,1,0],"key":38,"choice":1,"rt":344.66999990399927,"outcome":1,"trial":67,"correct":1,"trial_type":"three-arm-trial","trial_index":78,"time_elapsed":455684,"internal_node_id":"0.0-73.0-0.0","task_version":"screening-mturk","missing":false,"accuracy":1},{"contexts":["blue","red","green"],"outcomes":[1,1,0],"key":38,"choice":1,"rt":58.330000028945506,"outcome":1,"trial":68,"correct":1,"trial_type":"three-arm-trial","trial_index":79,"time_elapsed":456947,"internal_node_id":"0.0-74.0-0.0","task_version":"screening-mturk","missing":false,"accuracy":1},{"contexts":["blue","red","green"],"outcomes":[1,1,0],"key":38,"choice":1,"rt":622.6650000317022,"outcome":1,"trial":69,"correct":1,"trial_type":"three-arm-trial","trial_index":80,"time_elapsed":458775,"internal_node_id":"0.0-75.0-0.0","task_version":"screening-mturk","missing":false,"accuracy":1},{"contexts":["blue","red","green"],"outcomes":[0,1,1],"key":38,"choice":1,"rt":244.42999996244907,"outcome":1,"trial":70,"correct":1,"trial_type":"three-arm-trial","trial_index":81,"time_elapsed":460224,"internal_node_id":"0.0-76.0-0.0","task_version":"screening-mturk","missing":false,"accuracy":1},{"contexts":["blue","red","green"],"outcomes":[0,0,0],"key":38,"choice":1,"rt":1193.4299999848008,"outcome":0,"trial":71,"correct":1,"trial_type":"three-arm-trial","trial_index":82,"time_elapsed":462624,"internal_node_id":"0.0-77.0-0.0","task_version":"screening-mturk","missing":false,"accuracy":1},{"contexts":["blue","red","green"],"outcomes":[0,0,1],"key":39,"choice":2,"rt":1061.1100000096485,"outcome":1,"trial":72,"correct":1,"trial_type":"three-arm-trial","trial_index":83,"time_elapsed":464892,"internal_node_id":"0.0-78.0-0.0","task_version":"screening-mturk","missing":false,"accuracy":0},{"contexts":["blue","red","green"],"outcomes":[1,1,0],"key":38,"choice":1,"rt":1321.3250000262633,"outcome":1,"trial":73,"correct":1,"trial_type":"three-arm-trial","trial_index":84,"time_elapsed":467423,"internal_node_id":"0.0-79.0-0.0","task_version":"screening-mturk","missing":false,"accuracy":1},{"contexts":["blue","red","green"],"outcomes":[1,1,0],"key":38,"choice":1,"rt":440.195000031963,"outcome":1,"trial":74,"correct":1,"trial_type":"three-arm-trial","trial_index":85,"time_elapsed":469069,"internal_node_id":"0.0-80.0-0.0","task_version":"screening-mturk","missing":false,"accuracy":1},{"contexts":["blue","red","green"],"outcomes":[0,1,1],"key":38,"choice":1,"rt":362.69500001799315,"outcome":1,"trial":75,"correct":1,"trial_type":"three-arm-trial","trial_index":86,"time_elapsed":470639,"internal_node_id":"0.0-81.0-0.0","task_version":"screening-mturk","missing":false,"accuracy":1},{"contexts":["blue","red","green"],"outcomes":[1,0,1],"key":38,"choice":1,"rt":748.9249999634922,"outcome":0,"trial":76,"correct":2,"trial_type":"three-arm-trial","trial_index":87,"time_elapsed":472603,"internal_node_id":"0.0-82.0-0.0","task_version":"screening-mturk","missing":false,"accuracy":0},{"contexts":["blue","red","green"],"outcomes":[0,0,1],"key":39,"choice":2,"rt":34.804999944753945,"outcome":1,"trial":77,"correct":2,"trial_type":"three-arm-trial","trial_index":88,"time_elapsed":473846,"internal_node_id":"0.0-83.0-0.0","task_version":"screening-mturk","missing":false,"accuracy":1},{"contexts":["blue","red","green"],"outcomes":[0,0,1],"key":39,"choice":2,"rt":425.9099999908358,"outcome":1,"trial":78,"correct":2,"trial_type":"three-arm-trial","trial_index":89,"time_elapsed":475477,"internal_node_id":"0.0-84.0-0.0","task_version":"screening-mturk","missing":false,"accuracy":1},{"contexts":["blue","red","green"],"outcomes":[0,0,1],"key":39,"choice":2,"rt":479.1749999858439,"outcome":1,"trial":79,"correct":2,"trial_type":"three-arm-trial","trial_index":90,"time_elapsed":477161,"internal_node_id":"0.0-85.0-0.0","task_version":"screening-mturk","missing":false,"accuracy":1},{"contexts":["blue","red","green"],"outcomes":[0,0,1],"key":38,"choice":1,"rt":1066.6599998949096,"outcome":0,"trial":80,"correct":2,"trial_type":"three-arm-trial","trial_index":91,"time_elapsed":479433,"internal_node_id":"0.0-86.0-0.0","task_version":"screening-mturk","missing":false,"accuracy":0},{"contexts":["blue","red","green"],"outcomes":[1,1,0],"key":39,"choice":2,"rt":269.7799999732524,"outcome":0,"trial":81,"correct":2,"trial_type":"three-arm-trial","trial_index":92,"time_elapsed":480912,"internal_node_id":"0.0-87.0-0.0","task_version":"screening-mturk","missing":false,"accuracy":1},{"contexts":["blue","red","green"],"outcomes":[0,1,1],"key":38,"choice":1,"rt":91.00999997463077,"outcome":1,"trial":82,"correct":2,"trial_type":"three-arm-trial","trial_index":93,"time_elapsed":482209,"internal_node_id":"0.0-88.0-0.0","task_version":"screening-mturk","missing":false,"accuracy":0},{"contexts":["blue","red","green"],"outcomes":[0,0,0],"key":38,"choice":1,"rt":241.67000001762062,"outcome":0,"trial":83,"correct":2,"trial_type":"three-arm-trial","trial_index":94,"time_elapsed":483656,"internal_node_id":"0.0-89.0-0.0","task_version":"screening-mturk","missing":false,"accuracy":0},{"contexts":["blue","red","green"],"outcomes":[0,1,1],"key":39,"choice":2,"rt":8.254999993368983,"outcome":1,"trial":84,"correct":2,"trial_type":"three-arm-trial","trial_index":95,"time_elapsed":484868,"internal_node_id":"0.0-90.0-0.0","task_version":"screening-mturk","missing":false,"accuracy":1},{"contexts":["blue","red","green"],"outcomes":[0,0,0],"key":38,"choice":1,"rt":515.4249999905005,"outcome":0,"trial":85,"correct":2,"trial_type":"three-arm-trial","trial_index":96,"time_elapsed":486590,"internal_node_id":"0.0-91.0-0.0","task_version":"screening-mturk","missing":false,"accuracy":0},{"contexts":["blue","red","green"],"outcomes":[0,0,1],"key":39,"choice":2,"rt":248.5599999781698,"outcome":1,"trial":86,"correct":2,"trial_type":"three-arm-trial","trial_index":97,"time_elapsed":488044,"internal_node_id":"0.0-92.0-0.0","task_version":"screening-mturk","missing":false,"accuracy":1},{"contexts":["blue","red","green"],"outcomes":[0,0,1],"key":39,"choice":2,"rt":439.3599999602884,"outcome":1,"trial":87,"correct":2,"trial_type":"three-arm-trial","trial_index":98,"time_elapsed":489691,"internal_node_id":"0.0-93.0-0.0","task_version":"screening-mturk","missing":false,"accuracy":1},{"contexts":["blue","red","green"],"outcomes":[0,1,1],"key":39,"choice":2,"rt":327.419999986887,"outcome":1,"trial":88,"correct":2,"trial_type":"three-arm-trial","trial_index":99,"time_elapsed":491224,"internal_node_id":"0.0-94.0-0.0","task_version":"screening-mturk","missing":false,"accuracy":1},{"contexts":["blue","red","green"],"outcomes":[0,0,1],"key":39,"choice":2,"rt":157.94999990612268,"outcome":1,"trial":89,"correct":2,"trial_type":"three-arm-trial","trial_index":100,"time_elapsed":492587,"internal_node_id":"0.0-95.0-0.0","task_version":"screening-mturk","missing":false,"accuracy":1},{"contexts":["blue","red","green"],"outcomes":[0,0,1],"key":39,"choice":2,"rt":226.1350000044331,"outcome":1,"trial":90,"correct":2,"trial_type":"three-arm-trial","trial_index":101,"time_elapsed":494019,"internal_node_id":"0.0-96.0-0.0","task_version":"screening-mturk","missing":false,"accuracy":1},{"rt":14359.71500002779,"responses":{"age":"22","gender-categorical":"Male","gender-free-response":"","ethnicity":"Not Hispanic or Latino","race":["Black or African American"],"language":"Yes","fluency":"Very well","prolific":"No","prolific-this-study":"No"},"survey":"demographics","trial_type":"survey-demo","trial_index":102,"time_elapsed":508384,"internal_node_id":"0.0-97.0","task_version":"screening-mturk","interactions":"[{\"event\":\"blur\",\"trial\":0,\"time\":40270},{\"event\":\"focus\",\"trial\":0,\"time\":41217},{\"event\":\"blur\",\"trial\":3,\"time\":168646},{\"event\":\"focus\",\"trial\":3,\"time\":172707}]"}]