[{"responses":{"Q01":"2","Q14":"1","Q15":"3","Q10":"2","Q04":"2","Q13":"0","Q02":"2","Q12":"1","Q07":"1","Q08":"3","Q03":"2","Q09":"2","Q11":"2","Q05":"2","Q06":"1"},"rt":43764.830000000075,"survey":"shaps","trial_type":"survey-template","trial_index":0,"time_elapsed":43775,"internal_node_id":"0.0-0.0","task_version":"screening-mturk"},{"responses":{"Q06":"1","Q05":"0","Q01":"1","Q07":"0","Q04":"1","Q03":"0","Q08":"0","Q02":"1"},"rt":18576.660000020638,"survey":"gad7","trial_type":"survey-template","trial_index":1,"time_elapsed":62355,"internal_node_id":"0.0-1.0","task_version":"screening-mturk"},{"responses":{"Q09":"2","Q03":"2","Q07":"0","Q05":"0","Q01":"0","Q13":"1","Q14":"0","Q12":"1","Q04":"1","Q06":"0","Q08":"0","Q10":"1","Q11":"1","Q02":"0","Q15":"0"},"rt":61837.67999988049,"survey":"7up7down","trial_type":"survey-template","trial_index":2,"time_elapsed":124196,"internal_node_id":"0.0-2.0","task_version":"screening-mturk"},{"responses":{"Q11":"0","Q05":"1","Q08":"0","Q09":"0","Q12":"1","Q01":"2","Q06":"0","Q04":"1","Q13":"3","Q02":"3","Q07":"2","Q10":"0","Q03":"1"},"rt":52472.82000002451,"survey":"bisbas","trial_type":"survey-template","trial_index":3,"time_elapsed":176671,"internal_node_id":"0.0-3.0","task_version":"screening-mturk"},{"responses":{"Q01":"2","Q03":"2","Q02":"2"},"rt":10210.589999798685,"survey":"pswq","trial_type":"survey-template","trial_index":4,"time_elapsed":186884,"internal_node_id":"0.0-4.0","task_version":"screening-mturk"},{"view_history":"[{\"page_index\":0,\"viewing_time\":2705.7950000744313},{\"page_index\":1,\"viewing_time\":3543.504999950528},{\"page_index\":2,\"viewing_time\":2984.279999975115},{\"page_index\":3,\"viewing_time\":1635.624999878928},{\"page_index\":4,\"viewing_time\":1894.3150001578033},{\"page_index\":5,\"viewing_time\":1117.924999911338},{\"page_index\":6,\"viewing_time\":2811.875000130385},{\"page_index\":7,\"viewing_time\":934.354999801144}]","rt":17628.319999901578,"trial_type":"instructions","trial_index":5,"time_elapsed":204514,"internal_node_id":"0.0-5.0-0.0","task_version":"screening-mturk"},{"responses":["True","True","False","True","True"],"num_errors":1,"rt":18608.290000120178,"trial_type":"three-arm-comprehension","trial_index":6,"time_elapsed":223124,"internal_node_id":"0.0-5.0-1.0","task_version":"screening-mturk"},{"view_history":"[{\"page_index\":0,\"viewing_time\":1960.5600000359118},{\"page_index\":1,\"viewing_time\":484.04500004835427},{\"page_index\":2,\"viewing_time\":907.9449998680502},{\"page_index\":3,\"viewing_time\":1440.2700001373887},{\"page_index\":4,\"viewing_time\":6366.2049998529255},{\"page_index\":5,\"viewing_time\":2864.0350000932813},{\"page_index\":6,\"viewing_time\":813.7300000526011},{\"page_index\":7,\"viewing_time\":486.14499997347593}]","rt":15323.155000107363,"trial_type":"instructions","trial_index":7,"time_elapsed":238452,"internal_node_id":"0.0-5.1-0.1","task_version":"screening-mturk"},{"responses":["True","True","False","False","True"],"num_errors":0,"rt":11707.214999943972,"trial_type":"three-arm-comprehension","trial_index":8,"time_elapsed":250161,"internal_node_id":"0.0-5.1-1.1","task_version":"screening-mturk"},{"view_history":"[{\"page_index\":0,\"viewing_time\":1459.694999968633}]","rt":1459.9099999759346,"trial_type":"instructions","trial_index":9,"time_elapsed":251623,"internal_node_id":"0.0-6.0","task_version":"screening-mturk"},{"contexts":["blue","green","red"],"outcomes":[1,0,0],"key":38,"choice":1,"rt":1564.40500007011,"outcome":0,"trial":1,"correct":0,"trial_type":"three-arm-trial","trial_index":10,"time_elapsed":254391,"internal_node_id":"0.0-7.0-0.0","task_version":"screening-mturk","missing":false,"accuracy":0},{"contexts":["blue","green","red"],"outcomes":[0,0,1],"key":38,"choice":1,"rt":396.974999923259,"outcome":0,"trial":2,"correct":0,"trial_type":"three-arm-trial","trial_index":11,"time_elapsed":255990,"internal_node_id":"0.0-8.0-0.0","task_version":"screening-mturk","missing":false,"accuracy":0},{"contexts":["blue","green","red"],"outcomes":[0,0,0],"key":37,"choice":0,"rt":245.4699999652803,"outcome":0,"trial":3,"correct":0,"trial_type":"three-arm-trial","trial_index":12,"time_elapsed":257438,"internal_node_id":"0.0-9.0-0.0","task_version":"screening-mturk","missing":false,"accuracy":1},{"contexts":["blue","green","red"],"outcomes":[1,0,1],"key":39,"choice":2,"rt":245.4200000502169,"outcome":1,"trial":4,"correct":0,"trial_type":"three-arm-trial","trial_index":13,"time_elapsed":258886,"internal_node_id":"0.0-10.0-0.0","task_version":"screening-mturk","missing":false,"accuracy":0},{"contexts":["blue","green","red"],"outcomes":[1,0,0],"key":38,"choice":1,"rt":213.41000008396804,"outcome":0,"trial":5,"correct":0,"trial_type":"three-arm-trial","trial_index":14,"time_elapsed":260302,"internal_node_id":"0.0-11.0-0.0","task_version":"screening-mturk","missing":false,"accuracy":0},{"contexts":["blue","green","red"],"outcomes":[1,0,0],"key":38,"choice":1,"rt":45.74500001035631,"outcome":0,"trial":6,"correct":0,"trial_type":"three-arm-trial","trial_index":15,"time_elapsed":261549,"internal_node_id":"0.0-12.0-0.0","task_version":"screening-mturk","missing":false,"accuracy":0},{"contexts":["blue","green","red"],"outcomes":[0,0,0],"key":39,"choice":2,"rt":254.33000014163554,"outcome":0,"trial":7,"correct":0,"trial_type":"three-arm-trial","trial_index":16,"time_elapsed":263006,"internal_node_id":"0.0-13.0-0.0","task_version":"screening-mturk","missing":false,"accuracy":0},{"contexts":["blue","green","red"],"outcomes":[0,0,0],"key":39,"choice":2,"rt":14.13000002503395,"outcome":0,"trial":8,"correct":0,"trial_type":"three-arm-trial","trial_index":17,"time_elapsed":264222,"internal_node_id":"0.0-14.0-0.0","task_version":"screening-mturk","missing":false,"accuracy":0},{"contexts":["blue","green","red"],"outcomes":[1,0,0],"key":39,"choice":2,"rt":45.76499992981553,"outcome":0,"trial":9,"correct":0,"trial_type":"three-arm-trial","trial_index":18,"time_elapsed":265470,"internal_node_id":"0.0-15.0-0.0","task_version":"screening-mturk","missing":false,"accuracy":0},{"contexts":["blue","green","red"],"outcomes":[1,0,0],"key":39,"choice":2,"rt":14.309999998658895,"outcome":0,"trial":10,"correct":0,"trial_type":"three-arm-trial","trial_index":19,"time_elapsed":266687,"internal_node_id":"0.0-16.0-0.0","task_version":"screening-mturk","missing":false,"accuracy":0},{"contexts":["blue","green","red"],"outcomes":[1,0,0],"key":39,"choice":2,"rt":44.935000129044056,"outcome":0,"trial":11,"correct":0,"trial_type":"three-arm-trial","trial_index":20,"time_elapsed":267934,"internal_node_id":"0.0-17.0-0.0","task_version":"screening-mturk","missing":false,"accuracy":0},{"contexts":["blue","green","red"],"outcomes":[1,0,0],"key":37,"choice":0,"rt":125.80000003799796,"outcome":1,"trial":12,"correct":0,"trial_type":"three-arm-trial","trial_index":21,"time_elapsed":269262,"internal_node_id":"0.0-18.0-0.0","task_version":"screening-mturk","missing":false,"accuracy":1},{"contexts":["blue","green","red"],"outcomes":[1,0,0],"key":37,"choice":0,"rt":45.48499989323318,"outcome":1,"trial":13,"correct":0,"trial_type":"three-arm-trial","trial_index":22,"time_elapsed":270510,"internal_node_id":"0.0-19.0-0.0","task_version":"screening-mturk","missing":false,"accuracy":1},{"contexts":["blue","green","red"],"outcomes":[1,1,1],"key":37,"choice":0,"rt":69.97999991290271,"outcome":1,"trial":14,"correct":0,"trial_type":"three-arm-trial","trial_index":23,"time_elapsed":271782,"internal_node_id":"0.0-20.0-0.0","task_version":"screening-mturk","missing":false,"accuracy":1},{"contexts":["blue","green","red"],"outcomes":[1,0,0],"key":37,"choice":0,"rt":109.38000003807247,"outcome":1,"trial":15,"correct":0,"trial_type":"three-arm-trial","trial_index":24,"time_elapsed":273095,"internal_node_id":"0.0-21.0-0.0","task_version":"screening-mturk","missing":false,"accuracy":1},{"contexts":["blue","green","red"],"outcomes":[0,0,1],"key":37,"choice":0,"rt":92.15499996207654,"outcome":0,"trial":16,"correct":2,"trial_type":"three-arm-trial","trial_index":25,"time_elapsed":274390,"internal_node_id":"0.0-22.0-0.0","task_version":"screening-mturk","missing":false,"accuracy":0},{"contexts":["blue","green","red"],"outcomes":[0,0,1],"key":38,"choice":1,"rt":13.495000079274178,"outcome":0,"trial":17,"correct":2,"trial_type":"three-arm-trial","trial_index":26,"time_elapsed":275605,"internal_node_id":"0.0-23.0-0.0","task_version":"screening-mturk","missing":false,"accuracy":0},{"contexts":["blue","green","red"],"outcomes":[0,0,1],"key":39,"choice":2,"rt":22.584999911487103,"outcome":1,"trial":18,"correct":2,"trial_type":"three-arm-trial","trial_index":27,"time_elapsed":276830,"internal_node_id":"0.0-24.0-0.0","task_version":"screening-mturk","missing":false,"accuracy":1},{"contexts":["blue","green","red"],"outcomes":[0,0,1],"key":39,"choice":2,"rt":13.160000089555979,"outcome":1,"trial":19,"correct":2,"trial_type":"three-arm-trial","trial_index":28,"time_elapsed":278046,"internal_node_id":"0.0-25.0-0.0","task_version":"screening-mturk","missing":false,"accuracy":1},{"contexts":["blue","green","red"],"outcomes":[1,0,1],"key":39,"choice":2,"rt":109.7250001039356,"outcome":1,"trial":20,"correct":2,"trial_type":"three-arm-trial","trial_index":29,"time_elapsed":279358,"internal_node_id":"0.0-26.0-0.0","task_version":"screening-mturk","missing":false,"accuracy":1},{"contexts":["blue","green","red"],"outcomes":[0,0,0],"key":37,"choice":0,"rt":470.0400000438094,"outcome":0,"trial":21,"correct":2,"trial_type":"three-arm-trial","trial_index":30,"time_elapsed":281029,"internal_node_id":"0.0-27.0-0.0","task_version":"screening-mturk","missing":false,"accuracy":0},{"contexts":["blue","green","red"],"outcomes":[0,1,1],"key":39,"choice":2,"rt":374.17500000447035,"outcome":1,"trial":22,"correct":2,"trial_type":"three-arm-trial","trial_index":31,"time_elapsed":282606,"internal_node_id":"0.0-28.0-0.0","task_version":"screening-mturk","missing":false,"accuracy":1},{"contexts":["blue","green","red"],"outcomes":[0,0,1],"key":39,"choice":2,"rt":429.29500015452504,"outcome":1,"trial":23,"correct":2,"trial_type":"three-arm-trial","trial_index":32,"time_elapsed":284238,"internal_node_id":"0.0-29.0-0.0","task_version":"screening-mturk","missing":false,"accuracy":1},{"contexts":["blue","green","red"],"outcomes":[0,0,0],"key":39,"choice":2,"rt":309.2849999666214,"outcome":0,"trial":24,"correct":2,"trial_type":"three-arm-trial","trial_index":33,"time_elapsed":285750,"internal_node_id":"0.0-30.0-0.0","task_version":"screening-mturk","missing":false,"accuracy":1},{"contexts":["blue","green","red"],"outcomes":[0,0,1],"key":37,"choice":0,"rt":77.9999999795109,"outcome":0,"trial":25,"correct":2,"trial_type":"three-arm-trial","trial_index":34,"time_elapsed":287029,"internal_node_id":"0.0-31.0-0.0","task_version":"screening-mturk","missing":false,"accuracy":0},{"contexts":["blue","green","red"],"outcomes":[1,0,1],"key":38,"choice":1,"rt":94.19000009074807,"outcome":0,"trial":26,"correct":2,"trial_type":"three-arm-trial","trial_index":35,"time_elapsed":288325,"internal_node_id":"0.0-32.0-0.0","task_version":"screening-mturk","missing":false,"accuracy":0},{"contexts":["blue","green","red"],"outcomes":[0,0,1],"key":39,"choice":2,"rt":6.08500000089407,"outcome":1,"trial":27,"correct":2,"trial_type":"three-arm-trial","trial_index":36,"time_elapsed":289533,"internal_node_id":"0.0-33.0-0.0","task_version":"screening-mturk","missing":false,"accuracy":1},{"contexts":["blue","green","red"],"outcomes":[0,0,1],"key":39,"choice":2,"rt":61.64500000886619,"outcome":1,"trial":28,"correct":2,"trial_type":"three-arm-trial","trial_index":37,"time_elapsed":290797,"internal_node_id":"0.0-34.0-0.0","task_version":"screening-mturk","missing":false,"accuracy":1},{"contexts":["blue","green","red"],"outcomes":[0,0,1],"key":39,"choice":2,"rt":142.1050000935793,"outcome":1,"trial":29,"correct":2,"trial_type":"three-arm-trial","trial_index":38,"time_elapsed":292141,"internal_node_id":"0.0-35.0-0.0","task_version":"screening-mturk","missing":false,"accuracy":1},{"contexts":["blue","green","red"],"outcomes":[0,0,1],"key":39,"choice":2,"rt":29.54500005580485,"outcome":1,"trial":30,"correct":2,"trial_type":"three-arm-trial","trial_index":39,"time_elapsed":293374,"internal_node_id":"0.0-36.0-0.0","task_version":"screening-mturk","missing":false,"accuracy":1},{"contexts":["blue","green","red"],"outcomes":[1,1,0],"key":39,"choice":2,"rt":117.00000008568168,"outcome":0,"trial":31,"correct":0,"trial_type":"three-arm-trial","trial_index":40,"time_elapsed":294693,"internal_node_id":"0.0-37.0-0.0","task_version":"screening-mturk","missing":false,"accuracy":0},{"contexts":["blue","green","red"],"outcomes":[1,0,0],"key":39,"choice":2,"rt":69.35500004328787,"outcome":0,"trial":32,"correct":0,"trial_type":"three-arm-trial","trial_index":41,"time_elapsed":295965,"internal_node_id":"0.0-38.0-0.0","task_version":"screening-mturk","missing":false,"accuracy":0},{"contexts":["blue","green","red"],"outcomes":[1,0,0],"key":37,"choice":0,"rt":30.079999938607216,"outcome":1,"trial":33,"correct":0,"trial_type":"three-arm-trial","trial_index":42,"time_elapsed":297197,"internal_node_id":"0.0-39.0-0.0","task_version":"screening-mturk","missing":false,"accuracy":1},{"contexts":["blue","green","red"],"outcomes":[1,0,0],"key":37,"choice":0,"rt":452.7900000102818,"outcome":1,"trial":34,"correct":0,"trial_type":"three-arm-trial","trial_index":43,"time_elapsed":298854,"internal_node_id":"0.0-40.0-0.0","task_version":"screening-mturk","missing":false,"accuracy":1},{"contexts":["blue","green","red"],"outcomes":[1,0,1],"key":37,"choice":0,"rt":133.11000005342066,"outcome":1,"trial":35,"correct":0,"trial_type":"three-arm-trial","trial_index":44,"time_elapsed":300189,"internal_node_id":"0.0-41.0-0.0","task_version":"screening-mturk","missing":false,"accuracy":1},{"contexts":["blue","green","red"],"outcomes":[1,0,0],"key":37,"choice":0,"rt":37.95499983243644,"outcome":1,"trial":36,"correct":0,"trial_type":"three-arm-trial","trial_index":45,"time_elapsed":301429,"internal_node_id":"0.0-42.0-0.0","task_version":"screening-mturk","missing":false,"accuracy":1},{"contexts":["blue","green","red"],"outcomes":[1,0,0],"key":37,"choice":0,"rt":102.32500010170043,"outcome":1,"trial":37,"correct":0,"trial_type":"three-arm-trial","trial_index":46,"time_elapsed":302734,"internal_node_id":"0.0-43.0-0.0","task_version":"screening-mturk","missing":false,"accuracy":1},{"contexts":["blue","green","red"],"outcomes":[0,0,0],"key":37,"choice":0,"rt":21.475000074133277,"outcome":0,"trial":38,"correct":0,"trial_type":"three-arm-trial","trial_index":47,"time_elapsed":303957,"internal_node_id":"0.0-44.0-0.0","task_version":"screening-mturk","missing":false,"accuracy":1},{"contexts":["blue","green","red"],"outcomes":[1,0,0],"key":39,"choice":2,"rt":30.079999938607216,"outcome":0,"trial":39,"correct":0,"trial_type":"three-arm-trial","trial_index":48,"time_elapsed":305189,"internal_node_id":"0.0-45.0-0.0","task_version":"screening-mturk","missing":false,"accuracy":0},{"contexts":["blue","green","red"],"outcomes":[1,0,0],"key":37,"choice":0,"rt":7.3899999260902405,"outcome":1,"trial":40,"correct":0,"trial_type":"three-arm-trial","trial_index":49,"time_elapsed":306398,"internal_node_id":"0.0-46.0-0.0","task_version":"screening-mturk","missing":false,"accuracy":1},{"contexts":["blue","green","red"],"outcomes":[1,0,0],"key":37,"choice":0,"rt":221.12499992363155,"outcome":1,"trial":41,"correct":0,"trial_type":"three-arm-trial","trial_index":50,"time_elapsed":307821,"internal_node_id":"0.0-47.0-0.0","task_version":"screening-mturk","missing":false,"accuracy":1},{"contexts":["blue","green","red"],"outcomes":[1,1,0],"key":37,"choice":0,"rt":477.78999991714954,"outcome":1,"trial":42,"correct":0,"trial_type":"three-arm-trial","trial_index":51,"time_elapsed":309502,"internal_node_id":"0.0-48.0-0.0","task_version":"screening-mturk","missing":false,"accuracy":1},{"contexts":["blue","green","red"],"outcomes":[1,1,0],"key":37,"choice":0,"rt":125.11000013910234,"outcome":1,"trial":43,"correct":0,"trial_type":"three-arm-trial","trial_index":52,"time_elapsed":310829,"internal_node_id":"0.0-49.0-0.0","task_version":"screening-mturk","missing":false,"accuracy":1},{"contexts":["blue","green","red"],"outcomes":[1,0,0],"key":37,"choice":0,"rt":134.12999990396202,"outcome":1,"trial":44,"correct":0,"trial_type":"three-arm-trial","trial_index":53,"time_elapsed":312165,"internal_node_id":"0.0-50.0-0.0","task_version":"screening-mturk","missing":false,"accuracy":1},{"contexts":["blue","green","red"],"outcomes":[0,0,0],"key":37,"choice":0,"rt":141.59499993547797,"outcome":0,"trial":45,"correct":0,"trial_type":"three-arm-trial","trial_index":54,"time_elapsed":313509,"internal_node_id":"0.0-51.0-0.0","task_version":"screening-mturk","missing":false,"accuracy":1},{"contexts":["blue","green","red"],"outcomes":[0,0,1],"key":39,"choice":2,"rt":133.99500004015863,"outcome":1,"trial":46,"correct":2,"trial_type":"three-arm-trial","trial_index":55,"time_elapsed":314846,"internal_node_id":"0.0-52.0-0.0","task_version":"screening-mturk","missing":false,"accuracy":1},{"contexts":["blue","green","red"],"outcomes":[1,0,1],"key":39,"choice":2,"rt":197.1450001001358,"outcome":1,"trial":47,"correct":2,"trial_type":"three-arm-trial","trial_index":56,"time_elapsed":316245,"internal_node_id":"0.0-53.0-0.0","task_version":"screening-mturk","missing":false,"accuracy":1},{"contexts":["blue","green","red"],"outcomes":[0,0,0],"key":39,"choice":2,"rt":253.1300000846386,"outcome":0,"trial":48,"correct":2,"trial_type":"three-arm-trial","trial_index":57,"time_elapsed":317701,"internal_node_id":"0.0-54.0-0.0","task_version":"screening-mturk","missing":false,"accuracy":1},{"contexts":["blue","green","red"],"outcomes":[0,0,1],"key":37,"choice":0,"rt":70.33500005491078,"outcome":0,"trial":49,"correct":2,"trial_type":"three-arm-trial","trial_index":58,"time_elapsed":318973,"internal_node_id":"0.0-55.0-0.0","task_version":"screening-mturk","missing":false,"accuracy":0},{"contexts":["blue","green","red"],"outcomes":[0,0,1],"key":39,"choice":2,"rt":13.73999984934926,"outcome":1,"trial":50,"correct":2,"trial_type":"three-arm-trial","trial_index":59,"time_elapsed":320189,"internal_node_id":"0.0-56.0-0.0","task_version":"screening-mturk","missing":false,"accuracy":1},{"contexts":["blue","green","red"],"outcomes":[0,0,1],"key":39,"choice":2,"rt":166.36000014841557,"outcome":1,"trial":51,"correct":2,"trial_type":"three-arm-trial","trial_index":60,"time_elapsed":321557,"internal_node_id":"0.0-57.0-0.0","task_version":"screening-mturk","missing":false,"accuracy":1},{"contexts":["blue","green","red"],"outcomes":[0,0,1],"key":39,"choice":2,"rt":182.509999955073,"outcome":1,"trial":52,"correct":2,"trial_type":"three-arm-trial","trial_index":61,"time_elapsed":322941,"internal_node_id":"0.0-58.0-0.0","task_version":"screening-mturk","missing":false,"accuracy":1},{"contexts":["blue","green","red"],"outcomes":[0,0,0],"key":39,"choice":2,"rt":197.4649999756366,"outcome":0,"trial":53,"correct":2,"trial_type":"three-arm-trial","trial_index":62,"time_elapsed":324341,"internal_node_id":"0.0-59.0-0.0","task_version":"screening-mturk","missing":false,"accuracy":1},{"contexts":["blue","green","red"],"outcomes":[1,0,0],"key":37,"choice":0,"rt":101.63499996997416,"outcome":1,"trial":54,"correct":2,"trial_type":"three-arm-trial","trial_index":63,"time_elapsed":325645,"internal_node_id":"0.0-60.0-0.0","task_version":"screening-mturk","missing":false,"accuracy":0},{"contexts":["blue","green","red"],"outcomes":[0,1,1],"key":37,"choice":0,"rt":102.17000008560717,"outcome":0,"trial":55,"correct":2,"trial_type":"three-arm-trial","trial_index":64,"time_elapsed":326950,"internal_node_id":"0.0-61.0-0.0","task_version":"screening-mturk","missing":false,"accuracy":0},{"contexts":["blue","green","red"],"outcomes":[0,1,1],"key":39,"choice":2,"rt":4.535000072792172,"outcome":1,"trial":56,"correct":2,"trial_type":"three-arm-trial","trial_index":65,"time_elapsed":328157,"internal_node_id":"0.0-62.0-0.0","task_version":"screening-mturk","missing":false,"accuracy":1},{"contexts":["blue","green","red"],"outcomes":[0,1,0],"key":39,"choice":2,"rt":389.75000008940697,"outcome":0,"trial":57,"correct":2,"trial_type":"three-arm-trial","trial_index":66,"time_elapsed":329750,"internal_node_id":"0.0-63.0-0.0","task_version":"screening-mturk","missing":false,"accuracy":1},{"contexts":["blue","green","red"],"outcomes":[1,0,1],"key":39,"choice":2,"rt":21.175000118091702,"outcome":1,"trial":58,"correct":2,"trial_type":"three-arm-trial","trial_index":67,"time_elapsed":330975,"internal_node_id":"0.0-64.0-0.0","task_version":"screening-mturk","missing":false,"accuracy":1},{"contexts":["blue","green","red"],"outcomes":[0,0,1],"key":39,"choice":2,"rt":252.44000018574297,"outcome":1,"trial":59,"correct":2,"trial_type":"three-arm-trial","trial_index":68,"time_elapsed":332431,"internal_node_id":"0.0-65.0-0.0","task_version":"screening-mturk","missing":false,"accuracy":1},{"contexts":["blue","green","red"],"outcomes":[1,0,0],"key":39,"choice":2,"rt":140.32000000588596,"outcome":0,"trial":60,"correct":2,"trial_type":"three-arm-trial","trial_index":69,"time_elapsed":333774,"internal_node_id":"0.0-66.0-0.0","task_version":"screening-mturk","missing":false,"accuracy":1},{"contexts":["blue","green","red"],"outcomes":[0,1,0],"key":39,"choice":2,"rt":156.84500010684133,"outcome":0,"trial":61,"correct":1,"trial_type":"three-arm-trial","trial_index":70,"time_elapsed":335133,"internal_node_id":"0.0-67.0-0.0","task_version":"screening-mturk","missing":false,"accuracy":0},{"contexts":["blue","green","red"],"outcomes":[0,0,1],"key":39,"choice":2,"rt":181.66000000201166,"outcome":1,"trial":62,"correct":1,"trial_type":"three-arm-trial","trial_index":71,"time_elapsed":336517,"internal_node_id":"0.0-68.0-0.0","task_version":"screening-mturk","missing":false,"accuracy":0},{"contexts":["blue","green","red"],"outcomes":[0,1,1],"key":39,"choice":2,"rt":101.96500015445054,"outcome":1,"trial":63,"correct":1,"trial_type":"three-arm-trial","trial_index":72,"time_elapsed":337822,"internal_node_id":"0.0-69.0-0.0","task_version":"screening-mturk","missing":false,"accuracy":0},{"contexts":["blue","green","red"],"outcomes":[0,1,0],"key":39,"choice":2,"rt":197.0049999654293,"outcome":0,"trial":64,"correct":1,"trial_type":"three-arm-trial","trial_index":73,"time_elapsed":339221,"internal_node_id":"0.0-70.0-0.0","task_version":"screening-mturk","missing":false,"accuracy":0},{"contexts":["blue","green","red"],"outcomes":[0,1,0],"key":39,"choice":2,"rt":93.58499990776181,"outcome":0,"trial":65,"correct":1,"trial_type":"three-arm-trial","trial_index":74,"time_elapsed":340518,"internal_node_id":"0.0-71.0-0.0","task_version":"screening-mturk","missing":false,"accuracy":0},{"contexts":["blue","green","red"],"outcomes":[0,1,0],"key":39,"choice":2,"rt":141.1549998447299,"outcome":0,"trial":66,"correct":1,"trial_type":"three-arm-trial","trial_index":75,"time_elapsed":341861,"internal_node_id":"0.0-72.0-0.0","task_version":"screening-mturk","missing":false,"accuracy":0},{"contexts":["blue","green","red"],"outcomes":[0,1,0],"key":39,"choice":2,"rt":77.80000008642673,"outcome":0,"trial":67,"correct":1,"trial_type":"three-arm-trial","trial_index":76,"time_elapsed":343142,"internal_node_id":"0.0-73.0-0.0","task_version":"screening-mturk","missing":false,"accuracy":0},{"contexts":["blue","green","red"],"outcomes":[0,1,0],"key":37,"choice":0,"rt":196.29999995231628,"outcome":0,"trial":68,"correct":1,"trial_type":"three-arm-trial","trial_index":77,"time_elapsed":344541,"internal_node_id":"0.0-74.0-0.0","task_version":"screening-mturk","missing":false,"accuracy":0},{"contexts":["blue","green","red"],"outcomes":[0,1,0],"key":38,"choice":1,"rt":125.92500005848706,"outcome":1,"trial":69,"correct":1,"trial_type":"three-arm-trial","trial_index":78,"time_elapsed":345869,"internal_node_id":"0.0-75.0-0.0","task_version":"screening-mturk","missing":false,"accuracy":1},{"contexts":["blue","green","red"],"outcomes":[1,1,1],"key":38,"choice":1,"rt":29.59499997086823,"outcome":1,"trial":70,"correct":1,"trial_type":"three-arm-trial","trial_index":79,"time_elapsed":347102,"internal_node_id":"0.0-76.0-0.0","task_version":"screening-mturk","missing":false,"accuracy":1},{"contexts":["blue","green","red"],"outcomes":[0,1,0],"key":38,"choice":1,"rt":180.01499981619418,"outcome":1,"trial":71,"correct":1,"trial_type":"three-arm-trial","trial_index":80,"time_elapsed":348485,"internal_node_id":"0.0-77.0-0.0","task_version":"screening-mturk","missing":false,"accuracy":1},{"contexts":["blue","green","red"],"outcomes":[0,0,0],"key":38,"choice":1,"rt":157.6300000306219,"outcome":0,"trial":72,"correct":1,"trial_type":"three-arm-trial","trial_index":81,"time_elapsed":349845,"internal_node_id":"0.0-78.0-0.0","task_version":"screening-mturk","missing":false,"accuracy":1},{"contexts":["blue","green","red"],"outcomes":[0,1,0],"key":39,"choice":2,"rt":54.62000006809831,"outcome":0,"trial":73,"correct":1,"trial_type":"three-arm-trial","trial_index":82,"time_elapsed":351101,"internal_node_id":"0.0-79.0-0.0","task_version":"screening-mturk","missing":false,"accuracy":0},{"contexts":["blue","green","red"],"outcomes":[0,1,0],"key":37,"choice":0,"rt":405.544999986887,"outcome":0,"trial":74,"correct":1,"trial_type":"three-arm-trial","trial_index":83,"time_elapsed":352709,"internal_node_id":"0.0-80.0-0.0","task_version":"screening-mturk","missing":false,"accuracy":0},{"contexts":["blue","green","red"],"outcomes":[1,1,0],"key":38,"choice":1,"rt":93.84500002488494,"outcome":1,"trial":75,"correct":1,"trial_type":"three-arm-trial","trial_index":84,"time_elapsed":354005,"internal_node_id":"0.0-81.0-0.0","task_version":"screening-mturk","missing":false,"accuracy":1},{"contexts":["blue","green","red"],"outcomes":[0,0,1],"key":38,"choice":1,"rt":45.56499980390072,"outcome":0,"trial":76,"correct":2,"trial_type":"three-arm-trial","trial_index":85,"time_elapsed":355252,"internal_node_id":"0.0-82.0-0.0","task_version":"screening-mturk","missing":false,"accuracy":0},{"contexts":["blue","green","red"],"outcomes":[0,0,1],"key":39,"choice":2,"rt":190.31500001437962,"outcome":1,"trial":77,"correct":2,"trial_type":"three-arm-trial","trial_index":86,"time_elapsed":356645,"internal_node_id":"0.0-83.0-0.0","task_version":"screening-mturk","missing":false,"accuracy":1},{"contexts":["blue","green","red"],"outcomes":[0,1,1],"key":39,"choice":2,"rt":13.650000095367432,"outcome":1,"trial":78,"correct":2,"trial_type":"three-arm-trial","trial_index":87,"time_elapsed":357862,"internal_node_id":"0.0-84.0-0.0","task_version":"screening-mturk","missing":false,"accuracy":1},{"contexts":["blue","green","red"],"outcomes":[0,1,1],"key":39,"choice":2,"rt":292.68000018782914,"outcome":1,"trial":79,"correct":2,"trial_type":"three-arm-trial","trial_index":88,"time_elapsed":359357,"internal_node_id":"0.0-85.0-0.0","task_version":"screening-mturk","missing":false,"accuracy":1},{"contexts":["blue","green","red"],"outcomes":[0,0,1],"key":39,"choice":2,"rt":253.6349999718368,"outcome":1,"trial":80,"correct":2,"trial_type":"three-arm-trial","trial_index":89,"time_elapsed":360813,"internal_node_id":"0.0-86.0-0.0","task_version":"screening-mturk","missing":false,"accuracy":1},{"contexts":["blue","green","red"],"outcomes":[0,1,1],"key":39,"choice":2,"rt":205.84499998949468,"outcome":1,"trial":81,"correct":2,"trial_type":"three-arm-trial","trial_index":90,"time_elapsed":362221,"internal_node_id":"0.0-87.0-0.0","task_version":"screening-mturk","missing":false,"accuracy":1},{"contexts":["blue","green","red"],"outcomes":[0,0,0],"key":39,"choice":2,"rt":133.45000008121133,"outcome":0,"trial":82,"correct":2,"trial_type":"three-arm-trial","trial_index":91,"time_elapsed":363556,"internal_node_id":"0.0-88.0-0.0","task_version":"screening-mturk","missing":false,"accuracy":1},{"contexts":["blue","green","red"],"outcomes":[1,0,1],"key":38,"choice":1,"rt":46.54999985359609,"outcome":0,"trial":83,"correct":2,"trial_type":"three-arm-trial","trial_index":92,"time_elapsed":364805,"internal_node_id":"0.0-89.0-0.0","task_version":"screening-mturk","missing":false,"accuracy":0},{"contexts":["blue","green","red"],"outcomes":[0,0,1],"key":39,"choice":2,"rt":133.3849998190999,"outcome":1,"trial":84,"correct":2,"trial_type":"three-arm-trial","trial_index":93,"time_elapsed":366140,"internal_node_id":"0.0-90.0-0.0","task_version":"screening-mturk","missing":false,"accuracy":1},{"contexts":["blue","green","red"],"outcomes":[0,1,1],"key":39,"choice":2,"rt":150.18499991856515,"outcome":1,"trial":85,"correct":2,"trial_type":"three-arm-trial","trial_index":94,"time_elapsed":367494,"internal_node_id":"0.0-91.0-0.0","task_version":"screening-mturk","missing":false,"accuracy":1},{"contexts":["blue","green","red"],"outcomes":[0,0,1],"key":39,"choice":2,"rt":60.25999994017184,"outcome":1,"trial":86,"correct":2,"trial_type":"three-arm-trial","trial_index":95,"time_elapsed":368757,"internal_node_id":"0.0-92.0-0.0","task_version":"screening-mturk","missing":false,"accuracy":1},{"contexts":["blue","green","red"],"outcomes":[1,0,1],"key":39,"choice":2,"rt":102.21499996259809,"outcome":1,"trial":87,"correct":2,"trial_type":"three-arm-trial","trial_index":96,"time_elapsed":370062,"internal_node_id":"0.0-93.0-0.0","task_version":"screening-mturk","missing":false,"accuracy":1},{"contexts":["blue","green","red"],"outcomes":[0,1,1],"key":39,"choice":2,"rt":140.67000010982156,"outcome":1,"trial":88,"correct":2,"trial_type":"three-arm-trial","trial_index":97,"time_elapsed":371405,"internal_node_id":"0.0-94.0-0.0","task_version":"screening-mturk","missing":false,"accuracy":1},{"contexts":["blue","green","red"],"outcomes":[0,0,1],"key":39,"choice":2,"rt":85.84000007249415,"outcome":1,"trial":89,"correct":2,"trial_type":"three-arm-trial","trial_index":98,"time_elapsed":372693,"internal_node_id":"0.0-95.0-0.0","task_version":"screening-mturk","missing":false,"accuracy":1},{"contexts":["blue","green","red"],"outcomes":[0,0,1],"key":39,"choice":2,"rt":45.769999967888,"outcome":1,"trial":90,"correct":2,"trial_type":"three-arm-trial","trial_index":99,"time_elapsed":373941,"internal_node_id":"0.0-96.0-0.0","task_version":"screening-mturk","missing":false,"accuracy":1},{"rt":24348.209999967366,"responses":{"age":"33","gender-categorical":"Male","gender-free-response":"","ethnicity":"Rather not say","race":["White"],"language":"Yes","fluency":"Very well","prolific":"Yes","prolific-this-study":"No"},"survey":"demographics","trial_type":"survey-demo","trial_index":100,"time_elapsed":398294,"internal_node_id":"0.0-97.0","task_version":"screening-mturk","interactions":"[]"}]