platform,subject,trial,correct,choice,key,rt,accuracy,outcome
mturk,02rwq76tp9lcye8vrl41llnh,1,2,1.0,38.0,3.809,0.0,0.0
mturk,02rwq76tp9lcye8vrl41llnh,2,2,2.0,39.0,0.21,1.0,1.0
mturk,02rwq76tp9lcye8vrl41llnh,3,2,2.0,39.0,0.494,1.0,1.0
mturk,02rwq76tp9lcye8vrl41llnh,4,2,2.0,39.0,2.104,1.0,1.0
mturk,02rwq76tp9lcye8vrl41llnh,5,2,0.0,37.0,1.329,0.0,1.0
mturk,02rwq76tp9lcye8vrl41llnh,6,2,1.0,38.0,1.257,0.0,0.0
mturk,02rwq76tp9lcye8vrl41llnh,7,2,0.0,37.0,0.23,0.0,0.0
mturk,02rwq76tp9lcye8vrl41llnh,8,2,2.0,39.0,0.069,1.0,1.0
mturk,02rwq76tp9lcye8vrl41llnh,9,2,2.0,39.0,0.813,1.0,1.0
mturk,02rwq76tp9lcye8vrl41llnh,10,2,2.0,39.0,0.642,1.0,1.0
mturk,02rwq76tp9lcye8vrl41llnh,11,2,2.0,39.0,0.532,1.0,1.0
mturk,02rwq76tp9lcye8vrl41llnh,12,2,2.0,39.0,0.557,1.0,0.0
mturk,02rwq76tp9lcye8vrl41llnh,13,2,0.0,37.0,1.101,0.0,0.0
mturk,02rwq76tp9lcye8vrl41llnh,14,2,1.0,38.0,0.974,0.0,0.0
mturk,02rwq76tp9lcye8vrl41llnh,15,2,1.0,38.0,0.681,0.0,0.0
mturk,02rwq76tp9lcye8vrl41llnh,16,0,2.0,39.0,0.434,0.0,1.0
mturk,02rwq76tp9lcye8vrl41llnh,17,0,1.0,38.0,0.61,0.0,1.0
mturk,02rwq76tp9lcye8vrl41llnh,18,0,2.0,39.0,0.668,0.0,1.0
mturk,02rwq76tp9lcye8vrl41llnh,19,0,1.0,38.0,0.41,0.0,1.0
mturk,02rwq76tp9lcye8vrl41llnh,20,0,1.0,38.0,0.359,0.0,0.0
mturk,02rwq76tp9lcye8vrl41llnh,21,0,2.0,39.0,0.051,0.0,0.0
mturk,02rwq76tp9lcye8vrl41llnh,22,0,1.0,38.0,0.097,0.0,0.0
mturk,02rwq76tp9lcye8vrl41llnh,23,0,1.0,38.0,0.24,0.0,0.0
mturk,02rwq76tp9lcye8vrl41llnh,24,0,0.0,37.0,0.063,1.0,1.0
mturk,02rwq76tp9lcye8vrl41llnh,25,0,0.0,37.0,0.306,1.0,0.0
mturk,02rwq76tp9lcye8vrl41llnh,26,0,1.0,38.0,0.008,0.0,0.0
mturk,02rwq76tp9lcye8vrl41llnh,27,0,2.0,39.0,0.157,0.0,0.0
mturk,02rwq76tp9lcye8vrl41llnh,28,0,1.0,38.0,1.048,0.0,1.0
mturk,02rwq76tp9lcye8vrl41llnh,29,0,1.0,38.0,0.677,0.0,0.0
mturk,02rwq76tp9lcye8vrl41llnh,30,0,1.0,38.0,0.144,0.0,0.0
mturk,02rwq76tp9lcye8vrl41llnh,31,2,1.0,38.0,0.472,0.0,1.0
mturk,02rwq76tp9lcye8vrl41llnh,32,2,1.0,38.0,0.464,0.0,0.0
mturk,02rwq76tp9lcye8vrl41llnh,33,2,0.0,37.0,1.01,0.0,0.0
mturk,02rwq76tp9lcye8vrl41llnh,34,2,2.0,39.0,1.213,1.0,1.0
mturk,02rwq76tp9lcye8vrl41llnh,35,2,1.0,38.0,0.961,0.0,1.0
mturk,02rwq76tp9lcye8vrl41llnh,36,2,2.0,39.0,0.606,1.0,0.0
mturk,02rwq76tp9lcye8vrl41llnh,37,2,1.0,38.0,0.274,0.0,0.0
mturk,02rwq76tp9lcye8vrl41llnh,38,2,2.0,39.0,0.146,1.0,1.0
mturk,02rwq76tp9lcye8vrl41llnh,39,2,2.0,39.0,0.409,1.0,1.0
mturk,02rwq76tp9lcye8vrl41llnh,40,2,0.0,37.0,1.625,0.0,1.0
mturk,02rwq76tp9lcye8vrl41llnh,41,2,2.0,39.0,0.8,1.0,1.0
mturk,02rwq76tp9lcye8vrl41llnh,42,2,1.0,38.0,2.52,0.0,0.0
mturk,02rwq76tp9lcye8vrl41llnh,43,2,2.0,39.0,1.088,1.0,0.0
mturk,02rwq76tp9lcye8vrl41llnh,44,2,0.0,37.0,0.847,0.0,1.0
mturk,02rwq76tp9lcye8vrl41llnh,45,2,0.0,37.0,0.623,0.0,0.0
mturk,02rwq76tp9lcye8vrl41llnh,46,0,1.0,38.0,0.852,0.0,0.0
mturk,02rwq76tp9lcye8vrl41llnh,47,0,0.0,37.0,0.771,1.0,0.0
mturk,02rwq76tp9lcye8vrl41llnh,48,0,2.0,39.0,0.608,0.0,0.0
mturk,02rwq76tp9lcye8vrl41llnh,49,0,0.0,37.0,0.55,1.0,0.0
mturk,02rwq76tp9lcye8vrl41llnh,50,0,2.0,39.0,0.549,0.0,0.0
mturk,02rwq76tp9lcye8vrl41llnh,51,0,2.0,39.0,0.657,0.0,0.0
mturk,02rwq76tp9lcye8vrl41llnh,52,0,1.0,38.0,0.858,0.0,1.0
mturk,02rwq76tp9lcye8vrl41llnh,53,0,1.0,38.0,1.345,0.0,1.0
mturk,02rwq76tp9lcye8vrl41llnh,54,0,1.0,38.0,0.493,0.0,0.0
mturk,02rwq76tp9lcye8vrl41llnh,55,0,2.0,39.0,1.027,0.0,0.0
mturk,02rwq76tp9lcye8vrl41llnh,56,0,1.0,38.0,0.428,0.0,0.0
mturk,02rwq76tp9lcye8vrl41llnh,57,0,2.0,39.0,0.795,0.0,0.0
mturk,02rwq76tp9lcye8vrl41llnh,58,0,1.0,38.0,0.748,0.0,1.0
mturk,02rwq76tp9lcye8vrl41llnh,59,0,1.0,38.0,0.328,0.0,0.0
mturk,02rwq76tp9lcye8vrl41llnh,60,0,0.0,37.0,0.544,1.0,1.0
mturk,02rwq76tp9lcye8vrl41llnh,61,2,0.0,37.0,0.261,0.0,0.0
mturk,02rwq76tp9lcye8vrl41llnh,62,2,1.0,38.0,0.387,0.0,0.0
mturk,02rwq76tp9lcye8vrl41llnh,63,2,1.0,38.0,0.686,0.0,0.0
mturk,02rwq76tp9lcye8vrl41llnh,64,2,2.0,39.0,0.488,1.0,0.0
mturk,02rwq76tp9lcye8vrl41llnh,65,2,1.0,38.0,0.425,0.0,0.0
mturk,02rwq76tp9lcye8vrl41llnh,66,2,2.0,39.0,0.505,1.0,1.0
mturk,02rwq76tp9lcye8vrl41llnh,67,2,2.0,39.0,0.296,1.0,1.0
mturk,02rwq76tp9lcye8vrl41llnh,68,2,2.0,39.0,0.309,1.0,1.0
mturk,02rwq76tp9lcye8vrl41llnh,69,2,2.0,39.0,0.702,1.0,1.0
mturk,02rwq76tp9lcye8vrl41llnh,70,2,2.0,39.0,0.35,1.0,0.0
mturk,02rwq76tp9lcye8vrl41llnh,71,2,2.0,39.0,0.425,1.0,0.0
mturk,02rwq76tp9lcye8vrl41llnh,72,2,2.0,39.0,0.394,1.0,0.0
mturk,02rwq76tp9lcye8vrl41llnh,73,2,1.0,38.0,0.231,0.0,0.0
mturk,02rwq76tp9lcye8vrl41llnh,74,2,2.0,39.0,0.692,1.0,1.0
mturk,02rwq76tp9lcye8vrl41llnh,75,2,2.0,39.0,0.282,1.0,0.0
mturk,02rwq76tp9lcye8vrl41llnh,76,0,2.0,39.0,0.604,0.0,0.0
mturk,02rwq76tp9lcye8vrl41llnh,77,0,2.0,39.0,5.352,0.0,1.0
mturk,02rwq76tp9lcye8vrl41llnh,78,0,2.0,39.0,0.58,0.0,1.0
mturk,02rwq76tp9lcye8vrl41llnh,79,0,2.0,39.0,0.629,0.0,0.0
mturk,02rwq76tp9lcye8vrl41llnh,80,0,1.0,38.0,0.965,0.0,0.0
mturk,02rwq76tp9lcye8vrl41llnh,81,0,2.0,39.0,0.365,0.0,0.0
mturk,02rwq76tp9lcye8vrl41llnh,82,0,0.0,37.0,0.257,1.0,1.0
mturk,02rwq76tp9lcye8vrl41llnh,83,0,0.0,37.0,0.503,1.0,1.0
mturk,02rwq76tp9lcye8vrl41llnh,84,0,0.0,37.0,0.231,1.0,1.0
mturk,02rwq76tp9lcye8vrl41llnh,85,0,0.0,37.0,0.756,1.0,0.0
mturk,02rwq76tp9lcye8vrl41llnh,86,0,2.0,39.0,0.531,0.0,0.0
mturk,02rwq76tp9lcye8vrl41llnh,87,0,1.0,38.0,0.392,0.0,0.0
mturk,02rwq76tp9lcye8vrl41llnh,88,0,2.0,39.0,0.627,0.0,0.0
mturk,02rwq76tp9lcye8vrl41llnh,89,0,0.0,37.0,0.477,1.0,1.0
mturk,02rwq76tp9lcye8vrl41llnh,90,0,0.0,37.0,0.307,1.0,1.0
mturk,0a8zkiu9rpf0mxo0h9ecdyzh,1,1,1.0,38.0,0.922,1.0,1.0
mturk,0a8zkiu9rpf0mxo0h9ecdyzh,2,1,0.0,37.0,1.045,0.0,0.0
mturk,0a8zkiu9rpf0mxo0h9ecdyzh,3,1,2.0,39.0,0.929,0.0,1.0
mturk,0a8zkiu9rpf0mxo0h9ecdyzh,4,1,1.0,38.0,0.662,1.0,1.0
mturk,0a8zkiu9rpf0mxo0h9ecdyzh,5,1,2.0,39.0,0.49,0.0,0.0
mturk,0a8zkiu9rpf0mxo0h9ecdyzh,6,1,1.0,38.0,0.402,1.0,1.0
mturk,0a8zkiu9rpf0mxo0h9ecdyzh,7,1,1.0,38.0,0.436,1.0,1.0
mturk,0a8zkiu9rpf0mxo0h9ecdyzh,8,1,1.0,38.0,0.812,1.0,1.0
mturk,0a8zkiu9rpf0mxo0h9ecdyzh,9,1,1.0,38.0,0.769,1.0,1.0
mturk,0a8zkiu9rpf0mxo0h9ecdyzh,10,1,1.0,38.0,0.661,1.0,1.0
mturk,0a8zkiu9rpf0mxo0h9ecdyzh,11,1,1.0,38.0,0.569,1.0,1.0
mturk,0a8zkiu9rpf0mxo0h9ecdyzh,12,1,1.0,38.0,0.483,1.0,1.0
mturk,0a8zkiu9rpf0mxo0h9ecdyzh,13,1,1.0,38.0,0.462,1.0,1.0
mturk,0a8zkiu9rpf0mxo0h9ecdyzh,14,1,1.0,38.0,0.347,1.0,1.0
mturk,0a8zkiu9rpf0mxo0h9ecdyzh,15,1,1.0,38.0,0.385,1.0,1.0
mturk,0a8zkiu9rpf0mxo0h9ecdyzh,16,0,1.0,38.0,0.548,0.0,0.0
mturk,0a8zkiu9rpf0mxo0h9ecdyzh,17,0,1.0,38.0,0.815,0.0,0.0
mturk,0a8zkiu9rpf0mxo0h9ecdyzh,18,0,2.0,39.0,0.291,0.0,1.0
mturk,0a8zkiu9rpf0mxo0h9ecdyzh,19,0,2.0,39.0,0.714,0.0,0.0
mturk,0a8zkiu9rpf0mxo0h9ecdyzh,20,0,0.0,37.0,0.232,1.0,1.0
mturk,0a8zkiu9rpf0mxo0h9ecdyzh,21,0,0.0,37.0,0.386,1.0,1.0
mturk,0a8zkiu9rpf0mxo0h9ecdyzh,22,0,0.0,37.0,0.471,1.0,1.0
mturk,0a8zkiu9rpf0mxo0h9ecdyzh,23,0,0.0,37.0,0.605,1.0,1.0
mturk,0a8zkiu9rpf0mxo0h9ecdyzh,24,0,0.0,37.0,0.368,1.0,1.0
mturk,0a8zkiu9rpf0mxo0h9ecdyzh,25,0,0.0,37.0,0.331,1.0,1.0
mturk,0a8zkiu9rpf0mxo0h9ecdyzh,26,0,0.0,37.0,0.333,1.0,0.0
mturk,0a8zkiu9rpf0mxo0h9ecdyzh,27,0,1.0,38.0,0.208,0.0,0.0
mturk,0a8zkiu9rpf0mxo0h9ecdyzh,28,0,2.0,39.0,0.56,0.0,0.0
mturk,0a8zkiu9rpf0mxo0h9ecdyzh,29,0,0.0,37.0,0.609,1.0,1.0
mturk,0a8zkiu9rpf0mxo0h9ecdyzh,30,0,0.0,37.0,0.45,1.0,1.0
mturk,0a8zkiu9rpf0mxo0h9ecdyzh,31,2,0.0,37.0,0.38,0.0,0.0
mturk,0a8zkiu9rpf0mxo0h9ecdyzh,32,2,1.0,38.0,0.283,0.0,0.0
mturk,0a8zkiu9rpf0mxo0h9ecdyzh,33,2,2.0,39.0,0.323,1.0,1.0
mturk,0a8zkiu9rpf0mxo0h9ecdyzh,34,2,2.0,39.0,0.322,1.0,1.0
mturk,0a8zkiu9rpf0mxo0h9ecdyzh,35,2,2.0,39.0,0.282,1.0,1.0
mturk,0a8zkiu9rpf0mxo0h9ecdyzh,36,2,2.0,39.0,0.355,1.0,1.0
mturk,0a8zkiu9rpf0mxo0h9ecdyzh,37,2,2.0,39.0,0.336,1.0,1.0
mturk,0a8zkiu9rpf0mxo0h9ecdyzh,38,2,2.0,39.0,0.033,1.0,1.0
mturk,0a8zkiu9rpf0mxo0h9ecdyzh,39,2,2.0,39.0,0.301,1.0,0.0
mturk,0a8zkiu9rpf0mxo0h9ecdyzh,40,2,0.0,37.0,0.333,0.0,1.0
mturk,0a8zkiu9rpf0mxo0h9ecdyzh,41,2,0.0,37.0,0.482,0.0,0.0
mturk,0a8zkiu9rpf0mxo0h9ecdyzh,42,2,1.0,38.0,0.38,0.0,0.0
mturk,0a8zkiu9rpf0mxo0h9ecdyzh,43,2,2.0,39.0,0.57,1.0,1.0
mturk,0a8zkiu9rpf0mxo0h9ecdyzh,44,2,2.0,39.0,0.464,1.0,1.0
mturk,0a8zkiu9rpf0mxo0h9ecdyzh,45,2,2.0,39.0,0.514,1.0,0.0
mturk,0a8zkiu9rpf0mxo0h9ecdyzh,46,0,0.0,37.0,0.38,1.0,1.0
mturk,0a8zkiu9rpf0mxo0h9ecdyzh,47,0,0.0,37.0,0.706,1.0,1.0
mturk,0a8zkiu9rpf0mxo0h9ecdyzh,48,0,0.0,37.0,0.499,1.0,1.0
mturk,0a8zkiu9rpf0mxo0h9ecdyzh,49,0,0.0,37.0,0.403,1.0,1.0
mturk,0a8zkiu9rpf0mxo0h9ecdyzh,50,0,0.0,37.0,0.971,1.0,0.0
mturk,0a8zkiu9rpf0mxo0h9ecdyzh,51,0,1.0,38.0,0.811,0.0,0.0
mturk,0a8zkiu9rpf0mxo0h9ecdyzh,52,0,2.0,39.0,0.435,0.0,0.0
mturk,0a8zkiu9rpf0mxo0h9ecdyzh,53,0,0.0,37.0,0.387,1.0,1.0
mturk,0a8zkiu9rpf0mxo0h9ecdyzh,54,0,0.0,37.0,0.682,1.0,1.0
mturk,0a8zkiu9rpf0mxo0h9ecdyzh,55,0,0.0,37.0,0.558,1.0,1.0
mturk,0a8zkiu9rpf0mxo0h9ecdyzh,56,0,0.0,37.0,0.434,1.0,1.0
mturk,0a8zkiu9rpf0mxo0h9ecdyzh,57,0,0.0,37.0,0.362,1.0,1.0
mturk,0a8zkiu9rpf0mxo0h9ecdyzh,58,0,0.0,37.0,0.868,1.0,1.0
mturk,0a8zkiu9rpf0mxo0h9ecdyzh,59,0,0.0,37.0,0.166,1.0,1.0
mturk,0a8zkiu9rpf0mxo0h9ecdyzh,60,0,0.0,37.0,0.556,1.0,1.0
mturk,0a8zkiu9rpf0mxo0h9ecdyzh,61,1,0.0,37.0,0.467,0.0,0.0
mturk,0a8zkiu9rpf0mxo0h9ecdyzh,62,1,1.0,38.0,0.248,1.0,1.0
mturk,0a8zkiu9rpf0mxo0h9ecdyzh,63,1,1.0,38.0,0.418,1.0,1.0
mturk,0a8zkiu9rpf0mxo0h9ecdyzh,64,1,1.0,38.0,1.197,1.0,1.0
mturk,0a8zkiu9rpf0mxo0h9ecdyzh,65,1,1.0,38.0,0.767,1.0,1.0
mturk,0a8zkiu9rpf0mxo0h9ecdyzh,66,1,1.0,38.0,0.58,1.0,1.0
mturk,0a8zkiu9rpf0mxo0h9ecdyzh,67,1,1.0,38.0,0.555,1.0,1.0
mturk,0a8zkiu9rpf0mxo0h9ecdyzh,68,1,1.0,38.0,0.372,1.0,1.0
mturk,0a8zkiu9rpf0mxo0h9ecdyzh,69,1,1.0,38.0,0.379,1.0,1.0
mturk,0a8zkiu9rpf0mxo0h9ecdyzh,70,1,1.0,38.0,0.427,1.0,1.0
mturk,0a8zkiu9rpf0mxo0h9ecdyzh,71,1,1.0,38.0,0.747,1.0,1.0
mturk,0a8zkiu9rpf0mxo0h9ecdyzh,72,1,1.0,38.0,0.434,1.0,1.0
mturk,0a8zkiu9rpf0mxo0h9ecdyzh,73,1,1.0,38.0,0.434,1.0,1.0
mturk,0a8zkiu9rpf0mxo0h9ecdyzh,74,1,1.0,38.0,0.405,1.0,1.0
mturk,0a8zkiu9rpf0mxo0h9ecdyzh,75,1,1.0,38.0,0.331,1.0,1.0
mturk,0a8zkiu9rpf0mxo0h9ecdyzh,76,2,1.0,38.0,0.315,0.0,1.0
mturk,0a8zkiu9rpf0mxo0h9ecdyzh,77,2,1.0,38.0,0.341,0.0,0.0
mturk,0a8zkiu9rpf0mxo0h9ecdyzh,78,2,2.0,39.0,0.061,1.0,1.0
mturk,0a8zkiu9rpf0mxo0h9ecdyzh,79,2,2.0,39.0,0.394,1.0,1.0
mturk,0a8zkiu9rpf0mxo0h9ecdyzh,80,2,2.0,39.0,0.365,1.0,0.0
mturk,0a8zkiu9rpf0mxo0h9ecdyzh,81,2,0.0,37.0,0.573,0.0,0.0
mturk,0a8zkiu9rpf0mxo0h9ecdyzh,82,2,1.0,38.0,1.095,0.0,0.0
mturk,0a8zkiu9rpf0mxo0h9ecdyzh,83,2,2.0,39.0,0.578,1.0,1.0
mturk,0a8zkiu9rpf0mxo0h9ecdyzh,84,2,2.0,39.0,0.324,1.0,1.0
mturk,0a8zkiu9rpf0mxo0h9ecdyzh,85,2,2.0,39.0,0.917,1.0,1.0
mturk,0a8zkiu9rpf0mxo0h9ecdyzh,86,2,2.0,39.0,0.693,1.0,1.0
mturk,0a8zkiu9rpf0mxo0h9ecdyzh,87,2,2.0,39.0,0.401,1.0,1.0
mturk,0a8zkiu9rpf0mxo0h9ecdyzh,88,2,2.0,39.0,3.22,1.0,1.0
mturk,0a8zkiu9rpf0mxo0h9ecdyzh,89,2,2.0,39.0,0.54,1.0,1.0
mturk,0a8zkiu9rpf0mxo0h9ecdyzh,90,2,2.0,39.0,0.611,1.0,1.0
mturk,0g4fx9g2wryeio74yzgqwpq8,1,2,1.0,38.0,2.022,0.0,0.0
mturk,0g4fx9g2wryeio74yzgqwpq8,2,2,0.0,37.0,0.555,0.0,0.0
mturk,0g4fx9g2wryeio74yzgqwpq8,3,2,2.0,39.0,0.3,1.0,1.0
mturk,0g4fx9g2wryeio74yzgqwpq8,4,2,2.0,39.0,0.373,1.0,1.0
mturk,0g4fx9g2wryeio74yzgqwpq8,5,2,2.0,39.0,0.292,1.0,0.0
mturk,0g4fx9g2wryeio74yzgqwpq8,6,2,1.0,38.0,0.245,0.0,0.0
mturk,0g4fx9g2wryeio74yzgqwpq8,7,2,2.0,39.0,0.085,1.0,1.0
mturk,0g4fx9g2wryeio74yzgqwpq8,8,2,2.0,39.0,0.3,1.0,0.0
mturk,0g4fx9g2wryeio74yzgqwpq8,9,2,0.0,37.0,0.11,0.0,0.0
mturk,0g4fx9g2wryeio74yzgqwpq8,10,2,2.0,39.0,0.02,1.0,1.0
mturk,0g4fx9g2wryeio74yzgqwpq8,11,2,2.0,39.0,0.3,1.0,1.0
mturk,0g4fx9g2wryeio74yzgqwpq8,12,2,2.0,39.0,0.525,1.0,1.0
mturk,0g4fx9g2wryeio74yzgqwpq8,13,2,2.0,39.0,0.309,1.0,0.0
mturk,0g4fx9g2wryeio74yzgqwpq8,14,2,1.0,38.0,0.158,0.0,0.0
mturk,0g4fx9g2wryeio74yzgqwpq8,15,2,2.0,39.0,0.044,1.0,1.0
mturk,0g4fx9g2wryeio74yzgqwpq8,16,0,2.0,39.0,0.309,0.0,0.0
mturk,0g4fx9g2wryeio74yzgqwpq8,17,0,0.0,37.0,0.253,1.0,1.0
mturk,0g4fx9g2wryeio74yzgqwpq8,18,0,0.0,37.0,0.093,1.0,1.0
mturk,0g4fx9g2wryeio74yzgqwpq8,19,0,0.0,37.0,0.309,1.0,1.0
mturk,0g4fx9g2wryeio74yzgqwpq8,20,0,0.0,37.0,0.365,1.0,1.0
mturk,0g4fx9g2wryeio74yzgqwpq8,21,0,0.0,37.0,0.364,1.0,0.0
mturk,0g4fx9g2wryeio74yzgqwpq8,22,0,2.0,39.0,0.309,0.0,0.0
mturk,0g4fx9g2wryeio74yzgqwpq8,23,0,0.0,37.0,0.11,1.0,0.0
mturk,0g4fx9g2wryeio74yzgqwpq8,24,0,1.0,38.0,0.005,0.0,0.0
mturk,0g4fx9g2wryeio74yzgqwpq8,25,0,0.0,37.0,0.323,1.0,1.0
mturk,0g4fx9g2wryeio74yzgqwpq8,26,0,0.0,37.0,0.284,1.0,1.0
mturk,0g4fx9g2wryeio74yzgqwpq8,27,0,0.0,37.0,0.317,1.0,1.0
mturk,0g4fx9g2wryeio74yzgqwpq8,28,0,0.0,37.0,0.364,1.0,0.0
mturk,0g4fx9g2wryeio74yzgqwpq8,29,0,2.0,39.0,0.349,0.0,0.0
mturk,0g4fx9g2wryeio74yzgqwpq8,30,0,1.0,38.0,0.396,0.0,0.0
mturk,0g4fx9g2wryeio74yzgqwpq8,31,1,0.0,37.0,0.105,0.0,1.0
mturk,0g4fx9g2wryeio74yzgqwpq8,32,1,0.0,37.0,0.193,0.0,1.0
mturk,0g4fx9g2wryeio74yzgqwpq8,33,1,0.0,37.0,0.182,0.0,0.0
mturk,0g4fx9g2wryeio74yzgqwpq8,34,1,0.0,37.0,0.278,0.0,0.0
mturk,0g4fx9g2wryeio74yzgqwpq8,35,1,1.0,38.0,0.014,1.0,1.0
mturk,0g4fx9g2wryeio74yzgqwpq8,36,1,1.0,38.0,0.277,1.0,1.0
mturk,0g4fx9g2wryeio74yzgqwpq8,37,1,1.0,38.0,0.278,1.0,1.0
mturk,0g4fx9g2wryeio74yzgqwpq8,38,1,1.0,38.0,0.277,1.0,1.0
mturk,0g4fx9g2wryeio74yzgqwpq8,39,1,1.0,38.0,0.237,1.0,1.0
mturk,0g4fx9g2wryeio74yzgqwpq8,40,1,1.0,38.0,0.244,1.0,0.0
mturk,0g4fx9g2wryeio74yzgqwpq8,41,1,1.0,38.0,0.269,1.0,1.0
mturk,0g4fx9g2wryeio74yzgqwpq8,42,1,1.0,38.0,0.134,1.0,1.0
mturk,0g4fx9g2wryeio74yzgqwpq8,43,1,1.0,38.0,0.325,1.0,1.0
mturk,0g4fx9g2wryeio74yzgqwpq8,44,1,1.0,38.0,0.205,1.0,1.0
mturk,0g4fx9g2wryeio74yzgqwpq8,45,1,1.0,38.0,0.126,1.0,1.0
mturk,0g4fx9g2wryeio74yzgqwpq8,46,2,1.0,38.0,0.292,0.0,1.0
mturk,0g4fx9g2wryeio74yzgqwpq8,47,2,1.0,38.0,0.213,0.0,0.0
mturk,0g4fx9g2wryeio74yzgqwpq8,48,2,1.0,38.0,0.245,0.0,0.0
mturk,0g4fx9g2wryeio74yzgqwpq8,49,2,2.0,39.0,0.035,1.0,1.0
mturk,0g4fx9g2wryeio74yzgqwpq8,50,2,2.0,39.0,0.158,1.0,1.0
mturk,0g4fx9g2wryeio74yzgqwpq8,51,2,2.0,39.0,0.149,1.0,1.0
mturk,0g4fx9g2wryeio74yzgqwpq8,52,2,2.0,39.0,0.26,1.0,1.0
mturk,0g4fx9g2wryeio74yzgqwpq8,53,2,2.0,39.0,0.214,1.0,1.0
mturk,0g4fx9g2wryeio74yzgqwpq8,54,2,2.0,39.0,0.292,1.0,0.0
mturk,0g4fx9g2wryeio74yzgqwpq8,55,2,2.0,39.0,0.237,1.0,1.0
mturk,0g4fx9g2wryeio74yzgqwpq8,56,2,2.0,39.0,0.165,1.0,1.0
mturk,0g4fx9g2wryeio74yzgqwpq8,57,2,2.0,39.0,0.22,1.0,1.0
mturk,0g4fx9g2wryeio74yzgqwpq8,58,2,2.0,39.0,0.054,1.0,0.0
mturk,0g4fx9g2wryeio74yzgqwpq8,59,2,2.0,39.0,0.172,1.0,1.0
mturk,0g4fx9g2wryeio74yzgqwpq8,60,2,2.0,39.0,0.124,1.0,0.0
mturk,0g4fx9g2wryeio74yzgqwpq8,61,0,2.0,39.0,0.062,0.0,1.0
mturk,0g4fx9g2wryeio74yzgqwpq8,62,0,2.0,39.0,0.269,0.0,1.0
mturk,0g4fx9g2wryeio74yzgqwpq8,63,0,2.0,39.0,0.11,0.0,0.0
mturk,0g4fx9g2wryeio74yzgqwpq8,64,0,2.0,39.0,0.22,0.0,0.0
mturk,0g4fx9g2wryeio74yzgqwpq8,65,0,0.0,37.0,0.029,1.0,1.0
mturk,0g4fx9g2wryeio74yzgqwpq8,66,0,0.0,37.0,0.373,1.0,1.0
mturk,0g4fx9g2wryeio74yzgqwpq8,67,0,0.0,37.0,0.181,1.0,0.0
mturk,0g4fx9g2wryeio74yzgqwpq8,68,0,0.0,37.0,0.187,1.0,1.0
mturk,0g4fx9g2wryeio74yzgqwpq8,69,0,0.0,37.0,0.07,1.0,0.0
mturk,0g4fx9g2wryeio74yzgqwpq8,70,0,0.0,37.0,0.156,1.0,1.0
mturk,0g4fx9g2wryeio74yzgqwpq8,71,0,0.0,37.0,0.181,1.0,1.0
mturk,0g4fx9g2wryeio74yzgqwpq8,72,0,0.0,37.0,0.046,1.0,1.0
mturk,0g4fx9g2wryeio74yzgqwpq8,73,0,0.0,37.0,0.19,1.0,1.0
mturk,0g4fx9g2wryeio74yzgqwpq8,74,0,0.0,37.0,0.214,1.0,1.0
mturk,0g4fx9g2wryeio74yzgqwpq8,75,0,0.0,37.0,0.236,1.0,1.0
mturk,0g4fx9g2wryeio74yzgqwpq8,76,1,0.0,37.0,0.385,0.0,1.0
mturk,0g4fx9g2wryeio74yzgqwpq8,77,1,0.0,37.0,0.201,0.0,1.0
mturk,0g4fx9g2wryeio74yzgqwpq8,78,1,0.0,37.0,0.229,0.0,0.0
mturk,0g4fx9g2wryeio74yzgqwpq8,79,1,0.0,37.0,0.126,0.0,0.0
mturk,0g4fx9g2wryeio74yzgqwpq8,80,1,1.0,38.0,0.003,1.0,1.0
mturk,0g4fx9g2wryeio74yzgqwpq8,81,1,1.0,38.0,0.205,1.0,1.0
mturk,0g4fx9g2wryeio74yzgqwpq8,82,1,1.0,38.0,0.18,1.0,1.0
mturk,0g4fx9g2wryeio74yzgqwpq8,83,1,1.0,38.0,0.037,1.0,1.0
mturk,0g4fx9g2wryeio74yzgqwpq8,84,1,1.0,38.0,0.077,1.0,1.0
mturk,0g4fx9g2wryeio74yzgqwpq8,85,1,1.0,38.0,0.222,1.0,0.0
mturk,0g4fx9g2wryeio74yzgqwpq8,86,1,1.0,38.0,0.077,1.0,1.0
mturk,0g4fx9g2wryeio74yzgqwpq8,87,1,1.0,38.0,0.116,1.0,0.0
mturk,0g4fx9g2wryeio74yzgqwpq8,88,1,1.0,38.0,0.222,1.0,1.0
mturk,0g4fx9g2wryeio74yzgqwpq8,89,1,1.0,38.0,0.116,1.0,1.0
mturk,0g4fx9g2wryeio74yzgqwpq8,90,1,1.0,38.0,0.439,1.0,1.0
mturk,0k1tzkzdb7dvx6z9q0nyovde,1,2,2.0,39.0,1.359,1.0,1.0
mturk,0k1tzkzdb7dvx6z9q0nyovde,2,2,2.0,39.0,0.604,1.0,1.0
mturk,0k1tzkzdb7dvx6z9q0nyovde,3,2,2.0,39.0,0.45,1.0,0.0
mturk,0k1tzkzdb7dvx6z9q0nyovde,4,2,2.0,39.0,0.349,1.0,1.0
mturk,0k1tzkzdb7dvx6z9q0nyovde,5,2,2.0,39.0,0.46,1.0,1.0
mturk,0k1tzkzdb7dvx6z9q0nyovde,6,2,2.0,39.0,0.396,1.0,1.0
mturk,0k1tzkzdb7dvx6z9q0nyovde,7,2,2.0,39.0,0.356,1.0,1.0
mturk,0k1tzkzdb7dvx6z9q0nyovde,8,2,2.0,39.0,0.372,1.0,1.0
mturk,0k1tzkzdb7dvx6z9q0nyovde,9,2,2.0,39.0,0.554,1.0,1.0
mturk,0k1tzkzdb7dvx6z9q0nyovde,10,2,2.0,39.0,0.348,1.0,1.0
mturk,0k1tzkzdb7dvx6z9q0nyovde,11,2,2.0,39.0,0.396,1.0,0.0
mturk,0k1tzkzdb7dvx6z9q0nyovde,12,2,2.0,39.0,0.261,1.0,0.0
mturk,0k1tzkzdb7dvx6z9q0nyovde,13,2,1.0,38.0,0.308,0.0,0.0
mturk,0k1tzkzdb7dvx6z9q0nyovde,14,2,0.0,37.0,0.228,0.0,0.0
mturk,0k1tzkzdb7dvx6z9q0nyovde,15,2,2.0,39.0,0.26,1.0,1.0
mturk,0k1tzkzdb7dvx6z9q0nyovde,16,0,2.0,39.0,0.308,0.0,1.0
mturk,0k1tzkzdb7dvx6z9q0nyovde,17,0,2.0,39.0,0.284,0.0,0.0
mturk,0k1tzkzdb7dvx6z9q0nyovde,18,0,2.0,39.0,0.243,0.0,0.0
mturk,0k1tzkzdb7dvx6z9q0nyovde,19,0,2.0,39.0,0.228,0.0,0.0
mturk,0k1tzkzdb7dvx6z9q0nyovde,20,0,1.0,38.0,0.276,0.0,0.0
mturk,0k1tzkzdb7dvx6z9q0nyovde,21,0,0.0,37.0,0.243,1.0,1.0
mturk,0k1tzkzdb7dvx6z9q0nyovde,22,0,0.0,37.0,0.252,1.0,1.0
mturk,0k1tzkzdb7dvx6z9q0nyovde,23,0,0.0,37.0,0.292,1.0,1.0
mturk,0k1tzkzdb7dvx6z9q0nyovde,24,0,0.0,37.0,0.292,1.0,0.0
mturk,0k1tzkzdb7dvx6z9q0nyovde,25,0,0.0,37.0,0.292,1.0,1.0
mturk,0k1tzkzdb7dvx6z9q0nyovde,26,0,0.0,37.0,0.284,1.0,0.0
mturk,0k1tzkzdb7dvx6z9q0nyovde,27,0,0.0,37.0,0.258,1.0,1.0
mturk,0k1tzkzdb7dvx6z9q0nyovde,28,0,0.0,37.0,0.323,1.0,1.0
mturk,0k1tzkzdb7dvx6z9q0nyovde,29,0,0.0,37.0,0.3,1.0,1.0
mturk,0k1tzkzdb7dvx6z9q0nyovde,30,0,0.0,37.0,0.299,1.0,1.0
mturk,0k1tzkzdb7dvx6z9q0nyovde,31,2,0.0,37.0,0.267,0.0,0.0
mturk,0k1tzkzdb7dvx6z9q0nyovde,32,2,0.0,37.0,0.268,0.0,0.0
mturk,0k1tzkzdb7dvx6z9q0nyovde,33,2,0.0,37.0,0.244,0.0,0.0
mturk,0k1tzkzdb7dvx6z9q0nyovde,34,2,1.0,38.0,0.211,0.0,0.0
mturk,0k1tzkzdb7dvx6z9q0nyovde,35,2,1.0,38.0,0.268,0.0,0.0
mturk,0k1tzkzdb7dvx6z9q0nyovde,36,2,2.0,39.0,0.284,1.0,1.0
mturk,0k1tzkzdb7dvx6z9q0nyovde,37,2,2.0,39.0,0.308,1.0,1.0
mturk,0k1tzkzdb7dvx6z9q0nyovde,38,2,2.0,39.0,0.316,1.0,1.0
mturk,0k1tzkzdb7dvx6z9q0nyovde,39,2,2.0,39.0,0.243,1.0,1.0
mturk,0k1tzkzdb7dvx6z9q0nyovde,40,2,2.0,39.0,0.252,1.0,1.0
mturk,0k1tzkzdb7dvx6z9q0nyovde,41,2,2.0,39.0,0.276,1.0,1.0
mturk,0k1tzkzdb7dvx6z9q0nyovde,42,2,2.0,39.0,0.291,1.0,1.0
mturk,0k1tzkzdb7dvx6z9q0nyovde,43,2,2.0,39.0,0.268,1.0,0.0
mturk,0k1tzkzdb7dvx6z9q0nyovde,44,2,2.0,39.0,0.274,1.0,1.0
mturk,0k1tzkzdb7dvx6z9q0nyovde,45,2,2.0,39.0,0.276,1.0,1.0
mturk,0k1tzkzdb7dvx6z9q0nyovde,46,1,2.0,39.0,0.268,0.0,0.0
mturk,0k1tzkzdb7dvx6z9q0nyovde,47,1,2.0,39.0,0.236,0.0,1.0
mturk,0k1tzkzdb7dvx6z9q0nyovde,48,1,2.0,39.0,0.244,0.0,1.0
mturk,0k1tzkzdb7dvx6z9q0nyovde,49,1,2.0,39.0,0.268,0.0,0.0
mturk,0k1tzkzdb7dvx6z9q0nyovde,50,1,2.0,39.0,0.228,0.0,0.0
mturk,0k1tzkzdb7dvx6z9q0nyovde,51,1,1.0,38.0,0.651,1.0,1.0
mturk,0k1tzkzdb7dvx6z9q0nyovde,52,1,1.0,38.0,0.268,1.0,0.0
mturk,0k1tzkzdb7dvx6z9q0nyovde,53,1,1.0,38.0,0.284,1.0,1.0
mturk,0k1tzkzdb7dvx6z9q0nyovde,54,1,1.0,38.0,0.284,1.0,0.0
mturk,0k1tzkzdb7dvx6z9q0nyovde,55,1,1.0,38.0,0.276,1.0,1.0
mturk,0k1tzkzdb7dvx6z9q0nyovde,56,1,1.0,38.0,0.268,1.0,1.0
mturk,0k1tzkzdb7dvx6z9q0nyovde,57,1,1.0,38.0,0.26,1.0,1.0
mturk,0k1tzkzdb7dvx6z9q0nyovde,58,1,1.0,38.0,0.236,1.0,0.0
mturk,0k1tzkzdb7dvx6z9q0nyovde,59,1,1.0,38.0,0.148,1.0,1.0
mturk,0k1tzkzdb7dvx6z9q0nyovde,60,1,1.0,38.0,0.252,1.0,1.0
mturk,0k1tzkzdb7dvx6z9q0nyovde,61,0,1.0,38.0,0.244,0.0,0.0
mturk,0k1tzkzdb7dvx6z9q0nyovde,62,0,1.0,38.0,0.235,0.0,0.0
mturk,0k1tzkzdb7dvx6z9q0nyovde,63,0,1.0,38.0,0.267,0.0,0.0
mturk,0k1tzkzdb7dvx6z9q0nyovde,64,0,2.0,39.0,0.133,0.0,1.0
mturk,0k1tzkzdb7dvx6z9q0nyovde,65,0,2.0,39.0,0.22,0.0,0.0
mturk,0k1tzkzdb7dvx6z9q0nyovde,66,0,2.0,39.0,0.269,0.0,0.0
mturk,0k1tzkzdb7dvx6z9q0nyovde,67,0,2.0,39.0,0.22,0.0,0.0
mturk,0k1tzkzdb7dvx6z9q0nyovde,68,0,0.0,37.0,0.084,1.0,1.0
mturk,0k1tzkzdb7dvx6z9q0nyovde,69,0,0.0,37.0,0.052,1.0,1.0
mturk,0k1tzkzdb7dvx6z9q0nyovde,70,0,0.0,37.0,0.212,1.0,1.0
mturk,0k1tzkzdb7dvx6z9q0nyovde,71,0,0.0,37.0,0.164,1.0,1.0
mturk,0k1tzkzdb7dvx6z9q0nyovde,72,0,0.0,37.0,0.259,1.0,0.0
mturk,0k1tzkzdb7dvx6z9q0nyovde,73,0,0.0,37.0,0.204,1.0,0.0
mturk,0k1tzkzdb7dvx6z9q0nyovde,74,0,0.0,37.0,0.548,1.0,0.0
mturk,0k1tzkzdb7dvx6z9q0nyovde,75,0,2.0,39.0,0.036,0.0,0.0
mturk,0k1tzkzdb7dvx6z9q0nyovde,76,2,1.0,38.0,0.196,0.0,0.0
mturk,0k1tzkzdb7dvx6z9q0nyovde,77,2,2.0,39.0,0.395,1.0,1.0
mturk,0k1tzkzdb7dvx6z9q0nyovde,78,2,2.0,39.0,0.076,1.0,1.0
mturk,0k1tzkzdb7dvx6z9q0nyovde,79,2,2.0,39.0,0.292,1.0,0.0
mturk,0k1tzkzdb7dvx6z9q0nyovde,80,2,2.0,39.0,0.195,1.0,1.0
mturk,0k1tzkzdb7dvx6z9q0nyovde,81,2,2.0,39.0,0.259,1.0,1.0
mturk,0k1tzkzdb7dvx6z9q0nyovde,82,2,2.0,39.0,0.324,1.0,0.0
mturk,0k1tzkzdb7dvx6z9q0nyovde,83,2,2.0,39.0,0.285,1.0,0.0
mturk,0k1tzkzdb7dvx6z9q0nyovde,84,2,1.0,38.0,0.316,0.0,1.0
mturk,0k1tzkzdb7dvx6z9q0nyovde,85,2,1.0,38.0,0.332,0.0,1.0
mturk,0k1tzkzdb7dvx6z9q0nyovde,86,2,1.0,38.0,0.714,0.0,1.0
mturk,0k1tzkzdb7dvx6z9q0nyovde,87,2,1.0,38.0,0.35,0.0,0.0
mturk,0k1tzkzdb7dvx6z9q0nyovde,88,2,1.0,38.0,0.572,0.0,0.0
mturk,0k1tzkzdb7dvx6z9q0nyovde,89,2,2.0,39.0,0.292,1.0,1.0
mturk,0k1tzkzdb7dvx6z9q0nyovde,90,2,2.0,39.0,0.332,1.0,1.0
mturk,0lq9i4x81dgnwglgvgnh34rj,1,1,1.0,38.0,1.619,1.0,1.0
mturk,0lq9i4x81dgnwglgvgnh34rj,2,1,1.0,38.0,0.657,1.0,1.0
mturk,0lq9i4x81dgnwglgvgnh34rj,3,1,1.0,38.0,0.498,1.0,1.0
mturk,0lq9i4x81dgnwglgvgnh34rj,4,1,1.0,38.0,0.442,1.0,0.0
mturk,0lq9i4x81dgnwglgvgnh34rj,5,1,1.0,38.0,0.392,1.0,1.0
mturk,0lq9i4x81dgnwglgvgnh34rj,6,1,1.0,38.0,0.487,1.0,1.0
mturk,0lq9i4x81dgnwglgvgnh34rj,7,1,1.0,38.0,0.674,1.0,0.0
mturk,0lq9i4x81dgnwglgvgnh34rj,8,1,1.0,38.0,0.656,1.0,1.0
mturk,0lq9i4x81dgnwglgvgnh34rj,9,1,1.0,38.0,0.591,1.0,1.0
mturk,0lq9i4x81dgnwglgvgnh34rj,10,1,1.0,38.0,0.464,1.0,0.0
mturk,0lq9i4x81dgnwglgvgnh34rj,11,1,1.0,38.0,0.386,1.0,1.0
mturk,0lq9i4x81dgnwglgvgnh34rj,12,1,1.0,38.0,0.392,1.0,1.0
mturk,0lq9i4x81dgnwglgvgnh34rj,13,1,1.0,38.0,0.377,1.0,1.0
mturk,0lq9i4x81dgnwglgvgnh34rj,14,1,1.0,38.0,0.527,1.0,0.0
mturk,0lq9i4x81dgnwglgvgnh34rj,15,1,1.0,38.0,0.902,1.0,1.0
mturk,0lq9i4x81dgnwglgvgnh34rj,16,0,1.0,38.0,0.295,0.0,0.0
mturk,0lq9i4x81dgnwglgvgnh34rj,17,0,1.0,38.0,0.313,0.0,1.0
mturk,0lq9i4x81dgnwglgvgnh34rj,18,0,1.0,38.0,0.312,0.0,0.0
mturk,0lq9i4x81dgnwglgvgnh34rj,19,0,0.0,37.0,0.098,1.0,1.0
mturk,0lq9i4x81dgnwglgvgnh34rj,20,0,0.0,37.0,0.305,1.0,1.0
mturk,0lq9i4x81dgnwglgvgnh34rj,21,0,0.0,37.0,0.312,1.0,1.0
mturk,0lq9i4x81dgnwglgvgnh34rj,22,0,0.0,37.0,0.304,1.0,0.0
mturk,0lq9i4x81dgnwglgvgnh34rj,23,0,0.0,37.0,0.33,1.0,1.0
mturk,0lq9i4x81dgnwglgvgnh34rj,24,0,0.0,37.0,0.201,1.0,1.0
mturk,0lq9i4x81dgnwglgvgnh34rj,25,0,0.0,37.0,0.329,1.0,1.0
mturk,0lq9i4x81dgnwglgvgnh34rj,26,0,0.0,37.0,0.177,1.0,1.0
mturk,0lq9i4x81dgnwglgvgnh34rj,27,0,0.0,37.0,0.45,1.0,1.0
mturk,0lq9i4x81dgnwglgvgnh34rj,28,0,0.0,37.0,0.369,1.0,1.0
mturk,0lq9i4x81dgnwglgvgnh34rj,29,0,0.0,37.0,0.313,1.0,1.0
mturk,0lq9i4x81dgnwglgvgnh34rj,30,0,0.0,37.0,0.28,1.0,1.0
mturk,0lq9i4x81dgnwglgvgnh34rj,31,1,0.0,37.0,0.322,0.0,0.0
mturk,0lq9i4x81dgnwglgvgnh34rj,32,1,0.0,37.0,0.305,0.0,0.0
mturk,0lq9i4x81dgnwglgvgnh34rj,33,1,2.0,39.0,0.297,0.0,0.0
mturk,0lq9i4x81dgnwglgvgnh34rj,34,1,1.0,38.0,0.16,1.0,1.0
mturk,0lq9i4x81dgnwglgvgnh34rj,35,1,1.0,38.0,0.283,1.0,1.0
mturk,0lq9i4x81dgnwglgvgnh34rj,36,1,1.0,38.0,0.266,1.0,1.0
mturk,0lq9i4x81dgnwglgvgnh34rj,37,1,1.0,38.0,0.337,1.0,0.0
mturk,0lq9i4x81dgnwglgvgnh34rj,38,1,0.0,37.0,0.047,0.0,1.0
mturk,0lq9i4x81dgnwglgvgnh34rj,39,1,0.0,37.0,0.306,0.0,0.0
mturk,0lq9i4x81dgnwglgvgnh34rj,40,1,1.0,38.0,0.03,1.0,0.0
mturk,0lq9i4x81dgnwglgvgnh34rj,41,1,1.0,38.0,0.073,1.0,0.0
mturk,0lq9i4x81dgnwglgvgnh34rj,42,1,0.0,37.0,0.593,0.0,0.0
mturk,0lq9i4x81dgnwglgvgnh34rj,43,1,2.0,39.0,0.055,0.0,0.0
mturk,0lq9i4x81dgnwglgvgnh34rj,44,1,2.0,39.0,0.192,0.0,1.0
mturk,0lq9i4x81dgnwglgvgnh34rj,45,1,2.0,39.0,0.072,0.0,0.0
mturk,0lq9i4x81dgnwglgvgnh34rj,46,2,2.0,39.0,0.321,1.0,1.0
mturk,0lq9i4x81dgnwglgvgnh34rj,47,2,2.0,39.0,0.154,1.0,1.0
mturk,0lq9i4x81dgnwglgvgnh34rj,48,2,2.0,39.0,0.191,1.0,1.0
mturk,0lq9i4x81dgnwglgvgnh34rj,49,2,2.0,39.0,0.008,1.0,1.0
mturk,0lq9i4x81dgnwglgvgnh34rj,50,2,2.0,39.0,0.305,1.0,1.0
mturk,0lq9i4x81dgnwglgvgnh34rj,51,2,2.0,39.0,0.329,1.0,1.0
mturk,0lq9i4x81dgnwglgvgnh34rj,52,2,2.0,39.0,0.105,1.0,1.0
mturk,0lq9i4x81dgnwglgvgnh34rj,53,2,2.0,39.0,0.305,1.0,1.0
mturk,0lq9i4x81dgnwglgvgnh34rj,54,2,2.0,39.0,0.288,1.0,0.0
mturk,0lq9i4x81dgnwglgvgnh34rj,55,2,2.0,39.0,0.313,1.0,1.0
mturk,0lq9i4x81dgnwglgvgnh34rj,56,2,2.0,39.0,0.299,1.0,1.0
mturk,0lq9i4x81dgnwglgvgnh34rj,57,2,2.0,39.0,0.28,1.0,1.0
mturk,0lq9i4x81dgnwglgvgnh34rj,58,2,2.0,39.0,0.256,1.0,1.0
mturk,0lq9i4x81dgnwglgvgnh34rj,59,2,2.0,39.0,0.25,1.0,1.0
mturk,0lq9i4x81dgnwglgvgnh34rj,60,2,2.0,39.0,0.357,1.0,1.0
mturk,0lq9i4x81dgnwglgvgnh34rj,61,0,2.0,39.0,0.337,0.0,1.0
mturk,0lq9i4x81dgnwglgvgnh34rj,62,0,2.0,39.0,0.319,0.0,0.0
mturk,0lq9i4x81dgnwglgvgnh34rj,63,0,2.0,39.0,0.33,0.0,1.0
mturk,0lq9i4x81dgnwglgvgnh34rj,64,0,2.0,39.0,0.279,0.0,0.0
mturk,0lq9i4x81dgnwglgvgnh34rj,65,0,2.0,39.0,0.329,0.0,1.0
mturk,0lq9i4x81dgnwglgvgnh34rj,66,0,2.0,39.0,0.321,0.0,1.0
mturk,0lq9i4x81dgnwglgvgnh34rj,67,0,2.0,39.0,0.321,0.0,0.0
mturk,0lq9i4x81dgnwglgvgnh34rj,68,0,1.0,38.0,0.608,0.0,1.0
mturk,0lq9i4x81dgnwglgvgnh34rj,69,0,1.0,38.0,0.32,0.0,1.0
mturk,0lq9i4x81dgnwglgvgnh34rj,70,0,1.0,38.0,0.289,0.0,0.0
mturk,0lq9i4x81dgnwglgvgnh34rj,71,0,1.0,38.0,0.642,0.0,0.0
mturk,0lq9i4x81dgnwglgvgnh34rj,72,0,2.0,39.0,0.256,0.0,0.0
mturk,0lq9i4x81dgnwglgvgnh34rj,73,0,0.0,37.0,0.361,1.0,0.0
mturk,0lq9i4x81dgnwglgvgnh34rj,74,0,0.0,37.0,0.394,1.0,1.0
mturk,0lq9i4x81dgnwglgvgnh34rj,75,0,0.0,37.0,0.329,1.0,1.0
mturk,0lq9i4x81dgnwglgvgnh34rj,76,1,0.0,37.0,0.32,0.0,0.0
mturk,0lq9i4x81dgnwglgvgnh34rj,77,1,0.0,37.0,0.354,0.0,0.0
mturk,0lq9i4x81dgnwglgvgnh34rj,78,1,1.0,38.0,0.249,1.0,1.0
mturk,0lq9i4x81dgnwglgvgnh34rj,79,1,1.0,38.0,0.303,1.0,1.0
mturk,0lq9i4x81dgnwglgvgnh34rj,80,1,1.0,38.0,0.334,1.0,0.0
mturk,0lq9i4x81dgnwglgvgnh34rj,81,1,2.0,39.0,0.442,0.0,1.0
mturk,0lq9i4x81dgnwglgvgnh34rj,82,1,1.0,38.0,0.456,1.0,0.0
mturk,0lq9i4x81dgnwglgvgnh34rj,83,1,2.0,39.0,0.279,0.0,0.0
mturk,0lq9i4x81dgnwglgvgnh34rj,84,1,2.0,39.0,0.32,0.0,0.0
mturk,0lq9i4x81dgnwglgvgnh34rj,85,1,0.0,37.0,0.307,0.0,0.0
mturk,0lq9i4x81dgnwglgvgnh34rj,86,1,1.0,38.0,0.52,1.0,1.0
mturk,0lq9i4x81dgnwglgvgnh34rj,87,1,1.0,38.0,0.439,1.0,1.0
mturk,0lq9i4x81dgnwglgvgnh34rj,88,1,1.0,38.0,0.346,1.0,1.0
mturk,0lq9i4x81dgnwglgvgnh34rj,89,1,1.0,38.0,0.306,1.0,1.0
mturk,0lq9i4x81dgnwglgvgnh34rj,90,1,1.0,38.0,0.36,1.0,0.0
mturk,0piu71owxiz9tgsitq7ktqh6,1,2,2.0,39.0,1.368,1.0,1.0
mturk,0piu71owxiz9tgsitq7ktqh6,2,2,2.0,39.0,0.018,1.0,1.0
mturk,0piu71owxiz9tgsitq7ktqh6,3,2,2.0,39.0,0.082,1.0,1.0
mturk,0piu71owxiz9tgsitq7ktqh6,4,2,1.0,38.0,0.103,0.0,0.0
mturk,0piu71owxiz9tgsitq7ktqh6,5,2,0.0,37.0,0.559,0.0,0.0
mturk,0piu71owxiz9tgsitq7ktqh6,6,2,2.0,39.0,0.475,1.0,1.0
mturk,0piu71owxiz9tgsitq7ktqh6,7,2,2.0,39.0,0.058,1.0,1.0
mturk,0piu71owxiz9tgsitq7ktqh6,8,2,2.0,39.0,0.032,1.0,1.0
mturk,0piu71owxiz9tgsitq7ktqh6,9,2,2.0,39.0,0.146,1.0,1.0
mturk,0piu71owxiz9tgsitq7ktqh6,10,2,2.0,39.0,0.188,1.0,1.0
mturk,0piu71owxiz9tgsitq7ktqh6,11,2,2.0,39.0,0.033,1.0,1.0
mturk,0piu71owxiz9tgsitq7ktqh6,12,2,2.0,39.0,0.098,1.0,1.0
mturk,0piu71owxiz9tgsitq7ktqh6,13,2,2.0,39.0,0.057,1.0,0.0
mturk,0piu71owxiz9tgsitq7ktqh6,14,2,0.0,37.0,0.499,0.0,0.0
mturk,0piu71owxiz9tgsitq7ktqh6,15,2,2.0,39.0,0.168,1.0,1.0
mturk,0piu71owxiz9tgsitq7ktqh6,16,1,2.0,39.0,0.235,0.0,0.0
mturk,0piu71owxiz9tgsitq7ktqh6,17,1,1.0,38.0,0.57,1.0,1.0
mturk,0piu71owxiz9tgsitq7ktqh6,18,1,1.0,38.0,0.091,1.0,1.0
mturk,0piu71owxiz9tgsitq7ktqh6,19,1,1.0,38.0,0.179,1.0,1.0
mturk,0piu71owxiz9tgsitq7ktqh6,20,1,1.0,38.0,0.492,1.0,1.0
mturk,0piu71owxiz9tgsitq7ktqh6,21,1,1.0,38.0,0.11,1.0,1.0
mturk,0piu71owxiz9tgsitq7ktqh6,22,1,1.0,38.0,0.404,1.0,0.0
mturk,0piu71owxiz9tgsitq7ktqh6,23,1,2.0,39.0,1.409,0.0,1.0
mturk,0piu71owxiz9tgsitq7ktqh6,24,1,2.0,39.0,0.422,0.0,0.0
mturk,0piu71owxiz9tgsitq7ktqh6,25,1,0.0,37.0,0.35,0.0,0.0
mturk,0piu71owxiz9tgsitq7ktqh6,26,1,1.0,38.0,0.54,1.0,1.0
mturk,0piu71owxiz9tgsitq7ktqh6,27,1,1.0,38.0,0.227,1.0,0.0
mturk,0piu71owxiz9tgsitq7ktqh6,28,1,2.0,39.0,1.217,0.0,1.0
mturk,0piu71owxiz9tgsitq7ktqh6,29,1,2.0,39.0,0.286,0.0,1.0
mturk,0piu71owxiz9tgsitq7ktqh6,30,1,2.0,39.0,0.014,0.0,0.0
mturk,0piu71owxiz9tgsitq7ktqh6,31,0,0.0,37.0,1.0,1.0,0.0
mturk,0piu71owxiz9tgsitq7ktqh6,32,0,1.0,38.0,0.065,0.0,0.0
mturk,0piu71owxiz9tgsitq7ktqh6,33,0,2.0,39.0,0.429,0.0,0.0
mturk,0piu71owxiz9tgsitq7ktqh6,34,0,1.0,38.0,1.066,0.0,1.0
mturk,0piu71owxiz9tgsitq7ktqh6,35,0,1.0,38.0,0.09,0.0,0.0
mturk,0piu71owxiz9tgsitq7ktqh6,36,0,2.0,39.0,1.317,0.0,0.0
mturk,0piu71owxiz9tgsitq7ktqh6,37,0,0.0,37.0,0.865,1.0,1.0
mturk,0piu71owxiz9tgsitq7ktqh6,38,0,0.0,37.0,1.183,1.0,1.0
mturk,0piu71owxiz9tgsitq7ktqh6,39,0,0.0,37.0,0.019,1.0,1.0
mturk,0piu71owxiz9tgsitq7ktqh6,40,0,0.0,37.0,0.38,1.0,1.0
mturk,0piu71owxiz9tgsitq7ktqh6,41,0,0.0,37.0,0.25,1.0,1.0
mturk,0piu71owxiz9tgsitq7ktqh6,42,0,0.0,37.0,0.377,1.0,1.0
mturk,0piu71owxiz9tgsitq7ktqh6,43,0,0.0,37.0,0.49,1.0,0.0
mturk,0piu71owxiz9tgsitq7ktqh6,44,0,2.0,39.0,1.119,0.0,0.0
mturk,0piu71owxiz9tgsitq7ktqh6,45,0,1.0,38.0,0.086,0.0,1.0
mturk,0piu71owxiz9tgsitq7ktqh6,46,1,1.0,38.0,0.213,1.0,1.0
mturk,0piu71owxiz9tgsitq7ktqh6,47,1,1.0,38.0,0.4,1.0,1.0
mturk,0piu71owxiz9tgsitq7ktqh6,48,1,1.0,38.0,0.404,1.0,1.0
mturk,0piu71owxiz9tgsitq7ktqh6,49,1,1.0,38.0,0.47,1.0,0.0
mturk,0piu71owxiz9tgsitq7ktqh6,50,1,2.0,39.0,1.891,0.0,0.0
mturk,0piu71owxiz9tgsitq7ktqh6,51,1,0.0,37.0,0.634,0.0,1.0
mturk,0piu71owxiz9tgsitq7ktqh6,52,1,0.0,37.0,1.293,0.0,0.0
mturk,0piu71owxiz9tgsitq7ktqh6,53,1,2.0,39.0,2.175,0.0,1.0
mturk,0piu71owxiz9tgsitq7ktqh6,54,1,2.0,39.0,1.328,0.0,1.0
mturk,0piu71owxiz9tgsitq7ktqh6,55,1,2.0,39.0,0.633,0.0,1.0
mturk,0piu71owxiz9tgsitq7ktqh6,56,1,2.0,39.0,0.818,0.0,0.0
mturk,0piu71owxiz9tgsitq7ktqh6,57,1,1.0,38.0,2.109,1.0,1.0
mturk,0piu71owxiz9tgsitq7ktqh6,58,1,1.0,38.0,0.159,1.0,0.0
mturk,0piu71owxiz9tgsitq7ktqh6,59,1,0.0,37.0,1.954,0.0,0.0
mturk,0piu71owxiz9tgsitq7ktqh6,60,1,2.0,39.0,2.334,0.0,0.0
mturk,0piu71owxiz9tgsitq7ktqh6,61,2,1.0,38.0,1.573,0.0,1.0
mturk,0piu71owxiz9tgsitq7ktqh6,62,2,1.0,38.0,0.446,0.0,0.0
mturk,0piu71owxiz9tgsitq7ktqh6,63,2,2.0,39.0,3.386,1.0,1.0
mturk,0piu71owxiz9tgsitq7ktqh6,64,2,2.0,39.0,0.723,1.0,0.0
mturk,0piu71owxiz9tgsitq7ktqh6,65,2,0.0,37.0,2.34,0.0,0.0
mturk,0piu71owxiz9tgsitq7ktqh6,66,2,1.0,38.0,1.946,0.0,0.0
mturk,0piu71owxiz9tgsitq7ktqh6,67,2,2.0,39.0,3.196,1.0,1.0
mturk,0piu71owxiz9tgsitq7ktqh6,68,2,2.0,39.0,2.411,1.0,1.0
mturk,0piu71owxiz9tgsitq7ktqh6,69,2,2.0,39.0,4.883,1.0,0.0
mturk,0piu71owxiz9tgsitq7ktqh6,70,2,1.0,38.0,1.097,0.0,0.0
mturk,0piu71owxiz9tgsitq7ktqh6,71,2,0.0,37.0,0.496,0.0,1.0
mturk,0piu71owxiz9tgsitq7ktqh6,72,2,0.0,37.0,0.338,0.0,1.0
mturk,0piu71owxiz9tgsitq7ktqh6,73,2,0.0,37.0,0.638,0.0,0.0
mturk,0piu71owxiz9tgsitq7ktqh6,74,2,2.0,39.0,0.66,1.0,1.0
mturk,0piu71owxiz9tgsitq7ktqh6,75,2,2.0,39.0,0.514,1.0,0.0
mturk,0piu71owxiz9tgsitq7ktqh6,76,0,1.0,38.0,0.524,0.0,0.0
mturk,0piu71owxiz9tgsitq7ktqh6,77,0,0.0,37.0,1.985,1.0,1.0
mturk,0piu71owxiz9tgsitq7ktqh6,78,0,0.0,37.0,1.342,1.0,1.0
mturk,0piu71owxiz9tgsitq7ktqh6,79,0,0.0,37.0,1.901,1.0,1.0
mturk,0piu71owxiz9tgsitq7ktqh6,80,0,0.0,37.0,1.758,1.0,0.0
mturk,0piu71owxiz9tgsitq7ktqh6,81,0,2.0,39.0,2.235,0.0,0.0
mturk,0piu71owxiz9tgsitq7ktqh6,82,0,1.0,38.0,0.026,0.0,0.0
mturk,0piu71owxiz9tgsitq7ktqh6,83,0,0.0,37.0,1.878,1.0,1.0
mturk,0piu71owxiz9tgsitq7ktqh6,84,0,0.0,37.0,0.479,1.0,1.0
mturk,0piu71owxiz9tgsitq7ktqh6,85,0,0.0,37.0,0.405,1.0,1.0
mturk,0piu71owxiz9tgsitq7ktqh6,86,0,0.0,37.0,0.397,1.0,1.0
mturk,0piu71owxiz9tgsitq7ktqh6,87,0,0.0,37.0,0.364,1.0,1.0
mturk,0piu71owxiz9tgsitq7ktqh6,88,0,0.0,37.0,0.37,1.0,1.0
mturk,0piu71owxiz9tgsitq7ktqh6,89,0,0.0,37.0,0.236,1.0,1.0
mturk,0piu71owxiz9tgsitq7ktqh6,90,0,0.0,37.0,0.351,1.0,1.0
mturk,19h68mzzzd51m1ysm4jbmlml,1,1,2.0,39.0,9.739,0.0,0.0
mturk,19h68mzzzd51m1ysm4jbmlml,2,1,2.0,39.0,0.301,0.0,0.0
mturk,19h68mzzzd51m1ysm4jbmlml,3,1,0.0,37.0,0.5,0.0,0.0
mturk,19h68mzzzd51m1ysm4jbmlml,4,1,1.0,38.0,0.161,1.0,1.0
mturk,19h68mzzzd51m1ysm4jbmlml,5,1,1.0,38.0,0.703,1.0,1.0
mturk,19h68mzzzd51m1ysm4jbmlml,6,1,0.0,37.0,0.839,0.0,0.0
mturk,19h68mzzzd51m1ysm4jbmlml,7,1,2.0,39.0,0.194,0.0,0.0
mturk,19h68mzzzd51m1ysm4jbmlml,8,1,1.0,38.0,0.194,1.0,1.0
mturk,19h68mzzzd51m1ysm4jbmlml,9,1,1.0,38.0,2.059,1.0,1.0
mturk,19h68mzzzd51m1ysm4jbmlml,10,1,1.0,38.0,1.021,1.0,1.0
mturk,19h68mzzzd51m1ysm4jbmlml,11,1,1.0,38.0,0.407,1.0,1.0
mturk,19h68mzzzd51m1ysm4jbmlml,12,1,1.0,38.0,0.482,1.0,1.0
mturk,19h68mzzzd51m1ysm4jbmlml,13,1,1.0,38.0,0.427,1.0,1.0
mturk,19h68mzzzd51m1ysm4jbmlml,14,1,1.0,38.0,0.423,1.0,1.0
mturk,19h68mzzzd51m1ysm4jbmlml,15,1,1.0,38.0,0.102,1.0,1.0
mturk,19h68mzzzd51m1ysm4jbmlml,16,0,0.0,37.0,1.423,1.0,0.0
mturk,19h68mzzzd51m1ysm4jbmlml,17,0,2.0,39.0,0.664,0.0,0.0
mturk,19h68mzzzd51m1ysm4jbmlml,18,0,1.0,38.0,0.174,0.0,0.0
mturk,19h68mzzzd51m1ysm4jbmlml,19,0,0.0,37.0,0.389,1.0,1.0
mturk,19h68mzzzd51m1ysm4jbmlml,20,0,0.0,37.0,0.303,1.0,1.0
mturk,19h68mzzzd51m1ysm4jbmlml,21,0,0.0,37.0,0.214,1.0,1.0
mturk,19h68mzzzd51m1ysm4jbmlml,22,0,0.0,37.0,0.616,1.0,0.0
mturk,19h68mzzzd51m1ysm4jbmlml,23,0,2.0,39.0,0.004,0.0,1.0
mturk,19h68mzzzd51m1ysm4jbmlml,24,0,2.0,39.0,0.325,0.0,0.0
mturk,19h68mzzzd51m1ysm4jbmlml,25,0,0.0,37.0,0.476,1.0,1.0
mturk,19h68mzzzd51m1ysm4jbmlml,26,0,0.0,37.0,0.716,1.0,1.0
mturk,19h68mzzzd51m1ysm4jbmlml,27,0,0.0,37.0,1.944,1.0,1.0
mturk,19h68mzzzd51m1ysm4jbmlml,28,0,0.0,37.0,1.283,1.0,1.0
mturk,19h68mzzzd51m1ysm4jbmlml,29,0,0.0,37.0,1.186,1.0,1.0
mturk,19h68mzzzd51m1ysm4jbmlml,30,0,0.0,37.0,1.586,1.0,1.0
mturk,19h68mzzzd51m1ysm4jbmlml,31,2,0.0,37.0,1.046,0.0,0.0
mturk,19h68mzzzd51m1ysm4jbmlml,32,2,2.0,39.0,0.009,1.0,1.0
mturk,19h68mzzzd51m1ysm4jbmlml,33,2,2.0,39.0,0.803,1.0,0.0
mturk,19h68mzzzd51m1ysm4jbmlml,34,2,1.0,38.0,0.349,0.0,1.0
mturk,19h68mzzzd51m1ysm4jbmlml,35,2,1.0,38.0,0.558,0.0,0.0
mturk,19h68mzzzd51m1ysm4jbmlml,36,2,0.0,37.0,0.435,0.0,0.0
mturk,19h68mzzzd51m1ysm4jbmlml,37,2,2.0,39.0,0.067,1.0,1.0
mturk,19h68mzzzd51m1ysm4jbmlml,38,2,2.0,39.0,8.644,1.0,1.0
mturk,19h68mzzzd51m1ysm4jbmlml,39,2,2.0,39.0,1.014,1.0,1.0
mturk,19h68mzzzd51m1ysm4jbmlml,40,2,2.0,39.0,2.221,1.0,0.0
mturk,19h68mzzzd51m1ysm4jbmlml,41,2,1.0,38.0,0.492,0.0,0.0
mturk,19h68mzzzd51m1ysm4jbmlml,42,2,0.0,37.0,1.002,0.0,0.0
mturk,19h68mzzzd51m1ysm4jbmlml,43,2,2.0,39.0,0.705,1.0,1.0
mturk,19h68mzzzd51m1ysm4jbmlml,44,2,2.0,39.0,1.342,1.0,1.0
mturk,19h68mzzzd51m1ysm4jbmlml,45,2,2.0,39.0,0.763,1.0,1.0
mturk,19h68mzzzd51m1ysm4jbmlml,46,0,2.0,39.0,0.894,0.0,0.0
mturk,19h68mzzzd51m1ysm4jbmlml,47,0,0.0,37.0,0.866,1.0,1.0
mturk,19h68mzzzd51m1ysm4jbmlml,48,0,0.0,37.0,0.779,1.0,1.0
mturk,19h68mzzzd51m1ysm4jbmlml,49,0,0.0,37.0,0.718,1.0,1.0
mturk,19h68mzzzd51m1ysm4jbmlml,50,0,0.0,37.0,6.476,1.0,1.0
mturk,19h68mzzzd51m1ysm4jbmlml,51,0,0.0,37.0,0.981,1.0,1.0
mturk,19h68mzzzd51m1ysm4jbmlml,52,0,0.0,37.0,0.909,1.0,0.0
mturk,19h68mzzzd51m1ysm4jbmlml,53,0,2.0,39.0,1.48,0.0,0.0
mturk,19h68mzzzd51m1ysm4jbmlml,54,0,1.0,38.0,1.85,0.0,0.0
mturk,19h68mzzzd51m1ysm4jbmlml,55,0,0.0,37.0,0.649,1.0,1.0
mturk,19h68mzzzd51m1ysm4jbmlml,56,0,0.0,37.0,0.873,1.0,0.0
mturk,19h68mzzzd51m1ysm4jbmlml,57,0,2.0,39.0,0.646,0.0,0.0
mturk,19h68mzzzd51m1ysm4jbmlml,58,0,2.0,39.0,9.908,0.0,1.0
mturk,19h68mzzzd51m1ysm4jbmlml,59,0,2.0,39.0,0.492,0.0,0.0
mturk,19h68mzzzd51m1ysm4jbmlml,60,0,0.0,37.0,0.073,1.0,1.0
mturk,19h68mzzzd51m1ysm4jbmlml,61,2,1.0,38.0,0.375,0.0,0.0
mturk,19h68mzzzd51m1ysm4jbmlml,62,2,0.0,37.0,0.341,0.0,0.0
mturk,19h68mzzzd51m1ysm4jbmlml,63,2,2.0,39.0,0.769,1.0,1.0
mturk,19h68mzzzd51m1ysm4jbmlml,64,2,2.0,39.0,0.579,1.0,1.0
mturk,19h68mzzzd51m1ysm4jbmlml,65,2,2.0,39.0,0.816,1.0,1.0
mturk,19h68mzzzd51m1ysm4jbmlml,66,2,2.0,39.0,0.928,1.0,1.0
mturk,19h68mzzzd51m1ysm4jbmlml,67,2,2.0,39.0,0.759,1.0,1.0
mturk,19h68mzzzd51m1ysm4jbmlml,68,2,2.0,39.0,1.024,1.0,1.0
mturk,19h68mzzzd51m1ysm4jbmlml,69,2,2.0,39.0,0.655,1.0,0.0
mturk,19h68mzzzd51m1ysm4jbmlml,70,2,0.0,37.0,1.067,0.0,0.0
mturk,19h68mzzzd51m1ysm4jbmlml,71,2,1.0,38.0,0.933,0.0,0.0
mturk,19h68mzzzd51m1ysm4jbmlml,72,2,2.0,39.0,0.334,1.0,1.0
mturk,19h68mzzzd51m1ysm4jbmlml,73,2,2.0,39.0,1.792,1.0,0.0
mturk,19h68mzzzd51m1ysm4jbmlml,74,2,2.0,39.0,1.593,1.0,1.0
mturk,19h68mzzzd51m1ysm4jbmlml,75,2,2.0,39.0,0.801,1.0,1.0
mturk,19h68mzzzd51m1ysm4jbmlml,76,0,2.0,39.0,0.648,0.0,0.0
mturk,19h68mzzzd51m1ysm4jbmlml,77,0,2.0,39.0,1.035,0.0,0.0
mturk,19h68mzzzd51m1ysm4jbmlml,78,0,2.0,39.0,0.25,0.0,0.0
mturk,19h68mzzzd51m1ysm4jbmlml,79,0,0.0,37.0,0.539,1.0,1.0
mturk,19h68mzzzd51m1ysm4jbmlml,80,0,0.0,37.0,0.695,1.0,1.0
mturk,19h68mzzzd51m1ysm4jbmlml,81,0,0.0,37.0,1.134,1.0,1.0
mturk,19h68mzzzd51m1ysm4jbmlml,82,0,0.0,37.0,0.401,1.0,1.0
mturk,19h68mzzzd51m1ysm4jbmlml,83,0,0.0,37.0,0.969,1.0,0.0
mturk,19h68mzzzd51m1ysm4jbmlml,84,0,1.0,38.0,0.145,0.0,1.0
mturk,19h68mzzzd51m1ysm4jbmlml,85,0,1.0,38.0,0.636,0.0,1.0
mturk,19h68mzzzd51m1ysm4jbmlml,86,0,1.0,38.0,0.064,0.0,0.0
mturk,19h68mzzzd51m1ysm4jbmlml,87,0,2.0,39.0,1.38,0.0,0.0
mturk,19h68mzzzd51m1ysm4jbmlml,88,0,0.0,37.0,1.038,1.0,1.0
mturk,19h68mzzzd51m1ysm4jbmlml,89,0,0.0,37.0,0.204,1.0,1.0
mturk,19h68mzzzd51m1ysm4jbmlml,90,0,0.0,37.0,0.262,1.0,1.0
mturk,1bkivj7fl2s7bnshyc0xs9xo,1,1,0.0,37.0,3.117,0.0,0.0
mturk,1bkivj7fl2s7bnshyc0xs9xo,2,1,2.0,39.0,0.15,0.0,0.0
mturk,1bkivj7fl2s7bnshyc0xs9xo,3,1,0.0,37.0,1.642,0.0,0.0
mturk,1bkivj7fl2s7bnshyc0xs9xo,4,1,1.0,38.0,0.442,1.0,1.0
mturk,1bkivj7fl2s7bnshyc0xs9xo,5,1,1.0,38.0,0.458,1.0,1.0
mturk,1bkivj7fl2s7bnshyc0xs9xo,6,1,1.0,38.0,0.157,1.0,1.0
mturk,1bkivj7fl2s7bnshyc0xs9xo,7,1,1.0,38.0,0.664,1.0,1.0
mturk,1bkivj7fl2s7bnshyc0xs9xo,8,1,1.0,38.0,0.203,1.0,1.0
mturk,1bkivj7fl2s7bnshyc0xs9xo,9,1,1.0,38.0,0.82,1.0,1.0
mturk,1bkivj7fl2s7bnshyc0xs9xo,10,1,1.0,38.0,0.126,1.0,1.0
mturk,1bkivj7fl2s7bnshyc0xs9xo,11,1,1.0,38.0,0.226,1.0,1.0
mturk,1bkivj7fl2s7bnshyc0xs9xo,12,1,1.0,38.0,0.207,1.0,1.0
mturk,1bkivj7fl2s7bnshyc0xs9xo,13,1,1.0,38.0,0.343,1.0,1.0
mturk,1bkivj7fl2s7bnshyc0xs9xo,14,1,1.0,38.0,0.291,1.0,1.0
mturk,1bkivj7fl2s7bnshyc0xs9xo,15,1,1.0,38.0,0.15,1.0,1.0
mturk,1bkivj7fl2s7bnshyc0xs9xo,16,2,1.0,38.0,0.122,0.0,1.0
mturk,1bkivj7fl2s7bnshyc0xs9xo,17,2,1.0,38.0,0.201,0.0,0.0
mturk,1bkivj7fl2s7bnshyc0xs9xo,18,2,1.0,38.0,0.111,0.0,0.0
mturk,1bkivj7fl2s7bnshyc0xs9xo,19,2,2.0,39.0,0.168,1.0,1.0
mturk,1bkivj7fl2s7bnshyc0xs9xo,20,2,2.0,39.0,0.253,1.0,1.0
mturk,1bkivj7fl2s7bnshyc0xs9xo,21,2,2.0,39.0,0.348,1.0,1.0
mturk,1bkivj7fl2s7bnshyc0xs9xo,22,2,2.0,39.0,0.099,1.0,1.0
mturk,1bkivj7fl2s7bnshyc0xs9xo,23,2,2.0,39.0,0.723,1.0,0.0
mturk,1bkivj7fl2s7bnshyc0xs9xo,24,2,0.0,37.0,0.076,0.0,0.0
mturk,1bkivj7fl2s7bnshyc0xs9xo,25,2,1.0,38.0,0.02,0.0,1.0
mturk,1bkivj7fl2s7bnshyc0xs9xo,26,2,1.0,38.0,0.406,0.0,0.0
mturk,1bkivj7fl2s7bnshyc0xs9xo,27,2,2.0,39.0,0.245,1.0,1.0
mturk,1bkivj7fl2s7bnshyc0xs9xo,28,2,0.0,37.0,0.055,0.0,0.0
mturk,1bkivj7fl2s7bnshyc0xs9xo,29,2,0.0,37.0,0.169,0.0,0.0
mturk,1bkivj7fl2s7bnshyc0xs9xo,30,2,1.0,38.0,0.031,0.0,0.0
mturk,1bkivj7fl2s7bnshyc0xs9xo,31,0,2.0,39.0,0.494,0.0,0.0
mturk,1bkivj7fl2s7bnshyc0xs9xo,32,0,1.0,38.0,0.462,0.0,0.0
mturk,1bkivj7fl2s7bnshyc0xs9xo,33,0,2.0,39.0,0.412,0.0,0.0
mturk,1bkivj7fl2s7bnshyc0xs9xo,34,0,0.0,37.0,1.331,1.0,1.0
mturk,1bkivj7fl2s7bnshyc0xs9xo,35,0,0.0,37.0,0.285,1.0,1.0
mturk,1bkivj7fl2s7bnshyc0xs9xo,36,0,0.0,37.0,0.355,1.0,1.0
mturk,1bkivj7fl2s7bnshyc0xs9xo,37,0,0.0,37.0,0.009,1.0,1.0
mturk,1bkivj7fl2s7bnshyc0xs9xo,38,0,0.0,37.0,7.494,1.0,1.0
mturk,1bkivj7fl2s7bnshyc0xs9xo,39,0,0.0,37.0,0.693,1.0,1.0
mturk,1bkivj7fl2s7bnshyc0xs9xo,40,0,0.0,37.0,0.115,1.0,0.0
mturk,1bkivj7fl2s7bnshyc0xs9xo,41,0,0.0,37.0,0.673,1.0,1.0
mturk,1bkivj7fl2s7bnshyc0xs9xo,42,0,0.0,37.0,0.447,1.0,1.0
mturk,1bkivj7fl2s7bnshyc0xs9xo,43,0,0.0,37.0,0.268,1.0,1.0
mturk,1bkivj7fl2s7bnshyc0xs9xo,44,0,0.0,37.0,0.364,1.0,0.0
mturk,1bkivj7fl2s7bnshyc0xs9xo,45,0,2.0,39.0,0.2,0.0,0.0
mturk,1bkivj7fl2s7bnshyc0xs9xo,46,2,1.0,38.0,1.296,0.0,0.0
mturk,1bkivj7fl2s7bnshyc0xs9xo,47,2,2.0,39.0,0.029,1.0,0.0
mturk,1bkivj7fl2s7bnshyc0xs9xo,48,2,0.0,37.0,0.852,0.0,0.0
mturk,1bkivj7fl2s7bnshyc0xs9xo,49,2,1.0,38.0,0.003,0.0,1.0
mturk,1bkivj7fl2s7bnshyc0xs9xo,50,2,1.0,38.0,0.313,0.0,1.0
mturk,1bkivj7fl2s7bnshyc0xs9xo,51,2,1.0,38.0,0.12,0.0,0.0
mturk,1bkivj7fl2s7bnshyc0xs9xo,52,2,2.0,39.0,0.485,1.0,1.0
mturk,1bkivj7fl2s7bnshyc0xs9xo,53,2,2.0,39.0,0.033,1.0,1.0
mturk,1bkivj7fl2s7bnshyc0xs9xo,54,2,2.0,39.0,0.258,1.0,1.0
mturk,1bkivj7fl2s7bnshyc0xs9xo,55,2,2.0,39.0,0.238,1.0,1.0
mturk,1bkivj7fl2s7bnshyc0xs9xo,56,2,2.0,39.0,0.233,1.0,1.0
mturk,1bkivj7fl2s7bnshyc0xs9xo,57,2,2.0,39.0,0.07,1.0,1.0
mturk,1bkivj7fl2s7bnshyc0xs9xo,58,2,2.0,39.0,2.741,1.0,1.0
mturk,1bkivj7fl2s7bnshyc0xs9xo,59,2,2.0,39.0,0.367,1.0,1.0
mturk,1bkivj7fl2s7bnshyc0xs9xo,60,2,2.0,39.0,0.286,1.0,1.0
mturk,1bkivj7fl2s7bnshyc0xs9xo,61,0,2.0,39.0,0.04,0.0,1.0
mturk,1bkivj7fl2s7bnshyc0xs9xo,62,0,2.0,39.0,0.085,0.0,0.0
mturk,1bkivj7fl2s7bnshyc0xs9xo,63,0,0.0,37.0,0.068,1.0,1.0
mturk,1bkivj7fl2s7bnshyc0xs9xo,64,0,0.0,37.0,0.508,1.0,1.0
mturk,1bkivj7fl2s7bnshyc0xs9xo,65,0,0.0,37.0,0.247,1.0,1.0
mturk,1bkivj7fl2s7bnshyc0xs9xo,66,0,0.0,37.0,0.175,1.0,1.0
mturk,1bkivj7fl2s7bnshyc0xs9xo,67,0,0.0,37.0,0.06,1.0,1.0
mturk,1bkivj7fl2s7bnshyc0xs9xo,68,0,0.0,37.0,6.346,1.0,1.0
mturk,1bkivj7fl2s7bnshyc0xs9xo,69,0,0.0,37.0,0.351,1.0,1.0
mturk,1bkivj7fl2s7bnshyc0xs9xo,70,0,0.0,37.0,1.43,1.0,1.0
mturk,1bkivj7fl2s7bnshyc0xs9xo,71,0,0.0,37.0,0.251,1.0,1.0
mturk,1bkivj7fl2s7bnshyc0xs9xo,72,0,0.0,37.0,0.121,1.0,1.0
mturk,1bkivj7fl2s7bnshyc0xs9xo,73,0,0.0,37.0,0.49,1.0,1.0
mturk,1bkivj7fl2s7bnshyc0xs9xo,74,0,0.0,37.0,0.171,1.0,1.0
mturk,1bkivj7fl2s7bnshyc0xs9xo,75,0,0.0,37.0,0.11,1.0,1.0
mturk,1bkivj7fl2s7bnshyc0xs9xo,76,2,0.0,37.0,0.27,0.0,0.0
mturk,1bkivj7fl2s7bnshyc0xs9xo,77,2,2.0,39.0,0.183,1.0,1.0
mturk,1bkivj7fl2s7bnshyc0xs9xo,78,2,2.0,39.0,0.057,1.0,1.0
mturk,1bkivj7fl2s7bnshyc0xs9xo,79,2,2.0,39.0,0.079,1.0,0.0
mturk,1bkivj7fl2s7bnshyc0xs9xo,80,2,2.0,39.0,0.212,1.0,0.0
mturk,1bkivj7fl2s7bnshyc0xs9xo,81,2,0.0,37.0,1.791,0.0,0.0
mturk,1bkivj7fl2s7bnshyc0xs9xo,82,2,1.0,38.0,0.16,0.0,0.0
mturk,1bkivj7fl2s7bnshyc0xs9xo,83,2,2.0,39.0,1.27,1.0,0.0
mturk,1bkivj7fl2s7bnshyc0xs9xo,84,2,0.0,37.0,1.486,0.0,1.0
mturk,1bkivj7fl2s7bnshyc0xs9xo,85,2,0.0,37.0,0.456,0.0,0.0
mturk,1bkivj7fl2s7bnshyc0xs9xo,86,2,1.0,38.0,0.322,0.0,1.0
mturk,1bkivj7fl2s7bnshyc0xs9xo,87,2,1.0,38.0,0.121,0.0,0.0
mturk,1bkivj7fl2s7bnshyc0xs9xo,88,2,1.0,38.0,0.126,0.0,0.0
mturk,1bkivj7fl2s7bnshyc0xs9xo,89,2,2.0,39.0,0.269,1.0,1.0
mturk,1bkivj7fl2s7bnshyc0xs9xo,90,2,2.0,39.0,0.145,1.0,1.0
mturk,1dhmst23cwb07eov3r1qc7i1,1,1,2.0,39.0,1.223,0.0,0.0
mturk,1dhmst23cwb07eov3r1qc7i1,2,1,0.0,37.0,1.174,0.0,1.0
mturk,1dhmst23cwb07eov3r1qc7i1,3,1,1.0,38.0,2.162,1.0,1.0
mturk,1dhmst23cwb07eov3r1qc7i1,4,1,0.0,37.0,1.703,0.0,0.0
mturk,1dhmst23cwb07eov3r1qc7i1,5,1,1.0,38.0,1.177,1.0,1.0
mturk,1dhmst23cwb07eov3r1qc7i1,6,1,2.0,39.0,1.329,0.0,0.0
mturk,1dhmst23cwb07eov3r1qc7i1,7,1,1.0,38.0,1.118,1.0,1.0
mturk,1dhmst23cwb07eov3r1qc7i1,8,1,2.0,39.0,1.669,0.0,0.0
mturk,1dhmst23cwb07eov3r1qc7i1,9,1,0.0,37.0,1.135,0.0,0.0
mturk,1dhmst23cwb07eov3r1qc7i1,10,1,1.0,38.0,0.996,1.0,1.0
mturk,1dhmst23cwb07eov3r1qc7i1,11,1,2.0,39.0,0.702,0.0,1.0
mturk,1dhmst23cwb07eov3r1qc7i1,12,1,1.0,38.0,2.209,1.0,1.0
mturk,1dhmst23cwb07eov3r1qc7i1,13,1,2.0,39.0,1.457,0.0,0.0
mturk,1dhmst23cwb07eov3r1qc7i1,14,1,0.0,37.0,2.841,0.0,0.0
mturk,1dhmst23cwb07eov3r1qc7i1,15,1,1.0,38.0,0.906,1.0,1.0
mturk,1dhmst23cwb07eov3r1qc7i1,16,2,2.0,39.0,0.878,1.0,1.0
mturk,1dhmst23cwb07eov3r1qc7i1,17,2,1.0,38.0,0.849,0.0,0.0
mturk,1dhmst23cwb07eov3r1qc7i1,18,2,2.0,39.0,0.729,1.0,1.0
mturk,1dhmst23cwb07eov3r1qc7i1,19,2,1.0,38.0,2.29,0.0,0.0
mturk,1dhmst23cwb07eov3r1qc7i1,20,2,0.0,37.0,1.293,0.0,1.0
mturk,1dhmst23cwb07eov3r1qc7i1,21,2,2.0,39.0,0.781,1.0,1.0
mturk,1dhmst23cwb07eov3r1qc7i1,22,2,1.0,38.0,1.061,0.0,0.0
mturk,1dhmst23cwb07eov3r1qc7i1,23,2,0.0,37.0,0.816,0.0,0.0
mturk,1dhmst23cwb07eov3r1qc7i1,24,2,2.0,39.0,0.776,1.0,1.0
mturk,1dhmst23cwb07eov3r1qc7i1,25,2,1.0,38.0,0.517,0.0,0.0
mturk,1dhmst23cwb07eov3r1qc7i1,26,2,0.0,37.0,0.707,0.0,0.0
mturk,1dhmst23cwb07eov3r1qc7i1,27,2,2.0,39.0,0.602,1.0,1.0
mturk,1dhmst23cwb07eov3r1qc7i1,28,2,1.0,38.0,1.1,0.0,0.0
mturk,1dhmst23cwb07eov3r1qc7i1,29,2,2.0,39.0,0.662,1.0,0.0
mturk,1dhmst23cwb07eov3r1qc7i1,30,2,0.0,37.0,0.799,0.0,1.0
mturk,1dhmst23cwb07eov3r1qc7i1,31,1,1.0,38.0,0.625,1.0,1.0
mturk,1dhmst23cwb07eov3r1qc7i1,32,1,2.0,39.0,1.127,0.0,0.0
mturk,1dhmst23cwb07eov3r1qc7i1,33,1,1.0,38.0,0.646,1.0,1.0
mturk,1dhmst23cwb07eov3r1qc7i1,34,1,2.0,39.0,0.843,0.0,0.0
mturk,1dhmst23cwb07eov3r1qc7i1,35,1,0.0,37.0,0.786,0.0,0.0
mturk,1dhmst23cwb07eov3r1qc7i1,36,1,1.0,38.0,1.3,1.0,1.0
mturk,1dhmst23cwb07eov3r1qc7i1,37,1,2.0,39.0,0.648,0.0,0.0
mturk,1dhmst23cwb07eov3r1qc7i1,38,1,1.0,38.0,0.929,1.0,1.0
mturk,1dhmst23cwb07eov3r1qc7i1,39,1,0.0,37.0,0.683,0.0,0.0
mturk,1dhmst23cwb07eov3r1qc7i1,40,1,1.0,38.0,0.98,1.0,1.0
mturk,1dhmst23cwb07eov3r1qc7i1,41,1,0.0,37.0,0.758,0.0,0.0
mturk,1dhmst23cwb07eov3r1qc7i1,42,1,2.0,39.0,0.909,0.0,0.0
mturk,1dhmst23cwb07eov3r1qc7i1,43,1,0.0,37.0,0.102,0.0,1.0
mturk,1dhmst23cwb07eov3r1qc7i1,44,1,1.0,38.0,0.705,1.0,1.0
mturk,1dhmst23cwb07eov3r1qc7i1,45,1,2.0,39.0,1.228,0.0,0.0
mturk,1dhmst23cwb07eov3r1qc7i1,46,2,0.0,37.0,0.486,0.0,0.0
mturk,1dhmst23cwb07eov3r1qc7i1,47,2,2.0,39.0,0.081,1.0,1.0
mturk,1dhmst23cwb07eov3r1qc7i1,48,2,1.0,38.0,0.217,0.0,0.0
mturk,1dhmst23cwb07eov3r1qc7i1,49,2,2.0,39.0,0.773,1.0,0.0
mturk,1dhmst23cwb07eov3r1qc7i1,50,2,0.0,37.0,1.25,0.0,0.0
mturk,1dhmst23cwb07eov3r1qc7i1,51,2,1.0,38.0,0.251,0.0,0.0
mturk,1dhmst23cwb07eov3r1qc7i1,52,2,2.0,39.0,1.109,1.0,1.0
mturk,1dhmst23cwb07eov3r1qc7i1,53,2,0.0,37.0,0.974,0.0,0.0
mturk,1dhmst23cwb07eov3r1qc7i1,54,2,1.0,38.0,0.991,0.0,0.0
mturk,1dhmst23cwb07eov3r1qc7i1,55,2,2.0,39.0,0.654,1.0,1.0
mturk,1dhmst23cwb07eov3r1qc7i1,56,2,2.0,39.0,0.873,1.0,1.0
mturk,1dhmst23cwb07eov3r1qc7i1,57,2,2.0,39.0,0.833,1.0,1.0
mturk,1dhmst23cwb07eov3r1qc7i1,58,2,0.0,37.0,0.859,0.0,0.0
mturk,1dhmst23cwb07eov3r1qc7i1,59,2,2.0,39.0,0.994,1.0,1.0
mturk,1dhmst23cwb07eov3r1qc7i1,60,2,1.0,38.0,0.825,0.0,0.0
mturk,1dhmst23cwb07eov3r1qc7i1,61,0,2.0,39.0,0.686,0.0,0.0
mturk,1dhmst23cwb07eov3r1qc7i1,62,0,0.0,37.0,0.24,1.0,0.0
mturk,1dhmst23cwb07eov3r1qc7i1,63,0,1.0,38.0,0.041,0.0,0.0
mturk,1dhmst23cwb07eov3r1qc7i1,64,0,2.0,39.0,1.17,0.0,0.0
mturk,1dhmst23cwb07eov3r1qc7i1,65,0,0.0,37.0,0.148,1.0,0.0
mturk,1dhmst23cwb07eov3r1qc7i1,66,0,2.0,39.0,0.472,0.0,0.0
mturk,1dhmst23cwb07eov3r1qc7i1,67,0,1.0,38.0,0.591,0.0,0.0
mturk,1dhmst23cwb07eov3r1qc7i1,68,0,0.0,37.0,0.506,1.0,1.0
mturk,1dhmst23cwb07eov3r1qc7i1,69,0,0.0,37.0,0.848,1.0,1.0
mturk,1dhmst23cwb07eov3r1qc7i1,70,0,0.0,37.0,0.703,1.0,1.0
mturk,1dhmst23cwb07eov3r1qc7i1,71,0,0.0,37.0,0.783,1.0,1.0
mturk,1dhmst23cwb07eov3r1qc7i1,72,0,0.0,37.0,1.33,1.0,1.0
mturk,1dhmst23cwb07eov3r1qc7i1,73,0,0.0,37.0,1.2,1.0,1.0
mturk,1dhmst23cwb07eov3r1qc7i1,74,0,0.0,37.0,1.08,1.0,1.0
mturk,1dhmst23cwb07eov3r1qc7i1,75,0,1.0,38.0,0.87,0.0,1.0
mturk,1dhmst23cwb07eov3r1qc7i1,76,2,0.0,37.0,0.79,0.0,0.0
mturk,1dhmst23cwb07eov3r1qc7i1,77,2,1.0,38.0,0.512,0.0,0.0
mturk,1dhmst23cwb07eov3r1qc7i1,78,2,2.0,39.0,0.93,1.0,0.0
mturk,1dhmst23cwb07eov3r1qc7i1,79,2,0.0,37.0,0.423,0.0,0.0
mturk,1dhmst23cwb07eov3r1qc7i1,80,2,1.0,38.0,1.557,0.0,0.0
mturk,1dhmst23cwb07eov3r1qc7i1,81,2,2.0,39.0,0.746,1.0,1.0
mturk,1dhmst23cwb07eov3r1qc7i1,82,2,2.0,39.0,0.745,1.0,0.0
mturk,1dhmst23cwb07eov3r1qc7i1,83,2,0.0,37.0,1.041,0.0,1.0
mturk,1dhmst23cwb07eov3r1qc7i1,84,2,0.0,37.0,0.625,0.0,0.0
mturk,1dhmst23cwb07eov3r1qc7i1,85,2,1.0,38.0,0.243,0.0,1.0
mturk,1dhmst23cwb07eov3r1qc7i1,86,2,1.0,38.0,0.644,0.0,0.0
mturk,1dhmst23cwb07eov3r1qc7i1,87,2,0.0,37.0,0.041,0.0,0.0
mturk,1dhmst23cwb07eov3r1qc7i1,88,2,2.0,39.0,1.183,1.0,1.0
mturk,1dhmst23cwb07eov3r1qc7i1,89,2,2.0,39.0,0.707,1.0,1.0
mturk,1dhmst23cwb07eov3r1qc7i1,90,2,2.0,39.0,0.72,1.0,1.0
mturk,1emkh8fj8n8ujo3jfrrswpna,1,1,1.0,38.0,5.607,1.0,0.0
mturk,1emkh8fj8n8ujo3jfrrswpna,2,1,0.0,37.0,2.16,0.0,1.0
mturk,1emkh8fj8n8ujo3jfrrswpna,3,1,0.0,37.0,0.901,0.0,1.0
mturk,1emkh8fj8n8ujo3jfrrswpna,4,1,0.0,37.0,0.658,0.0,0.0
mturk,1emkh8fj8n8ujo3jfrrswpna,5,1,0.0,37.0,1.023,0.0,0.0
mturk,1emkh8fj8n8ujo3jfrrswpna,6,1,0.0,37.0,0.831,0.0,0.0
mturk,1emkh8fj8n8ujo3jfrrswpna,7,1,0.0,37.0,0.728,0.0,0.0
mturk,1emkh8fj8n8ujo3jfrrswpna,8,1,2.0,39.0,0.446,0.0,0.0
mturk,1emkh8fj8n8ujo3jfrrswpna,9,1,0.0,37.0,0.41,0.0,1.0
mturk,1emkh8fj8n8ujo3jfrrswpna,10,1,0.0,37.0,0.605,0.0,0.0
mturk,1emkh8fj8n8ujo3jfrrswpna,11,1,1.0,38.0,0.506,1.0,1.0
mturk,1emkh8fj8n8ujo3jfrrswpna,12,1,1.0,38.0,0.578,1.0,1.0
mturk,1emkh8fj8n8ujo3jfrrswpna,13,1,1.0,38.0,0.48,1.0,1.0
mturk,1emkh8fj8n8ujo3jfrrswpna,14,1,1.0,38.0,0.671,1.0,1.0
mturk,1emkh8fj8n8ujo3jfrrswpna,15,1,1.0,38.0,0.419,1.0,1.0
mturk,1emkh8fj8n8ujo3jfrrswpna,16,2,1.0,38.0,0.453,0.0,0.0
mturk,1emkh8fj8n8ujo3jfrrswpna,17,2,2.0,39.0,0.38,1.0,1.0
mturk,1emkh8fj8n8ujo3jfrrswpna,18,2,2.0,39.0,0.441,1.0,1.0
mturk,1emkh8fj8n8ujo3jfrrswpna,19,2,2.0,39.0,0.433,1.0,1.0
mturk,1emkh8fj8n8ujo3jfrrswpna,20,2,2.0,39.0,0.421,1.0,1.0
mturk,1emkh8fj8n8ujo3jfrrswpna,21,2,2.0,39.0,0.41,1.0,1.0
mturk,1emkh8fj8n8ujo3jfrrswpna,22,2,2.0,39.0,0.352,1.0,1.0
mturk,1emkh8fj8n8ujo3jfrrswpna,23,2,2.0,39.0,0.409,1.0,1.0
mturk,1emkh8fj8n8ujo3jfrrswpna,24,2,2.0,39.0,0.379,1.0,1.0
mturk,1emkh8fj8n8ujo3jfrrswpna,25,2,2.0,39.0,0.744,1.0,1.0
mturk,1emkh8fj8n8ujo3jfrrswpna,26,2,2.0,39.0,0.949,1.0,1.0
mturk,1emkh8fj8n8ujo3jfrrswpna,27,2,2.0,39.0,0.468,1.0,1.0
mturk,1emkh8fj8n8ujo3jfrrswpna,28,2,2.0,39.0,0.535,1.0,0.0
mturk,1emkh8fj8n8ujo3jfrrswpna,29,2,1.0,38.0,0.315,0.0,0.0
mturk,1emkh8fj8n8ujo3jfrrswpna,30,2,0.0,37.0,0.642,0.0,0.0
mturk,1emkh8fj8n8ujo3jfrrswpna,31,1,1.0,38.0,0.429,1.0,1.0
mturk,1emkh8fj8n8ujo3jfrrswpna,32,1,1.0,38.0,0.517,1.0,1.0
mturk,1emkh8fj8n8ujo3jfrrswpna,33,1,1.0,38.0,0.471,1.0,0.0
mturk,1emkh8fj8n8ujo3jfrrswpna,34,1,2.0,39.0,0.413,0.0,0.0
mturk,1emkh8fj8n8ujo3jfrrswpna,35,1,2.0,39.0,0.54,0.0,0.0
mturk,1emkh8fj8n8ujo3jfrrswpna,36,1,1.0,38.0,0.394,1.0,1.0
mturk,1emkh8fj8n8ujo3jfrrswpna,37,1,1.0,38.0,1.504,1.0,1.0
mturk,1emkh8fj8n8ujo3jfrrswpna,38,1,1.0,38.0,0.742,1.0,1.0
mturk,1emkh8fj8n8ujo3jfrrswpna,39,1,1.0,38.0,0.287,1.0,1.0
mturk,1emkh8fj8n8ujo3jfrrswpna,40,1,1.0,38.0,0.317,1.0,1.0
mturk,1emkh8fj8n8ujo3jfrrswpna,41,1,1.0,38.0,0.27,1.0,1.0
mturk,1emkh8fj8n8ujo3jfrrswpna,42,1,1.0,38.0,0.456,1.0,1.0
mturk,1emkh8fj8n8ujo3jfrrswpna,43,1,1.0,38.0,0.479,1.0,1.0
mturk,1emkh8fj8n8ujo3jfrrswpna,44,1,1.0,38.0,0.371,1.0,1.0
mturk,1emkh8fj8n8ujo3jfrrswpna,45,1,1.0,38.0,0.286,1.0,0.0
mturk,1emkh8fj8n8ujo3jfrrswpna,46,2,2.0,39.0,0.243,1.0,0.0
mturk,1emkh8fj8n8ujo3jfrrswpna,47,2,2.0,39.0,0.358,1.0,0.0
mturk,1emkh8fj8n8ujo3jfrrswpna,48,2,0.0,37.0,0.036,0.0,1.0
mturk,1emkh8fj8n8ujo3jfrrswpna,49,2,0.0,37.0,0.367,0.0,1.0
mturk,1emkh8fj8n8ujo3jfrrswpna,50,2,0.0,37.0,0.399,0.0,0.0
mturk,1emkh8fj8n8ujo3jfrrswpna,51,2,2.0,39.0,0.385,1.0,1.0
mturk,1emkh8fj8n8ujo3jfrrswpna,52,2,2.0,39.0,0.334,1.0,0.0
mturk,1emkh8fj8n8ujo3jfrrswpna,53,2,1.0,38.0,0.32,0.0,0.0
mturk,1emkh8fj8n8ujo3jfrrswpna,54,2,2.0,39.0,0.431,1.0,1.0
mturk,1emkh8fj8n8ujo3jfrrswpna,55,2,2.0,39.0,0.471,1.0,1.0
mturk,1emkh8fj8n8ujo3jfrrswpna,56,2,2.0,39.0,0.491,1.0,1.0
mturk,1emkh8fj8n8ujo3jfrrswpna,57,2,2.0,39.0,0.301,1.0,0.0
mturk,1emkh8fj8n8ujo3jfrrswpna,58,2,1.0,38.0,0.376,0.0,0.0
mturk,1emkh8fj8n8ujo3jfrrswpna,59,2,0.0,37.0,0.28,0.0,0.0
mturk,1emkh8fj8n8ujo3jfrrswpna,60,2,2.0,39.0,0.287,1.0,1.0
mturk,1emkh8fj8n8ujo3jfrrswpna,61,0,2.0,39.0,0.45,0.0,0.0
mturk,1emkh8fj8n8ujo3jfrrswpna,62,0,1.0,38.0,0.509,0.0,0.0
mturk,1emkh8fj8n8ujo3jfrrswpna,63,0,1.0,38.0,0.671,0.0,1.0
mturk,1emkh8fj8n8ujo3jfrrswpna,64,0,1.0,38.0,0.306,0.0,0.0
mturk,1emkh8fj8n8ujo3jfrrswpna,65,0,2.0,39.0,0.595,0.0,0.0
mturk,1emkh8fj8n8ujo3jfrrswpna,66,0,0.0,37.0,0.479,1.0,1.0
mturk,1emkh8fj8n8ujo3jfrrswpna,67,0,0.0,37.0,0.378,1.0,1.0
mturk,1emkh8fj8n8ujo3jfrrswpna,68,0,0.0,37.0,0.376,1.0,1.0
mturk,1emkh8fj8n8ujo3jfrrswpna,69,0,0.0,37.0,0.643,1.0,1.0
mturk,1emkh8fj8n8ujo3jfrrswpna,70,0,0.0,37.0,1.06,1.0,1.0
mturk,1emkh8fj8n8ujo3jfrrswpna,71,0,0.0,37.0,0.726,1.0,1.0
mturk,1emkh8fj8n8ujo3jfrrswpna,72,0,0.0,37.0,2.224,1.0,1.0
mturk,1emkh8fj8n8ujo3jfrrswpna,73,0,0.0,37.0,0.693,1.0,0.0
mturk,1emkh8fj8n8ujo3jfrrswpna,74,0,2.0,39.0,0.349,0.0,1.0
mturk,1emkh8fj8n8ujo3jfrrswpna,75,0,2.0,39.0,0.462,0.0,0.0
mturk,1emkh8fj8n8ujo3jfrrswpna,76,2,1.0,38.0,0.215,0.0,0.0
mturk,1emkh8fj8n8ujo3jfrrswpna,77,2,1.0,38.0,0.459,0.0,0.0
mturk,1emkh8fj8n8ujo3jfrrswpna,78,2,2.0,39.0,0.29,1.0,0.0
mturk,1emkh8fj8n8ujo3jfrrswpna,79,2,0.0,37.0,0.286,0.0,0.0
mturk,1emkh8fj8n8ujo3jfrrswpna,80,2,1.0,38.0,0.292,0.0,1.0
mturk,1emkh8fj8n8ujo3jfrrswpna,81,2,1.0,38.0,0.461,0.0,0.0
mturk,1emkh8fj8n8ujo3jfrrswpna,82,2,2.0,39.0,0.401,1.0,1.0
mturk,1emkh8fj8n8ujo3jfrrswpna,83,2,2.0,39.0,0.367,1.0,1.0
mturk,1emkh8fj8n8ujo3jfrrswpna,84,2,2.0,39.0,0.266,1.0,1.0
mturk,1emkh8fj8n8ujo3jfrrswpna,85,2,2.0,39.0,1.045,1.0,0.0
mturk,1emkh8fj8n8ujo3jfrrswpna,86,2,1.0,38.0,0.242,0.0,0.0
mturk,1emkh8fj8n8ujo3jfrrswpna,87,2,0.0,37.0,0.371,0.0,0.0
mturk,1emkh8fj8n8ujo3jfrrswpna,88,2,2.0,39.0,0.369,1.0,1.0
mturk,1emkh8fj8n8ujo3jfrrswpna,89,2,2.0,39.0,0.356,1.0,0.0
mturk,1emkh8fj8n8ujo3jfrrswpna,90,2,2.0,39.0,0.372,1.0,1.0
mturk,1gzcp8taimbcpvzulsjo6w7a,1,2,1.0,38.0,8.237,0.0,1.0
mturk,1gzcp8taimbcpvzulsjo6w7a,2,2,2.0,39.0,0.052,1.0,1.0
mturk,1gzcp8taimbcpvzulsjo6w7a,3,2,2.0,39.0,0.464,1.0,1.0
mturk,1gzcp8taimbcpvzulsjo6w7a,4,2,2.0,39.0,0.132,1.0,0.0
mturk,1gzcp8taimbcpvzulsjo6w7a,5,2,0.0,37.0,3.053,0.0,0.0
mturk,1gzcp8taimbcpvzulsjo6w7a,6,2,2.0,39.0,0.59,1.0,1.0
mturk,1gzcp8taimbcpvzulsjo6w7a,7,2,2.0,39.0,0.215,1.0,1.0
mturk,1gzcp8taimbcpvzulsjo6w7a,8,2,2.0,39.0,0.441,1.0,0.0
mturk,1gzcp8taimbcpvzulsjo6w7a,9,2,1.0,38.0,0.144,0.0,0.0
mturk,1gzcp8taimbcpvzulsjo6w7a,10,2,2.0,39.0,0.216,1.0,1.0
mturk,1gzcp8taimbcpvzulsjo6w7a,11,2,2.0,39.0,0.056,1.0,1.0
mturk,1gzcp8taimbcpvzulsjo6w7a,12,2,0.0,37.0,0.012,0.0,1.0
mturk,1gzcp8taimbcpvzulsjo6w7a,13,2,1.0,38.0,0.102,0.0,1.0
mturk,1gzcp8taimbcpvzulsjo6w7a,14,2,2.0,39.0,0.234,1.0,1.0
mturk,1gzcp8taimbcpvzulsjo6w7a,15,2,1.0,38.0,0.107,0.0,0.0
mturk,1gzcp8taimbcpvzulsjo6w7a,16,1,0.0,37.0,0.055,0.0,0.0
mturk,1gzcp8taimbcpvzulsjo6w7a,17,1,2.0,39.0,0.291,0.0,0.0
mturk,1gzcp8taimbcpvzulsjo6w7a,18,1,2.0,39.0,0.779,0.0,0.0
mturk,1gzcp8taimbcpvzulsjo6w7a,19,1,0.0,37.0,0.077,0.0,0.0
mturk,1gzcp8taimbcpvzulsjo6w7a,20,1,1.0,38.0,0.058,1.0,0.0
mturk,1gzcp8taimbcpvzulsjo6w7a,21,1,2.0,39.0,0.201,0.0,0.0
mturk,1gzcp8taimbcpvzulsjo6w7a,22,1,2.0,39.0,0.343,0.0,0.0
mturk,1gzcp8taimbcpvzulsjo6w7a,23,1,0.0,37.0,0.616,0.0,0.0
mturk,1gzcp8taimbcpvzulsjo6w7a,24,1,1.0,38.0,1.52,1.0,1.0
mturk,1gzcp8taimbcpvzulsjo6w7a,25,1,1.0,38.0,0.55,1.0,1.0
mturk,1gzcp8taimbcpvzulsjo6w7a,26,1,1.0,38.0,0.284,1.0,1.0
mturk,1gzcp8taimbcpvzulsjo6w7a,27,1,1.0,38.0,0.296,1.0,1.0
mturk,1gzcp8taimbcpvzulsjo6w7a,28,1,1.0,38.0,0.153,1.0,1.0
mturk,1gzcp8taimbcpvzulsjo6w7a,29,1,1.0,38.0,0.102,1.0,1.0
mturk,1gzcp8taimbcpvzulsjo6w7a,30,1,1.0,38.0,0.384,1.0,1.0
mturk,1gzcp8taimbcpvzulsjo6w7a,31,2,1.0,38.0,0.261,0.0,1.0
mturk,1gzcp8taimbcpvzulsjo6w7a,32,2,1.0,38.0,0.377,0.0,1.0
mturk,1gzcp8taimbcpvzulsjo6w7a,33,2,1.0,38.0,0.09,0.0,0.0
mturk,1gzcp8taimbcpvzulsjo6w7a,34,2,2.0,39.0,0.64,1.0,1.0
mturk,1gzcp8taimbcpvzulsjo6w7a,35,2,2.0,39.0,0.241,1.0,1.0
mturk,1gzcp8taimbcpvzulsjo6w7a,36,2,2.0,39.0,0.363,1.0,1.0
mturk,1gzcp8taimbcpvzulsjo6w7a,37,2,2.0,39.0,0.05,1.0,1.0
mturk,1gzcp8taimbcpvzulsjo6w7a,38,2,2.0,39.0,0.443,1.0,1.0
mturk,1gzcp8taimbcpvzulsjo6w7a,39,2,2.0,39.0,0.185,1.0,1.0
mturk,1gzcp8taimbcpvzulsjo6w7a,40,2,2.0,39.0,0.152,1.0,1.0
mturk,1gzcp8taimbcpvzulsjo6w7a,41,2,2.0,39.0,0.072,1.0,1.0
mturk,1gzcp8taimbcpvzulsjo6w7a,42,2,2.0,39.0,0.291,1.0,1.0
mturk,1gzcp8taimbcpvzulsjo6w7a,43,2,2.0,39.0,0.056,1.0,1.0
mturk,1gzcp8taimbcpvzulsjo6w7a,44,2,2.0,39.0,0.188,1.0,0.0
mturk,1gzcp8taimbcpvzulsjo6w7a,45,2,1.0,38.0,0.072,0.0,0.0
mturk,1gzcp8taimbcpvzulsjo6w7a,46,0,0.0,37.0,0.306,1.0,1.0
mturk,1gzcp8taimbcpvzulsjo6w7a,47,0,0.0,37.0,0.135,1.0,1.0
mturk,1gzcp8taimbcpvzulsjo6w7a,48,0,0.0,37.0,0.085,1.0,1.0
mturk,1gzcp8taimbcpvzulsjo6w7a,49,0,0.0,37.0,0.229,1.0,1.0
mturk,1gzcp8taimbcpvzulsjo6w7a,50,0,0.0,37.0,0.274,1.0,1.0
mturk,1gzcp8taimbcpvzulsjo6w7a,51,0,1.0,38.0,0.81,0.0,0.0
mturk,1gzcp8taimbcpvzulsjo6w7a,52,0,2.0,39.0,0.168,0.0,0.0
mturk,1gzcp8taimbcpvzulsjo6w7a,53,0,0.0,37.0,0.166,1.0,1.0
mturk,1gzcp8taimbcpvzulsjo6w7a,54,0,0.0,37.0,0.122,1.0,1.0
mturk,1gzcp8taimbcpvzulsjo6w7a,55,0,0.0,37.0,0.028,1.0,1.0
mturk,1gzcp8taimbcpvzulsjo6w7a,56,0,0.0,37.0,0.247,1.0,1.0
mturk,1gzcp8taimbcpvzulsjo6w7a,57,0,0.0,37.0,0.072,1.0,1.0
mturk,1gzcp8taimbcpvzulsjo6w7a,58,0,0.0,37.0,0.356,1.0,1.0
mturk,1gzcp8taimbcpvzulsjo6w7a,59,0,0.0,37.0,0.048,1.0,1.0
mturk,1gzcp8taimbcpvzulsjo6w7a,60,0,0.0,37.0,0.012,1.0,1.0
mturk,1gzcp8taimbcpvzulsjo6w7a,61,1,0.0,37.0,0.165,0.0,1.0
mturk,1gzcp8taimbcpvzulsjo6w7a,62,1,0.0,37.0,0.215,0.0,1.0
mturk,1gzcp8taimbcpvzulsjo6w7a,63,1,0.0,37.0,0.269,0.0,0.0
mturk,1gzcp8taimbcpvzulsjo6w7a,64,1,1.0,38.0,0.622,1.0,1.0
mturk,1gzcp8taimbcpvzulsjo6w7a,65,1,1.0,38.0,0.23,1.0,1.0
mturk,1gzcp8taimbcpvzulsjo6w7a,66,1,1.0,38.0,0.115,1.0,1.0
mturk,1gzcp8taimbcpvzulsjo6w7a,67,1,1.0,38.0,0.099,1.0,0.0
mturk,1gzcp8taimbcpvzulsjo6w7a,68,1,2.0,39.0,0.129,0.0,0.0
mturk,1gzcp8taimbcpvzulsjo6w7a,69,1,0.0,37.0,0.161,0.0,1.0
mturk,1gzcp8taimbcpvzulsjo6w7a,70,1,0.0,37.0,0.093,0.0,0.0
mturk,1gzcp8taimbcpvzulsjo6w7a,71,1,1.0,38.0,0.637,1.0,1.0
mturk,1gzcp8taimbcpvzulsjo6w7a,72,1,1.0,38.0,0.142,1.0,1.0
mturk,1gzcp8taimbcpvzulsjo6w7a,73,1,1.0,38.0,0.094,1.0,1.0
mturk,1gzcp8taimbcpvzulsjo6w7a,74,1,1.0,38.0,0.331,1.0,1.0
mturk,1gzcp8taimbcpvzulsjo6w7a,75,1,1.0,38.0,0.278,1.0,1.0
mturk,1gzcp8taimbcpvzulsjo6w7a,76,2,1.0,38.0,0.113,0.0,1.0
mturk,1gzcp8taimbcpvzulsjo6w7a,77,2,1.0,38.0,0.227,0.0,0.0
mturk,1gzcp8taimbcpvzulsjo6w7a,78,2,2.0,39.0,0.123,1.0,0.0
mturk,1gzcp8taimbcpvzulsjo6w7a,79,2,0.0,37.0,0.531,0.0,0.0
mturk,1gzcp8taimbcpvzulsjo6w7a,80,2,1.0,38.0,0.222,0.0,1.0
mturk,1gzcp8taimbcpvzulsjo6w7a,81,2,1.0,38.0,0.209,0.0,0.0
mturk,1gzcp8taimbcpvzulsjo6w7a,82,2,2.0,39.0,0.548,1.0,1.0
mturk,1gzcp8taimbcpvzulsjo6w7a,83,2,2.0,39.0,0.075,1.0,1.0
mturk,1gzcp8taimbcpvzulsjo6w7a,84,2,2.0,39.0,0.126,1.0,1.0
mturk,1gzcp8taimbcpvzulsjo6w7a,85,2,2.0,39.0,0.233,1.0,1.0
mturk,1gzcp8taimbcpvzulsjo6w7a,86,2,2.0,39.0,0.187,1.0,0.0
mturk,1gzcp8taimbcpvzulsjo6w7a,87,2,0.0,37.0,0.097,0.0,0.0
mturk,1gzcp8taimbcpvzulsjo6w7a,88,2,1.0,38.0,0.026,0.0,0.0
mturk,1gzcp8taimbcpvzulsjo6w7a,89,2,2.0,39.0,0.449,1.0,1.0
mturk,1gzcp8taimbcpvzulsjo6w7a,90,2,2.0,39.0,0.111,1.0,1.0
mturk,1h67fnjgm45dzniy6y91vld7,1,2,1.0,38.0,1.732,0.0,1.0
mturk,1h67fnjgm45dzniy6y91vld7,2,2,1.0,38.0,0.689,0.0,0.0
mturk,1h67fnjgm45dzniy6y91vld7,3,2,2.0,39.0,0.335,1.0,1.0
mturk,1h67fnjgm45dzniy6y91vld7,4,2,0.0,37.0,0.456,0.0,0.0
mturk,1h67fnjgm45dzniy6y91vld7,5,2,2.0,39.0,0.304,1.0,0.0
mturk,1h67fnjgm45dzniy6y91vld7,6,2,1.0,38.0,0.09,0.0,0.0
mturk,1h67fnjgm45dzniy6y91vld7,7,2,1.0,38.0,0.354,0.0,0.0
mturk,1h67fnjgm45dzniy6y91vld7,8,2,1.0,38.0,0.135,0.0,0.0
mturk,1h67fnjgm45dzniy6y91vld7,9,2,2.0,39.0,0.288,1.0,1.0
mturk,1h67fnjgm45dzniy6y91vld7,10,2,2.0,39.0,0.276,1.0,1.0
mturk,1h67fnjgm45dzniy6y91vld7,11,2,2.0,39.0,0.579,1.0,1.0
mturk,1h67fnjgm45dzniy6y91vld7,12,2,2.0,39.0,0.259,1.0,1.0
mturk,1h67fnjgm45dzniy6y91vld7,13,2,2.0,39.0,0.239,1.0,1.0
mturk,1h67fnjgm45dzniy6y91vld7,14,2,2.0,39.0,0.268,1.0,1.0
mturk,1h67fnjgm45dzniy6y91vld7,15,2,2.0,39.0,0.209,1.0,0.0
mturk,1h67fnjgm45dzniy6y91vld7,16,0,0.0,37.0,0.294,1.0,1.0
mturk,1h67fnjgm45dzniy6y91vld7,17,0,2.0,39.0,0.116,0.0,0.0
mturk,1h67fnjgm45dzniy6y91vld7,18,0,0.0,37.0,0.262,1.0,1.0
mturk,1h67fnjgm45dzniy6y91vld7,19,0,0.0,37.0,0.273,1.0,1.0
mturk,1h67fnjgm45dzniy6y91vld7,20,0,0.0,37.0,0.231,1.0,0.0
mturk,1h67fnjgm45dzniy6y91vld7,21,0,0.0,37.0,0.171,1.0,1.0
mturk,1h67fnjgm45dzniy6y91vld7,22,0,0.0,37.0,0.263,1.0,0.0
mturk,1h67fnjgm45dzniy6y91vld7,23,0,1.0,38.0,0.265,0.0,0.0
mturk,1h67fnjgm45dzniy6y91vld7,24,0,0.0,37.0,0.127,1.0,1.0
mturk,1h67fnjgm45dzniy6y91vld7,25,0,0.0,37.0,0.136,1.0,0.0
mturk,1h67fnjgm45dzniy6y91vld7,26,0,2.0,39.0,0.19,0.0,0.0
mturk,1h67fnjgm45dzniy6y91vld7,27,0,2.0,39.0,0.126,0.0,0.0
mturk,1h67fnjgm45dzniy6y91vld7,28,0,0.0,37.0,0.057,1.0,0.0
mturk,1h67fnjgm45dzniy6y91vld7,29,0,0.0,37.0,0.165,1.0,1.0
mturk,1h67fnjgm45dzniy6y91vld7,30,0,0.0,37.0,0.056,1.0,0.0
mturk,1h67fnjgm45dzniy6y91vld7,31,2,0.0,37.0,0.127,0.0,0.0
mturk,1h67fnjgm45dzniy6y91vld7,32,2,1.0,38.0,0.003,0.0,0.0
mturk,1h67fnjgm45dzniy6y91vld7,33,2,1.0,38.0,0.082,0.0,0.0
mturk,1h67fnjgm45dzniy6y91vld7,34,2,2.0,39.0,0.103,1.0,1.0
mturk,1h67fnjgm45dzniy6y91vld7,35,2,2.0,39.0,0.212,1.0,0.0
mturk,1h67fnjgm45dzniy6y91vld7,36,2,2.0,39.0,0.215,1.0,1.0
mturk,1h67fnjgm45dzniy6y91vld7,37,2,2.0,39.0,0.339,1.0,1.0
mturk,1h67fnjgm45dzniy6y91vld7,38,2,2.0,39.0,0.188,1.0,1.0
mturk,1h67fnjgm45dzniy6y91vld7,39,2,2.0,39.0,0.267,1.0,1.0
mturk,1h67fnjgm45dzniy6y91vld7,40,2,2.0,39.0,0.288,1.0,1.0
mturk,1h67fnjgm45dzniy6y91vld7,41,2,2.0,39.0,0.209,1.0,1.0
mturk,1h67fnjgm45dzniy6y91vld7,42,2,2.0,39.0,0.229,1.0,1.0
mturk,1h67fnjgm45dzniy6y91vld7,43,2,2.0,39.0,0.191,1.0,1.0
mturk,1h67fnjgm45dzniy6y91vld7,44,2,2.0,39.0,0.283,1.0,1.0
mturk,1h67fnjgm45dzniy6y91vld7,45,2,2.0,39.0,0.207,1.0,0.0
mturk,1h67fnjgm45dzniy6y91vld7,46,0,2.0,39.0,0.215,0.0,0.0
mturk,1h67fnjgm45dzniy6y91vld7,47,0,0.0,37.0,0.126,1.0,1.0
mturk,1h67fnjgm45dzniy6y91vld7,48,0,0.0,37.0,0.217,1.0,1.0
mturk,1h67fnjgm45dzniy6y91vld7,49,0,0.0,37.0,0.519,1.0,1.0
mturk,1h67fnjgm45dzniy6y91vld7,50,0,0.0,37.0,0.08,1.0,1.0
mturk,1h67fnjgm45dzniy6y91vld7,51,0,0.0,37.0,0.253,1.0,1.0
mturk,1h67fnjgm45dzniy6y91vld7,52,0,0.0,37.0,0.239,1.0,1.0
mturk,1h67fnjgm45dzniy6y91vld7,53,0,0.0,37.0,0.184,1.0,1.0
mturk,1h67fnjgm45dzniy6y91vld7,54,0,0.0,37.0,0.225,1.0,1.0
mturk,1h67fnjgm45dzniy6y91vld7,55,0,0.0,37.0,0.283,1.0,0.0
mturk,1h67fnjgm45dzniy6y91vld7,56,0,0.0,37.0,0.245,1.0,1.0
mturk,1h67fnjgm45dzniy6y91vld7,57,0,0.0,37.0,0.252,1.0,0.0
mturk,1h67fnjgm45dzniy6y91vld7,58,0,1.0,38.0,0.236,0.0,0.0
mturk,1h67fnjgm45dzniy6y91vld7,59,0,2.0,39.0,0.06,0.0,0.0
mturk,1h67fnjgm45dzniy6y91vld7,60,0,1.0,38.0,0.177,0.0,0.0
mturk,1h67fnjgm45dzniy6y91vld7,61,2,1.0,38.0,0.049,0.0,0.0
mturk,1h67fnjgm45dzniy6y91vld7,62,2,0.0,37.0,0.238,0.0,0.0
mturk,1h67fnjgm45dzniy6y91vld7,63,2,0.0,37.0,0.106,0.0,0.0
mturk,1h67fnjgm45dzniy6y91vld7,64,2,2.0,39.0,0.135,1.0,1.0
mturk,1h67fnjgm45dzniy6y91vld7,65,2,2.0,39.0,0.119,1.0,1.0
mturk,1h67fnjgm45dzniy6y91vld7,66,2,2.0,39.0,0.177,1.0,1.0
mturk,1h67fnjgm45dzniy6y91vld7,67,2,2.0,39.0,0.246,1.0,1.0
mturk,1h67fnjgm45dzniy6y91vld7,68,2,2.0,39.0,0.146,1.0,0.0
mturk,1h67fnjgm45dzniy6y91vld7,69,2,2.0,39.0,0.003,1.0,1.0
mturk,1h67fnjgm45dzniy6y91vld7,70,2,2.0,39.0,0.13,1.0,0.0
mturk,1h67fnjgm45dzniy6y91vld7,71,2,0.0,37.0,0.041,0.0,0.0
mturk,1h67fnjgm45dzniy6y91vld7,72,2,2.0,39.0,0.003,1.0,1.0
mturk,1h67fnjgm45dzniy6y91vld7,73,2,2.0,39.0,0.457,1.0,1.0
mturk,1h67fnjgm45dzniy6y91vld7,74,2,2.0,39.0,0.165,1.0,0.0
mturk,1h67fnjgm45dzniy6y91vld7,75,2,2.0,39.0,0.259,1.0,1.0
mturk,1h67fnjgm45dzniy6y91vld7,76,1,2.0,39.0,0.243,0.0,0.0
mturk,1h67fnjgm45dzniy6y91vld7,77,1,2.0,39.0,0.265,0.0,0.0
mturk,1h67fnjgm45dzniy6y91vld7,78,1,0.0,37.0,0.219,0.0,0.0
mturk,1h67fnjgm45dzniy6y91vld7,79,1,1.0,38.0,0.182,1.0,1.0
mturk,1h67fnjgm45dzniy6y91vld7,80,1,1.0,38.0,0.095,1.0,1.0
mturk,1h67fnjgm45dzniy6y91vld7,81,1,1.0,38.0,0.225,1.0,1.0
mturk,1h67fnjgm45dzniy6y91vld7,82,1,1.0,38.0,0.107,1.0,0.0
mturk,1h67fnjgm45dzniy6y91vld7,83,1,1.0,38.0,0.239,1.0,1.0
mturk,1h67fnjgm45dzniy6y91vld7,84,1,1.0,38.0,0.229,1.0,1.0
mturk,1h67fnjgm45dzniy6y91vld7,85,1,1.0,38.0,0.092,1.0,1.0
mturk,1h67fnjgm45dzniy6y91vld7,86,1,1.0,38.0,0.246,1.0,1.0
mturk,1h67fnjgm45dzniy6y91vld7,87,1,1.0,38.0,0.054,1.0,1.0
mturk,1h67fnjgm45dzniy6y91vld7,88,1,1.0,38.0,0.138,1.0,1.0
mturk,1h67fnjgm45dzniy6y91vld7,89,1,1.0,38.0,0.191,1.0,1.0
mturk,1h67fnjgm45dzniy6y91vld7,90,1,1.0,38.0,0.188,1.0,1.0
mturk,1ujw1gehpdx2ufvvvly3gx69,1,0,1.0,38.0,4.184,0.0,1.0
mturk,1ujw1gehpdx2ufvvvly3gx69,2,0,1.0,38.0,1.412,0.0,0.0
mturk,1ujw1gehpdx2ufvvvly3gx69,3,0,1.0,38.0,1.209,0.0,0.0
mturk,1ujw1gehpdx2ufvvvly3gx69,4,0,0.0,37.0,0.473,1.0,1.0
mturk,1ujw1gehpdx2ufvvvly3gx69,5,0,0.0,37.0,0.356,1.0,1.0
mturk,1ujw1gehpdx2ufvvvly3gx69,6,0,0.0,37.0,0.322,1.0,1.0
mturk,1ujw1gehpdx2ufvvvly3gx69,7,0,0.0,37.0,0.482,1.0,1.0
mturk,1ujw1gehpdx2ufvvvly3gx69,8,0,0.0,37.0,0.348,1.0,1.0
mturk,1ujw1gehpdx2ufvvvly3gx69,9,0,0.0,37.0,0.317,1.0,0.0
mturk,1ujw1gehpdx2ufvvvly3gx69,10,0,0.0,37.0,0.327,1.0,1.0
mturk,1ujw1gehpdx2ufvvvly3gx69,11,0,0.0,37.0,0.337,1.0,1.0
mturk,1ujw1gehpdx2ufvvvly3gx69,12,0,0.0,37.0,0.387,1.0,1.0
mturk,1ujw1gehpdx2ufvvvly3gx69,13,0,0.0,37.0,0.381,1.0,0.0
mturk,1ujw1gehpdx2ufvvvly3gx69,14,0,0.0,37.0,0.304,1.0,1.0
mturk,1ujw1gehpdx2ufvvvly3gx69,15,0,0.0,37.0,0.293,1.0,1.0
mturk,1ujw1gehpdx2ufvvvly3gx69,16,2,0.0,37.0,0.318,0.0,1.0
mturk,1ujw1gehpdx2ufvvvly3gx69,17,2,0.0,37.0,0.281,0.0,0.0
mturk,1ujw1gehpdx2ufvvvly3gx69,18,2,0.0,37.0,0.317,0.0,1.0
mturk,1ujw1gehpdx2ufvvvly3gx69,19,2,0.0,37.0,0.29,0.0,0.0
mturk,1ujw1gehpdx2ufvvvly3gx69,20,2,0.0,37.0,0.293,0.0,0.0
mturk,1ujw1gehpdx2ufvvvly3gx69,21,2,2.0,39.0,0.446,1.0,1.0
mturk,1ujw1gehpdx2ufvvvly3gx69,22,2,2.0,39.0,0.284,1.0,0.0
mturk,1ujw1gehpdx2ufvvvly3gx69,23,2,2.0,39.0,0.278,1.0,1.0
mturk,1ujw1gehpdx2ufvvvly3gx69,24,2,2.0,39.0,0.271,1.0,1.0
mturk,1ujw1gehpdx2ufvvvly3gx69,25,2,2.0,39.0,0.271,1.0,1.0
mturk,1ujw1gehpdx2ufvvvly3gx69,26,2,2.0,39.0,0.261,1.0,0.0
mturk,1ujw1gehpdx2ufvvvly3gx69,27,2,2.0,39.0,0.122,1.0,1.0
mturk,1ujw1gehpdx2ufvvvly3gx69,28,2,2.0,39.0,0.263,1.0,0.0
mturk,1ujw1gehpdx2ufvvvly3gx69,29,2,2.0,39.0,0.215,1.0,0.0
mturk,1ujw1gehpdx2ufvvvly3gx69,30,2,1.0,38.0,0.817,0.0,0.0
mturk,1ujw1gehpdx2ufvvvly3gx69,31,1,1.0,38.0,0.303,1.0,1.0
mturk,1ujw1gehpdx2ufvvvly3gx69,32,1,1.0,38.0,0.277,1.0,1.0
mturk,1ujw1gehpdx2ufvvvly3gx69,33,1,1.0,38.0,0.28,1.0,1.0
mturk,1ujw1gehpdx2ufvvvly3gx69,34,1,1.0,38.0,0.302,1.0,1.0
mturk,1ujw1gehpdx2ufvvvly3gx69,35,1,1.0,38.0,0.259,1.0,1.0
mturk,1ujw1gehpdx2ufvvvly3gx69,36,1,1.0,38.0,4.243,1.0,1.0
mturk,1ujw1gehpdx2ufvvvly3gx69,37,1,1.0,38.0,0.397,1.0,0.0
mturk,1ujw1gehpdx2ufvvvly3gx69,38,1,1.0,38.0,0.324,1.0,1.0
mturk,1ujw1gehpdx2ufvvvly3gx69,39,1,1.0,38.0,0.267,1.0,0.0
mturk,1ujw1gehpdx2ufvvvly3gx69,40,1,1.0,38.0,0.307,1.0,1.0
mturk,1ujw1gehpdx2ufvvvly3gx69,41,1,1.0,38.0,0.395,1.0,1.0
mturk,1ujw1gehpdx2ufvvvly3gx69,42,1,1.0,38.0,0.433,1.0,1.0
mturk,1ujw1gehpdx2ufvvvly3gx69,43,1,1.0,38.0,0.348,1.0,1.0
mturk,1ujw1gehpdx2ufvvvly3gx69,44,1,1.0,38.0,0.545,1.0,0.0
mturk,1ujw1gehpdx2ufvvvly3gx69,45,1,1.0,38.0,0.278,1.0,1.0
mturk,1ujw1gehpdx2ufvvvly3gx69,46,0,1.0,38.0,0.296,0.0,0.0
mturk,1ujw1gehpdx2ufvvvly3gx69,47,0,1.0,38.0,0.252,0.0,1.0
mturk,1ujw1gehpdx2ufvvvly3gx69,48,0,1.0,38.0,0.258,0.0,0.0
mturk,1ujw1gehpdx2ufvvvly3gx69,49,0,1.0,38.0,0.262,0.0,0.0
mturk,1ujw1gehpdx2ufvvvly3gx69,50,0,0.0,37.0,0.289,1.0,1.0
mturk,1ujw1gehpdx2ufvvvly3gx69,51,0,0.0,37.0,0.272,1.0,0.0
mturk,1ujw1gehpdx2ufvvvly3gx69,52,0,0.0,37.0,0.281,1.0,1.0
mturk,1ujw1gehpdx2ufvvvly3gx69,53,0,0.0,37.0,0.304,1.0,1.0
mturk,1ujw1gehpdx2ufvvvly3gx69,54,0,0.0,37.0,0.298,1.0,0.0
mturk,1ujw1gehpdx2ufvvvly3gx69,55,0,0.0,37.0,0.247,1.0,1.0
mturk,1ujw1gehpdx2ufvvvly3gx69,56,0,0.0,37.0,0.267,1.0,0.0
mturk,1ujw1gehpdx2ufvvvly3gx69,57,0,0.0,37.0,0.264,1.0,1.0
mturk,1ujw1gehpdx2ufvvvly3gx69,58,0,0.0,37.0,0.256,1.0,0.0
mturk,1ujw1gehpdx2ufvvvly3gx69,59,0,0.0,37.0,0.193,1.0,1.0
mturk,1ujw1gehpdx2ufvvvly3gx69,60,0,0.0,37.0,0.219,1.0,1.0
mturk,1ujw1gehpdx2ufvvvly3gx69,61,1,0.0,37.0,0.234,0.0,0.0
mturk,1ujw1gehpdx2ufvvvly3gx69,62,1,0.0,37.0,0.237,0.0,0.0
mturk,1ujw1gehpdx2ufvvvly3gx69,63,1,1.0,38.0,0.174,1.0,1.0
mturk,1ujw1gehpdx2ufvvvly3gx69,64,1,1.0,38.0,0.219,1.0,0.0
mturk,1ujw1gehpdx2ufvvvly3gx69,65,1,1.0,38.0,0.232,1.0,1.0
mturk,1ujw1gehpdx2ufvvvly3gx69,66,1,1.0,38.0,0.28,1.0,1.0
mturk,1ujw1gehpdx2ufvvvly3gx69,67,1,1.0,38.0,0.279,1.0,1.0
mturk,1ujw1gehpdx2ufvvvly3gx69,68,1,1.0,38.0,0.207,1.0,1.0
mturk,1ujw1gehpdx2ufvvvly3gx69,69,1,1.0,38.0,0.263,1.0,1.0
mturk,1ujw1gehpdx2ufvvvly3gx69,70,1,1.0,38.0,0.265,1.0,1.0
mturk,1ujw1gehpdx2ufvvvly3gx69,71,1,1.0,38.0,0.219,1.0,1.0
mturk,1ujw1gehpdx2ufvvvly3gx69,72,1,1.0,38.0,0.246,1.0,1.0
mturk,1ujw1gehpdx2ufvvvly3gx69,73,1,1.0,38.0,0.263,1.0,0.0
mturk,1ujw1gehpdx2ufvvvly3gx69,74,1,1.0,38.0,0.216,1.0,0.0
mturk,1ujw1gehpdx2ufvvvly3gx69,75,1,2.0,39.0,0.231,0.0,0.0
mturk,1ujw1gehpdx2ufvvvly3gx69,76,2,2.0,39.0,0.114,1.0,0.0
mturk,1ujw1gehpdx2ufvvvly3gx69,77,2,0.0,37.0,0.166,0.0,0.0
mturk,1ujw1gehpdx2ufvvvly3gx69,78,2,0.0,37.0,0.231,0.0,1.0
mturk,1ujw1gehpdx2ufvvvly3gx69,79,2,0.0,37.0,0.197,0.0,1.0
mturk,1ujw1gehpdx2ufvvvly3gx69,80,2,0.0,37.0,0.194,0.0,0.0
mturk,1ujw1gehpdx2ufvvvly3gx69,81,2,0.0,37.0,0.132,0.0,1.0
mturk,1ujw1gehpdx2ufvvvly3gx69,82,2,0.0,37.0,0.269,0.0,0.0
mturk,1ujw1gehpdx2ufvvvly3gx69,83,2,0.0,37.0,0.19,0.0,0.0
mturk,1ujw1gehpdx2ufvvvly3gx69,84,2,1.0,38.0,0.134,0.0,0.0
mturk,1ujw1gehpdx2ufvvvly3gx69,85,2,1.0,38.0,0.998,0.0,0.0
mturk,1ujw1gehpdx2ufvvvly3gx69,86,2,2.0,39.0,0.308,1.0,1.0
mturk,1ujw1gehpdx2ufvvvly3gx69,87,2,2.0,39.0,0.266,1.0,1.0
mturk,1ujw1gehpdx2ufvvvly3gx69,88,2,2.0,39.0,0.267,1.0,1.0
mturk,1ujw1gehpdx2ufvvvly3gx69,89,2,2.0,39.0,0.299,1.0,0.0
mturk,1ujw1gehpdx2ufvvvly3gx69,90,2,2.0,39.0,0.252,1.0,1.0
mturk,1ww0gs6eyl6uksonzztb0ezu,1,0,2.0,39.0,6.32,0.0,0.0
mturk,1ww0gs6eyl6uksonzztb0ezu,2,0,0.0,37.0,1.456,1.0,1.0
mturk,1ww0gs6eyl6uksonzztb0ezu,3,0,0.0,37.0,1.011,1.0,1.0
mturk,1ww0gs6eyl6uksonzztb0ezu,4,0,0.0,37.0,0.811,1.0,1.0
mturk,1ww0gs6eyl6uksonzztb0ezu,5,0,0.0,37.0,1.092,1.0,0.0
mturk,1ww0gs6eyl6uksonzztb0ezu,6,0,0.0,37.0,0.867,1.0,1.0
mturk,1ww0gs6eyl6uksonzztb0ezu,7,0,0.0,37.0,0.922,1.0,0.0
mturk,1ww0gs6eyl6uksonzztb0ezu,8,0,0.0,37.0,1.163,1.0,1.0
mturk,1ww0gs6eyl6uksonzztb0ezu,9,0,0.0,37.0,0.669,1.0,1.0
mturk,1ww0gs6eyl6uksonzztb0ezu,10,0,0.0,37.0,0.843,1.0,1.0
mturk,1ww0gs6eyl6uksonzztb0ezu,11,0,0.0,37.0,0.689,1.0,0.0
mturk,1ww0gs6eyl6uksonzztb0ezu,12,0,0.0,37.0,0.635,1.0,1.0
mturk,1ww0gs6eyl6uksonzztb0ezu,13,0,0.0,37.0,0.739,1.0,0.0
mturk,1ww0gs6eyl6uksonzztb0ezu,14,0,0.0,37.0,0.908,1.0,1.0
mturk,1ww0gs6eyl6uksonzztb0ezu,15,0,0.0,37.0,0.739,1.0,0.0
mturk,1ww0gs6eyl6uksonzztb0ezu,16,2,0.0,37.0,0.542,0.0,1.0
mturk,1ww0gs6eyl6uksonzztb0ezu,17,2,1.0,38.0,0.577,0.0,0.0
mturk,1ww0gs6eyl6uksonzztb0ezu,18,2,0.0,37.0,4.244,0.0,0.0
mturk,1ww0gs6eyl6uksonzztb0ezu,19,2,2.0,39.0,0.722,1.0,1.0
mturk,1ww0gs6eyl6uksonzztb0ezu,20,2,2.0,39.0,0.853,1.0,1.0
mturk,1ww0gs6eyl6uksonzztb0ezu,21,2,2.0,39.0,0.644,1.0,1.0
mturk,1ww0gs6eyl6uksonzztb0ezu,22,2,1.0,38.0,0.955,0.0,0.0
mturk,1ww0gs6eyl6uksonzztb0ezu,23,2,1.0,38.0,0.733,0.0,1.0
mturk,1ww0gs6eyl6uksonzztb0ezu,24,2,1.0,38.0,0.573,0.0,1.0
mturk,1ww0gs6eyl6uksonzztb0ezu,25,2,0.0,37.0,2.349,0.0,0.0
mturk,1ww0gs6eyl6uksonzztb0ezu,26,2,0.0,37.0,0.643,0.0,0.0
mturk,1ww0gs6eyl6uksonzztb0ezu,27,2,0.0,37.0,0.461,0.0,0.0
mturk,1ww0gs6eyl6uksonzztb0ezu,28,2,2.0,39.0,0.563,1.0,1.0
mturk,1ww0gs6eyl6uksonzztb0ezu,29,2,2.0,39.0,0.492,1.0,1.0
mturk,1ww0gs6eyl6uksonzztb0ezu,30,2,2.0,39.0,0.486,1.0,1.0
mturk,1ww0gs6eyl6uksonzztb0ezu,31,0,2.0,39.0,0.261,0.0,0.0
mturk,1ww0gs6eyl6uksonzztb0ezu,32,0,1.0,38.0,0.09,0.0,0.0
mturk,1ww0gs6eyl6uksonzztb0ezu,33,0,1.0,38.0,0.556,0.0,0.0
mturk,1ww0gs6eyl6uksonzztb0ezu,34,0,1.0,38.0,0.999,0.0,0.0
mturk,1ww0gs6eyl6uksonzztb0ezu,35,0,0.0,37.0,0.49,1.0,1.0
mturk,1ww0gs6eyl6uksonzztb0ezu,36,0,0.0,37.0,0.789,1.0,1.0
mturk,1ww0gs6eyl6uksonzztb0ezu,37,0,0.0,37.0,0.602,1.0,1.0
mturk,1ww0gs6eyl6uksonzztb0ezu,38,0,0.0,37.0,0.516,1.0,1.0
mturk,1ww0gs6eyl6uksonzztb0ezu,39,0,0.0,37.0,0.509,1.0,1.0
mturk,1ww0gs6eyl6uksonzztb0ezu,40,0,0.0,37.0,0.583,1.0,1.0
mturk,1ww0gs6eyl6uksonzztb0ezu,41,0,0.0,37.0,0.504,1.0,1.0
mturk,1ww0gs6eyl6uksonzztb0ezu,42,0,0.0,37.0,0.521,1.0,0.0
mturk,1ww0gs6eyl6uksonzztb0ezu,43,0,2.0,39.0,0.085,0.0,1.0
mturk,1ww0gs6eyl6uksonzztb0ezu,44,0,2.0,39.0,0.885,0.0,1.0
mturk,1ww0gs6eyl6uksonzztb0ezu,45,0,2.0,39.0,0.533,0.0,1.0
mturk,1ww0gs6eyl6uksonzztb0ezu,46,2,2.0,39.0,0.42,1.0,1.0
mturk,1ww0gs6eyl6uksonzztb0ezu,47,2,2.0,39.0,0.465,1.0,0.0
mturk,1ww0gs6eyl6uksonzztb0ezu,48,2,1.0,38.0,0.099,0.0,0.0
mturk,1ww0gs6eyl6uksonzztb0ezu,49,2,1.0,38.0,0.677,0.0,1.0
mturk,1ww0gs6eyl6uksonzztb0ezu,50,2,1.0,38.0,0.764,0.0,0.0
mturk,1ww0gs6eyl6uksonzztb0ezu,51,2,1.0,38.0,0.99,0.0,1.0
mturk,1ww0gs6eyl6uksonzztb0ezu,52,2,1.0,38.0,0.643,0.0,1.0
mturk,1ww0gs6eyl6uksonzztb0ezu,53,2,1.0,38.0,0.639,0.0,0.0
mturk,1ww0gs6eyl6uksonzztb0ezu,54,2,0.0,37.0,0.746,0.0,0.0
mturk,1ww0gs6eyl6uksonzztb0ezu,55,2,0.0,37.0,0.038,0.0,1.0
mturk,1ww0gs6eyl6uksonzztb0ezu,56,2,0.0,37.0,0.586,0.0,0.0
mturk,1ww0gs6eyl6uksonzztb0ezu,57,2,0.0,37.0,0.523,0.0,0.0
mturk,1ww0gs6eyl6uksonzztb0ezu,58,2,2.0,39.0,1.133,1.0,1.0
mturk,1ww0gs6eyl6uksonzztb0ezu,59,2,2.0,39.0,0.449,1.0,1.0
mturk,1ww0gs6eyl6uksonzztb0ezu,60,2,2.0,39.0,0.472,1.0,1.0
mturk,1ww0gs6eyl6uksonzztb0ezu,61,1,2.0,39.0,0.492,0.0,0.0
mturk,1ww0gs6eyl6uksonzztb0ezu,62,1,1.0,38.0,0.881,1.0,1.0
mturk,1ww0gs6eyl6uksonzztb0ezu,63,1,1.0,38.0,0.568,1.0,1.0
mturk,1ww0gs6eyl6uksonzztb0ezu,64,1,1.0,38.0,0.641,1.0,1.0
mturk,1ww0gs6eyl6uksonzztb0ezu,65,1,1.0,38.0,0.547,1.0,1.0
mturk,1ww0gs6eyl6uksonzztb0ezu,66,1,1.0,38.0,0.592,1.0,1.0
mturk,1ww0gs6eyl6uksonzztb0ezu,67,1,1.0,38.0,0.624,1.0,0.0
mturk,1ww0gs6eyl6uksonzztb0ezu,68,1,0.0,37.0,0.603,0.0,0.0
mturk,1ww0gs6eyl6uksonzztb0ezu,69,1,0.0,37.0,0.523,0.0,0.0
mturk,1ww0gs6eyl6uksonzztb0ezu,70,1,0.0,37.0,0.448,0.0,0.0
mturk,1ww0gs6eyl6uksonzztb0ezu,71,1,2.0,39.0,0.628,0.0,1.0
mturk,1ww0gs6eyl6uksonzztb0ezu,72,1,2.0,39.0,0.579,0.0,0.0
mturk,1ww0gs6eyl6uksonzztb0ezu,73,1,2.0,39.0,0.482,0.0,0.0
mturk,1ww0gs6eyl6uksonzztb0ezu,74,1,2.0,39.0,0.502,0.0,1.0
mturk,1ww0gs6eyl6uksonzztb0ezu,75,1,2.0,39.0,0.433,0.0,0.0
mturk,1ww0gs6eyl6uksonzztb0ezu,76,0,1.0,38.0,0.422,0.0,1.0
mturk,1ww0gs6eyl6uksonzztb0ezu,77,0,1.0,38.0,0.691,0.0,1.0
mturk,1ww0gs6eyl6uksonzztb0ezu,78,0,1.0,38.0,0.539,0.0,0.0
mturk,1ww0gs6eyl6uksonzztb0ezu,79,0,1.0,38.0,0.764,0.0,1.0
mturk,1ww0gs6eyl6uksonzztb0ezu,80,0,1.0,38.0,0.727,0.0,0.0
mturk,1ww0gs6eyl6uksonzztb0ezu,81,0,1.0,38.0,0.692,0.0,0.0
mturk,1ww0gs6eyl6uksonzztb0ezu,82,0,0.0,37.0,0.54,1.0,0.0
mturk,1ww0gs6eyl6uksonzztb0ezu,83,0,0.0,37.0,0.642,1.0,0.0
mturk,1ww0gs6eyl6uksonzztb0ezu,84,0,0.0,37.0,0.597,1.0,1.0
mturk,1ww0gs6eyl6uksonzztb0ezu,85,0,0.0,37.0,0.777,1.0,1.0
mturk,1ww0gs6eyl6uksonzztb0ezu,86,0,0.0,37.0,0.909,1.0,1.0
mturk,1ww0gs6eyl6uksonzztb0ezu,87,0,0.0,37.0,0.66,1.0,1.0
mturk,1ww0gs6eyl6uksonzztb0ezu,88,0,0.0,37.0,0.654,1.0,1.0
mturk,1ww0gs6eyl6uksonzztb0ezu,89,0,0.0,37.0,0.714,1.0,1.0
mturk,1ww0gs6eyl6uksonzztb0ezu,90,0,0.0,37.0,0.655,1.0,1.0
mturk,26drsd0sb4o6mw8hh3db4y8y,1,1,2.0,39.0,5.15,0.0,0.0
mturk,26drsd0sb4o6mw8hh3db4y8y,2,1,1.0,38.0,0.784,1.0,1.0
mturk,26drsd0sb4o6mw8hh3db4y8y,3,1,0.0,37.0,0.535,0.0,0.0
mturk,26drsd0sb4o6mw8hh3db4y8y,4,1,1.0,38.0,0.409,1.0,1.0
mturk,26drsd0sb4o6mw8hh3db4y8y,5,1,1.0,38.0,4.454,1.0,1.0
mturk,26drsd0sb4o6mw8hh3db4y8y,6,1,1.0,38.0,0.353,1.0,1.0
mturk,26drsd0sb4o6mw8hh3db4y8y,7,1,1.0,38.0,0.271,1.0,1.0
mturk,26drsd0sb4o6mw8hh3db4y8y,8,1,1.0,38.0,0.134,1.0,1.0
mturk,26drsd0sb4o6mw8hh3db4y8y,9,1,1.0,38.0,1.0,1.0,1.0
mturk,26drsd0sb4o6mw8hh3db4y8y,10,1,1.0,38.0,0.392,1.0,1.0
mturk,26drsd0sb4o6mw8hh3db4y8y,11,1,1.0,38.0,0.233,1.0,1.0
mturk,26drsd0sb4o6mw8hh3db4y8y,12,1,1.0,38.0,0.639,1.0,1.0
mturk,26drsd0sb4o6mw8hh3db4y8y,13,1,1.0,38.0,0.304,1.0,1.0
mturk,26drsd0sb4o6mw8hh3db4y8y,14,1,1.0,38.0,0.048,1.0,1.0
mturk,26drsd0sb4o6mw8hh3db4y8y,15,1,1.0,38.0,0.179,1.0,0.0
mturk,26drsd0sb4o6mw8hh3db4y8y,16,0,2.0,39.0,0.07,0.0,0.0
mturk,26drsd0sb4o6mw8hh3db4y8y,17,0,0.0,37.0,0.098,1.0,0.0
mturk,26drsd0sb4o6mw8hh3db4y8y,18,0,1.0,38.0,0.024,0.0,1.0
mturk,26drsd0sb4o6mw8hh3db4y8y,19,0,1.0,38.0,0.141,0.0,0.0
mturk,26drsd0sb4o6mw8hh3db4y8y,20,0,1.0,38.0,0.288,0.0,0.0
mturk,26drsd0sb4o6mw8hh3db4y8y,21,0,1.0,38.0,0.419,0.0,1.0
mturk,26drsd0sb4o6mw8hh3db4y8y,22,0,1.0,38.0,0.255,0.0,0.0
mturk,26drsd0sb4o6mw8hh3db4y8y,23,0,2.0,39.0,0.014,0.0,0.0
mturk,26drsd0sb4o6mw8hh3db4y8y,24,0,0.0,37.0,0.257,1.0,1.0
mturk,26drsd0sb4o6mw8hh3db4y8y,25,0,0.0,37.0,0.4,1.0,1.0
mturk,26drsd0sb4o6mw8hh3db4y8y,26,0,0.0,37.0,0.281,1.0,1.0
mturk,26drsd0sb4o6mw8hh3db4y8y,27,0,0.0,37.0,0.275,1.0,1.0
mturk,26drsd0sb4o6mw8hh3db4y8y,28,0,0.0,37.0,0.23,1.0,1.0
mturk,26drsd0sb4o6mw8hh3db4y8y,29,0,0.0,37.0,0.31,1.0,1.0
mturk,26drsd0sb4o6mw8hh3db4y8y,30,0,0.0,37.0,0.061,1.0,1.0
mturk,26drsd0sb4o6mw8hh3db4y8y,31,2,0.0,37.0,0.371,0.0,1.0
mturk,26drsd0sb4o6mw8hh3db4y8y,32,2,0.0,37.0,0.185,0.0,0.0
mturk,26drsd0sb4o6mw8hh3db4y8y,33,2,1.0,38.0,0.166,0.0,0.0
mturk,26drsd0sb4o6mw8hh3db4y8y,34,2,2.0,39.0,0.316,1.0,0.0
mturk,26drsd0sb4o6mw8hh3db4y8y,35,2,1.0,38.0,0.215,0.0,0.0
mturk,26drsd0sb4o6mw8hh3db4y8y,36,2,0.0,37.0,0.313,0.0,0.0
mturk,26drsd0sb4o6mw8hh3db4y8y,37,2,1.0,38.0,0.071,0.0,0.0
mturk,26drsd0sb4o6mw8hh3db4y8y,38,2,2.0,39.0,0.586,1.0,1.0
mturk,26drsd0sb4o6mw8hh3db4y8y,39,2,2.0,39.0,0.222,1.0,1.0
mturk,26drsd0sb4o6mw8hh3db4y8y,40,2,2.0,39.0,0.334,1.0,1.0
mturk,26drsd0sb4o6mw8hh3db4y8y,41,2,2.0,39.0,0.551,1.0,1.0
mturk,26drsd0sb4o6mw8hh3db4y8y,42,2,2.0,39.0,0.374,1.0,1.0
mturk,26drsd0sb4o6mw8hh3db4y8y,43,2,2.0,39.0,0.342,1.0,0.0
mturk,26drsd0sb4o6mw8hh3db4y8y,44,2,2.0,39.0,0.279,1.0,1.0
mturk,26drsd0sb4o6mw8hh3db4y8y,45,2,2.0,39.0,0.478,1.0,1.0
mturk,26drsd0sb4o6mw8hh3db4y8y,46,0,2.0,39.0,0.391,0.0,1.0
mturk,26drsd0sb4o6mw8hh3db4y8y,47,0,2.0,39.0,0.557,0.0,0.0
mturk,26drsd0sb4o6mw8hh3db4y8y,48,0,1.0,38.0,0.005,0.0,0.0
mturk,26drsd0sb4o6mw8hh3db4y8y,49,0,0.0,37.0,0.209,1.0,1.0
mturk,26drsd0sb4o6mw8hh3db4y8y,50,0,0.0,37.0,0.032,1.0,1.0
mturk,26drsd0sb4o6mw8hh3db4y8y,51,0,0.0,37.0,0.281,1.0,1.0
mturk,26drsd0sb4o6mw8hh3db4y8y,52,0,0.0,37.0,0.219,1.0,1.0
mturk,26drsd0sb4o6mw8hh3db4y8y,53,0,0.0,37.0,0.203,1.0,1.0
mturk,26drsd0sb4o6mw8hh3db4y8y,54,0,0.0,37.0,0.188,1.0,1.0
mturk,26drsd0sb4o6mw8hh3db4y8y,55,0,0.0,37.0,0.316,1.0,1.0
mturk,26drsd0sb4o6mw8hh3db4y8y,56,0,0.0,37.0,0.451,1.0,0.0
mturk,26drsd0sb4o6mw8hh3db4y8y,57,0,2.0,39.0,0.364,0.0,0.0
mturk,26drsd0sb4o6mw8hh3db4y8y,58,0,0.0,37.0,0.301,1.0,0.0
mturk,26drsd0sb4o6mw8hh3db4y8y,59,0,1.0,38.0,0.325,0.0,0.0
mturk,26drsd0sb4o6mw8hh3db4y8y,60,0,0.0,37.0,0.037,1.0,1.0
mturk,26drsd0sb4o6mw8hh3db4y8y,61,1,0.0,37.0,0.095,0.0,0.0
mturk,26drsd0sb4o6mw8hh3db4y8y,62,1,2.0,39.0,0.142,0.0,0.0
mturk,26drsd0sb4o6mw8hh3db4y8y,63,1,1.0,38.0,0.336,1.0,0.0
mturk,26drsd0sb4o6mw8hh3db4y8y,64,1,0.0,37.0,0.054,0.0,0.0
mturk,26drsd0sb4o6mw8hh3db4y8y,65,1,2.0,39.0,0.299,0.0,0.0
mturk,26drsd0sb4o6mw8hh3db4y8y,66,1,1.0,38.0,0.141,1.0,1.0
mturk,26drsd0sb4o6mw8hh3db4y8y,67,1,1.0,38.0,0.102,1.0,1.0
mturk,26drsd0sb4o6mw8hh3db4y8y,68,1,1.0,38.0,0.287,1.0,0.0
mturk,26drsd0sb4o6mw8hh3db4y8y,69,1,0.0,37.0,0.106,0.0,1.0
mturk,26drsd0sb4o6mw8hh3db4y8y,70,1,0.0,37.0,0.01,0.0,0.0
mturk,26drsd0sb4o6mw8hh3db4y8y,71,1,2.0,39.0,0.097,0.0,0.0
mturk,26drsd0sb4o6mw8hh3db4y8y,72,1,1.0,38.0,0.04,1.0,0.0
mturk,26drsd0sb4o6mw8hh3db4y8y,73,1,0.0,37.0,0.077,0.0,0.0
mturk,26drsd0sb4o6mw8hh3db4y8y,74,1,1.0,38.0,0.099,1.0,1.0
mturk,26drsd0sb4o6mw8hh3db4y8y,75,1,1.0,38.0,0.101,1.0,0.0
mturk,26drsd0sb4o6mw8hh3db4y8y,76,2,2.0,39.0,0.173,1.0,1.0
mturk,26drsd0sb4o6mw8hh3db4y8y,77,2,2.0,39.0,0.032,1.0,1.0
mturk,26drsd0sb4o6mw8hh3db4y8y,78,2,2.0,39.0,0.192,1.0,1.0
mturk,26drsd0sb4o6mw8hh3db4y8y,79,2,2.0,39.0,0.31,1.0,1.0
mturk,26drsd0sb4o6mw8hh3db4y8y,80,2,2.0,39.0,0.405,1.0,1.0
mturk,26drsd0sb4o6mw8hh3db4y8y,81,2,2.0,39.0,0.399,1.0,1.0
mturk,26drsd0sb4o6mw8hh3db4y8y,82,2,2.0,39.0,0.016,1.0,1.0
mturk,26drsd0sb4o6mw8hh3db4y8y,83,2,2.0,39.0,0.006,1.0,0.0
mturk,26drsd0sb4o6mw8hh3db4y8y,84,2,1.0,38.0,0.071,0.0,0.0
mturk,26drsd0sb4o6mw8hh3db4y8y,85,2,0.0,37.0,0.309,0.0,1.0
mturk,26drsd0sb4o6mw8hh3db4y8y,86,2,0.0,37.0,0.179,0.0,0.0
mturk,26drsd0sb4o6mw8hh3db4y8y,87,2,2.0,39.0,0.0,1.0,1.0
mturk,26drsd0sb4o6mw8hh3db4y8y,88,2,2.0,39.0,0.005,1.0,1.0
mturk,26drsd0sb4o6mw8hh3db4y8y,89,2,2.0,39.0,0.67,1.0,1.0
mturk,26drsd0sb4o6mw8hh3db4y8y,90,2,2.0,39.0,0.39,1.0,0.0
mturk,2gbv6cbysitn0o9t9m53f3xi,1,1,1.0,38.0,4.05,1.0,1.0
mturk,2gbv6cbysitn0o9t9m53f3xi,2,1,1.0,38.0,1.753,1.0,0.0
mturk,2gbv6cbysitn0o9t9m53f3xi,3,1,1.0,38.0,0.931,1.0,1.0
mturk,2gbv6cbysitn0o9t9m53f3xi,4,1,1.0,38.0,1.289,1.0,0.0
mturk,2gbv6cbysitn0o9t9m53f3xi,5,1,1.0,38.0,0.88,1.0,1.0
mturk,2gbv6cbysitn0o9t9m53f3xi,6,1,1.0,38.0,0.902,1.0,1.0
mturk,2gbv6cbysitn0o9t9m53f3xi,7,1,1.0,38.0,1.325,1.0,0.0
mturk,2gbv6cbysitn0o9t9m53f3xi,8,1,1.0,38.0,0.93,1.0,0.0
mturk,2gbv6cbysitn0o9t9m53f3xi,9,1,2.0,39.0,1.654,0.0,0.0
mturk,2gbv6cbysitn0o9t9m53f3xi,10,1,2.0,39.0,0.807,0.0,0.0
mturk,2gbv6cbysitn0o9t9m53f3xi,11,1,0.0,37.0,1.249,0.0,0.0
mturk,2gbv6cbysitn0o9t9m53f3xi,12,1,0.0,37.0,0.71,0.0,0.0
mturk,2gbv6cbysitn0o9t9m53f3xi,13,1,2.0,39.0,0.603,0.0,0.0
mturk,2gbv6cbysitn0o9t9m53f3xi,14,1,1.0,38.0,0.57,1.0,1.0
mturk,2gbv6cbysitn0o9t9m53f3xi,15,1,1.0,38.0,0.556,1.0,1.0
mturk,2gbv6cbysitn0o9t9m53f3xi,16,2,1.0,38.0,0.952,0.0,0.0
mturk,2gbv6cbysitn0o9t9m53f3xi,17,2,1.0,38.0,0.435,0.0,0.0
mturk,2gbv6cbysitn0o9t9m53f3xi,18,2,1.0,38.0,0.381,0.0,0.0
mturk,2gbv6cbysitn0o9t9m53f3xi,19,2,1.0,38.0,0.606,0.0,1.0
mturk,2gbv6cbysitn0o9t9m53f3xi,20,2,1.0,38.0,0.738,0.0,0.0
mturk,2gbv6cbysitn0o9t9m53f3xi,21,2,1.0,38.0,0.417,0.0,0.0
mturk,2gbv6cbysitn0o9t9m53f3xi,22,2,1.0,38.0,0.411,0.0,0.0
mturk,2gbv6cbysitn0o9t9m53f3xi,23,2,2.0,39.0,0.799,1.0,1.0
mturk,2gbv6cbysitn0o9t9m53f3xi,24,2,2.0,39.0,0.532,1.0,1.0
mturk,2gbv6cbysitn0o9t9m53f3xi,25,2,2.0,39.0,0.468,1.0,1.0
mturk,2gbv6cbysitn0o9t9m53f3xi,26,2,2.0,39.0,0.518,1.0,1.0
mturk,2gbv6cbysitn0o9t9m53f3xi,27,2,2.0,39.0,0.561,1.0,0.0
mturk,2gbv6cbysitn0o9t9m53f3xi,28,2,2.0,39.0,0.524,1.0,0.0
mturk,2gbv6cbysitn0o9t9m53f3xi,29,2,2.0,39.0,0.52,1.0,1.0
mturk,2gbv6cbysitn0o9t9m53f3xi,30,2,2.0,39.0,0.404,1.0,1.0
mturk,2gbv6cbysitn0o9t9m53f3xi,31,0,2.0,39.0,0.459,0.0,0.0
mturk,2gbv6cbysitn0o9t9m53f3xi,32,0,2.0,39.0,0.383,0.0,0.0
mturk,2gbv6cbysitn0o9t9m53f3xi,33,0,2.0,39.0,0.848,0.0,0.0
mturk,2gbv6cbysitn0o9t9m53f3xi,34,0,0.0,37.0,0.845,1.0,1.0
mturk,2gbv6cbysitn0o9t9m53f3xi,35,0,0.0,37.0,0.403,1.0,1.0
mturk,2gbv6cbysitn0o9t9m53f3xi,36,0,0.0,37.0,0.461,1.0,1.0
mturk,2gbv6cbysitn0o9t9m53f3xi,37,0,0.0,37.0,0.544,1.0,1.0
mturk,2gbv6cbysitn0o9t9m53f3xi,38,0,0.0,37.0,0.46,1.0,1.0
mturk,2gbv6cbysitn0o9t9m53f3xi,39,0,0.0,37.0,0.485,1.0,1.0
mturk,2gbv6cbysitn0o9t9m53f3xi,40,0,0.0,37.0,0.479,1.0,1.0
mturk,2gbv6cbysitn0o9t9m53f3xi,41,0,0.0,37.0,0.465,1.0,0.0
mturk,2gbv6cbysitn0o9t9m53f3xi,42,0,0.0,37.0,0.552,1.0,0.0
mturk,2gbv6cbysitn0o9t9m53f3xi,43,0,0.0,37.0,0.614,1.0,1.0
mturk,2gbv6cbysitn0o9t9m53f3xi,44,0,0.0,37.0,0.696,1.0,1.0
mturk,2gbv6cbysitn0o9t9m53f3xi,45,0,0.0,37.0,0.491,1.0,1.0
mturk,2gbv6cbysitn0o9t9m53f3xi,46,2,0.0,37.0,0.629,0.0,0.0
mturk,2gbv6cbysitn0o9t9m53f3xi,47,2,0.0,37.0,0.596,0.0,0.0
mturk,2gbv6cbysitn0o9t9m53f3xi,48,2,0.0,37.0,0.408,0.0,0.0
mturk,2gbv6cbysitn0o9t9m53f3xi,49,2,0.0,37.0,0.423,0.0,0.0
mturk,2gbv6cbysitn0o9t9m53f3xi,50,2,1.0,38.0,0.37,0.0,1.0
mturk,2gbv6cbysitn0o9t9m53f3xi,51,2,1.0,38.0,0.406,0.0,0.0
mturk,2gbv6cbysitn0o9t9m53f3xi,52,2,1.0,38.0,0.445,0.0,0.0
mturk,2gbv6cbysitn0o9t9m53f3xi,53,2,1.0,38.0,0.382,0.0,0.0
mturk,2gbv6cbysitn0o9t9m53f3xi,54,2,2.0,39.0,0.581,1.0,1.0
mturk,2gbv6cbysitn0o9t9m53f3xi,55,2,2.0,39.0,0.536,1.0,1.0
mturk,2gbv6cbysitn0o9t9m53f3xi,56,2,2.0,39.0,0.393,1.0,1.0
mturk,2gbv6cbysitn0o9t9m53f3xi,57,2,2.0,39.0,0.429,1.0,1.0
mturk,2gbv6cbysitn0o9t9m53f3xi,58,2,2.0,39.0,0.368,1.0,0.0
mturk,2gbv6cbysitn0o9t9m53f3xi,59,2,2.0,39.0,0.419,1.0,1.0
mturk,2gbv6cbysitn0o9t9m53f3xi,60,2,2.0,39.0,0.414,1.0,1.0
mturk,2gbv6cbysitn0o9t9m53f3xi,61,1,2.0,39.0,0.362,0.0,1.0
mturk,2gbv6cbysitn0o9t9m53f3xi,62,1,2.0,39.0,0.372,0.0,0.0
mturk,2gbv6cbysitn0o9t9m53f3xi,63,1,2.0,39.0,0.549,0.0,0.0
mturk,2gbv6cbysitn0o9t9m53f3xi,64,1,2.0,39.0,0.44,0.0,1.0
mturk,2gbv6cbysitn0o9t9m53f3xi,65,1,2.0,39.0,0.416,0.0,0.0
mturk,2gbv6cbysitn0o9t9m53f3xi,66,1,2.0,39.0,0.601,0.0,0.0
mturk,2gbv6cbysitn0o9t9m53f3xi,67,1,0.0,37.0,0.193,0.0,0.0
mturk,2gbv6cbysitn0o9t9m53f3xi,68,1,0.0,37.0,0.423,0.0,0.0
mturk,2gbv6cbysitn0o9t9m53f3xi,69,1,1.0,38.0,0.815,1.0,1.0
mturk,2gbv6cbysitn0o9t9m53f3xi,70,1,1.0,38.0,0.413,1.0,1.0
mturk,2gbv6cbysitn0o9t9m53f3xi,71,1,1.0,38.0,0.331,1.0,1.0
mturk,2gbv6cbysitn0o9t9m53f3xi,72,1,1.0,38.0,0.514,1.0,1.0
mturk,2gbv6cbysitn0o9t9m53f3xi,73,1,1.0,38.0,0.513,1.0,1.0
mturk,2gbv6cbysitn0o9t9m53f3xi,74,1,1.0,38.0,0.384,1.0,1.0
mturk,2gbv6cbysitn0o9t9m53f3xi,75,1,1.0,38.0,0.451,1.0,0.0
mturk,2gbv6cbysitn0o9t9m53f3xi,76,0,1.0,38.0,0.42,0.0,0.0
mturk,2gbv6cbysitn0o9t9m53f3xi,77,0,1.0,38.0,0.392,0.0,0.0
mturk,2gbv6cbysitn0o9t9m53f3xi,78,0,2.0,39.0,0.42,0.0,0.0
mturk,2gbv6cbysitn0o9t9m53f3xi,79,0,2.0,39.0,0.42,0.0,0.0
mturk,2gbv6cbysitn0o9t9m53f3xi,80,0,0.0,37.0,0.348,1.0,1.0
mturk,2gbv6cbysitn0o9t9m53f3xi,81,0,0.0,37.0,0.41,1.0,1.0
mturk,2gbv6cbysitn0o9t9m53f3xi,82,0,0.0,37.0,0.445,1.0,1.0
mturk,2gbv6cbysitn0o9t9m53f3xi,83,0,0.0,37.0,0.501,1.0,1.0
mturk,2gbv6cbysitn0o9t9m53f3xi,84,0,0.0,37.0,0.432,1.0,1.0
mturk,2gbv6cbysitn0o9t9m53f3xi,85,0,0.0,37.0,0.394,1.0,0.0
mturk,2gbv6cbysitn0o9t9m53f3xi,86,0,0.0,37.0,0.459,1.0,1.0
mturk,2gbv6cbysitn0o9t9m53f3xi,87,0,0.0,37.0,0.433,1.0,0.0
mturk,2gbv6cbysitn0o9t9m53f3xi,88,0,0.0,37.0,0.436,1.0,1.0
mturk,2gbv6cbysitn0o9t9m53f3xi,89,0,0.0,37.0,0.436,1.0,1.0
mturk,2gbv6cbysitn0o9t9m53f3xi,90,0,0.0,37.0,0.419,1.0,1.0
mturk,2j7koq5arntmjpvv38xf6g5x,1,1,2.0,39.0,1.169,0.0,1.0
mturk,2j7koq5arntmjpvv38xf6g5x,2,1,1.0,38.0,1.781,1.0,1.0
mturk,2j7koq5arntmjpvv38xf6g5x,3,1,0.0,37.0,0.819,0.0,0.0
mturk,2j7koq5arntmjpvv38xf6g5x,4,1,1.0,38.0,0.826,1.0,1.0
mturk,2j7koq5arntmjpvv38xf6g5x,5,1,2.0,39.0,1.062,0.0,0.0
mturk,2j7koq5arntmjpvv38xf6g5x,6,1,0.0,37.0,1.529,0.0,0.0
mturk,2j7koq5arntmjpvv38xf6g5x,7,1,1.0,38.0,1.482,1.0,1.0
mturk,2j7koq5arntmjpvv38xf6g5x,8,1,2.0,39.0,0.71,0.0,0.0
mturk,2j7koq5arntmjpvv38xf6g5x,9,1,1.0,38.0,0.784,1.0,1.0
mturk,2j7koq5arntmjpvv38xf6g5x,10,1,1.0,38.0,1.23,1.0,1.0
mturk,2j7koq5arntmjpvv38xf6g5x,11,1,1.0,38.0,0.857,1.0,1.0
mturk,2j7koq5arntmjpvv38xf6g5x,12,1,1.0,38.0,1.323,1.0,1.0
mturk,2j7koq5arntmjpvv38xf6g5x,13,1,1.0,38.0,0.698,1.0,1.0
mturk,2j7koq5arntmjpvv38xf6g5x,14,1,1.0,38.0,0.882,1.0,1.0
mturk,2j7koq5arntmjpvv38xf6g5x,15,1,1.0,38.0,0.49,1.0,1.0
mturk,2j7koq5arntmjpvv38xf6g5x,16,0,1.0,38.0,0.744,0.0,0.0
mturk,2j7koq5arntmjpvv38xf6g5x,17,0,0.0,37.0,0.348,1.0,1.0
mturk,2j7koq5arntmjpvv38xf6g5x,18,0,0.0,37.0,0.321,1.0,1.0
mturk,2j7koq5arntmjpvv38xf6g5x,19,0,0.0,37.0,0.29,1.0,0.0
mturk,2j7koq5arntmjpvv38xf6g5x,20,0,2.0,39.0,0.603,0.0,0.0
mturk,2j7koq5arntmjpvv38xf6g5x,21,0,0.0,37.0,1.278,1.0,1.0
mturk,2j7koq5arntmjpvv38xf6g5x,22,0,0.0,37.0,2.701,1.0,1.0
mturk,2j7koq5arntmjpvv38xf6g5x,23,0,0.0,37.0,1.316,1.0,1.0
mturk,2j7koq5arntmjpvv38xf6g5x,24,0,0.0,37.0,0.841,1.0,1.0
mturk,2j7koq5arntmjpvv38xf6g5x,25,0,0.0,37.0,0.834,1.0,1.0
mturk,2j7koq5arntmjpvv38xf6g5x,26,0,0.0,37.0,0.314,1.0,1.0
mturk,2j7koq5arntmjpvv38xf6g5x,27,0,0.0,37.0,0.766,1.0,1.0
mturk,2j7koq5arntmjpvv38xf6g5x,28,0,0.0,37.0,1.259,1.0,1.0
mturk,2j7koq5arntmjpvv38xf6g5x,29,0,0.0,37.0,0.142,1.0,0.0
mturk,2j7koq5arntmjpvv38xf6g5x,30,0,1.0,38.0,1.506,0.0,1.0
mturk,2j7koq5arntmjpvv38xf6g5x,31,1,1.0,38.0,0.638,1.0,1.0
mturk,2j7koq5arntmjpvv38xf6g5x,32,1,1.0,38.0,0.705,1.0,1.0
mturk,2j7koq5arntmjpvv38xf6g5x,33,1,1.0,38.0,0.887,1.0,1.0
mturk,2j7koq5arntmjpvv38xf6g5x,34,1,1.0,38.0,0.618,1.0,0.0
mturk,2j7koq5arntmjpvv38xf6g5x,35,1,2.0,39.0,0.914,0.0,0.0
mturk,2j7koq5arntmjpvv38xf6g5x,36,1,0.0,37.0,1.304,0.0,0.0
mturk,2j7koq5arntmjpvv38xf6g5x,37,1,1.0,38.0,0.06,1.0,0.0
mturk,2j7koq5arntmjpvv38xf6g5x,38,1,0.0,37.0,0.137,0.0,0.0
mturk,2j7koq5arntmjpvv38xf6g5x,39,1,1.0,38.0,1.604,1.0,1.0
mturk,2j7koq5arntmjpvv38xf6g5x,40,1,1.0,38.0,1.269,1.0,1.0
mturk,2j7koq5arntmjpvv38xf6g5x,41,1,1.0,38.0,0.199,1.0,1.0
mturk,2j7koq5arntmjpvv38xf6g5x,42,1,1.0,38.0,0.486,1.0,1.0
mturk,2j7koq5arntmjpvv38xf6g5x,43,1,1.0,38.0,2.071,1.0,1.0
mturk,2j7koq5arntmjpvv38xf6g5x,44,1,1.0,38.0,0.662,1.0,1.0
mturk,2j7koq5arntmjpvv38xf6g5x,45,1,1.0,38.0,1.117,1.0,1.0
mturk,2j7koq5arntmjpvv38xf6g5x,46,2,1.0,38.0,0.768,0.0,0.0
mturk,2j7koq5arntmjpvv38xf6g5x,47,2,1.0,38.0,0.975,0.0,0.0
mturk,2j7koq5arntmjpvv38xf6g5x,48,2,2.0,39.0,0.248,1.0,1.0
mturk,2j7koq5arntmjpvv38xf6g5x,49,2,2.0,39.0,0.086,1.0,1.0
mturk,2j7koq5arntmjpvv38xf6g5x,50,2,2.0,39.0,0.859,1.0,0.0
mturk,2j7koq5arntmjpvv38xf6g5x,51,2,0.0,37.0,0.977,0.0,1.0
mturk,2j7koq5arntmjpvv38xf6g5x,52,2,0.0,37.0,1.121,0.0,0.0
mturk,2j7koq5arntmjpvv38xf6g5x,53,2,1.0,38.0,2.119,0.0,0.0
mturk,2j7koq5arntmjpvv38xf6g5x,54,2,0.0,37.0,0.671,0.0,1.0
mturk,2j7koq5arntmjpvv38xf6g5x,55,2,2.0,39.0,0.009,1.0,1.0
mturk,2j7koq5arntmjpvv38xf6g5x,56,2,2.0,39.0,0.751,1.0,1.0
mturk,2j7koq5arntmjpvv38xf6g5x,57,2,2.0,39.0,1.437,1.0,1.0
mturk,2j7koq5arntmjpvv38xf6g5x,58,2,2.0,39.0,0.885,1.0,1.0
mturk,2j7koq5arntmjpvv38xf6g5x,59,2,1.0,38.0,0.157,0.0,1.0
mturk,2j7koq5arntmjpvv38xf6g5x,60,2,1.0,38.0,0.088,0.0,1.0
mturk,2j7koq5arntmjpvv38xf6g5x,61,1,1.0,38.0,1.528,1.0,1.0
mturk,2j7koq5arntmjpvv38xf6g5x,62,1,1.0,38.0,0.871,1.0,1.0
mturk,2j7koq5arntmjpvv38xf6g5x,63,1,1.0,38.0,0.791,1.0,1.0
mturk,2j7koq5arntmjpvv38xf6g5x,64,1,1.0,38.0,1.078,1.0,1.0
mturk,2j7koq5arntmjpvv38xf6g5x,65,1,1.0,38.0,0.778,1.0,1.0
mturk,2j7koq5arntmjpvv38xf6g5x,66,1,1.0,38.0,0.813,1.0,0.0
mturk,2j7koq5arntmjpvv38xf6g5x,67,1,1.0,38.0,3.861,1.0,1.0
mturk,2j7koq5arntmjpvv38xf6g5x,68,1,1.0,38.0,0.101,1.0,1.0
mturk,2j7koq5arntmjpvv38xf6g5x,69,1,1.0,38.0,1.006,1.0,1.0
mturk,2j7koq5arntmjpvv38xf6g5x,70,1,1.0,38.0,1.565,1.0,1.0
mturk,2j7koq5arntmjpvv38xf6g5x,71,1,1.0,38.0,0.63,1.0,1.0
mturk,2j7koq5arntmjpvv38xf6g5x,72,1,1.0,38.0,0.555,1.0,1.0
mturk,2j7koq5arntmjpvv38xf6g5x,73,1,1.0,38.0,0.413,1.0,1.0
mturk,2j7koq5arntmjpvv38xf6g5x,74,1,1.0,38.0,1.248,1.0,1.0
mturk,2j7koq5arntmjpvv38xf6g5x,75,1,1.0,38.0,0.81,1.0,1.0
mturk,2j7koq5arntmjpvv38xf6g5x,76,2,1.0,38.0,0.48,0.0,0.0
mturk,2j7koq5arntmjpvv38xf6g5x,77,2,1.0,38.0,1.938,0.0,0.0
mturk,2j7koq5arntmjpvv38xf6g5x,78,2,0.0,37.0,1.202,0.0,1.0
mturk,2j7koq5arntmjpvv38xf6g5x,79,2,0.0,37.0,0.975,0.0,0.0
mturk,2j7koq5arntmjpvv38xf6g5x,80,2,1.0,38.0,1.715,0.0,0.0
mturk,2j7koq5arntmjpvv38xf6g5x,81,2,2.0,39.0,1.058,1.0,1.0
mturk,2j7koq5arntmjpvv38xf6g5x,82,2,2.0,39.0,1.396,1.0,1.0
mturk,2j7koq5arntmjpvv38xf6g5x,83,2,2.0,39.0,0.731,1.0,1.0
mturk,2j7koq5arntmjpvv38xf6g5x,84,2,2.0,39.0,1.305,1.0,1.0
mturk,2j7koq5arntmjpvv38xf6g5x,85,2,2.0,39.0,0.078,1.0,1.0
mturk,2j7koq5arntmjpvv38xf6g5x,86,2,2.0,39.0,1.834,1.0,1.0
mturk,2j7koq5arntmjpvv38xf6g5x,87,2,2.0,39.0,0.776,1.0,1.0
mturk,2j7koq5arntmjpvv38xf6g5x,88,2,2.0,39.0,0.864,1.0,1.0
mturk,2j7koq5arntmjpvv38xf6g5x,89,2,1.0,38.0,1.091,0.0,0.0
mturk,2j7koq5arntmjpvv38xf6g5x,90,2,2.0,39.0,0.746,1.0,1.0
mturk,2l792wi6dr04cwnd2lxldsg3,1,0,1.0,38.0,0.828,0.0,0.0
mturk,2l792wi6dr04cwnd2lxldsg3,2,0,0.0,37.0,0.473,1.0,0.0
mturk,2l792wi6dr04cwnd2lxldsg3,3,0,2.0,39.0,0.363,0.0,0.0
mturk,2l792wi6dr04cwnd2lxldsg3,4,0,2.0,39.0,0.331,0.0,0.0
mturk,2l792wi6dr04cwnd2lxldsg3,5,0,1.0,38.0,0.307,0.0,0.0
mturk,2l792wi6dr04cwnd2lxldsg3,6,0,1.0,38.0,0.321,0.0,0.0
mturk,2l792wi6dr04cwnd2lxldsg3,7,0,0.0,37.0,0.337,1.0,1.0
mturk,2l792wi6dr04cwnd2lxldsg3,8,0,0.0,37.0,0.356,1.0,0.0
mturk,2l792wi6dr04cwnd2lxldsg3,9,0,0.0,37.0,0.354,1.0,1.0
mturk,2l792wi6dr04cwnd2lxldsg3,10,0,0.0,37.0,0.352,1.0,1.0
mturk,2l792wi6dr04cwnd2lxldsg3,11,0,0.0,37.0,0.395,1.0,1.0
mturk,2l792wi6dr04cwnd2lxldsg3,12,0,0.0,37.0,0.307,1.0,1.0
mturk,2l792wi6dr04cwnd2lxldsg3,13,0,0.0,37.0,0.287,1.0,1.0
mturk,2l792wi6dr04cwnd2lxldsg3,14,0,0.0,37.0,0.274,1.0,0.0
mturk,2l792wi6dr04cwnd2lxldsg3,15,0,0.0,37.0,0.28,1.0,1.0
mturk,2l792wi6dr04cwnd2lxldsg3,16,1,0.0,37.0,0.294,0.0,0.0
mturk,2l792wi6dr04cwnd2lxldsg3,17,1,0.0,37.0,0.204,0.0,0.0
mturk,2l792wi6dr04cwnd2lxldsg3,18,1,0.0,37.0,0.307,0.0,0.0
mturk,2l792wi6dr04cwnd2lxldsg3,19,1,2.0,39.0,0.235,0.0,0.0
mturk,2l792wi6dr04cwnd2lxldsg3,20,1,2.0,39.0,0.314,0.0,0.0
mturk,2l792wi6dr04cwnd2lxldsg3,21,1,1.0,38.0,0.204,1.0,1.0
mturk,2l792wi6dr04cwnd2lxldsg3,22,1,1.0,38.0,0.274,1.0,1.0
mturk,2l792wi6dr04cwnd2lxldsg3,23,1,1.0,38.0,0.178,1.0,0.0
mturk,2l792wi6dr04cwnd2lxldsg3,24,1,1.0,38.0,0.122,1.0,0.0
mturk,2l792wi6dr04cwnd2lxldsg3,25,1,1.0,38.0,0.274,1.0,1.0
mturk,2l792wi6dr04cwnd2lxldsg3,26,1,1.0,38.0,0.17,1.0,1.0
mturk,2l792wi6dr04cwnd2lxldsg3,27,1,1.0,38.0,0.283,1.0,1.0
mturk,2l792wi6dr04cwnd2lxldsg3,28,1,1.0,38.0,0.239,1.0,1.0
mturk,2l792wi6dr04cwnd2lxldsg3,29,1,1.0,38.0,0.291,1.0,0.0
mturk,2l792wi6dr04cwnd2lxldsg3,30,1,1.0,38.0,0.286,1.0,1.0
mturk,2l792wi6dr04cwnd2lxldsg3,31,2,1.0,38.0,0.306,0.0,0.0
mturk,2l792wi6dr04cwnd2lxldsg3,32,2,1.0,38.0,0.304,0.0,1.0
mturk,2l792wi6dr04cwnd2lxldsg3,33,2,1.0,38.0,0.224,0.0,0.0
mturk,2l792wi6dr04cwnd2lxldsg3,34,2,1.0,38.0,0.11,0.0,1.0
mturk,2l792wi6dr04cwnd2lxldsg3,35,2,1.0,38.0,0.24,0.0,1.0
mturk,2l792wi6dr04cwnd2lxldsg3,36,2,1.0,38.0,0.189,0.0,0.0
mturk,2l792wi6dr04cwnd2lxldsg3,37,2,1.0,38.0,0.146,0.0,1.0
mturk,2l792wi6dr04cwnd2lxldsg3,38,2,1.0,38.0,0.203,0.0,0.0
mturk,2l792wi6dr04cwnd2lxldsg3,39,2,1.0,38.0,0.095,0.0,0.0
mturk,2l792wi6dr04cwnd2lxldsg3,40,2,1.0,38.0,0.059,0.0,1.0
mturk,2l792wi6dr04cwnd2lxldsg3,41,2,1.0,38.0,0.168,0.0,0.0
mturk,2l792wi6dr04cwnd2lxldsg3,42,2,1.0,38.0,0.052,0.0,1.0
mturk,2l792wi6dr04cwnd2lxldsg3,43,2,1.0,38.0,0.199,0.0,0.0
mturk,2l792wi6dr04cwnd2lxldsg3,44,2,1.0,38.0,0.129,0.0,1.0
mturk,2l792wi6dr04cwnd2lxldsg3,45,2,1.0,38.0,0.131,0.0,0.0
mturk,2l792wi6dr04cwnd2lxldsg3,46,1,1.0,38.0,0.162,1.0,1.0
mturk,2l792wi6dr04cwnd2lxldsg3,47,1,1.0,38.0,0.203,1.0,1.0
mturk,2l792wi6dr04cwnd2lxldsg3,48,1,1.0,38.0,0.218,1.0,0.0
mturk,2l792wi6dr04cwnd2lxldsg3,49,1,1.0,38.0,0.146,1.0,1.0
mturk,2l792wi6dr04cwnd2lxldsg3,50,1,1.0,38.0,0.25,1.0,1.0
mturk,2l792wi6dr04cwnd2lxldsg3,51,1,1.0,38.0,0.276,1.0,1.0
mturk,2l792wi6dr04cwnd2lxldsg3,52,1,1.0,38.0,0.37,1.0,1.0
mturk,2l792wi6dr04cwnd2lxldsg3,53,1,1.0,38.0,0.273,1.0,1.0
mturk,2l792wi6dr04cwnd2lxldsg3,54,1,1.0,38.0,0.267,1.0,1.0
mturk,2l792wi6dr04cwnd2lxldsg3,55,1,1.0,38.0,0.314,1.0,1.0
mturk,2l792wi6dr04cwnd2lxldsg3,56,1,1.0,38.0,0.299,1.0,1.0
mturk,2l792wi6dr04cwnd2lxldsg3,57,1,1.0,38.0,0.335,1.0,1.0
mturk,2l792wi6dr04cwnd2lxldsg3,58,1,1.0,38.0,0.282,1.0,1.0
mturk,2l792wi6dr04cwnd2lxldsg3,59,1,1.0,38.0,0.281,1.0,1.0
mturk,2l792wi6dr04cwnd2lxldsg3,60,1,1.0,38.0,0.207,1.0,1.0
mturk,2l792wi6dr04cwnd2lxldsg3,61,0,1.0,38.0,0.196,0.0,1.0
mturk,2l792wi6dr04cwnd2lxldsg3,62,0,1.0,38.0,0.259,0.0,1.0
mturk,2l792wi6dr04cwnd2lxldsg3,63,0,1.0,38.0,0.242,0.0,0.0
mturk,2l792wi6dr04cwnd2lxldsg3,64,0,1.0,38.0,0.085,0.0,0.0
mturk,2l792wi6dr04cwnd2lxldsg3,65,0,1.0,38.0,0.287,0.0,0.0
mturk,2l792wi6dr04cwnd2lxldsg3,66,0,2.0,39.0,0.129,0.0,0.0
mturk,2l792wi6dr04cwnd2lxldsg3,67,0,2.0,39.0,0.228,0.0,0.0
mturk,2l792wi6dr04cwnd2lxldsg3,68,0,2.0,39.0,0.187,0.0,0.0
mturk,2l792wi6dr04cwnd2lxldsg3,69,0,0.0,37.0,0.303,1.0,1.0
mturk,2l792wi6dr04cwnd2lxldsg3,70,0,0.0,37.0,0.267,1.0,1.0
mturk,2l792wi6dr04cwnd2lxldsg3,71,0,0.0,37.0,0.306,1.0,1.0
mturk,2l792wi6dr04cwnd2lxldsg3,72,0,0.0,37.0,0.242,1.0,1.0
mturk,2l792wi6dr04cwnd2lxldsg3,73,0,0.0,37.0,0.202,1.0,1.0
mturk,2l792wi6dr04cwnd2lxldsg3,74,0,0.0,37.0,0.153,1.0,1.0
mturk,2l792wi6dr04cwnd2lxldsg3,75,0,0.0,37.0,0.219,1.0,1.0
mturk,2l792wi6dr04cwnd2lxldsg3,76,1,0.0,37.0,0.243,0.0,1.0
mturk,2l792wi6dr04cwnd2lxldsg3,77,1,0.0,37.0,0.266,0.0,0.0
mturk,2l792wi6dr04cwnd2lxldsg3,78,1,0.0,37.0,0.283,0.0,0.0
mturk,2l792wi6dr04cwnd2lxldsg3,79,1,0.0,37.0,0.339,0.0,1.0
mturk,2l792wi6dr04cwnd2lxldsg3,80,1,0.0,37.0,0.332,0.0,0.0
mturk,2l792wi6dr04cwnd2lxldsg3,81,1,0.0,37.0,0.219,0.0,0.0
mturk,2l792wi6dr04cwnd2lxldsg3,82,1,0.0,37.0,0.203,0.0,0.0
mturk,2l792wi6dr04cwnd2lxldsg3,83,1,2.0,39.0,0.154,0.0,0.0
mturk,2l792wi6dr04cwnd2lxldsg3,84,1,2.0,39.0,0.127,0.0,0.0
mturk,2l792wi6dr04cwnd2lxldsg3,85,1,1.0,38.0,0.142,1.0,1.0
mturk,2l792wi6dr04cwnd2lxldsg3,86,1,1.0,38.0,0.284,1.0,1.0
mturk,2l792wi6dr04cwnd2lxldsg3,87,1,1.0,38.0,0.266,1.0,1.0
mturk,2l792wi6dr04cwnd2lxldsg3,88,1,1.0,38.0,0.247,1.0,1.0
mturk,2l792wi6dr04cwnd2lxldsg3,89,1,1.0,38.0,0.132,1.0,1.0
mturk,2l792wi6dr04cwnd2lxldsg3,90,1,1.0,38.0,0.145,1.0,1.0
mturk,2n2791gfw1ojwu32i7nsvght,1,2,1.0,38.0,4.603,0.0,0.0
mturk,2n2791gfw1ojwu32i7nsvght,2,2,0.0,37.0,1.798,0.0,0.0
mturk,2n2791gfw1ojwu32i7nsvght,3,2,2.0,39.0,1.598,1.0,1.0
mturk,2n2791gfw1ojwu32i7nsvght,4,2,2.0,39.0,0.635,1.0,1.0
mturk,2n2791gfw1ojwu32i7nsvght,5,2,2.0,39.0,0.546,1.0,0.0
mturk,2n2791gfw1ojwu32i7nsvght,6,2,2.0,39.0,0.501,1.0,1.0
mturk,2n2791gfw1ojwu32i7nsvght,7,2,2.0,39.0,0.456,1.0,1.0
mturk,2n2791gfw1ojwu32i7nsvght,8,2,2.0,39.0,0.414,1.0,1.0
mturk,2n2791gfw1ojwu32i7nsvght,9,2,2.0,39.0,0.397,1.0,1.0
mturk,2n2791gfw1ojwu32i7nsvght,10,2,2.0,39.0,0.386,1.0,1.0
mturk,2n2791gfw1ojwu32i7nsvght,11,2,2.0,39.0,0.379,1.0,0.0
mturk,2n2791gfw1ojwu32i7nsvght,12,2,2.0,39.0,0.709,1.0,1.0
mturk,2n2791gfw1ojwu32i7nsvght,13,2,2.0,39.0,0.363,1.0,1.0
mturk,2n2791gfw1ojwu32i7nsvght,14,2,2.0,39.0,0.233,1.0,1.0
mturk,2n2791gfw1ojwu32i7nsvght,15,2,2.0,39.0,0.17,1.0,1.0
mturk,2n2791gfw1ojwu32i7nsvght,16,0,2.0,39.0,0.386,0.0,0.0
mturk,2n2791gfw1ojwu32i7nsvght,17,0,0.0,37.0,1.002,1.0,1.0
mturk,2n2791gfw1ojwu32i7nsvght,18,0,0.0,37.0,0.433,1.0,1.0
mturk,2n2791gfw1ojwu32i7nsvght,19,0,0.0,37.0,0.348,1.0,1.0
mturk,2n2791gfw1ojwu32i7nsvght,20,0,0.0,37.0,0.452,1.0,1.0
mturk,2n2791gfw1ojwu32i7nsvght,21,0,0.0,37.0,0.195,1.0,0.0
mturk,2n2791gfw1ojwu32i7nsvght,22,0,0.0,37.0,0.542,1.0,1.0
mturk,2n2791gfw1ojwu32i7nsvght,23,0,0.0,37.0,0.064,1.0,0.0
mturk,2n2791gfw1ojwu32i7nsvght,24,0,1.0,38.0,0.475,0.0,0.0
mturk,2n2791gfw1ojwu32i7nsvght,25,0,1.0,38.0,0.354,0.0,0.0
mturk,2n2791gfw1ojwu32i7nsvght,26,0,2.0,39.0,0.196,0.0,1.0
mturk,2n2791gfw1ojwu32i7nsvght,27,0,2.0,39.0,0.049,0.0,1.0
mturk,2n2791gfw1ojwu32i7nsvght,28,0,2.0,39.0,0.734,0.0,1.0
mturk,2n2791gfw1ojwu32i7nsvght,29,0,2.0,39.0,0.076,0.0,0.0
mturk,2n2791gfw1ojwu32i7nsvght,30,0,2.0,39.0,0.352,0.0,0.0
mturk,2n2791gfw1ojwu32i7nsvght,31,1,2.0,39.0,0.929,0.0,0.0
mturk,2n2791gfw1ojwu32i7nsvght,32,1,0.0,37.0,0.147,0.0,0.0
mturk,2n2791gfw1ojwu32i7nsvght,33,1,1.0,38.0,0.456,1.0,0.0
mturk,2n2791gfw1ojwu32i7nsvght,34,1,2.0,39.0,0.227,0.0,1.0
mturk,2n2791gfw1ojwu32i7nsvght,35,1,2.0,39.0,0.246,0.0,0.0
mturk,2n2791gfw1ojwu32i7nsvght,36,1,2.0,39.0,0.273,0.0,0.0
mturk,2n2791gfw1ojwu32i7nsvght,37,1,2.0,39.0,0.934,0.0,0.0
mturk,2n2791gfw1ojwu32i7nsvght,38,1,2.0,39.0,0.189,0.0,1.0
mturk,2n2791gfw1ojwu32i7nsvght,39,1,2.0,39.0,0.173,0.0,0.0
mturk,2n2791gfw1ojwu32i7nsvght,40,1,0.0,37.0,0.152,0.0,1.0
mturk,2n2791gfw1ojwu32i7nsvght,41,1,0.0,37.0,0.109,0.0,0.0
mturk,2n2791gfw1ojwu32i7nsvght,42,1,0.0,37.0,0.729,0.0,0.0
mturk,2n2791gfw1ojwu32i7nsvght,43,1,1.0,38.0,0.093,1.0,1.0
mturk,2n2791gfw1ojwu32i7nsvght,44,1,1.0,38.0,0.119,1.0,1.0
mturk,2n2791gfw1ojwu32i7nsvght,45,1,1.0,38.0,0.412,1.0,0.0
mturk,2n2791gfw1ojwu32i7nsvght,46,2,2.0,39.0,0.131,1.0,1.0
mturk,2n2791gfw1ojwu32i7nsvght,47,2,2.0,39.0,0.111,1.0,1.0
mturk,2n2791gfw1ojwu32i7nsvght,48,2,2.0,39.0,0.242,1.0,1.0
mturk,2n2791gfw1ojwu32i7nsvght,49,2,2.0,39.0,0.247,1.0,1.0
mturk,2n2791gfw1ojwu32i7nsvght,50,2,2.0,39.0,0.202,1.0,1.0
mturk,2n2791gfw1ojwu32i7nsvght,51,2,2.0,39.0,0.152,1.0,1.0
mturk,2n2791gfw1ojwu32i7nsvght,52,2,2.0,39.0,0.102,1.0,1.0
mturk,2n2791gfw1ojwu32i7nsvght,53,2,2.0,39.0,0.061,1.0,1.0
mturk,2n2791gfw1ojwu32i7nsvght,54,2,2.0,39.0,0.641,1.0,0.0
mturk,2n2791gfw1ojwu32i7nsvght,55,2,2.0,39.0,0.409,1.0,1.0
mturk,2n2791gfw1ojwu32i7nsvght,56,2,2.0,39.0,0.06,1.0,1.0
mturk,2n2791gfw1ojwu32i7nsvght,57,2,2.0,39.0,0.293,1.0,1.0
mturk,2n2791gfw1ojwu32i7nsvght,58,2,2.0,39.0,0.361,1.0,1.0
mturk,2n2791gfw1ojwu32i7nsvght,59,2,2.0,39.0,1.498,1.0,1.0
mturk,2n2791gfw1ojwu32i7nsvght,60,2,2.0,39.0,0.253,1.0,0.0
mturk,2n2791gfw1ojwu32i7nsvght,61,0,2.0,39.0,0.606,0.0,0.0
mturk,2n2791gfw1ojwu32i7nsvght,62,0,2.0,39.0,0.363,0.0,1.0
mturk,2n2791gfw1ojwu32i7nsvght,63,0,2.0,39.0,0.576,0.0,1.0
mturk,2n2791gfw1ojwu32i7nsvght,64,0,2.0,39.0,0.55,0.0,0.0
mturk,2n2791gfw1ojwu32i7nsvght,65,0,0.0,37.0,1.144,1.0,1.0
mturk,2n2791gfw1ojwu32i7nsvght,66,0,0.0,37.0,0.368,1.0,1.0
mturk,2n2791gfw1ojwu32i7nsvght,67,0,0.0,37.0,0.283,1.0,1.0
mturk,2n2791gfw1ojwu32i7nsvght,68,0,0.0,37.0,0.194,1.0,1.0
mturk,2n2791gfw1ojwu32i7nsvght,69,0,0.0,37.0,0.115,1.0,1.0
mturk,2n2791gfw1ojwu32i7nsvght,70,0,0.0,37.0,0.213,1.0,1.0
mturk,2n2791gfw1ojwu32i7nsvght,71,0,0.0,37.0,0.101,1.0,0.0
mturk,2n2791gfw1ojwu32i7nsvght,72,0,2.0,39.0,0.568,0.0,1.0
mturk,2n2791gfw1ojwu32i7nsvght,73,0,2.0,39.0,0.082,0.0,0.0
mturk,2n2791gfw1ojwu32i7nsvght,74,0,2.0,39.0,0.166,0.0,0.0
mturk,2n2791gfw1ojwu32i7nsvght,75,0,0.0,37.0,0.48,1.0,1.0
mturk,2n2791gfw1ojwu32i7nsvght,76,1,0.0,37.0,0.037,0.0,1.0
mturk,2n2791gfw1ojwu32i7nsvght,77,1,0.0,37.0,0.835,0.0,0.0
mturk,2n2791gfw1ojwu32i7nsvght,78,1,2.0,39.0,0.233,0.0,0.0
mturk,2n2791gfw1ojwu32i7nsvght,79,1,0.0,37.0,0.128,0.0,0.0
mturk,2n2791gfw1ojwu32i7nsvght,80,1,2.0,39.0,0.121,0.0,1.0
