platform,subject,trial,correct,choice,key,rt,accuracy,outcome
mturk,0a8zkiu9rpf0mxo0h9ecdyzh,1,1,1.0,38.0,0.922,1.0,1.0
mturk,0a8zkiu9rpf0mxo0h9ecdyzh,2,1,0.0,37.0,1.045,0.0,0.0
mturk,0a8zkiu9rpf0mxo0h9ecdyzh,3,1,2.0,39.0,0.929,0.0,1.0
mturk,0a8zkiu9rpf0mxo0h9ecdyzh,4,1,1.0,38.0,0.662,1.0,1.0
mturk,0a8zkiu9rpf0mxo0h9ecdyzh,5,1,2.0,39.0,0.49,0.0,0.0
mturk,0a8zkiu9rpf0mxo0h9ecdyzh,6,1,1.0,38.0,0.402,1.0,1.0
mturk,0a8zkiu9rpf0mxo0h9ecdyzh,7,1,1.0,38.0,0.436,1.0,1.0
mturk,0a8zkiu9rpf0mxo0h9ecdyzh,8,1,1.0,38.0,0.812,1.0,1.0
mturk,0a8zkiu9rpf0mxo0h9ecdyzh,9,1,1.0,38.0,0.769,1.0,1.0
mturk,0a8zkiu9rpf0mxo0h9ecdyzh,10,1,1.0,38.0,0.661,1.0,1.0
mturk,0a8zkiu9rpf0mxo0h9ecdyzh,11,1,1.0,38.0,0.569,1.0,1.0
mturk,0a8zkiu9rpf0mxo0h9ecdyzh,12,1,1.0,38.0,0.483,1.0,1.0
mturk,0a8zkiu9rpf0mxo0h9ecdyzh,13,1,1.0,38.0,0.462,1.0,1.0
mturk,0a8zkiu9rpf0mxo0h9ecdyzh,14,1,1.0,38.0,0.347,1.0,1.0
mturk,0a8zkiu9rpf0mxo0h9ecdyzh,15,1,1.0,38.0,0.385,1.0,1.0
mturk,0a8zkiu9rpf0mxo0h9ecdyzh,16,0,1.0,38.0,0.548,0.0,0.0
mturk,0a8zkiu9rpf0mxo0h9ecdyzh,17,0,1.0,38.0,0.815,0.0,0.0
mturk,0a8zkiu9rpf0mxo0h9ecdyzh,18,0,2.0,39.0,0.291,0.0,1.0
mturk,0a8zkiu9rpf0mxo0h9ecdyzh,19,0,2.0,39.0,0.714,0.0,0.0
mturk,0a8zkiu9rpf0mxo0h9ecdyzh,20,0,0.0,37.0,0.232,1.0,1.0
mturk,0a8zkiu9rpf0mxo0h9ecdyzh,21,0,0.0,37.0,0.386,1.0,1.0
mturk,0a8zkiu9rpf0mxo0h9ecdyzh,22,0,0.0,37.0,0.471,1.0,1.0
mturk,0a8zkiu9rpf0mxo0h9ecdyzh,23,0,0.0,37.0,0.605,1.0,1.0
mturk,0a8zkiu9rpf0mxo0h9ecdyzh,24,0,0.0,37.0,0.368,1.0,1.0
mturk,0a8zkiu9rpf0mxo0h9ecdyzh,25,0,0.0,37.0,0.331,1.0,1.0
mturk,0a8zkiu9rpf0mxo0h9ecdyzh,26,0,0.0,37.0,0.333,1.0,0.0
mturk,0a8zkiu9rpf0mxo0h9ecdyzh,27,0,1.0,38.0,0.208,0.0,0.0
mturk,0a8zkiu9rpf0mxo0h9ecdyzh,28,0,2.0,39.0,0.56,0.0,0.0
mturk,0a8zkiu9rpf0mxo0h9ecdyzh,29,0,0.0,37.0,0.609,1.0,1.0
mturk,0a8zkiu9rpf0mxo0h9ecdyzh,30,0,0.0,37.0,0.45,1.0,1.0
mturk,0a8zkiu9rpf0mxo0h9ecdyzh,31,2,0.0,37.0,0.38,0.0,0.0
mturk,0a8zkiu9rpf0mxo0h9ecdyzh,32,2,1.0,38.0,0.283,0.0,0.0
mturk,0a8zkiu9rpf0mxo0h9ecdyzh,33,2,2.0,39.0,0.323,1.0,1.0
mturk,0a8zkiu9rpf0mxo0h9ecdyzh,34,2,2.0,39.0,0.322,1.0,1.0
mturk,0a8zkiu9rpf0mxo0h9ecdyzh,35,2,2.0,39.0,0.282,1.0,1.0
mturk,0a8zkiu9rpf0mxo0h9ecdyzh,36,2,2.0,39.0,0.355,1.0,1.0
mturk,0a8zkiu9rpf0mxo0h9ecdyzh,37,2,2.0,39.0,0.336,1.0,1.0
mturk,0a8zkiu9rpf0mxo0h9ecdyzh,38,2,2.0,39.0,0.033,1.0,1.0
mturk,0a8zkiu9rpf0mxo0h9ecdyzh,39,2,2.0,39.0,0.301,1.0,0.0
mturk,0a8zkiu9rpf0mxo0h9ecdyzh,40,2,0.0,37.0,0.333,0.0,1.0
mturk,0a8zkiu9rpf0mxo0h9ecdyzh,41,2,0.0,37.0,0.482,0.0,0.0
mturk,0a8zkiu9rpf0mxo0h9ecdyzh,42,2,1.0,38.0,0.38,0.0,0.0
mturk,0a8zkiu9rpf0mxo0h9ecdyzh,43,2,2.0,39.0,0.57,1.0,1.0
mturk,0a8zkiu9rpf0mxo0h9ecdyzh,44,2,2.0,39.0,0.464,1.0,1.0
mturk,0a8zkiu9rpf0mxo0h9ecdyzh,45,2,2.0,39.0,0.514,1.0,0.0
mturk,0a8zkiu9rpf0mxo0h9ecdyzh,46,0,0.0,37.0,0.38,1.0,1.0
mturk,0a8zkiu9rpf0mxo0h9ecdyzh,47,0,0.0,37.0,0.706,1.0,1.0
mturk,0a8zkiu9rpf0mxo0h9ecdyzh,48,0,0.0,37.0,0.499,1.0,1.0
mturk,0a8zkiu9rpf0mxo0h9ecdyzh,49,0,0.0,37.0,0.403,1.0,1.0
mturk,0a8zkiu9rpf0mxo0h9ecdyzh,50,0,0.0,37.0,0.971,1.0,0.0
mturk,0a8zkiu9rpf0mxo0h9ecdyzh,51,0,1.0,38.0,0.811,0.0,0.0
mturk,0a8zkiu9rpf0mxo0h9ecdyzh,52,0,2.0,39.0,0.435,0.0,0.0
mturk,0a8zkiu9rpf0mxo0h9ecdyzh,53,0,0.0,37.0,0.387,1.0,1.0
mturk,0a8zkiu9rpf0mxo0h9ecdyzh,54,0,0.0,37.0,0.682,1.0,1.0
mturk,0a8zkiu9rpf0mxo0h9ecdyzh,55,0,0.0,37.0,0.558,1.0,1.0
mturk,0a8zkiu9rpf0mxo0h9ecdyzh,56,0,0.0,37.0,0.434,1.0,1.0
mturk,0a8zkiu9rpf0mxo0h9ecdyzh,57,0,0.0,37.0,0.362,1.0,1.0
mturk,0a8zkiu9rpf0mxo0h9ecdyzh,58,0,0.0,37.0,0.868,1.0,1.0
mturk,0a8zkiu9rpf0mxo0h9ecdyzh,59,0,0.0,37.0,0.166,1.0,1.0
mturk,0a8zkiu9rpf0mxo0h9ecdyzh,60,0,0.0,37.0,0.556,1.0,1.0
mturk,0a8zkiu9rpf0mxo0h9ecdyzh,61,1,0.0,37.0,0.467,0.0,0.0
mturk,0a8zkiu9rpf0mxo0h9ecdyzh,62,1,1.0,38.0,0.248,1.0,1.0
mturk,0a8zkiu9rpf0mxo0h9ecdyzh,63,1,1.0,38.0,0.418,1.0,1.0
mturk,0a8zkiu9rpf0mxo0h9ecdyzh,64,1,1.0,38.0,1.197,1.0,1.0
mturk,0a8zkiu9rpf0mxo0h9ecdyzh,65,1,1.0,38.0,0.767,1.0,1.0
mturk,0a8zkiu9rpf0mxo0h9ecdyzh,66,1,1.0,38.0,0.58,1.0,1.0
mturk,0a8zkiu9rpf0mxo0h9ecdyzh,67,1,1.0,38.0,0.555,1.0,1.0
mturk,0a8zkiu9rpf0mxo0h9ecdyzh,68,1,1.0,38.0,0.372,1.0,1.0
mturk,0a8zkiu9rpf0mxo0h9ecdyzh,69,1,1.0,38.0,0.379,1.0,1.0
mturk,0a8zkiu9rpf0mxo0h9ecdyzh,70,1,1.0,38.0,0.427,1.0,1.0
mturk,0a8zkiu9rpf0mxo0h9ecdyzh,71,1,1.0,38.0,0.747,1.0,1.0
mturk,0a8zkiu9rpf0mxo0h9ecdyzh,72,1,1.0,38.0,0.434,1.0,1.0
mturk,0a8zkiu9rpf0mxo0h9ecdyzh,73,1,1.0,38.0,0.434,1.0,1.0
mturk,0a8zkiu9rpf0mxo0h9ecdyzh,74,1,1.0,38.0,0.405,1.0,1.0
mturk,0a8zkiu9rpf0mxo0h9ecdyzh,75,1,1.0,38.0,0.331,1.0,1.0
mturk,0a8zkiu9rpf0mxo0h9ecdyzh,76,2,1.0,38.0,0.315,0.0,1.0
mturk,0a8zkiu9rpf0mxo0h9ecdyzh,77,2,1.0,38.0,0.341,0.0,0.0
mturk,0a8zkiu9rpf0mxo0h9ecdyzh,78,2,2.0,39.0,0.061,1.0,1.0
mturk,0a8zkiu9rpf0mxo0h9ecdyzh,79,2,2.0,39.0,0.394,1.0,1.0
mturk,0a8zkiu9rpf0mxo0h9ecdyzh,80,2,2.0,39.0,0.365,1.0,0.0
mturk,0a8zkiu9rpf0mxo0h9ecdyzh,81,2,0.0,37.0,0.573,0.0,0.0
mturk,0a8zkiu9rpf0mxo0h9ecdyzh,82,2,1.0,38.0,1.095,0.0,0.0
mturk,0a8zkiu9rpf0mxo0h9ecdyzh,83,2,2.0,39.0,0.578,1.0,1.0
mturk,0a8zkiu9rpf0mxo0h9ecdyzh,84,2,2.0,39.0,0.324,1.0,1.0
mturk,0a8zkiu9rpf0mxo0h9ecdyzh,85,2,2.0,39.0,0.917,1.0,1.0
mturk,0a8zkiu9rpf0mxo0h9ecdyzh,86,2,2.0,39.0,0.693,1.0,1.0
mturk,0a8zkiu9rpf0mxo0h9ecdyzh,87,2,2.0,39.0,0.401,1.0,1.0
mturk,0a8zkiu9rpf0mxo0h9ecdyzh,88,2,2.0,39.0,3.22,1.0,1.0
mturk,0a8zkiu9rpf0mxo0h9ecdyzh,89,2,2.0,39.0,0.54,1.0,1.0
mturk,0a8zkiu9rpf0mxo0h9ecdyzh,90,2,2.0,39.0,0.611,1.0,1.0
mturk,0g4fx9g2wryeio74yzgqwpq8,1,2,1.0,38.0,2.022,0.0,0.0
mturk,0g4fx9g2wryeio74yzgqwpq8,2,2,0.0,37.0,0.555,0.0,0.0
mturk,0g4fx9g2wryeio74yzgqwpq8,3,2,2.0,39.0,0.3,1.0,1.0
mturk,0g4fx9g2wryeio74yzgqwpq8,4,2,2.0,39.0,0.373,1.0,1.0
mturk,0g4fx9g2wryeio74yzgqwpq8,5,2,2.0,39.0,0.292,1.0,0.0
mturk,0g4fx9g2wryeio74yzgqwpq8,6,2,1.0,38.0,0.245,0.0,0.0
mturk,0g4fx9g2wryeio74yzgqwpq8,7,2,2.0,39.0,0.085,1.0,1.0
mturk,0g4fx9g2wryeio74yzgqwpq8,8,2,2.0,39.0,0.3,1.0,0.0
mturk,0g4fx9g2wryeio74yzgqwpq8,9,2,0.0,37.0,0.11,0.0,0.0
mturk,0g4fx9g2wryeio74yzgqwpq8,10,2,2.0,39.0,0.02,1.0,1.0
mturk,0g4fx9g2wryeio74yzgqwpq8,11,2,2.0,39.0,0.3,1.0,1.0
mturk,0g4fx9g2wryeio74yzgqwpq8,12,2,2.0,39.0,0.525,1.0,1.0
mturk,0g4fx9g2wryeio74yzgqwpq8,13,2,2.0,39.0,0.309,1.0,0.0
mturk,0g4fx9g2wryeio74yzgqwpq8,14,2,1.0,38.0,0.158,0.0,0.0
mturk,0g4fx9g2wryeio74yzgqwpq8,15,2,2.0,39.0,0.044,1.0,1.0
mturk,0g4fx9g2wryeio74yzgqwpq8,16,0,2.0,39.0,0.309,0.0,0.0
mturk,0g4fx9g2wryeio74yzgqwpq8,17,0,0.0,37.0,0.253,1.0,1.0
mturk,0g4fx9g2wryeio74yzgqwpq8,18,0,0.0,37.0,0.093,1.0,1.0
mturk,0g4fx9g2wryeio74yzgqwpq8,19,0,0.0,37.0,0.309,1.0,1.0
mturk,0g4fx9g2wryeio74yzgqwpq8,20,0,0.0,37.0,0.365,1.0,1.0
mturk,0g4fx9g2wryeio74yzgqwpq8,21,0,0.0,37.0,0.364,1.0,0.0
mturk,0g4fx9g2wryeio74yzgqwpq8,22,0,2.0,39.0,0.309,0.0,0.0
mturk,0g4fx9g2wryeio74yzgqwpq8,23,0,0.0,37.0,0.11,1.0,0.0
mturk,0g4fx9g2wryeio74yzgqwpq8,24,0,1.0,38.0,0.005,0.0,0.0
mturk,0g4fx9g2wryeio74yzgqwpq8,25,0,0.0,37.0,0.323,1.0,1.0
mturk,0g4fx9g2wryeio74yzgqwpq8,26,0,0.0,37.0,0.284,1.0,1.0
mturk,0g4fx9g2wryeio74yzgqwpq8,27,0,0.0,37.0,0.317,1.0,1.0
mturk,0g4fx9g2wryeio74yzgqwpq8,28,0,0.0,37.0,0.364,1.0,0.0
mturk,0g4fx9g2wryeio74yzgqwpq8,29,0,2.0,39.0,0.349,0.0,0.0
mturk,0g4fx9g2wryeio74yzgqwpq8,30,0,1.0,38.0,0.396,0.0,0.0
mturk,0g4fx9g2wryeio74yzgqwpq8,31,1,0.0,37.0,0.105,0.0,1.0
mturk,0g4fx9g2wryeio74yzgqwpq8,32,1,0.0,37.0,0.193,0.0,1.0
mturk,0g4fx9g2wryeio74yzgqwpq8,33,1,0.0,37.0,0.182,0.0,0.0
mturk,0g4fx9g2wryeio74yzgqwpq8,34,1,0.0,37.0,0.278,0.0,0.0
mturk,0g4fx9g2wryeio74yzgqwpq8,35,1,1.0,38.0,0.014,1.0,1.0
mturk,0g4fx9g2wryeio74yzgqwpq8,36,1,1.0,38.0,0.277,1.0,1.0
mturk,0g4fx9g2wryeio74yzgqwpq8,37,1,1.0,38.0,0.278,1.0,1.0
mturk,0g4fx9g2wryeio74yzgqwpq8,38,1,1.0,38.0,0.277,1.0,1.0
mturk,0g4fx9g2wryeio74yzgqwpq8,39,1,1.0,38.0,0.237,1.0,1.0
mturk,0g4fx9g2wryeio74yzgqwpq8,40,1,1.0,38.0,0.244,1.0,0.0
mturk,0g4fx9g2wryeio74yzgqwpq8,41,1,1.0,38.0,0.269,1.0,1.0
mturk,0g4fx9g2wryeio74yzgqwpq8,42,1,1.0,38.0,0.134,1.0,1.0
mturk,0g4fx9g2wryeio74yzgqwpq8,43,1,1.0,38.0,0.325,1.0,1.0
mturk,0g4fx9g2wryeio74yzgqwpq8,44,1,1.0,38.0,0.205,1.0,1.0
mturk,0g4fx9g2wryeio74yzgqwpq8,45,1,1.0,38.0,0.126,1.0,1.0
mturk,0g4fx9g2wryeio74yzgqwpq8,46,2,1.0,38.0,0.292,0.0,1.0
mturk,0g4fx9g2wryeio74yzgqwpq8,47,2,1.0,38.0,0.213,0.0,0.0
mturk,0g4fx9g2wryeio74yzgqwpq8,48,2,1.0,38.0,0.245,0.0,0.0
mturk,0g4fx9g2wryeio74yzgqwpq8,49,2,2.0,39.0,0.035,1.0,1.0
mturk,0g4fx9g2wryeio74yzgqwpq8,50,2,2.0,39.0,0.158,1.0,1.0
mturk,0g4fx9g2wryeio74yzgqwpq8,51,2,2.0,39.0,0.149,1.0,1.0
mturk,0g4fx9g2wryeio74yzgqwpq8,52,2,2.0,39.0,0.26,1.0,1.0
mturk,0g4fx9g2wryeio74yzgqwpq8,53,2,2.0,39.0,0.214,1.0,1.0
mturk,0g4fx9g2wryeio74yzgqwpq8,54,2,2.0,39.0,0.292,1.0,0.0
mturk,0g4fx9g2wryeio74yzgqwpq8,55,2,2.0,39.0,0.237,1.0,1.0
mturk,0g4fx9g2wryeio74yzgqwpq8,56,2,2.0,39.0,0.165,1.0,1.0
mturk,0g4fx9g2wryeio74yzgqwpq8,57,2,2.0,39.0,0.22,1.0,1.0
mturk,0g4fx9g2wryeio74yzgqwpq8,58,2,2.0,39.0,0.054,1.0,0.0
mturk,0g4fx9g2wryeio74yzgqwpq8,59,2,2.0,39.0,0.172,1.0,1.0
mturk,0g4fx9g2wryeio74yzgqwpq8,60,2,2.0,39.0,0.124,1.0,0.0
mturk,0g4fx9g2wryeio74yzgqwpq8,61,0,2.0,39.0,0.062,0.0,1.0
mturk,0g4fx9g2wryeio74yzgqwpq8,62,0,2.0,39.0,0.269,0.0,1.0
mturk,0g4fx9g2wryeio74yzgqwpq8,63,0,2.0,39.0,0.11,0.0,0.0
mturk,0g4fx9g2wryeio74yzgqwpq8,64,0,2.0,39.0,0.22,0.0,0.0
mturk,0g4fx9g2wryeio74yzgqwpq8,65,0,0.0,37.0,0.029,1.0,1.0
mturk,0g4fx9g2wryeio74yzgqwpq8,66,0,0.0,37.0,0.373,1.0,1.0
mturk,0g4fx9g2wryeio74yzgqwpq8,67,0,0.0,37.0,0.181,1.0,0.0
mturk,0g4fx9g2wryeio74yzgqwpq8,68,0,0.0,37.0,0.187,1.0,1.0
mturk,0g4fx9g2wryeio74yzgqwpq8,69,0,0.0,37.0,0.07,1.0,0.0
mturk,0g4fx9g2wryeio74yzgqwpq8,70,0,0.0,37.0,0.156,1.0,1.0
mturk,0g4fx9g2wryeio74yzgqwpq8,71,0,0.0,37.0,0.181,1.0,1.0
mturk,0g4fx9g2wryeio74yzgqwpq8,72,0,0.0,37.0,0.046,1.0,1.0
mturk,0g4fx9g2wryeio74yzgqwpq8,73,0,0.0,37.0,0.19,1.0,1.0
mturk,0g4fx9g2wryeio74yzgqwpq8,74,0,0.0,37.0,0.214,1.0,1.0
mturk,0g4fx9g2wryeio74yzgqwpq8,75,0,0.0,37.0,0.236,1.0,1.0
mturk,0g4fx9g2wryeio74yzgqwpq8,76,1,0.0,37.0,0.385,0.0,1.0
mturk,0g4fx9g2wryeio74yzgqwpq8,77,1,0.0,37.0,0.201,0.0,1.0
mturk,0g4fx9g2wryeio74yzgqwpq8,78,1,0.0,37.0,0.229,0.0,0.0
mturk,0g4fx9g2wryeio74yzgqwpq8,79,1,0.0,37.0,0.126,0.0,0.0
mturk,0g4fx9g2wryeio74yzgqwpq8,80,1,1.0,38.0,0.003,1.0,1.0
mturk,0g4fx9g2wryeio74yzgqwpq8,81,1,1.0,38.0,0.205,1.0,1.0
mturk,0g4fx9g2wryeio74yzgqwpq8,82,1,1.0,38.0,0.18,1.0,1.0
mturk,0g4fx9g2wryeio74yzgqwpq8,83,1,1.0,38.0,0.037,1.0,1.0
mturk,0g4fx9g2wryeio74yzgqwpq8,84,1,1.0,38.0,0.077,1.0,1.0
mturk,0g4fx9g2wryeio74yzgqwpq8,85,1,1.0,38.0,0.222,1.0,0.0
mturk,0g4fx9g2wryeio74yzgqwpq8,86,1,1.0,38.0,0.077,1.0,1.0
mturk,0g4fx9g2wryeio74yzgqwpq8,87,1,1.0,38.0,0.116,1.0,0.0
mturk,0g4fx9g2wryeio74yzgqwpq8,88,1,1.0,38.0,0.222,1.0,1.0
mturk,0g4fx9g2wryeio74yzgqwpq8,89,1,1.0,38.0,0.116,1.0,1.0
mturk,0g4fx9g2wryeio74yzgqwpq8,90,1,1.0,38.0,0.439,1.0,1.0
mturk,0k1tzkzdb7dvx6z9q0nyovde,1,2,2.0,39.0,1.359,1.0,1.0
mturk,0k1tzkzdb7dvx6z9q0nyovde,2,2,2.0,39.0,0.604,1.0,1.0
mturk,0k1tzkzdb7dvx6z9q0nyovde,3,2,2.0,39.0,0.45,1.0,0.0
mturk,0k1tzkzdb7dvx6z9q0nyovde,4,2,2.0,39.0,0.349,1.0,1.0
mturk,0k1tzkzdb7dvx6z9q0nyovde,5,2,2.0,39.0,0.46,1.0,1.0
mturk,0k1tzkzdb7dvx6z9q0nyovde,6,2,2.0,39.0,0.396,1.0,1.0
mturk,0k1tzkzdb7dvx6z9q0nyovde,7,2,2.0,39.0,0.356,1.0,1.0
mturk,0k1tzkzdb7dvx6z9q0nyovde,8,2,2.0,39.0,0.372,1.0,1.0
mturk,0k1tzkzdb7dvx6z9q0nyovde,9,2,2.0,39.0,0.554,1.0,1.0
mturk,0k1tzkzdb7dvx6z9q0nyovde,10,2,2.0,39.0,0.348,1.0,1.0
mturk,0k1tzkzdb7dvx6z9q0nyovde,11,2,2.0,39.0,0.396,1.0,0.0
mturk,0k1tzkzdb7dvx6z9q0nyovde,12,2,2.0,39.0,0.261,1.0,0.0
mturk,0k1tzkzdb7dvx6z9q0nyovde,13,2,1.0,38.0,0.308,0.0,0.0
mturk,0k1tzkzdb7dvx6z9q0nyovde,14,2,0.0,37.0,0.228,0.0,0.0
mturk,0k1tzkzdb7dvx6z9q0nyovde,15,2,2.0,39.0,0.26,1.0,1.0
mturk,0k1tzkzdb7dvx6z9q0nyovde,16,0,2.0,39.0,0.308,0.0,1.0
mturk,0k1tzkzdb7dvx6z9q0nyovde,17,0,2.0,39.0,0.284,0.0,0.0
mturk,0k1tzkzdb7dvx6z9q0nyovde,18,0,2.0,39.0,0.243,0.0,0.0
mturk,0k1tzkzdb7dvx6z9q0nyovde,19,0,2.0,39.0,0.228,0.0,0.0
mturk,0k1tzkzdb7dvx6z9q0nyovde,20,0,1.0,38.0,0.276,0.0,0.0
mturk,0k1tzkzdb7dvx6z9q0nyovde,21,0,0.0,37.0,0.243,1.0,1.0
mturk,0k1tzkzdb7dvx6z9q0nyovde,22,0,0.0,37.0,0.252,1.0,1.0
mturk,0k1tzkzdb7dvx6z9q0nyovde,23,0,0.0,37.0,0.292,1.0,1.0
mturk,0k1tzkzdb7dvx6z9q0nyovde,24,0,0.0,37.0,0.292,1.0,0.0
mturk,0k1tzkzdb7dvx6z9q0nyovde,25,0,0.0,37.0,0.292,1.0,1.0
mturk,0k1tzkzdb7dvx6z9q0nyovde,26,0,0.0,37.0,0.284,1.0,0.0
mturk,0k1tzkzdb7dvx6z9q0nyovde,27,0,0.0,37.0,0.258,1.0,1.0
mturk,0k1tzkzdb7dvx6z9q0nyovde,28,0,0.0,37.0,0.323,1.0,1.0
mturk,0k1tzkzdb7dvx6z9q0nyovde,29,0,0.0,37.0,0.3,1.0,1.0
mturk,0k1tzkzdb7dvx6z9q0nyovde,30,0,0.0,37.0,0.299,1.0,1.0
mturk,0k1tzkzdb7dvx6z9q0nyovde,31,2,0.0,37.0,0.267,0.0,0.0
mturk,0k1tzkzdb7dvx6z9q0nyovde,32,2,0.0,37.0,0.268,0.0,0.0
mturk,0k1tzkzdb7dvx6z9q0nyovde,33,2,0.0,37.0,0.244,0.0,0.0
mturk,0k1tzkzdb7dvx6z9q0nyovde,34,2,1.0,38.0,0.211,0.0,0.0
mturk,0k1tzkzdb7dvx6z9q0nyovde,35,2,1.0,38.0,0.268,0.0,0.0
mturk,0k1tzkzdb7dvx6z9q0nyovde,36,2,2.0,39.0,0.284,1.0,1.0
mturk,0k1tzkzdb7dvx6z9q0nyovde,37,2,2.0,39.0,0.308,1.0,1.0
mturk,0k1tzkzdb7dvx6z9q0nyovde,38,2,2.0,39.0,0.316,1.0,1.0
mturk,0k1tzkzdb7dvx6z9q0nyovde,39,2,2.0,39.0,0.243,1.0,1.0
mturk,0k1tzkzdb7dvx6z9q0nyovde,40,2,2.0,39.0,0.252,1.0,1.0
mturk,0k1tzkzdb7dvx6z9q0nyovde,41,2,2.0,39.0,0.276,1.0,1.0
mturk,0k1tzkzdb7dvx6z9q0nyovde,42,2,2.0,39.0,0.291,1.0,1.0
mturk,0k1tzkzdb7dvx6z9q0nyovde,43,2,2.0,39.0,0.268,1.0,0.0
mturk,0k1tzkzdb7dvx6z9q0nyovde,44,2,2.0,39.0,0.274,1.0,1.0
mturk,0k1tzkzdb7dvx6z9q0nyovde,45,2,2.0,39.0,0.276,1.0,1.0
mturk,0k1tzkzdb7dvx6z9q0nyovde,46,1,2.0,39.0,0.268,0.0,0.0
mturk,0k1tzkzdb7dvx6z9q0nyovde,47,1,2.0,39.0,0.236,0.0,1.0
mturk,0k1tzkzdb7dvx6z9q0nyovde,48,1,2.0,39.0,0.244,0.0,1.0
mturk,0k1tzkzdb7dvx6z9q0nyovde,49,1,2.0,39.0,0.268,0.0,0.0
mturk,0k1tzkzdb7dvx6z9q0nyovde,50,1,2.0,39.0,0.228,0.0,0.0
mturk,0k1tzkzdb7dvx6z9q0nyovde,51,1,1.0,38.0,0.651,1.0,1.0
mturk,0k1tzkzdb7dvx6z9q0nyovde,52,1,1.0,38.0,0.268,1.0,0.0
mturk,0k1tzkzdb7dvx6z9q0nyovde,53,1,1.0,38.0,0.284,1.0,1.0
mturk,0k1tzkzdb7dvx6z9q0nyovde,54,1,1.0,38.0,0.284,1.0,0.0
mturk,0k1tzkzdb7dvx6z9q0nyovde,55,1,1.0,38.0,0.276,1.0,1.0
mturk,0k1tzkzdb7dvx6z9q0nyovde,56,1,1.0,38.0,0.268,1.0,1.0
mturk,0k1tzkzdb7dvx6z9q0nyovde,57,1,1.0,38.0,0.26,1.0,1.0
mturk,0k1tzkzdb7dvx6z9q0nyovde,58,1,1.0,38.0,0.236,1.0,0.0
mturk,0k1tzkzdb7dvx6z9q0nyovde,59,1,1.0,38.0,0.148,1.0,1.0
mturk,0k1tzkzdb7dvx6z9q0nyovde,60,1,1.0,38.0,0.252,1.0,1.0
mturk,0k1tzkzdb7dvx6z9q0nyovde,61,0,1.0,38.0,0.244,0.0,0.0
mturk,0k1tzkzdb7dvx6z9q0nyovde,62,0,1.0,38.0,0.235,0.0,0.0
mturk,0k1tzkzdb7dvx6z9q0nyovde,63,0,1.0,38.0,0.267,0.0,0.0
mturk,0k1tzkzdb7dvx6z9q0nyovde,64,0,2.0,39.0,0.133,0.0,1.0
mturk,0k1tzkzdb7dvx6z9q0nyovde,65,0,2.0,39.0,0.22,0.0,0.0
mturk,0k1tzkzdb7dvx6z9q0nyovde,66,0,2.0,39.0,0.269,0.0,0.0
mturk,0k1tzkzdb7dvx6z9q0nyovde,67,0,2.0,39.0,0.22,0.0,0.0
mturk,0k1tzkzdb7dvx6z9q0nyovde,68,0,0.0,37.0,0.084,1.0,1.0
mturk,0k1tzkzdb7dvx6z9q0nyovde,69,0,0.0,37.0,0.052,1.0,1.0
mturk,0k1tzkzdb7dvx6z9q0nyovde,70,0,0.0,37.0,0.212,1.0,1.0
mturk,0k1tzkzdb7dvx6z9q0nyovde,71,0,0.0,37.0,0.164,1.0,1.0
mturk,0k1tzkzdb7dvx6z9q0nyovde,72,0,0.0,37.0,0.259,1.0,0.0
mturk,0k1tzkzdb7dvx6z9q0nyovde,73,0,0.0,37.0,0.204,1.0,0.0
mturk,0k1tzkzdb7dvx6z9q0nyovde,74,0,0.0,37.0,0.548,1.0,0.0
mturk,0k1tzkzdb7dvx6z9q0nyovde,75,0,2.0,39.0,0.036,0.0,0.0
mturk,0k1tzkzdb7dvx6z9q0nyovde,76,2,1.0,38.0,0.196,0.0,0.0
mturk,0k1tzkzdb7dvx6z9q0nyovde,77,2,2.0,39.0,0.395,1.0,1.0
mturk,0k1tzkzdb7dvx6z9q0nyovde,78,2,2.0,39.0,0.076,1.0,1.0
mturk,0k1tzkzdb7dvx6z9q0nyovde,79,2,2.0,39.0,0.292,1.0,0.0
mturk,0k1tzkzdb7dvx6z9q0nyovde,80,2,2.0,39.0,0.195,1.0,1.0
mturk,0k1tzkzdb7dvx6z9q0nyovde,81,2,2.0,39.0,0.259,1.0,1.0
mturk,0k1tzkzdb7dvx6z9q0nyovde,82,2,2.0,39.0,0.324,1.0,0.0
mturk,0k1tzkzdb7dvx6z9q0nyovde,83,2,2.0,39.0,0.285,1.0,0.0
mturk,0k1tzkzdb7dvx6z9q0nyovde,84,2,1.0,38.0,0.316,0.0,1.0
mturk,0k1tzkzdb7dvx6z9q0nyovde,85,2,1.0,38.0,0.332,0.0,1.0
mturk,0k1tzkzdb7dvx6z9q0nyovde,86,2,1.0,38.0,0.714,0.0,1.0
mturk,0k1tzkzdb7dvx6z9q0nyovde,87,2,1.0,38.0,0.35,0.0,0.0
mturk,0k1tzkzdb7dvx6z9q0nyovde,88,2,1.0,38.0,0.572,0.0,0.0
mturk,0k1tzkzdb7dvx6z9q0nyovde,89,2,2.0,39.0,0.292,1.0,1.0
mturk,0k1tzkzdb7dvx6z9q0nyovde,90,2,2.0,39.0,0.332,1.0,1.0
mturk,0lq9i4x81dgnwglgvgnh34rj,1,1,1.0,38.0,1.619,1.0,1.0
mturk,0lq9i4x81dgnwglgvgnh34rj,2,1,1.0,38.0,0.657,1.0,1.0
mturk,0lq9i4x81dgnwglgvgnh34rj,3,1,1.0,38.0,0.498,1.0,1.0
mturk,0lq9i4x81dgnwglgvgnh34rj,4,1,1.0,38.0,0.442,1.0,0.0
mturk,0lq9i4x81dgnwglgvgnh34rj,5,1,1.0,38.0,0.392,1.0,1.0
mturk,0lq9i4x81dgnwglgvgnh34rj,6,1,1.0,38.0,0.487,1.0,1.0
mturk,0lq9i4x81dgnwglgvgnh34rj,7,1,1.0,38.0,0.674,1.0,0.0
mturk,0lq9i4x81dgnwglgvgnh34rj,8,1,1.0,38.0,0.656,1.0,1.0
mturk,0lq9i4x81dgnwglgvgnh34rj,9,1,1.0,38.0,0.591,1.0,1.0
mturk,0lq9i4x81dgnwglgvgnh34rj,10,1,1.0,38.0,0.464,1.0,0.0
mturk,0lq9i4x81dgnwglgvgnh34rj,11,1,1.0,38.0,0.386,1.0,1.0
mturk,0lq9i4x81dgnwglgvgnh34rj,12,1,1.0,38.0,0.392,1.0,1.0
mturk,0lq9i4x81dgnwglgvgnh34rj,13,1,1.0,38.0,0.377,1.0,1.0
mturk,0lq9i4x81dgnwglgvgnh34rj,14,1,1.0,38.0,0.527,1.0,0.0
mturk,0lq9i4x81dgnwglgvgnh34rj,15,1,1.0,38.0,0.902,1.0,1.0
mturk,0lq9i4x81dgnwglgvgnh34rj,16,0,1.0,38.0,0.295,0.0,0.0
mturk,0lq9i4x81dgnwglgvgnh34rj,17,0,1.0,38.0,0.313,0.0,1.0
mturk,0lq9i4x81dgnwglgvgnh34rj,18,0,1.0,38.0,0.312,0.0,0.0
mturk,0lq9i4x81dgnwglgvgnh34rj,19,0,0.0,37.0,0.098,1.0,1.0
mturk,0lq9i4x81dgnwglgvgnh34rj,20,0,0.0,37.0,0.305,1.0,1.0
mturk,0lq9i4x81dgnwglgvgnh34rj,21,0,0.0,37.0,0.312,1.0,1.0
mturk,0lq9i4x81dgnwglgvgnh34rj,22,0,0.0,37.0,0.304,1.0,0.0
mturk,0lq9i4x81dgnwglgvgnh34rj,23,0,0.0,37.0,0.33,1.0,1.0
mturk,0lq9i4x81dgnwglgvgnh34rj,24,0,0.0,37.0,0.201,1.0,1.0
mturk,0lq9i4x81dgnwglgvgnh34rj,25,0,0.0,37.0,0.329,1.0,1.0
mturk,0lq9i4x81dgnwglgvgnh34rj,26,0,0.0,37.0,0.177,1.0,1.0
mturk,0lq9i4x81dgnwglgvgnh34rj,27,0,0.0,37.0,0.45,1.0,1.0
mturk,0lq9i4x81dgnwglgvgnh34rj,28,0,0.0,37.0,0.369,1.0,1.0
mturk,0lq9i4x81dgnwglgvgnh34rj,29,0,0.0,37.0,0.313,1.0,1.0
mturk,0lq9i4x81dgnwglgvgnh34rj,30,0,0.0,37.0,0.28,1.0,1.0
mturk,0lq9i4x81dgnwglgvgnh34rj,31,1,0.0,37.0,0.322,0.0,0.0
mturk,0lq9i4x81dgnwglgvgnh34rj,32,1,0.0,37.0,0.305,0.0,0.0
mturk,0lq9i4x81dgnwglgvgnh34rj,33,1,2.0,39.0,0.297,0.0,0.0
mturk,0lq9i4x81dgnwglgvgnh34rj,34,1,1.0,38.0,0.16,1.0,1.0
mturk,0lq9i4x81dgnwglgvgnh34rj,35,1,1.0,38.0,0.283,1.0,1.0
mturk,0lq9i4x81dgnwglgvgnh34rj,36,1,1.0,38.0,0.266,1.0,1.0
mturk,0lq9i4x81dgnwglgvgnh34rj,37,1,1.0,38.0,0.337,1.0,0.0
mturk,0lq9i4x81dgnwglgvgnh34rj,38,1,0.0,37.0,0.047,0.0,1.0
mturk,0lq9i4x81dgnwglgvgnh34rj,39,1,0.0,37.0,0.306,0.0,0.0
mturk,0lq9i4x81dgnwglgvgnh34rj,40,1,1.0,38.0,0.03,1.0,0.0
mturk,0lq9i4x81dgnwglgvgnh34rj,41,1,1.0,38.0,0.073,1.0,0.0
mturk,0lq9i4x81dgnwglgvgnh34rj,42,1,0.0,37.0,0.593,0.0,0.0
mturk,0lq9i4x81dgnwglgvgnh34rj,43,1,2.0,39.0,0.055,0.0,0.0
mturk,0lq9i4x81dgnwglgvgnh34rj,44,1,2.0,39.0,0.192,0.0,1.0
mturk,0lq9i4x81dgnwglgvgnh34rj,45,1,2.0,39.0,0.072,0.0,0.0
mturk,0lq9i4x81dgnwglgvgnh34rj,46,2,2.0,39.0,0.321,1.0,1.0
mturk,0lq9i4x81dgnwglgvgnh34rj,47,2,2.0,39.0,0.154,1.0,1.0
mturk,0lq9i4x81dgnwglgvgnh34rj,48,2,2.0,39.0,0.191,1.0,1.0
mturk,0lq9i4x81dgnwglgvgnh34rj,49,2,2.0,39.0,0.008,1.0,1.0
mturk,0lq9i4x81dgnwglgvgnh34rj,50,2,2.0,39.0,0.305,1.0,1.0
mturk,0lq9i4x81dgnwglgvgnh34rj,51,2,2.0,39.0,0.329,1.0,1.0
mturk,0lq9i4x81dgnwglgvgnh34rj,52,2,2.0,39.0,0.105,1.0,1.0
mturk,0lq9i4x81dgnwglgvgnh34rj,53,2,2.0,39.0,0.305,1.0,1.0
mturk,0lq9i4x81dgnwglgvgnh34rj,54,2,2.0,39.0,0.288,1.0,0.0
mturk,0lq9i4x81dgnwglgvgnh34rj,55,2,2.0,39.0,0.313,1.0,1.0
mturk,0lq9i4x81dgnwglgvgnh34rj,56,2,2.0,39.0,0.299,1.0,1.0
mturk,0lq9i4x81dgnwglgvgnh34rj,57,2,2.0,39.0,0.28,1.0,1.0
mturk,0lq9i4x81dgnwglgvgnh34rj,58,2,2.0,39.0,0.256,1.0,1.0
mturk,0lq9i4x81dgnwglgvgnh34rj,59,2,2.0,39.0,0.25,1.0,1.0
mturk,0lq9i4x81dgnwglgvgnh34rj,60,2,2.0,39.0,0.357,1.0,1.0
mturk,0lq9i4x81dgnwglgvgnh34rj,61,0,2.0,39.0,0.337,0.0,1.0
mturk,0lq9i4x81dgnwglgvgnh34rj,62,0,2.0,39.0,0.319,0.0,0.0
mturk,0lq9i4x81dgnwglgvgnh34rj,63,0,2.0,39.0,0.33,0.0,1.0
mturk,0lq9i4x81dgnwglgvgnh34rj,64,0,2.0,39.0,0.279,0.0,0.0
mturk,0lq9i4x81dgnwglgvgnh34rj,65,0,2.0,39.0,0.329,0.0,1.0
mturk,0lq9i4x81dgnwglgvgnh34rj,66,0,2.0,39.0,0.321,0.0,1.0
mturk,0lq9i4x81dgnwglgvgnh34rj,67,0,2.0,39.0,0.321,0.0,0.0
mturk,0lq9i4x81dgnwglgvgnh34rj,68,0,1.0,38.0,0.608,0.0,1.0
mturk,0lq9i4x81dgnwglgvgnh34rj,69,0,1.0,38.0,0.32,0.0,1.0
mturk,0lq9i4x81dgnwglgvgnh34rj,70,0,1.0,38.0,0.289,0.0,0.0
mturk,0lq9i4x81dgnwglgvgnh34rj,71,0,1.0,38.0,0.642,0.0,0.0
mturk,0lq9i4x81dgnwglgvgnh34rj,72,0,2.0,39.0,0.256,0.0,0.0
mturk,0lq9i4x81dgnwglgvgnh34rj,73,0,0.0,37.0,0.361,1.0,0.0
mturk,0lq9i4x81dgnwglgvgnh34rj,74,0,0.0,37.0,0.394,1.0,1.0
mturk,0lq9i4x81dgnwglgvgnh34rj,75,0,0.0,37.0,0.329,1.0,1.0
mturk,0lq9i4x81dgnwglgvgnh34rj,76,1,0.0,37.0,0.32,0.0,0.0
mturk,0lq9i4x81dgnwglgvgnh34rj,77,1,0.0,37.0,0.354,0.0,0.0
mturk,0lq9i4x81dgnwglgvgnh34rj,78,1,1.0,38.0,0.249,1.0,1.0
mturk,0lq9i4x81dgnwglgvgnh34rj,79,1,1.0,38.0,0.303,1.0,1.0
mturk,0lq9i4x81dgnwglgvgnh34rj,80,1,1.0,38.0,0.334,1.0,0.0
mturk,0lq9i4x81dgnwglgvgnh34rj,81,1,2.0,39.0,0.442,0.0,1.0
mturk,0lq9i4x81dgnwglgvgnh34rj,82,1,1.0,38.0,0.456,1.0,0.0
mturk,0lq9i4x81dgnwglgvgnh34rj,83,1,2.0,39.0,0.279,0.0,0.0
mturk,0lq9i4x81dgnwglgvgnh34rj,84,1,2.0,39.0,0.32,0.0,0.0
mturk,0lq9i4x81dgnwglgvgnh34rj,85,1,0.0,37.0,0.307,0.0,0.0
mturk,0lq9i4x81dgnwglgvgnh34rj,86,1,1.0,38.0,0.52,1.0,1.0
mturk,0lq9i4x81dgnwglgvgnh34rj,87,1,1.0,38.0,0.439,1.0,1.0
mturk,0lq9i4x81dgnwglgvgnh34rj,88,1,1.0,38.0,0.346,1.0,1.0
mturk,0lq9i4x81dgnwglgvgnh34rj,89,1,1.0,38.0,0.306,1.0,1.0
mturk,0lq9i4x81dgnwglgvgnh34rj,90,1,1.0,38.0,0.36,1.0,0.0
mturk,19h68mzzzd51m1ysm4jbmlml,1,1,2.0,39.0,9.739,0.0,0.0
mturk,19h68mzzzd51m1ysm4jbmlml,2,1,2.0,39.0,0.301,0.0,0.0
mturk,19h68mzzzd51m1ysm4jbmlml,3,1,0.0,37.0,0.5,0.0,0.0
mturk,19h68mzzzd51m1ysm4jbmlml,4,1,1.0,38.0,0.161,1.0,1.0
mturk,19h68mzzzd51m1ysm4jbmlml,5,1,1.0,38.0,0.703,1.0,1.0
mturk,19h68mzzzd51m1ysm4jbmlml,6,1,0.0,37.0,0.839,0.0,0.0
mturk,19h68mzzzd51m1ysm4jbmlml,7,1,2.0,39.0,0.194,0.0,0.0
mturk,19h68mzzzd51m1ysm4jbmlml,8,1,1.0,38.0,0.194,1.0,1.0
mturk,19h68mzzzd51m1ysm4jbmlml,9,1,1.0,38.0,2.059,1.0,1.0
mturk,19h68mzzzd51m1ysm4jbmlml,10,1,1.0,38.0,1.021,1.0,1.0
mturk,19h68mzzzd51m1ysm4jbmlml,11,1,1.0,38.0,0.407,1.0,1.0
mturk,19h68mzzzd51m1ysm4jbmlml,12,1,1.0,38.0,0.482,1.0,1.0
mturk,19h68mzzzd51m1ysm4jbmlml,13,1,1.0,38.0,0.427,1.0,1.0
mturk,19h68mzzzd51m1ysm4jbmlml,14,1,1.0,38.0,0.423,1.0,1.0
mturk,19h68mzzzd51m1ysm4jbmlml,15,1,1.0,38.0,0.102,1.0,1.0
mturk,19h68mzzzd51m1ysm4jbmlml,16,0,0.0,37.0,1.423,1.0,0.0
mturk,19h68mzzzd51m1ysm4jbmlml,17,0,2.0,39.0,0.664,0.0,0.0
mturk,19h68mzzzd51m1ysm4jbmlml,18,0,1.0,38.0,0.174,0.0,0.0
mturk,19h68mzzzd51m1ysm4jbmlml,19,0,0.0,37.0,0.389,1.0,1.0
mturk,19h68mzzzd51m1ysm4jbmlml,20,0,0.0,37.0,0.303,1.0,1.0
mturk,19h68mzzzd51m1ysm4jbmlml,21,0,0.0,37.0,0.214,1.0,1.0
mturk,19h68mzzzd51m1ysm4jbmlml,22,0,0.0,37.0,0.616,1.0,0.0
mturk,19h68mzzzd51m1ysm4jbmlml,23,0,2.0,39.0,0.004,0.0,1.0
mturk,19h68mzzzd51m1ysm4jbmlml,24,0,2.0,39.0,0.325,0.0,0.0
mturk,19h68mzzzd51m1ysm4jbmlml,25,0,0.0,37.0,0.476,1.0,1.0
mturk,19h68mzzzd51m1ysm4jbmlml,26,0,0.0,37.0,0.716,1.0,1.0
mturk,19h68mzzzd51m1ysm4jbmlml,27,0,0.0,37.0,1.944,1.0,1.0
mturk,19h68mzzzd51m1ysm4jbmlml,28,0,0.0,37.0,1.283,1.0,1.0
mturk,19h68mzzzd51m1ysm4jbmlml,29,0,0.0,37.0,1.186,1.0,1.0
mturk,19h68mzzzd51m1ysm4jbmlml,30,0,0.0,37.0,1.586,1.0,1.0
mturk,19h68mzzzd51m1ysm4jbmlml,31,2,0.0,37.0,1.046,0.0,0.0
mturk,19h68mzzzd51m1ysm4jbmlml,32,2,2.0,39.0,0.009,1.0,1.0
mturk,19h68mzzzd51m1ysm4jbmlml,33,2,2.0,39.0,0.803,1.0,0.0
mturk,19h68mzzzd51m1ysm4jbmlml,34,2,1.0,38.0,0.349,0.0,1.0
mturk,19h68mzzzd51m1ysm4jbmlml,35,2,1.0,38.0,0.558,0.0,0.0
mturk,19h68mzzzd51m1ysm4jbmlml,36,2,0.0,37.0,0.435,0.0,0.0
mturk,19h68mzzzd51m1ysm4jbmlml,37,2,2.0,39.0,0.067,1.0,1.0
mturk,19h68mzzzd51m1ysm4jbmlml,38,2,2.0,39.0,8.644,1.0,1.0
mturk,19h68mzzzd51m1ysm4jbmlml,39,2,2.0,39.0,1.014,1.0,1.0
mturk,19h68mzzzd51m1ysm4jbmlml,40,2,2.0,39.0,2.221,1.0,0.0
mturk,19h68mzzzd51m1ysm4jbmlml,41,2,1.0,38.0,0.492,0.0,0.0
mturk,19h68mzzzd51m1ysm4jbmlml,42,2,0.0,37.0,1.002,0.0,0.0
mturk,19h68mzzzd51m1ysm4jbmlml,43,2,2.0,39.0,0.705,1.0,1.0
mturk,19h68mzzzd51m1ysm4jbmlml,44,2,2.0,39.0,1.342,1.0,1.0
mturk,19h68mzzzd51m1ysm4jbmlml,45,2,2.0,39.0,0.763,1.0,1.0
mturk,19h68mzzzd51m1ysm4jbmlml,46,0,2.0,39.0,0.894,0.0,0.0
mturk,19h68mzzzd51m1ysm4jbmlml,47,0,0.0,37.0,0.866,1.0,1.0
mturk,19h68mzzzd51m1ysm4jbmlml,48,0,0.0,37.0,0.779,1.0,1.0
mturk,19h68mzzzd51m1ysm4jbmlml,49,0,0.0,37.0,0.718,1.0,1.0
mturk,19h68mzzzd51m1ysm4jbmlml,50,0,0.0,37.0,6.476,1.0,1.0
mturk,19h68mzzzd51m1ysm4jbmlml,51,0,0.0,37.0,0.981,1.0,1.0
mturk,19h68mzzzd51m1ysm4jbmlml,52,0,0.0,37.0,0.909,1.0,0.0
mturk,19h68mzzzd51m1ysm4jbmlml,53,0,2.0,39.0,1.48,0.0,0.0
mturk,19h68mzzzd51m1ysm4jbmlml,54,0,1.0,38.0,1.85,0.0,0.0
mturk,19h68mzzzd51m1ysm4jbmlml,55,0,0.0,37.0,0.649,1.0,1.0
mturk,19h68mzzzd51m1ysm4jbmlml,56,0,0.0,37.0,0.873,1.0,0.0
mturk,19h68mzzzd51m1ysm4jbmlml,57,0,2.0,39.0,0.646,0.0,0.0
mturk,19h68mzzzd51m1ysm4jbmlml,58,0,2.0,39.0,9.908,0.0,1.0
mturk,19h68mzzzd51m1ysm4jbmlml,59,0,2.0,39.0,0.492,0.0,0.0
mturk,19h68mzzzd51m1ysm4jbmlml,60,0,0.0,37.0,0.073,1.0,1.0
mturk,19h68mzzzd51m1ysm4jbmlml,61,2,1.0,38.0,0.375,0.0,0.0
mturk,19h68mzzzd51m1ysm4jbmlml,62,2,0.0,37.0,0.341,0.0,0.0
mturk,19h68mzzzd51m1ysm4jbmlml,63,2,2.0,39.0,0.769,1.0,1.0
mturk,19h68mzzzd51m1ysm4jbmlml,64,2,2.0,39.0,0.579,1.0,1.0
mturk,19h68mzzzd51m1ysm4jbmlml,65,2,2.0,39.0,0.816,1.0,1.0
mturk,19h68mzzzd51m1ysm4jbmlml,66,2,2.0,39.0,0.928,1.0,1.0
mturk,19h68mzzzd51m1ysm4jbmlml,67,2,2.0,39.0,0.759,1.0,1.0
mturk,19h68mzzzd51m1ysm4jbmlml,68,2,2.0,39.0,1.024,1.0,1.0
mturk,19h68mzzzd51m1ysm4jbmlml,69,2,2.0,39.0,0.655,1.0,0.0
mturk,19h68mzzzd51m1ysm4jbmlml,70,2,0.0,37.0,1.067,0.0,0.0
mturk,19h68mzzzd51m1ysm4jbmlml,71,2,1.0,38.0,0.933,0.0,0.0
mturk,19h68mzzzd51m1ysm4jbmlml,72,2,2.0,39.0,0.334,1.0,1.0
mturk,19h68mzzzd51m1ysm4jbmlml,73,2,2.0,39.0,1.792,1.0,0.0
mturk,19h68mzzzd51m1ysm4jbmlml,74,2,2.0,39.0,1.593,1.0,1.0
mturk,19h68mzzzd51m1ysm4jbmlml,75,2,2.0,39.0,0.801,1.0,1.0
mturk,19h68mzzzd51m1ysm4jbmlml,76,0,2.0,39.0,0.648,0.0,0.0
mturk,19h68mzzzd51m1ysm4jbmlml,77,0,2.0,39.0,1.035,0.0,0.0
mturk,19h68mzzzd51m1ysm4jbmlml,78,0,2.0,39.0,0.25,0.0,0.0
mturk,19h68mzzzd51m1ysm4jbmlml,79,0,0.0,37.0,0.539,1.0,1.0
mturk,19h68mzzzd51m1ysm4jbmlml,80,0,0.0,37.0,0.695,1.0,1.0
mturk,19h68mzzzd51m1ysm4jbmlml,81,0,0.0,37.0,1.134,1.0,1.0
mturk,19h68mzzzd51m1ysm4jbmlml,82,0,0.0,37.0,0.401,1.0,1.0
mturk,19h68mzzzd51m1ysm4jbmlml,83,0,0.0,37.0,0.969,1.0,0.0
mturk,19h68mzzzd51m1ysm4jbmlml,84,0,1.0,38.0,0.145,0.0,1.0
mturk,19h68mzzzd51m1ysm4jbmlml,85,0,1.0,38.0,0.636,0.0,1.0
mturk,19h68mzzzd51m1ysm4jbmlml,86,0,1.0,38.0,0.064,0.0,0.0
mturk,19h68mzzzd51m1ysm4jbmlml,87,0,2.0,39.0,1.38,0.0,0.0
mturk,19h68mzzzd51m1ysm4jbmlml,88,0,0.0,37.0,1.038,1.0,1.0
mturk,19h68mzzzd51m1ysm4jbmlml,89,0,0.0,37.0,0.204,1.0,1.0
mturk,19h68mzzzd51m1ysm4jbmlml,90,0,0.0,37.0,0.262,1.0,1.0
mturk,1bkivj7fl2s7bnshyc0xs9xo,1,1,0.0,37.0,3.117,0.0,0.0
mturk,1bkivj7fl2s7bnshyc0xs9xo,2,1,2.0,39.0,0.15,0.0,0.0
mturk,1bkivj7fl2s7bnshyc0xs9xo,3,1,0.0,37.0,1.642,0.0,0.0
mturk,1bkivj7fl2s7bnshyc0xs9xo,4,1,1.0,38.0,0.442,1.0,1.0
mturk,1bkivj7fl2s7bnshyc0xs9xo,5,1,1.0,38.0,0.458,1.0,1.0
mturk,1bkivj7fl2s7bnshyc0xs9xo,6,1,1.0,38.0,0.157,1.0,1.0
mturk,1bkivj7fl2s7bnshyc0xs9xo,7,1,1.0,38.0,0.664,1.0,1.0
mturk,1bkivj7fl2s7bnshyc0xs9xo,8,1,1.0,38.0,0.203,1.0,1.0
mturk,1bkivj7fl2s7bnshyc0xs9xo,9,1,1.0,38.0,0.82,1.0,1.0
mturk,1bkivj7fl2s7bnshyc0xs9xo,10,1,1.0,38.0,0.126,1.0,1.0
mturk,1bkivj7fl2s7bnshyc0xs9xo,11,1,1.0,38.0,0.226,1.0,1.0
mturk,1bkivj7fl2s7bnshyc0xs9xo,12,1,1.0,38.0,0.207,1.0,1.0
mturk,1bkivj7fl2s7bnshyc0xs9xo,13,1,1.0,38.0,0.343,1.0,1.0
mturk,1bkivj7fl2s7bnshyc0xs9xo,14,1,1.0,38.0,0.291,1.0,1.0
mturk,1bkivj7fl2s7bnshyc0xs9xo,15,1,1.0,38.0,0.15,1.0,1.0
mturk,1bkivj7fl2s7bnshyc0xs9xo,16,2,1.0,38.0,0.122,0.0,1.0
mturk,1bkivj7fl2s7bnshyc0xs9xo,17,2,1.0,38.0,0.201,0.0,0.0
mturk,1bkivj7fl2s7bnshyc0xs9xo,18,2,1.0,38.0,0.111,0.0,0.0
mturk,1bkivj7fl2s7bnshyc0xs9xo,19,2,2.0,39.0,0.168,1.0,1.0
mturk,1bkivj7fl2s7bnshyc0xs9xo,20,2,2.0,39.0,0.253,1.0,1.0
mturk,1bkivj7fl2s7bnshyc0xs9xo,21,2,2.0,39.0,0.348,1.0,1.0
mturk,1bkivj7fl2s7bnshyc0xs9xo,22,2,2.0,39.0,0.099,1.0,1.0
mturk,1bkivj7fl2s7bnshyc0xs9xo,23,2,2.0,39.0,0.723,1.0,0.0
mturk,1bkivj7fl2s7bnshyc0xs9xo,24,2,0.0,37.0,0.076,0.0,0.0
mturk,1bkivj7fl2s7bnshyc0xs9xo,25,2,1.0,38.0,0.02,0.0,1.0
mturk,1bkivj7fl2s7bnshyc0xs9xo,26,2,1.0,38.0,0.406,0.0,0.0
mturk,1bkivj7fl2s7bnshyc0xs9xo,27,2,2.0,39.0,0.245,1.0,1.0
mturk,1bkivj7fl2s7bnshyc0xs9xo,28,2,0.0,37.0,0.055,0.0,0.0
mturk,1bkivj7fl2s7bnshyc0xs9xo,29,2,0.0,37.0,0.169,0.0,0.0
mturk,1bkivj7fl2s7bnshyc0xs9xo,30,2,1.0,38.0,0.031,0.0,0.0
mturk,1bkivj7fl2s7bnshyc0xs9xo,31,0,2.0,39.0,0.494,0.0,0.0
mturk,1bkivj7fl2s7bnshyc0xs9xo,32,0,1.0,38.0,0.462,0.0,0.0
mturk,1bkivj7fl2s7bnshyc0xs9xo,33,0,2.0,39.0,0.412,0.0,0.0
mturk,1bkivj7fl2s7bnshyc0xs9xo,34,0,0.0,37.0,1.331,1.0,1.0
mturk,1bkivj7fl2s7bnshyc0xs9xo,35,0,0.0,37.0,0.285,1.0,1.0
mturk,1bkivj7fl2s7bnshyc0xs9xo,36,0,0.0,37.0,0.355,1.0,1.0
mturk,1bkivj7fl2s7bnshyc0xs9xo,37,0,0.0,37.0,0.009,1.0,1.0
mturk,1bkivj7fl2s7bnshyc0xs9xo,38,0,0.0,37.0,7.494,1.0,1.0
mturk,1bkivj7fl2s7bnshyc0xs9xo,39,0,0.0,37.0,0.693,1.0,1.0
mturk,1bkivj7fl2s7bnshyc0xs9xo,40,0,0.0,37.0,0.115,1.0,0.0
mturk,1bkivj7fl2s7bnshyc0xs9xo,41,0,0.0,37.0,0.673,1.0,1.0
mturk,1bkivj7fl2s7bnshyc0xs9xo,42,0,0.0,37.0,0.447,1.0,1.0
mturk,1bkivj7fl2s7bnshyc0xs9xo,43,0,0.0,37.0,0.268,1.0,1.0
mturk,1bkivj7fl2s7bnshyc0xs9xo,44,0,0.0,37.0,0.364,1.0,0.0
mturk,1bkivj7fl2s7bnshyc0xs9xo,45,0,2.0,39.0,0.2,0.0,0.0
mturk,1bkivj7fl2s7bnshyc0xs9xo,46,2,1.0,38.0,1.296,0.0,0.0
mturk,1bkivj7fl2s7bnshyc0xs9xo,47,2,2.0,39.0,0.029,1.0,0.0
mturk,1bkivj7fl2s7bnshyc0xs9xo,48,2,0.0,37.0,0.852,0.0,0.0
mturk,1bkivj7fl2s7bnshyc0xs9xo,49,2,1.0,38.0,0.003,0.0,1.0
mturk,1bkivj7fl2s7bnshyc0xs9xo,50,2,1.0,38.0,0.313,0.0,1.0
mturk,1bkivj7fl2s7bnshyc0xs9xo,51,2,1.0,38.0,0.12,0.0,0.0
mturk,1bkivj7fl2s7bnshyc0xs9xo,52,2,2.0,39.0,0.485,1.0,1.0
mturk,1bkivj7fl2s7bnshyc0xs9xo,53,2,2.0,39.0,0.033,1.0,1.0
mturk,1bkivj7fl2s7bnshyc0xs9xo,54,2,2.0,39.0,0.258,1.0,1.0
mturk,1bkivj7fl2s7bnshyc0xs9xo,55,2,2.0,39.0,0.238,1.0,1.0
mturk,1bkivj7fl2s7bnshyc0xs9xo,56,2,2.0,39.0,0.233,1.0,1.0
mturk,1bkivj7fl2s7bnshyc0xs9xo,57,2,2.0,39.0,0.07,1.0,1.0
mturk,1bkivj7fl2s7bnshyc0xs9xo,58,2,2.0,39.0,2.741,1.0,1.0
mturk,1bkivj7fl2s7bnshyc0xs9xo,59,2,2.0,39.0,0.367,1.0,1.0
mturk,1bkivj7fl2s7bnshyc0xs9xo,60,2,2.0,39.0,0.286,1.0,1.0
mturk,1bkivj7fl2s7bnshyc0xs9xo,61,0,2.0,39.0,0.04,0.0,1.0
mturk,1bkivj7fl2s7bnshyc0xs9xo,62,0,2.0,39.0,0.085,0.0,0.0
mturk,1bkivj7fl2s7bnshyc0xs9xo,63,0,0.0,37.0,0.068,1.0,1.0
mturk,1bkivj7fl2s7bnshyc0xs9xo,64,0,0.0,37.0,0.508,1.0,1.0
mturk,1bkivj7fl2s7bnshyc0xs9xo,65,0,0.0,37.0,0.247,1.0,1.0
mturk,1bkivj7fl2s7bnshyc0xs9xo,66,0,0.0,37.0,0.175,1.0,1.0
mturk,1bkivj7fl2s7bnshyc0xs9xo,67,0,0.0,37.0,0.06,1.0,1.0
mturk,1bkivj7fl2s7bnshyc0xs9xo,68,0,0.0,37.0,6.346,1.0,1.0
mturk,1bkivj7fl2s7bnshyc0xs9xo,69,0,0.0,37.0,0.351,1.0,1.0
mturk,1bkivj7fl2s7bnshyc0xs9xo,70,0,0.0,37.0,1.43,1.0,1.0
mturk,1bkivj7fl2s7bnshyc0xs9xo,71,0,0.0,37.0,0.251,1.0,1.0
mturk,1bkivj7fl2s7bnshyc0xs9xo,72,0,0.0,37.0,0.121,1.0,1.0
mturk,1bkivj7fl2s7bnshyc0xs9xo,73,0,0.0,37.0,0.49,1.0,1.0
mturk,1bkivj7fl2s7bnshyc0xs9xo,74,0,0.0,37.0,0.171,1.0,1.0
mturk,1bkivj7fl2s7bnshyc0xs9xo,75,0,0.0,37.0,0.11,1.0,1.0
mturk,1bkivj7fl2s7bnshyc0xs9xo,76,2,0.0,37.0,0.27,0.0,0.0
mturk,1bkivj7fl2s7bnshyc0xs9xo,77,2,2.0,39.0,0.183,1.0,1.0
mturk,1bkivj7fl2s7bnshyc0xs9xo,78,2,2.0,39.0,0.057,1.0,1.0
mturk,1bkivj7fl2s7bnshyc0xs9xo,79,2,2.0,39.0,0.079,1.0,0.0
mturk,1bkivj7fl2s7bnshyc0xs9xo,80,2,2.0,39.0,0.212,1.0,0.0
mturk,1bkivj7fl2s7bnshyc0xs9xo,81,2,0.0,37.0,1.791,0.0,0.0
mturk,1bkivj7fl2s7bnshyc0xs9xo,82,2,1.0,38.0,0.16,0.0,0.0
mturk,1bkivj7fl2s7bnshyc0xs9xo,83,2,2.0,39.0,1.27,1.0,0.0
mturk,1bkivj7fl2s7bnshyc0xs9xo,84,2,0.0,37.0,1.486,0.0,1.0
mturk,1bkivj7fl2s7bnshyc0xs9xo,85,2,0.0,37.0,0.456,0.0,0.0
mturk,1bkivj7fl2s7bnshyc0xs9xo,86,2,1.0,38.0,0.322,0.0,1.0
mturk,1bkivj7fl2s7bnshyc0xs9xo,87,2,1.0,38.0,0.121,0.0,0.0
mturk,1bkivj7fl2s7bnshyc0xs9xo,88,2,1.0,38.0,0.126,0.0,0.0
mturk,1bkivj7fl2s7bnshyc0xs9xo,89,2,2.0,39.0,0.269,1.0,1.0
mturk,1bkivj7fl2s7bnshyc0xs9xo,90,2,2.0,39.0,0.145,1.0,1.0
mturk,1dhmst23cwb07eov3r1qc7i1,1,1,2.0,39.0,1.223,0.0,0.0
mturk,1dhmst23cwb07eov3r1qc7i1,2,1,0.0,37.0,1.174,0.0,1.0
mturk,1dhmst23cwb07eov3r1qc7i1,3,1,1.0,38.0,2.162,1.0,1.0
mturk,1dhmst23cwb07eov3r1qc7i1,4,1,0.0,37.0,1.703,0.0,0.0
mturk,1dhmst23cwb07eov3r1qc7i1,5,1,1.0,38.0,1.177,1.0,1.0
mturk,1dhmst23cwb07eov3r1qc7i1,6,1,2.0,39.0,1.329,0.0,0.0
mturk,1dhmst23cwb07eov3r1qc7i1,7,1,1.0,38.0,1.118,1.0,1.0
mturk,1dhmst23cwb07eov3r1qc7i1,8,1,2.0,39.0,1.669,0.0,0.0
mturk,1dhmst23cwb07eov3r1qc7i1,9,1,0.0,37.0,1.135,0.0,0.0
mturk,1dhmst23cwb07eov3r1qc7i1,10,1,1.0,38.0,0.996,1.0,1.0
mturk,1dhmst23cwb07eov3r1qc7i1,11,1,2.0,39.0,0.702,0.0,1.0
mturk,1dhmst23cwb07eov3r1qc7i1,12,1,1.0,38.0,2.209,1.0,1.0
mturk,1dhmst23cwb07eov3r1qc7i1,13,1,2.0,39.0,1.457,0.0,0.0
mturk,1dhmst23cwb07eov3r1qc7i1,14,1,0.0,37.0,2.841,0.0,0.0
mturk,1dhmst23cwb07eov3r1qc7i1,15,1,1.0,38.0,0.906,1.0,1.0
mturk,1dhmst23cwb07eov3r1qc7i1,16,2,2.0,39.0,0.878,1.0,1.0
mturk,1dhmst23cwb07eov3r1qc7i1,17,2,1.0,38.0,0.849,0.0,0.0
mturk,1dhmst23cwb07eov3r1qc7i1,18,2,2.0,39.0,0.729,1.0,1.0
mturk,1dhmst23cwb07eov3r1qc7i1,19,2,1.0,38.0,2.29,0.0,0.0
mturk,1dhmst23cwb07eov3r1qc7i1,20,2,0.0,37.0,1.293,0.0,1.0
mturk,1dhmst23cwb07eov3r1qc7i1,21,2,2.0,39.0,0.781,1.0,1.0
mturk,1dhmst23cwb07eov3r1qc7i1,22,2,1.0,38.0,1.061,0.0,0.0
mturk,1dhmst23cwb07eov3r1qc7i1,23,2,0.0,37.0,0.816,0.0,0.0
mturk,1dhmst23cwb07eov3r1qc7i1,24,2,2.0,39.0,0.776,1.0,1.0
mturk,1dhmst23cwb07eov3r1qc7i1,25,2,1.0,38.0,0.517,0.0,0.0
mturk,1dhmst23cwb07eov3r1qc7i1,26,2,0.0,37.0,0.707,0.0,0.0
mturk,1dhmst23cwb07eov3r1qc7i1,27,2,2.0,39.0,0.602,1.0,1.0
mturk,1dhmst23cwb07eov3r1qc7i1,28,2,1.0,38.0,1.1,0.0,0.0
mturk,1dhmst23cwb07eov3r1qc7i1,29,2,2.0,39.0,0.662,1.0,0.0
mturk,1dhmst23cwb07eov3r1qc7i1,30,2,0.0,37.0,0.799,0.0,1.0
mturk,1dhmst23cwb07eov3r1qc7i1,31,1,1.0,38.0,0.625,1.0,1.0
mturk,1dhmst23cwb07eov3r1qc7i1,32,1,2.0,39.0,1.127,0.0,0.0
mturk,1dhmst23cwb07eov3r1qc7i1,33,1,1.0,38.0,0.646,1.0,1.0
mturk,1dhmst23cwb07eov3r1qc7i1,34,1,2.0,39.0,0.843,0.0,0.0
mturk,1dhmst23cwb07eov3r1qc7i1,35,1,0.0,37.0,0.786,0.0,0.0
mturk,1dhmst23cwb07eov3r1qc7i1,36,1,1.0,38.0,1.3,1.0,1.0
mturk,1dhmst23cwb07eov3r1qc7i1,37,1,2.0,39.0,0.648,0.0,0.0
mturk,1dhmst23cwb07eov3r1qc7i1,38,1,1.0,38.0,0.929,1.0,1.0
mturk,1dhmst23cwb07eov3r1qc7i1,39,1,0.0,37.0,0.683,0.0,0.0
mturk,1dhmst23cwb07eov3r1qc7i1,40,1,1.0,38.0,0.98,1.0,1.0
mturk,1dhmst23cwb07eov3r1qc7i1,41,1,0.0,37.0,0.758,0.0,0.0
mturk,1dhmst23cwb07eov3r1qc7i1,42,1,2.0,39.0,0.909,0.0,0.0
mturk,1dhmst23cwb07eov3r1qc7i1,43,1,0.0,37.0,0.102,0.0,1.0
mturk,1dhmst23cwb07eov3r1qc7i1,44,1,1.0,38.0,0.705,1.0,1.0
mturk,1dhmst23cwb07eov3r1qc7i1,45,1,2.0,39.0,1.228,0.0,0.0
mturk,1dhmst23cwb07eov3r1qc7i1,46,2,0.0,37.0,0.486,0.0,0.0
mturk,1dhmst23cwb07eov3r1qc7i1,47,2,2.0,39.0,0.081,1.0,1.0
mturk,1dhmst23cwb07eov3r1qc7i1,48,2,1.0,38.0,0.217,0.0,0.0
mturk,1dhmst23cwb07eov3r1qc7i1,49,2,2.0,39.0,0.773,1.0,0.0
mturk,1dhmst23cwb07eov3r1qc7i1,50,2,0.0,37.0,1.25,0.0,0.0
mturk,1dhmst23cwb07eov3r1qc7i1,51,2,1.0,38.0,0.251,0.0,0.0
mturk,1dhmst23cwb07eov3r1qc7i1,52,2,2.0,39.0,1.109,1.0,1.0
mturk,1dhmst23cwb07eov3r1qc7i1,53,2,0.0,37.0,0.974,0.0,0.0
mturk,1dhmst23cwb07eov3r1qc7i1,54,2,1.0,38.0,0.991,0.0,0.0
mturk,1dhmst23cwb07eov3r1qc7i1,55,2,2.0,39.0,0.654,1.0,1.0
mturk,1dhmst23cwb07eov3r1qc7i1,56,2,2.0,39.0,0.873,1.0,1.0
mturk,1dhmst23cwb07eov3r1qc7i1,57,2,2.0,39.0,0.833,1.0,1.0
mturk,1dhmst23cwb07eov3r1qc7i1,58,2,0.0,37.0,0.859,0.0,0.0
mturk,1dhmst23cwb07eov3r1qc7i1,59,2,2.0,39.0,0.994,1.0,1.0
mturk,1dhmst23cwb07eov3r1qc7i1,60,2,1.0,38.0,0.825,0.0,0.0
mturk,1dhmst23cwb07eov3r1qc7i1,61,0,2.0,39.0,0.686,0.0,0.0
mturk,1dhmst23cwb07eov3r1qc7i1,62,0,0.0,37.0,0.24,1.0,0.0
mturk,1dhmst23cwb07eov3r1qc7i1,63,0,1.0,38.0,0.041,0.0,0.0
mturk,1dhmst23cwb07eov3r1qc7i1,64,0,2.0,39.0,1.17,0.0,0.0
mturk,1dhmst23cwb07eov3r1qc7i1,65,0,0.0,37.0,0.148,1.0,0.0
mturk,1dhmst23cwb07eov3r1qc7i1,66,0,2.0,39.0,0.472,0.0,0.0
mturk,1dhmst23cwb07eov3r1qc7i1,67,0,1.0,38.0,0.591,0.0,0.0
mturk,1dhmst23cwb07eov3r1qc7i1,68,0,0.0,37.0,0.506,1.0,1.0
mturk,1dhmst23cwb07eov3r1qc7i1,69,0,0.0,37.0,0.848,1.0,1.0
mturk,1dhmst23cwb07eov3r1qc7i1,70,0,0.0,37.0,0.703,1.0,1.0
mturk,1dhmst23cwb07eov3r1qc7i1,71,0,0.0,37.0,0.783,1.0,1.0
mturk,1dhmst23cwb07eov3r1qc7i1,72,0,0.0,37.0,1.33,1.0,1.0
mturk,1dhmst23cwb07eov3r1qc7i1,73,0,0.0,37.0,1.2,1.0,1.0
mturk,1dhmst23cwb07eov3r1qc7i1,74,0,0.0,37.0,1.08,1.0,1.0
mturk,1dhmst23cwb07eov3r1qc7i1,75,0,1.0,38.0,0.87,0.0,1.0
mturk,1dhmst23cwb07eov3r1qc7i1,76,2,0.0,37.0,0.79,0.0,0.0
mturk,1dhmst23cwb07eov3r1qc7i1,77,2,1.0,38.0,0.512,0.0,0.0
mturk,1dhmst23cwb07eov3r1qc7i1,78,2,2.0,39.0,0.93,1.0,0.0
mturk,1dhmst23cwb07eov3r1qc7i1,79,2,0.0,37.0,0.423,0.0,0.0
mturk,1dhmst23cwb07eov3r1qc7i1,80,2,1.0,38.0,1.557,0.0,0.0
mturk,1dhmst23cwb07eov3r1qc7i1,81,2,2.0,39.0,0.746,1.0,1.0
mturk,1dhmst23cwb07eov3r1qc7i1,82,2,2.0,39.0,0.745,1.0,0.0
mturk,1dhmst23cwb07eov3r1qc7i1,83,2,0.0,37.0,1.041,0.0,1.0
mturk,1dhmst23cwb07eov3r1qc7i1,84,2,0.0,37.0,0.625,0.0,0.0
mturk,1dhmst23cwb07eov3r1qc7i1,85,2,1.0,38.0,0.243,0.0,1.0
mturk,1dhmst23cwb07eov3r1qc7i1,86,2,1.0,38.0,0.644,0.0,0.0
mturk,1dhmst23cwb07eov3r1qc7i1,87,2,0.0,37.0,0.041,0.0,0.0
mturk,1dhmst23cwb07eov3r1qc7i1,88,2,2.0,39.0,1.183,1.0,1.0
mturk,1dhmst23cwb07eov3r1qc7i1,89,2,2.0,39.0,0.707,1.0,1.0
mturk,1dhmst23cwb07eov3r1qc7i1,90,2,2.0,39.0,0.72,1.0,1.0
mturk,1emkh8fj8n8ujo3jfrrswpna,1,1,1.0,38.0,5.607,1.0,0.0
mturk,1emkh8fj8n8ujo3jfrrswpna,2,1,0.0,37.0,2.16,0.0,1.0
mturk,1emkh8fj8n8ujo3jfrrswpna,3,1,0.0,37.0,0.901,0.0,1.0
mturk,1emkh8fj8n8ujo3jfrrswpna,4,1,0.0,37.0,0.658,0.0,0.0
mturk,1emkh8fj8n8ujo3jfrrswpna,5,1,0.0,37.0,1.023,0.0,0.0
mturk,1emkh8fj8n8ujo3jfrrswpna,6,1,0.0,37.0,0.831,0.0,0.0
mturk,1emkh8fj8n8ujo3jfrrswpna,7,1,0.0,37.0,0.728,0.0,0.0
mturk,1emkh8fj8n8ujo3jfrrswpna,8,1,2.0,39.0,0.446,0.0,0.0
mturk,1emkh8fj8n8ujo3jfrrswpna,9,1,0.0,37.0,0.41,0.0,1.0
mturk,1emkh8fj8n8ujo3jfrrswpna,10,1,0.0,37.0,0.605,0.0,0.0
mturk,1emkh8fj8n8ujo3jfrrswpna,11,1,1.0,38.0,0.506,1.0,1.0
mturk,1emkh8fj8n8ujo3jfrrswpna,12,1,1.0,38.0,0.578,1.0,1.0
mturk,1emkh8fj8n8ujo3jfrrswpna,13,1,1.0,38.0,0.48,1.0,1.0
mturk,1emkh8fj8n8ujo3jfrrswpna,14,1,1.0,38.0,0.671,1.0,1.0
mturk,1emkh8fj8n8ujo3jfrrswpna,15,1,1.0,38.0,0.419,1.0,1.0
mturk,1emkh8fj8n8ujo3jfrrswpna,16,2,1.0,38.0,0.453,0.0,0.0
mturk,1emkh8fj8n8ujo3jfrrswpna,17,2,2.0,39.0,0.38,1.0,1.0
mturk,1emkh8fj8n8ujo3jfrrswpna,18,2,2.0,39.0,0.441,1.0,1.0
mturk,1emkh8fj8n8ujo3jfrrswpna,19,2,2.0,39.0,0.433,1.0,1.0
mturk,1emkh8fj8n8ujo3jfrrswpna,20,2,2.0,39.0,0.421,1.0,1.0
mturk,1emkh8fj8n8ujo3jfrrswpna,21,2,2.0,39.0,0.41,1.0,1.0
mturk,1emkh8fj8n8ujo3jfrrswpna,22,2,2.0,39.0,0.352,1.0,1.0
mturk,1emkh8fj8n8ujo3jfrrswpna,23,2,2.0,39.0,0.409,1.0,1.0
mturk,1emkh8fj8n8ujo3jfrrswpna,24,2,2.0,39.0,0.379,1.0,1.0
mturk,1emkh8fj8n8ujo3jfrrswpna,25,2,2.0,39.0,0.744,1.0,1.0
mturk,1emkh8fj8n8ujo3jfrrswpna,26,2,2.0,39.0,0.949,1.0,1.0
mturk,1emkh8fj8n8ujo3jfrrswpna,27,2,2.0,39.0,0.468,1.0,1.0
mturk,1emkh8fj8n8ujo3jfrrswpna,28,2,2.0,39.0,0.535,1.0,0.0
mturk,1emkh8fj8n8ujo3jfrrswpna,29,2,1.0,38.0,0.315,0.0,0.0
mturk,1emkh8fj8n8ujo3jfrrswpna,30,2,0.0,37.0,0.642,0.0,0.0
mturk,1emkh8fj8n8ujo3jfrrswpna,31,1,1.0,38.0,0.429,1.0,1.0
mturk,1emkh8fj8n8ujo3jfrrswpna,32,1,1.0,38.0,0.517,1.0,1.0
mturk,1emkh8fj8n8ujo3jfrrswpna,33,1,1.0,38.0,0.471,1.0,0.0
mturk,1emkh8fj8n8ujo3jfrrswpna,34,1,2.0,39.0,0.413,0.0,0.0
mturk,1emkh8fj8n8ujo3jfrrswpna,35,1,2.0,39.0,0.54,0.0,0.0
mturk,1emkh8fj8n8ujo3jfrrswpna,36,1,1.0,38.0,0.394,1.0,1.0
mturk,1emkh8fj8n8ujo3jfrrswpna,37,1,1.0,38.0,1.504,1.0,1.0
mturk,1emkh8fj8n8ujo3jfrrswpna,38,1,1.0,38.0,0.742,1.0,1.0
mturk,1emkh8fj8n8ujo3jfrrswpna,39,1,1.0,38.0,0.287,1.0,1.0
mturk,1emkh8fj8n8ujo3jfrrswpna,40,1,1.0,38.0,0.317,1.0,1.0
mturk,1emkh8fj8n8ujo3jfrrswpna,41,1,1.0,38.0,0.27,1.0,1.0
mturk,1emkh8fj8n8ujo3jfrrswpna,42,1,1.0,38.0,0.456,1.0,1.0
mturk,1emkh8fj8n8ujo3jfrrswpna,43,1,1.0,38.0,0.479,1.0,1.0
mturk,1emkh8fj8n8ujo3jfrrswpna,44,1,1.0,38.0,0.371,1.0,1.0
mturk,1emkh8fj8n8ujo3jfrrswpna,45,1,1.0,38.0,0.286,1.0,0.0
mturk,1emkh8fj8n8ujo3jfrrswpna,46,2,2.0,39.0,0.243,1.0,0.0
mturk,1emkh8fj8n8ujo3jfrrswpna,47,2,2.0,39.0,0.358,1.0,0.0
mturk,1emkh8fj8n8ujo3jfrrswpna,48,2,0.0,37.0,0.036,0.0,1.0
mturk,1emkh8fj8n8ujo3jfrrswpna,49,2,0.0,37.0,0.367,0.0,1.0
mturk,1emkh8fj8n8ujo3jfrrswpna,50,2,0.0,37.0,0.399,0.0,0.0
mturk,1emkh8fj8n8ujo3jfrrswpna,51,2,2.0,39.0,0.385,1.0,1.0
mturk,1emkh8fj8n8ujo3jfrrswpna,52,2,2.0,39.0,0.334,1.0,0.0
mturk,1emkh8fj8n8ujo3jfrrswpna,53,2,1.0,38.0,0.32,0.0,0.0
mturk,1emkh8fj8n8ujo3jfrrswpna,54,2,2.0,39.0,0.431,1.0,1.0
mturk,1emkh8fj8n8ujo3jfrrswpna,55,2,2.0,39.0,0.471,1.0,1.0
mturk,1emkh8fj8n8ujo3jfrrswpna,56,2,2.0,39.0,0.491,1.0,1.0
mturk,1emkh8fj8n8ujo3jfrrswpna,57,2,2.0,39.0,0.301,1.0,0.0
mturk,1emkh8fj8n8ujo3jfrrswpna,58,2,1.0,38.0,0.376,0.0,0.0
mturk,1emkh8fj8n8ujo3jfrrswpna,59,2,0.0,37.0,0.28,0.0,0.0
mturk,1emkh8fj8n8ujo3jfrrswpna,60,2,2.0,39.0,0.287,1.0,1.0
mturk,1emkh8fj8n8ujo3jfrrswpna,61,0,2.0,39.0,0.45,0.0,0.0
mturk,1emkh8fj8n8ujo3jfrrswpna,62,0,1.0,38.0,0.509,0.0,0.0
mturk,1emkh8fj8n8ujo3jfrrswpna,63,0,1.0,38.0,0.671,0.0,1.0
mturk,1emkh8fj8n8ujo3jfrrswpna,64,0,1.0,38.0,0.306,0.0,0.0
mturk,1emkh8fj8n8ujo3jfrrswpna,65,0,2.0,39.0,0.595,0.0,0.0
mturk,1emkh8fj8n8ujo3jfrrswpna,66,0,0.0,37.0,0.479,1.0,1.0
mturk,1emkh8fj8n8ujo3jfrrswpna,67,0,0.0,37.0,0.378,1.0,1.0
mturk,1emkh8fj8n8ujo3jfrrswpna,68,0,0.0,37.0,0.376,1.0,1.0
mturk,1emkh8fj8n8ujo3jfrrswpna,69,0,0.0,37.0,0.643,1.0,1.0
mturk,1emkh8fj8n8ujo3jfrrswpna,70,0,0.0,37.0,1.06,1.0,1.0
mturk,1emkh8fj8n8ujo3jfrrswpna,71,0,0.0,37.0,0.726,1.0,1.0
mturk,1emkh8fj8n8ujo3jfrrswpna,72,0,0.0,37.0,2.224,1.0,1.0
mturk,1emkh8fj8n8ujo3jfrrswpna,73,0,0.0,37.0,0.693,1.0,0.0
mturk,1emkh8fj8n8ujo3jfrrswpna,74,0,2.0,39.0,0.349,0.0,1.0
mturk,1emkh8fj8n8ujo3jfrrswpna,75,0,2.0,39.0,0.462,0.0,0.0
mturk,1emkh8fj8n8ujo3jfrrswpna,76,2,1.0,38.0,0.215,0.0,0.0
mturk,1emkh8fj8n8ujo3jfrrswpna,77,2,1.0,38.0,0.459,0.0,0.0
mturk,1emkh8fj8n8ujo3jfrrswpna,78,2,2.0,39.0,0.29,1.0,0.0
mturk,1emkh8fj8n8ujo3jfrrswpna,79,2,0.0,37.0,0.286,0.0,0.0
mturk,1emkh8fj8n8ujo3jfrrswpna,80,2,1.0,38.0,0.292,0.0,1.0
mturk,1emkh8fj8n8ujo3jfrrswpna,81,2,1.0,38.0,0.461,0.0,0.0
mturk,1emkh8fj8n8ujo3jfrrswpna,82,2,2.0,39.0,0.401,1.0,1.0
mturk,1emkh8fj8n8ujo3jfrrswpna,83,2,2.0,39.0,0.367,1.0,1.0
mturk,1emkh8fj8n8ujo3jfrrswpna,84,2,2.0,39.0,0.266,1.0,1.0
mturk,1emkh8fj8n8ujo3jfrrswpna,85,2,2.0,39.0,1.045,1.0,0.0
mturk,1emkh8fj8n8ujo3jfrrswpna,86,2,1.0,38.0,0.242,0.0,0.0
mturk,1emkh8fj8n8ujo3jfrrswpna,87,2,0.0,37.0,0.371,0.0,0.0
mturk,1emkh8fj8n8ujo3jfrrswpna,88,2,2.0,39.0,0.369,1.0,1.0
mturk,1emkh8fj8n8ujo3jfrrswpna,89,2,2.0,39.0,0.356,1.0,0.0
mturk,1emkh8fj8n8ujo3jfrrswpna,90,2,2.0,39.0,0.372,1.0,1.0
mturk,1h67fnjgm45dzniy6y91vld7,1,2,1.0,38.0,1.732,0.0,1.0
mturk,1h67fnjgm45dzniy6y91vld7,2,2,1.0,38.0,0.689,0.0,0.0
mturk,1h67fnjgm45dzniy6y91vld7,3,2,2.0,39.0,0.335,1.0,1.0
mturk,1h67fnjgm45dzniy6y91vld7,4,2,0.0,37.0,0.456,0.0,0.0
mturk,1h67fnjgm45dzniy6y91vld7,5,2,2.0,39.0,0.304,1.0,0.0
mturk,1h67fnjgm45dzniy6y91vld7,6,2,1.0,38.0,0.09,0.0,0.0
mturk,1h67fnjgm45dzniy6y91vld7,7,2,1.0,38.0,0.354,0.0,0.0
mturk,1h67fnjgm45dzniy6y91vld7,8,2,1.0,38.0,0.135,0.0,0.0
mturk,1h67fnjgm45dzniy6y91vld7,9,2,2.0,39.0,0.288,1.0,1.0
mturk,1h67fnjgm45dzniy6y91vld7,10,2,2.0,39.0,0.276,1.0,1.0
mturk,1h67fnjgm45dzniy6y91vld7,11,2,2.0,39.0,0.579,1.0,1.0
mturk,1h67fnjgm45dzniy6y91vld7,12,2,2.0,39.0,0.259,1.0,1.0
mturk,1h67fnjgm45dzniy6y91vld7,13,2,2.0,39.0,0.239,1.0,1.0
mturk,1h67fnjgm45dzniy6y91vld7,14,2,2.0,39.0,0.268,1.0,1.0
mturk,1h67fnjgm45dzniy6y91vld7,15,2,2.0,39.0,0.209,1.0,0.0
mturk,1h67fnjgm45dzniy6y91vld7,16,0,0.0,37.0,0.294,1.0,1.0
mturk,1h67fnjgm45dzniy6y91vld7,17,0,2.0,39.0,0.116,0.0,0.0
mturk,1h67fnjgm45dzniy6y91vld7,18,0,0.0,37.0,0.262,1.0,1.0
mturk,1h67fnjgm45dzniy6y91vld7,19,0,0.0,37.0,0.273,1.0,1.0
mturk,1h67fnjgm45dzniy6y91vld7,20,0,0.0,37.0,0.231,1.0,0.0
mturk,1h67fnjgm45dzniy6y91vld7,21,0,0.0,37.0,0.171,1.0,1.0
mturk,1h67fnjgm45dzniy6y91vld7,22,0,0.0,37.0,0.263,1.0,0.0
mturk,1h67fnjgm45dzniy6y91vld7,23,0,1.0,38.0,0.265,0.0,0.0
mturk,1h67fnjgm45dzniy6y91vld7,24,0,0.0,37.0,0.127,1.0,1.0
mturk,1h67fnjgm45dzniy6y91vld7,25,0,0.0,37.0,0.136,1.0,0.0
mturk,1h67fnjgm45dzniy6y91vld7,26,0,2.0,39.0,0.19,0.0,0.0
mturk,1h67fnjgm45dzniy6y91vld7,27,0,2.0,39.0,0.126,0.0,0.0
mturk,1h67fnjgm45dzniy6y91vld7,28,0,0.0,37.0,0.057,1.0,0.0
mturk,1h67fnjgm45dzniy6y91vld7,29,0,0.0,37.0,0.165,1.0,1.0
mturk,1h67fnjgm45dzniy6y91vld7,30,0,0.0,37.0,0.056,1.0,0.0
mturk,1h67fnjgm45dzniy6y91vld7,31,2,0.0,37.0,0.127,0.0,0.0
mturk,1h67fnjgm45dzniy6y91vld7,32,2,1.0,38.0,0.003,0.0,0.0
mturk,1h67fnjgm45dzniy6y91vld7,33,2,1.0,38.0,0.082,0.0,0.0
mturk,1h67fnjgm45dzniy6y91vld7,34,2,2.0,39.0,0.103,1.0,1.0
mturk,1h67fnjgm45dzniy6y91vld7,35,2,2.0,39.0,0.212,1.0,0.0
mturk,1h67fnjgm45dzniy6y91vld7,36,2,2.0,39.0,0.215,1.0,1.0
mturk,1h67fnjgm45dzniy6y91vld7,37,2,2.0,39.0,0.339,1.0,1.0
mturk,1h67fnjgm45dzniy6y91vld7,38,2,2.0,39.0,0.188,1.0,1.0
mturk,1h67fnjgm45dzniy6y91vld7,39,2,2.0,39.0,0.267,1.0,1.0
mturk,1h67fnjgm45dzniy6y91vld7,40,2,2.0,39.0,0.288,1.0,1.0
mturk,1h67fnjgm45dzniy6y91vld7,41,2,2.0,39.0,0.209,1.0,1.0
mturk,1h67fnjgm45dzniy6y91vld7,42,2,2.0,39.0,0.229,1.0,1.0
mturk,1h67fnjgm45dzniy6y91vld7,43,2,2.0,39.0,0.191,1.0,1.0
mturk,1h67fnjgm45dzniy6y91vld7,44,2,2.0,39.0,0.283,1.0,1.0
mturk,1h67fnjgm45dzniy6y91vld7,45,2,2.0,39.0,0.207,1.0,0.0
mturk,1h67fnjgm45dzniy6y91vld7,46,0,2.0,39.0,0.215,0.0,0.0
mturk,1h67fnjgm45dzniy6y91vld7,47,0,0.0,37.0,0.126,1.0,1.0
mturk,1h67fnjgm45dzniy6y91vld7,48,0,0.0,37.0,0.217,1.0,1.0
mturk,1h67fnjgm45dzniy6y91vld7,49,0,0.0,37.0,0.519,1.0,1.0
mturk,1h67fnjgm45dzniy6y91vld7,50,0,0.0,37.0,0.08,1.0,1.0
mturk,1h67fnjgm45dzniy6y91vld7,51,0,0.0,37.0,0.253,1.0,1.0
mturk,1h67fnjgm45dzniy6y91vld7,52,0,0.0,37.0,0.239,1.0,1.0
mturk,1h67fnjgm45dzniy6y91vld7,53,0,0.0,37.0,0.184,1.0,1.0
mturk,1h67fnjgm45dzniy6y91vld7,54,0,0.0,37.0,0.225,1.0,1.0
mturk,1h67fnjgm45dzniy6y91vld7,55,0,0.0,37.0,0.283,1.0,0.0
mturk,1h67fnjgm45dzniy6y91vld7,56,0,0.0,37.0,0.245,1.0,1.0
mturk,1h67fnjgm45dzniy6y91vld7,57,0,0.0,37.0,0.252,1.0,0.0
mturk,1h67fnjgm45dzniy6y91vld7,58,0,1.0,38.0,0.236,0.0,0.0
mturk,1h67fnjgm45dzniy6y91vld7,59,0,2.0,39.0,0.06,0.0,0.0
mturk,1h67fnjgm45dzniy6y91vld7,60,0,1.0,38.0,0.177,0.0,0.0
mturk,1h67fnjgm45dzniy6y91vld7,61,2,1.0,38.0,0.049,0.0,0.0
mturk,1h67fnjgm45dzniy6y91vld7,62,2,0.0,37.0,0.238,0.0,0.0
mturk,1h67fnjgm45dzniy6y91vld7,63,2,0.0,37.0,0.106,0.0,0.0
mturk,1h67fnjgm45dzniy6y91vld7,64,2,2.0,39.0,0.135,1.0,1.0
mturk,1h67fnjgm45dzniy6y91vld7,65,2,2.0,39.0,0.119,1.0,1.0
mturk,1h67fnjgm45dzniy6y91vld7,66,2,2.0,39.0,0.177,1.0,1.0
mturk,1h67fnjgm45dzniy6y91vld7,67,2,2.0,39.0,0.246,1.0,1.0
mturk,1h67fnjgm45dzniy6y91vld7,68,2,2.0,39.0,0.146,1.0,0.0
mturk,1h67fnjgm45dzniy6y91vld7,69,2,2.0,39.0,0.003,1.0,1.0
mturk,1h67fnjgm45dzniy6y91vld7,70,2,2.0,39.0,0.13,1.0,0.0
mturk,1h67fnjgm45dzniy6y91vld7,71,2,0.0,37.0,0.041,0.0,0.0
mturk,1h67fnjgm45dzniy6y91vld7,72,2,2.0,39.0,0.003,1.0,1.0
mturk,1h67fnjgm45dzniy6y91vld7,73,2,2.0,39.0,0.457,1.0,1.0
mturk,1h67fnjgm45dzniy6y91vld7,74,2,2.0,39.0,0.165,1.0,0.0
mturk,1h67fnjgm45dzniy6y91vld7,75,2,2.0,39.0,0.259,1.0,1.0
mturk,1h67fnjgm45dzniy6y91vld7,76,1,2.0,39.0,0.243,0.0,0.0
mturk,1h67fnjgm45dzniy6y91vld7,77,1,2.0,39.0,0.265,0.0,0.0
mturk,1h67fnjgm45dzniy6y91vld7,78,1,0.0,37.0,0.219,0.0,0.0
mturk,1h67fnjgm45dzniy6y91vld7,79,1,1.0,38.0,0.182,1.0,1.0
mturk,1h67fnjgm45dzniy6y91vld7,80,1,1.0,38.0,0.095,1.0,1.0
mturk,1h67fnjgm45dzniy6y91vld7,81,1,1.0,38.0,0.225,1.0,1.0
mturk,1h67fnjgm45dzniy6y91vld7,82,1,1.0,38.0,0.107,1.0,0.0
mturk,1h67fnjgm45dzniy6y91vld7,83,1,1.0,38.0,0.239,1.0,1.0
mturk,1h67fnjgm45dzniy6y91vld7,84,1,1.0,38.0,0.229,1.0,1.0
mturk,1h67fnjgm45dzniy6y91vld7,85,1,1.0,38.0,0.092,1.0,1.0
mturk,1h67fnjgm45dzniy6y91vld7,86,1,1.0,38.0,0.246,1.0,1.0
mturk,1h67fnjgm45dzniy6y91vld7,87,1,1.0,38.0,0.054,1.0,1.0
mturk,1h67fnjgm45dzniy6y91vld7,88,1,1.0,38.0,0.138,1.0,1.0
mturk,1h67fnjgm45dzniy6y91vld7,89,1,1.0,38.0,0.191,1.0,1.0
mturk,1h67fnjgm45dzniy6y91vld7,90,1,1.0,38.0,0.188,1.0,1.0
mturk,2gbv6cbysitn0o9t9m53f3xi,1,1,1.0,38.0,4.05,1.0,1.0
mturk,2gbv6cbysitn0o9t9m53f3xi,2,1,1.0,38.0,1.753,1.0,0.0
mturk,2gbv6cbysitn0o9t9m53f3xi,3,1,1.0,38.0,0.931,1.0,1.0
mturk,2gbv6cbysitn0o9t9m53f3xi,4,1,1.0,38.0,1.289,1.0,0.0
mturk,2gbv6cbysitn0o9t9m53f3xi,5,1,1.0,38.0,0.88,1.0,1.0
mturk,2gbv6cbysitn0o9t9m53f3xi,6,1,1.0,38.0,0.902,1.0,1.0
mturk,2gbv6cbysitn0o9t9m53f3xi,7,1,1.0,38.0,1.325,1.0,0.0
mturk,2gbv6cbysitn0o9t9m53f3xi,8,1,1.0,38.0,0.93,1.0,0.0
mturk,2gbv6cbysitn0o9t9m53f3xi,9,1,2.0,39.0,1.654,0.0,0.0
mturk,2gbv6cbysitn0o9t9m53f3xi,10,1,2.0,39.0,0.807,0.0,0.0
mturk,2gbv6cbysitn0o9t9m53f3xi,11,1,0.0,37.0,1.249,0.0,0.0
mturk,2gbv6cbysitn0o9t9m53f3xi,12,1,0.0,37.0,0.71,0.0,0.0
mturk,2gbv6cbysitn0o9t9m53f3xi,13,1,2.0,39.0,0.603,0.0,0.0
mturk,2gbv6cbysitn0o9t9m53f3xi,14,1,1.0,38.0,0.57,1.0,1.0
mturk,2gbv6cbysitn0o9t9m53f3xi,15,1,1.0,38.0,0.556,1.0,1.0
mturk,2gbv6cbysitn0o9t9m53f3xi,16,2,1.0,38.0,0.952,0.0,0.0
mturk,2gbv6cbysitn0o9t9m53f3xi,17,2,1.0,38.0,0.435,0.0,0.0
mturk,2gbv6cbysitn0o9t9m53f3xi,18,2,1.0,38.0,0.381,0.0,0.0
mturk,2gbv6cbysitn0o9t9m53f3xi,19,2,1.0,38.0,0.606,0.0,1.0
mturk,2gbv6cbysitn0o9t9m53f3xi,20,2,1.0,38.0,0.738,0.0,0.0
mturk,2gbv6cbysitn0o9t9m53f3xi,21,2,1.0,38.0,0.417,0.0,0.0
mturk,2gbv6cbysitn0o9t9m53f3xi,22,2,1.0,38.0,0.411,0.0,0.0
mturk,2gbv6cbysitn0o9t9m53f3xi,23,2,2.0,39.0,0.799,1.0,1.0
mturk,2gbv6cbysitn0o9t9m53f3xi,24,2,2.0,39.0,0.532,1.0,1.0
mturk,2gbv6cbysitn0o9t9m53f3xi,25,2,2.0,39.0,0.468,1.0,1.0
mturk,2gbv6cbysitn0o9t9m53f3xi,26,2,2.0,39.0,0.518,1.0,1.0
mturk,2gbv6cbysitn0o9t9m53f3xi,27,2,2.0,39.0,0.561,1.0,0.0
mturk,2gbv6cbysitn0o9t9m53f3xi,28,2,2.0,39.0,0.524,1.0,0.0
mturk,2gbv6cbysitn0o9t9m53f3xi,29,2,2.0,39.0,0.52,1.0,1.0
mturk,2gbv6cbysitn0o9t9m53f3xi,30,2,2.0,39.0,0.404,1.0,1.0
mturk,2gbv6cbysitn0o9t9m53f3xi,31,0,2.0,39.0,0.459,0.0,0.0
mturk,2gbv6cbysitn0o9t9m53f3xi,32,0,2.0,39.0,0.383,0.0,0.0
mturk,2gbv6cbysitn0o9t9m53f3xi,33,0,2.0,39.0,0.848,0.0,0.0
mturk,2gbv6cbysitn0o9t9m53f3xi,34,0,0.0,37.0,0.845,1.0,1.0
mturk,2gbv6cbysitn0o9t9m53f3xi,35,0,0.0,37.0,0.403,1.0,1.0
mturk,2gbv6cbysitn0o9t9m53f3xi,36,0,0.0,37.0,0.461,1.0,1.0
mturk,2gbv6cbysitn0o9t9m53f3xi,37,0,0.0,37.0,0.544,1.0,1.0
mturk,2gbv6cbysitn0o9t9m53f3xi,38,0,0.0,37.0,0.46,1.0,1.0
mturk,2gbv6cbysitn0o9t9m53f3xi,39,0,0.0,37.0,0.485,1.0,1.0
mturk,2gbv6cbysitn0o9t9m53f3xi,40,0,0.0,37.0,0.479,1.0,1.0
mturk,2gbv6cbysitn0o9t9m53f3xi,41,0,0.0,37.0,0.465,1.0,0.0
mturk,2gbv6cbysitn0o9t9m53f3xi,42,0,0.0,37.0,0.552,1.0,0.0
mturk,2gbv6cbysitn0o9t9m53f3xi,43,0,0.0,37.0,0.614,1.0,1.0
mturk,2gbv6cbysitn0o9t9m53f3xi,44,0,0.0,37.0,0.696,1.0,1.0
mturk,2gbv6cbysitn0o9t9m53f3xi,45,0,0.0,37.0,0.491,1.0,1.0
mturk,2gbv6cbysitn0o9t9m53f3xi,46,2,0.0,37.0,0.629,0.0,0.0
mturk,2gbv6cbysitn0o9t9m53f3xi,47,2,0.0,37.0,0.596,0.0,0.0
mturk,2gbv6cbysitn0o9t9m53f3xi,48,2,0.0,37.0,0.408,0.0,0.0
mturk,2gbv6cbysitn0o9t9m53f3xi,49,2,0.0,37.0,0.423,0.0,0.0
mturk,2gbv6cbysitn0o9t9m53f3xi,50,2,1.0,38.0,0.37,0.0,1.0
mturk,2gbv6cbysitn0o9t9m53f3xi,51,2,1.0,38.0,0.406,0.0,0.0
mturk,2gbv6cbysitn0o9t9m53f3xi,52,2,1.0,38.0,0.445,0.0,0.0
mturk,2gbv6cbysitn0o9t9m53f3xi,53,2,1.0,38.0,0.382,0.0,0.0
mturk,2gbv6cbysitn0o9t9m53f3xi,54,2,2.0,39.0,0.581,1.0,1.0
mturk,2gbv6cbysitn0o9t9m53f3xi,55,2,2.0,39.0,0.536,1.0,1.0
mturk,2gbv6cbysitn0o9t9m53f3xi,56,2,2.0,39.0,0.393,1.0,1.0
mturk,2gbv6cbysitn0o9t9m53f3xi,57,2,2.0,39.0,0.429,1.0,1.0
mturk,2gbv6cbysitn0o9t9m53f3xi,58,2,2.0,39.0,0.368,1.0,0.0
mturk,2gbv6cbysitn0o9t9m53f3xi,59,2,2.0,39.0,0.419,1.0,1.0
mturk,2gbv6cbysitn0o9t9m53f3xi,60,2,2.0,39.0,0.414,1.0,1.0
mturk,2gbv6cbysitn0o9t9m53f3xi,61,1,2.0,39.0,0.362,0.0,1.0
mturk,2gbv6cbysitn0o9t9m53f3xi,62,1,2.0,39.0,0.372,0.0,0.0
mturk,2gbv6cbysitn0o9t9m53f3xi,63,1,2.0,39.0,0.549,0.0,0.0
mturk,2gbv6cbysitn0o9t9m53f3xi,64,1,2.0,39.0,0.44,0.0,1.0
mturk,2gbv6cbysitn0o9t9m53f3xi,65,1,2.0,39.0,0.416,0.0,0.0
mturk,2gbv6cbysitn0o9t9m53f3xi,66,1,2.0,39.0,0.601,0.0,0.0
mturk,2gbv6cbysitn0o9t9m53f3xi,67,1,0.0,37.0,0.193,0.0,0.0
mturk,2gbv6cbysitn0o9t9m53f3xi,68,1,0.0,37.0,0.423,0.0,0.0
mturk,2gbv6cbysitn0o9t9m53f3xi,69,1,1.0,38.0,0.815,1.0,1.0
mturk,2gbv6cbysitn0o9t9m53f3xi,70,1,1.0,38.0,0.413,1.0,1.0
mturk,2gbv6cbysitn0o9t9m53f3xi,71,1,1.0,38.0,0.331,1.0,1.0
mturk,2gbv6cbysitn0o9t9m53f3xi,72,1,1.0,38.0,0.514,1.0,1.0
mturk,2gbv6cbysitn0o9t9m53f3xi,73,1,1.0,38.0,0.513,1.0,1.0
mturk,2gbv6cbysitn0o9t9m53f3xi,74,1,1.0,38.0,0.384,1.0,1.0
mturk,2gbv6cbysitn0o9t9m53f3xi,75,1,1.0,38.0,0.451,1.0,0.0
mturk,2gbv6cbysitn0o9t9m53f3xi,76,0,1.0,38.0,0.42,0.0,0.0
mturk,2gbv6cbysitn0o9t9m53f3xi,77,0,1.0,38.0,0.392,0.0,0.0
mturk,2gbv6cbysitn0o9t9m53f3xi,78,0,2.0,39.0,0.42,0.0,0.0
mturk,2gbv6cbysitn0o9t9m53f3xi,79,0,2.0,39.0,0.42,0.0,0.0
mturk,2gbv6cbysitn0o9t9m53f3xi,80,0,0.0,37.0,0.348,1.0,1.0
mturk,2gbv6cbysitn0o9t9m53f3xi,81,0,0.0,37.0,0.41,1.0,1.0
mturk,2gbv6cbysitn0o9t9m53f3xi,82,0,0.0,37.0,0.445,1.0,1.0
mturk,2gbv6cbysitn0o9t9m53f3xi,83,0,0.0,37.0,0.501,1.0,1.0
mturk,2gbv6cbysitn0o9t9m53f3xi,84,0,0.0,37.0,0.432,1.0,1.0
mturk,2gbv6cbysitn0o9t9m53f3xi,85,0,0.0,37.0,0.394,1.0,0.0
mturk,2gbv6cbysitn0o9t9m53f3xi,86,0,0.0,37.0,0.459,1.0,1.0
mturk,2gbv6cbysitn0o9t9m53f3xi,87,0,0.0,37.0,0.433,1.0,0.0
mturk,2gbv6cbysitn0o9t9m53f3xi,88,0,0.0,37.0,0.436,1.0,1.0
mturk,2gbv6cbysitn0o9t9m53f3xi,89,0,0.0,37.0,0.436,1.0,1.0
mturk,2gbv6cbysitn0o9t9m53f3xi,90,0,0.0,37.0,0.419,1.0,1.0
mturk,2l792wi6dr04cwnd2lxldsg3,1,0,1.0,38.0,0.828,0.0,0.0
mturk,2l792wi6dr04cwnd2lxldsg3,2,0,0.0,37.0,0.473,1.0,0.0
mturk,2l792wi6dr04cwnd2lxldsg3,3,0,2.0,39.0,0.363,0.0,0.0
mturk,2l792wi6dr04cwnd2lxldsg3,4,0,2.0,39.0,0.331,0.0,0.0
mturk,2l792wi6dr04cwnd2lxldsg3,5,0,1.0,38.0,0.307,0.0,0.0
mturk,2l792wi6dr04cwnd2lxldsg3,6,0,1.0,38.0,0.321,0.0,0.0
mturk,2l792wi6dr04cwnd2lxldsg3,7,0,0.0,37.0,0.337,1.0,1.0
mturk,2l792wi6dr04cwnd2lxldsg3,8,0,0.0,37.0,0.356,1.0,0.0
mturk,2l792wi6dr04cwnd2lxldsg3,9,0,0.0,37.0,0.354,1.0,1.0
mturk,2l792wi6dr04cwnd2lxldsg3,10,0,0.0,37.0,0.352,1.0,1.0
mturk,2l792wi6dr04cwnd2lxldsg3,11,0,0.0,37.0,0.395,1.0,1.0
mturk,2l792wi6dr04cwnd2lxldsg3,12,0,0.0,37.0,0.307,1.0,1.0
mturk,2l792wi6dr04cwnd2lxldsg3,13,0,0.0,37.0,0.287,1.0,1.0
mturk,2l792wi6dr04cwnd2lxldsg3,14,0,0.0,37.0,0.274,1.0,0.0
mturk,2l792wi6dr04cwnd2lxldsg3,15,0,0.0,37.0,0.28,1.0,1.0
mturk,2l792wi6dr04cwnd2lxldsg3,16,1,0.0,37.0,0.294,0.0,0.0
mturk,2l792wi6dr04cwnd2lxldsg3,17,1,0.0,37.0,0.204,0.0,0.0
mturk,2l792wi6dr04cwnd2lxldsg3,18,1,0.0,37.0,0.307,0.0,0.0
mturk,2l792wi6dr04cwnd2lxldsg3,19,1,2.0,39.0,0.235,0.0,0.0
mturk,2l792wi6dr04cwnd2lxldsg3,20,1,2.0,39.0,0.314,0.0,0.0
mturk,2l792wi6dr04cwnd2lxldsg3,21,1,1.0,38.0,0.204,1.0,1.0
mturk,2l792wi6dr04cwnd2lxldsg3,22,1,1.0,38.0,0.274,1.0,1.0
mturk,2l792wi6dr04cwnd2lxldsg3,23,1,1.0,38.0,0.178,1.0,0.0
mturk,2l792wi6dr04cwnd2lxldsg3,24,1,1.0,38.0,0.122,1.0,0.0
mturk,2l792wi6dr04cwnd2lxldsg3,25,1,1.0,38.0,0.274,1.0,1.0
mturk,2l792wi6dr04cwnd2lxldsg3,26,1,1.0,38.0,0.17,1.0,1.0
mturk,2l792wi6dr04cwnd2lxldsg3,27,1,1.0,38.0,0.283,1.0,1.0
mturk,2l792wi6dr04cwnd2lxldsg3,28,1,1.0,38.0,0.239,1.0,1.0
mturk,2l792wi6dr04cwnd2lxldsg3,29,1,1.0,38.0,0.291,1.0,0.0
mturk,2l792wi6dr04cwnd2lxldsg3,30,1,1.0,38.0,0.286,1.0,1.0
mturk,2l792wi6dr04cwnd2lxldsg3,31,2,1.0,38.0,0.306,0.0,0.0
mturk,2l792wi6dr04cwnd2lxldsg3,32,2,1.0,38.0,0.304,0.0,1.0
mturk,2l792wi6dr04cwnd2lxldsg3,33,2,1.0,38.0,0.224,0.0,0.0
mturk,2l792wi6dr04cwnd2lxldsg3,34,2,1.0,38.0,0.11,0.0,1.0
mturk,2l792wi6dr04cwnd2lxldsg3,35,2,1.0,38.0,0.24,0.0,1.0
mturk,2l792wi6dr04cwnd2lxldsg3,36,2,1.0,38.0,0.189,0.0,0.0
mturk,2l792wi6dr04cwnd2lxldsg3,37,2,1.0,38.0,0.146,0.0,1.0
mturk,2l792wi6dr04cwnd2lxldsg3,38,2,1.0,38.0,0.203,0.0,0.0
mturk,2l792wi6dr04cwnd2lxldsg3,39,2,1.0,38.0,0.095,0.0,0.0
mturk,2l792wi6dr04cwnd2lxldsg3,40,2,1.0,38.0,0.059,0.0,1.0
mturk,2l792wi6dr04cwnd2lxldsg3,41,2,1.0,38.0,0.168,0.0,0.0
mturk,2l792wi6dr04cwnd2lxldsg3,42,2,1.0,38.0,0.052,0.0,1.0
mturk,2l792wi6dr04cwnd2lxldsg3,43,2,1.0,38.0,0.199,0.0,0.0
mturk,2l792wi6dr04cwnd2lxldsg3,44,2,1.0,38.0,0.129,0.0,1.0
mturk,2l792wi6dr04cwnd2lxldsg3,45,2,1.0,38.0,0.131,0.0,0.0
mturk,2l792wi6dr04cwnd2lxldsg3,46,1,1.0,38.0,0.162,1.0,1.0
mturk,2l792wi6dr04cwnd2lxldsg3,47,1,1.0,38.0,0.203,1.0,1.0
mturk,2l792wi6dr04cwnd2lxldsg3,48,1,1.0,38.0,0.218,1.0,0.0
mturk,2l792wi6dr04cwnd2lxldsg3,49,1,1.0,38.0,0.146,1.0,1.0
mturk,2l792wi6dr04cwnd2lxldsg3,50,1,1.0,38.0,0.25,1.0,1.0
mturk,2l792wi6dr04cwnd2lxldsg3,51,1,1.0,38.0,0.276,1.0,1.0
mturk,2l792wi6dr04cwnd2lxldsg3,52,1,1.0,38.0,0.37,1.0,1.0
mturk,2l792wi6dr04cwnd2lxldsg3,53,1,1.0,38.0,0.273,1.0,1.0
mturk,2l792wi6dr04cwnd2lxldsg3,54,1,1.0,38.0,0.267,1.0,1.0
mturk,2l792wi6dr04cwnd2lxldsg3,55,1,1.0,38.0,0.314,1.0,1.0
mturk,2l792wi6dr04cwnd2lxldsg3,56,1,1.0,38.0,0.299,1.0,1.0
mturk,2l792wi6dr04cwnd2lxldsg3,57,1,1.0,38.0,0.335,1.0,1.0
mturk,2l792wi6dr04cwnd2lxldsg3,58,1,1.0,38.0,0.282,1.0,1.0
mturk,2l792wi6dr04cwnd2lxldsg3,59,1,1.0,38.0,0.281,1.0,1.0
mturk,2l792wi6dr04cwnd2lxldsg3,60,1,1.0,38.0,0.207,1.0,1.0
mturk,2l792wi6dr04cwnd2lxldsg3,61,0,1.0,38.0,0.196,0.0,1.0
mturk,2l792wi6dr04cwnd2lxldsg3,62,0,1.0,38.0,0.259,0.0,1.0
mturk,2l792wi6dr04cwnd2lxldsg3,63,0,1.0,38.0,0.242,0.0,0.0
mturk,2l792wi6dr04cwnd2lxldsg3,64,0,1.0,38.0,0.085,0.0,0.0
mturk,2l792wi6dr04cwnd2lxldsg3,65,0,1.0,38.0,0.287,0.0,0.0
mturk,2l792wi6dr04cwnd2lxldsg3,66,0,2.0,39.0,0.129,0.0,0.0
mturk,2l792wi6dr04cwnd2lxldsg3,67,0,2.0,39.0,0.228,0.0,0.0
mturk,2l792wi6dr04cwnd2lxldsg3,68,0,2.0,39.0,0.187,0.0,0.0
mturk,2l792wi6dr04cwnd2lxldsg3,69,0,0.0,37.0,0.303,1.0,1.0
mturk,2l792wi6dr04cwnd2lxldsg3,70,0,0.0,37.0,0.267,1.0,1.0
mturk,2l792wi6dr04cwnd2lxldsg3,71,0,0.0,37.0,0.306,1.0,1.0
mturk,2l792wi6dr04cwnd2lxldsg3,72,0,0.0,37.0,0.242,1.0,1.0
mturk,2l792wi6dr04cwnd2lxldsg3,73,0,0.0,37.0,0.202,1.0,1.0
mturk,2l792wi6dr04cwnd2lxldsg3,74,0,0.0,37.0,0.153,1.0,1.0
mturk,2l792wi6dr04cwnd2lxldsg3,75,0,0.0,37.0,0.219,1.0,1.0
mturk,2l792wi6dr04cwnd2lxldsg3,76,1,0.0,37.0,0.243,0.0,1.0
mturk,2l792wi6dr04cwnd2lxldsg3,77,1,0.0,37.0,0.266,0.0,0.0
mturk,2l792wi6dr04cwnd2lxldsg3,78,1,0.0,37.0,0.283,0.0,0.0
mturk,2l792wi6dr04cwnd2lxldsg3,79,1,0.0,37.0,0.339,0.0,1.0
mturk,2l792wi6dr04cwnd2lxldsg3,80,1,0.0,37.0,0.332,0.0,0.0
mturk,2l792wi6dr04cwnd2lxldsg3,81,1,0.0,37.0,0.219,0.0,0.0
mturk,2l792wi6dr04cwnd2lxldsg3,82,1,0.0,37.0,0.203,0.0,0.0
mturk,2l792wi6dr04cwnd2lxldsg3,83,1,2.0,39.0,0.154,0.0,0.0
mturk,2l792wi6dr04cwnd2lxldsg3,84,1,2.0,39.0,0.127,0.0,0.0
mturk,2l792wi6dr04cwnd2lxldsg3,85,1,1.0,38.0,0.142,1.0,1.0
mturk,2l792wi6dr04cwnd2lxldsg3,86,1,1.0,38.0,0.284,1.0,1.0
mturk,2l792wi6dr04cwnd2lxldsg3,87,1,1.0,38.0,0.266,1.0,1.0
mturk,2l792wi6dr04cwnd2lxldsg3,88,1,1.0,38.0,0.247,1.0,1.0
mturk,2l792wi6dr04cwnd2lxldsg3,89,1,1.0,38.0,0.132,1.0,1.0
mturk,2l792wi6dr04cwnd2lxldsg3,90,1,1.0,38.0,0.145,1.0,1.0
mturk,3h1i9f440aazwely8ptjns7x,1,0,1.0,38.0,1.904,0.0,0.0
mturk,3h1i9f440aazwely8ptjns7x,2,0,0.0,37.0,0.821,1.0,1.0
mturk,3h1i9f440aazwely8ptjns7x,3,0,0.0,37.0,0.39,1.0,0.0
mturk,3h1i9f440aazwely8ptjns7x,4,0,0.0,37.0,0.369,1.0,1.0
mturk,3h1i9f440aazwely8ptjns7x,5,0,0.0,37.0,0.323,1.0,1.0
mturk,3h1i9f440aazwely8ptjns7x,6,0,0.0,37.0,0.266,1.0,0.0
mturk,3h1i9f440aazwely8ptjns7x,7,0,0.0,37.0,0.245,1.0,1.0
mturk,3h1i9f440aazwely8ptjns7x,8,0,0.0,37.0,0.139,1.0,0.0
mturk,3h1i9f440aazwely8ptjns7x,9,0,0.0,37.0,0.284,1.0,1.0
mturk,3h1i9f440aazwely8ptjns7x,10,0,0.0,37.0,0.197,1.0,1.0
mturk,3h1i9f440aazwely8ptjns7x,11,0,0.0,37.0,0.106,1.0,1.0
mturk,3h1i9f440aazwely8ptjns7x,12,0,0.0,37.0,0.018,1.0,0.0
mturk,3h1i9f440aazwely8ptjns7x,13,0,0.0,37.0,0.023,1.0,1.0
mturk,3h1i9f440aazwely8ptjns7x,14,0,0.0,37.0,0.128,1.0,1.0
mturk,3h1i9f440aazwely8ptjns7x,15,0,0.0,37.0,0.145,1.0,1.0
mturk,3h1i9f440aazwely8ptjns7x,16,2,0.0,37.0,0.025,0.0,0.0
mturk,3h1i9f440aazwely8ptjns7x,17,2,0.0,37.0,0.04,0.0,0.0
mturk,3h1i9f440aazwely8ptjns7x,18,2,2.0,39.0,0.221,1.0,0.0
mturk,3h1i9f440aazwely8ptjns7x,19,2,1.0,38.0,0.121,0.0,0.0
mturk,3h1i9f440aazwely8ptjns7x,20,2,2.0,39.0,0.18,1.0,1.0
mturk,3h1i9f440aazwely8ptjns7x,21,2,2.0,39.0,0.141,1.0,1.0
mturk,3h1i9f440aazwely8ptjns7x,22,2,2.0,39.0,0.107,1.0,1.0
mturk,3h1i9f440aazwely8ptjns7x,23,2,2.0,39.0,0.111,1.0,1.0
mturk,3h1i9f440aazwely8ptjns7x,24,2,2.0,39.0,0.166,1.0,1.0
mturk,3h1i9f440aazwely8ptjns7x,25,2,2.0,39.0,0.148,1.0,1.0
mturk,3h1i9f440aazwely8ptjns7x,26,2,2.0,39.0,0.092,1.0,1.0
mturk,3h1i9f440aazwely8ptjns7x,27,2,2.0,39.0,0.072,1.0,1.0
mturk,3h1i9f440aazwely8ptjns7x,28,2,2.0,39.0,0.11,1.0,0.0
mturk,3h1i9f440aazwely8ptjns7x,29,2,2.0,39.0,0.055,1.0,0.0
mturk,3h1i9f440aazwely8ptjns7x,30,2,0.0,37.0,0.135,0.0,0.0
mturk,3h1i9f440aazwely8ptjns7x,31,0,1.0,38.0,0.006,0.0,0.0
mturk,3h1i9f440aazwely8ptjns7x,32,0,0.0,37.0,0.14,1.0,0.0
mturk,3h1i9f440aazwely8ptjns7x,33,0,1.0,38.0,0.027,0.0,0.0
mturk,3h1i9f440aazwely8ptjns7x,34,0,2.0,39.0,0.118,0.0,0.0
mturk,3h1i9f440aazwely8ptjns7x,35,0,0.0,37.0,0.046,1.0,0.0
mturk,3h1i9f440aazwely8ptjns7x,36,0,1.0,38.0,0.071,0.0,0.0
mturk,3h1i9f440aazwely8ptjns7x,37,0,2.0,39.0,0.123,0.0,0.0
mturk,3h1i9f440aazwely8ptjns7x,38,0,0.0,37.0,0.015,1.0,1.0
mturk,3h1i9f440aazwely8ptjns7x,39,0,0.0,37.0,0.024,1.0,0.0
mturk,3h1i9f440aazwely8ptjns7x,40,0,0.0,37.0,0.121,1.0,1.0
mturk,3h1i9f440aazwely8ptjns7x,41,0,0.0,37.0,0.086,1.0,1.0
mturk,3h1i9f440aazwely8ptjns7x,42,0,0.0,37.0,0.045,1.0,1.0
mturk,3h1i9f440aazwely8ptjns7x,43,0,0.0,37.0,0.029,1.0,0.0
mturk,3h1i9f440aazwely8ptjns7x,44,0,0.0,37.0,0.025,1.0,1.0
mturk,3h1i9f440aazwely8ptjns7x,45,0,0.0,37.0,0.054,1.0,1.0
mturk,3h1i9f440aazwely8ptjns7x,46,1,0.0,37.0,0.041,0.0,0.0
mturk,3h1i9f440aazwely8ptjns7x,47,1,0.0,37.0,0.145,0.0,0.0
mturk,3h1i9f440aazwely8ptjns7x,48,1,1.0,38.0,0.005,1.0,1.0
mturk,3h1i9f440aazwely8ptjns7x,49,1,1.0,38.0,0.021,1.0,1.0
mturk,3h1i9f440aazwely8ptjns7x,50,1,1.0,38.0,0.071,1.0,0.0
mturk,3h1i9f440aazwely8ptjns7x,51,1,1.0,38.0,0.088,1.0,1.0
mturk,3h1i9f440aazwely8ptjns7x,52,1,1.0,38.0,0.12,1.0,1.0
mturk,3h1i9f440aazwely8ptjns7x,53,1,1.0,38.0,0.022,1.0,1.0
mturk,3h1i9f440aazwely8ptjns7x,54,1,1.0,38.0,0.0,1.0,1.0
mturk,3h1i9f440aazwely8ptjns7x,55,1,1.0,38.0,0.082,1.0,1.0
mturk,3h1i9f440aazwely8ptjns7x,56,1,1.0,38.0,0.106,1.0,1.0
mturk,3h1i9f440aazwely8ptjns7x,57,1,1.0,38.0,0.094,1.0,1.0
mturk,3h1i9f440aazwely8ptjns7x,58,1,1.0,38.0,0.101,1.0,1.0
mturk,3h1i9f440aazwely8ptjns7x,59,1,1.0,38.0,0.003,1.0,1.0
mturk,3h1i9f440aazwely8ptjns7x,60,1,1.0,38.0,0.162,1.0,1.0
mturk,3h1i9f440aazwely8ptjns7x,61,0,1.0,38.0,0.127,0.0,0.0
mturk,3h1i9f440aazwely8ptjns7x,62,0,1.0,38.0,0.07,0.0,0.0
mturk,3h1i9f440aazwely8ptjns7x,63,0,2.0,39.0,0.011,0.0,0.0
mturk,3h1i9f440aazwely8ptjns7x,64,0,0.0,37.0,0.103,1.0,0.0
mturk,3h1i9f440aazwely8ptjns7x,65,0,2.0,39.0,0.068,0.0,0.0
mturk,3h1i9f440aazwely8ptjns7x,66,0,0.0,37.0,0.14,1.0,1.0
mturk,3h1i9f440aazwely8ptjns7x,67,0,0.0,37.0,0.072,1.0,1.0
mturk,3h1i9f440aazwely8ptjns7x,68,0,0.0,37.0,0.015,1.0,1.0
mturk,3h1i9f440aazwely8ptjns7x,69,0,0.0,37.0,0.007,1.0,0.0
mturk,3h1i9f440aazwely8ptjns7x,70,0,0.0,37.0,0.103,1.0,1.0
mturk,3h1i9f440aazwely8ptjns7x,71,0,0.0,37.0,0.004,1.0,1.0
mturk,3h1i9f440aazwely8ptjns7x,72,0,0.0,37.0,0.053,1.0,1.0
mturk,3h1i9f440aazwely8ptjns7x,73,0,0.0,37.0,0.097,1.0,1.0
mturk,3h1i9f440aazwely8ptjns7x,74,0,0.0,37.0,0.045,1.0,1.0
mturk,3h1i9f440aazwely8ptjns7x,75,0,0.0,37.0,0.049,1.0,0.0
mturk,3h1i9f440aazwely8ptjns7x,76,2,0.0,37.0,0.185,0.0,0.0
mturk,3h1i9f440aazwely8ptjns7x,77,2,2.0,39.0,0.073,1.0,1.0
mturk,3h1i9f440aazwely8ptjns7x,78,2,2.0,39.0,0.105,1.0,0.0
mturk,3h1i9f440aazwely8ptjns7x,79,2,2.0,39.0,0.16,1.0,1.0
mturk,3h1i9f440aazwely8ptjns7x,80,2,2.0,39.0,0.011,1.0,1.0
mturk,3h1i9f440aazwely8ptjns7x,81,2,2.0,39.0,0.029,1.0,0.0
mturk,3h1i9f440aazwely8ptjns7x,82,2,2.0,39.0,0.119,1.0,0.0
mturk,3h1i9f440aazwely8ptjns7x,83,2,1.0,38.0,0.071,0.0,0.0
mturk,3h1i9f440aazwely8ptjns7x,84,2,0.0,37.0,0.139,0.0,1.0
mturk,3h1i9f440aazwely8ptjns7x,85,2,0.0,37.0,0.02,0.0,0.0
mturk,3h1i9f440aazwely8ptjns7x,86,2,0.0,37.0,0.129,0.0,0.0
mturk,3h1i9f440aazwely8ptjns7x,87,2,2.0,39.0,0.076,1.0,1.0
mturk,3h1i9f440aazwely8ptjns7x,88,2,2.0,39.0,0.157,1.0,1.0
mturk,3h1i9f440aazwely8ptjns7x,89,2,2.0,39.0,0.026,1.0,0.0
mturk,3h1i9f440aazwely8ptjns7x,90,2,2.0,39.0,0.148,1.0,0.0
mturk,3h34cgrzlp4wtlx1eo4tv73k,1,0,1.0,38.0,2.655,0.0,1.0
mturk,3h34cgrzlp4wtlx1eo4tv73k,2,0,1.0,38.0,0.535,0.0,0.0
mturk,3h34cgrzlp4wtlx1eo4tv73k,3,0,1.0,38.0,0.319,0.0,0.0
mturk,3h34cgrzlp4wtlx1eo4tv73k,4,0,0.0,37.0,0.342,1.0,1.0
mturk,3h34cgrzlp4wtlx1eo4tv73k,5,0,0.0,37.0,0.36,1.0,1.0
mturk,3h34cgrzlp4wtlx1eo4tv73k,6,0,0.0,37.0,0.46,1.0,0.0
mturk,3h34cgrzlp4wtlx1eo4tv73k,7,0,2.0,39.0,0.356,0.0,1.0
mturk,3h34cgrzlp4wtlx1eo4tv73k,8,0,2.0,39.0,0.452,0.0,0.0
mturk,3h34cgrzlp4wtlx1eo4tv73k,9,0,1.0,38.0,0.33,0.0,0.0
mturk,3h34cgrzlp4wtlx1eo4tv73k,10,0,0.0,37.0,0.301,1.0,0.0
mturk,3h34cgrzlp4wtlx1eo4tv73k,11,0,0.0,37.0,0.206,1.0,1.0
mturk,3h34cgrzlp4wtlx1eo4tv73k,12,0,0.0,37.0,0.309,1.0,1.0
mturk,3h34cgrzlp4wtlx1eo4tv73k,13,0,0.0,37.0,0.368,1.0,0.0
mturk,3h34cgrzlp4wtlx1eo4tv73k,14,0,2.0,39.0,0.177,0.0,0.0
mturk,3h34cgrzlp4wtlx1eo4tv73k,15,0,2.0,39.0,0.504,0.0,0.0
mturk,3h34cgrzlp4wtlx1eo4tv73k,16,1,1.0,38.0,0.344,1.0,1.0
mturk,3h34cgrzlp4wtlx1eo4tv73k,17,1,1.0,38.0,0.391,1.0,0.0
mturk,3h34cgrzlp4wtlx1eo4tv73k,18,1,0.0,37.0,0.362,0.0,0.0
mturk,3h34cgrzlp4wtlx1eo4tv73k,19,1,0.0,37.0,0.429,0.0,0.0
mturk,3h34cgrzlp4wtlx1eo4tv73k,20,1,1.0,38.0,0.3,1.0,1.0
mturk,3h34cgrzlp4wtlx1eo4tv73k,21,1,2.0,39.0,0.338,0.0,0.0
mturk,3h34cgrzlp4wtlx1eo4tv73k,22,1,1.0,38.0,0.265,1.0,1.0
mturk,3h34cgrzlp4wtlx1eo4tv73k,23,1,1.0,38.0,0.344,1.0,1.0
mturk,3h34cgrzlp4wtlx1eo4tv73k,24,1,1.0,38.0,0.309,1.0,1.0
mturk,3h34cgrzlp4wtlx1eo4tv73k,25,1,1.0,38.0,0.311,1.0,1.0
mturk,3h34cgrzlp4wtlx1eo4tv73k,26,1,1.0,38.0,0.277,1.0,1.0
mturk,3h34cgrzlp4wtlx1eo4tv73k,27,1,1.0,38.0,0.267,1.0,0.0
mturk,3h34cgrzlp4wtlx1eo4tv73k,28,1,0.0,37.0,0.296,0.0,0.0
mturk,3h34cgrzlp4wtlx1eo4tv73k,29,1,2.0,39.0,0.28,0.0,0.0
mturk,3h34cgrzlp4wtlx1eo4tv73k,30,1,1.0,38.0,0.079,1.0,1.0
mturk,3h34cgrzlp4wtlx1eo4tv73k,31,0,1.0,38.0,0.298,0.0,0.0
mturk,3h34cgrzlp4wtlx1eo4tv73k,32,0,1.0,38.0,0.292,0.0,0.0
mturk,3h34cgrzlp4wtlx1eo4tv73k,33,0,0.0,37.0,0.336,1.0,1.0
mturk,3h34cgrzlp4wtlx1eo4tv73k,34,0,0.0,37.0,0.386,1.0,0.0
mturk,3h34cgrzlp4wtlx1eo4tv73k,35,0,1.0,38.0,0.286,0.0,0.0
mturk,3h34cgrzlp4wtlx1eo4tv73k,36,0,2.0,39.0,0.246,0.0,0.0
mturk,3h34cgrzlp4wtlx1eo4tv73k,37,0,1.0,38.0,0.109,0.0,0.0
mturk,3h34cgrzlp4wtlx1eo4tv73k,38,0,0.0,37.0,0.278,1.0,1.0
mturk,3h34cgrzlp4wtlx1eo4tv73k,39,0,0.0,37.0,0.279,1.0,0.0
mturk,3h34cgrzlp4wtlx1eo4tv73k,40,0,0.0,37.0,0.282,1.0,0.0
mturk,3h34cgrzlp4wtlx1eo4tv73k,41,0,1.0,38.0,0.267,0.0,0.0
mturk,3h34cgrzlp4wtlx1eo4tv73k,42,0,2.0,39.0,0.254,0.0,0.0
mturk,3h34cgrzlp4wtlx1eo4tv73k,43,0,0.0,37.0,0.232,1.0,1.0
mturk,3h34cgrzlp4wtlx1eo4tv73k,44,0,0.0,37.0,0.297,1.0,1.0
mturk,3h34cgrzlp4wtlx1eo4tv73k,45,0,0.0,37.0,0.371,1.0,1.0
mturk,3h34cgrzlp4wtlx1eo4tv73k,46,2,0.0,37.0,0.564,0.0,0.0
mturk,3h34cgrzlp4wtlx1eo4tv73k,47,2,1.0,38.0,0.196,0.0,0.0
mturk,3h34cgrzlp4wtlx1eo4tv73k,48,2,0.0,37.0,0.369,0.0,0.0
mturk,3h34cgrzlp4wtlx1eo4tv73k,49,2,1.0,38.0,0.103,0.0,0.0
mturk,3h34cgrzlp4wtlx1eo4tv73k,50,2,2.0,39.0,0.265,1.0,1.0
mturk,3h34cgrzlp4wtlx1eo4tv73k,51,2,2.0,39.0,0.319,1.0,1.0
mturk,3h34cgrzlp4wtlx1eo4tv73k,52,2,2.0,39.0,0.323,1.0,0.0
mturk,3h34cgrzlp4wtlx1eo4tv73k,53,2,1.0,38.0,0.297,0.0,0.0
mturk,3h34cgrzlp4wtlx1eo4tv73k,54,2,0.0,37.0,0.31,0.0,0.0
mturk,3h34cgrzlp4wtlx1eo4tv73k,55,2,2.0,39.0,0.282,1.0,0.0
mturk,3h34cgrzlp4wtlx1eo4tv73k,56,2,1.0,38.0,0.119,0.0,0.0
mturk,3h34cgrzlp4wtlx1eo4tv73k,57,2,2.0,39.0,0.31,1.0,1.0
mturk,3h34cgrzlp4wtlx1eo4tv73k,58,2,2.0,39.0,0.285,1.0,1.0
mturk,3h34cgrzlp4wtlx1eo4tv73k,59,2,2.0,39.0,0.339,1.0,1.0
mturk,3h34cgrzlp4wtlx1eo4tv73k,60,2,2.0,39.0,0.347,1.0,1.0
mturk,3h34cgrzlp4wtlx1eo4tv73k,61,1,2.0,39.0,0.382,0.0,0.0
mturk,3h34cgrzlp4wtlx1eo4tv73k,62,1,0.0,37.0,0.319,0.0,0.0
mturk,3h34cgrzlp4wtlx1eo4tv73k,63,1,1.0,38.0,0.33,1.0,1.0
mturk,3h34cgrzlp4wtlx1eo4tv73k,64,1,1.0,38.0,0.29,1.0,1.0
mturk,3h34cgrzlp4wtlx1eo4tv73k,65,1,1.0,38.0,0.336,1.0,1.0
mturk,3h34cgrzlp4wtlx1eo4tv73k,66,1,1.0,38.0,0.324,1.0,1.0
mturk,3h34cgrzlp4wtlx1eo4tv73k,67,1,1.0,38.0,0.385,1.0,1.0
mturk,3h34cgrzlp4wtlx1eo4tv73k,68,1,1.0,38.0,0.842,1.0,1.0
mturk,3h34cgrzlp4wtlx1eo4tv73k,69,1,1.0,38.0,0.299,1.0,1.0
mturk,3h34cgrzlp4wtlx1eo4tv73k,70,1,1.0,38.0,0.349,1.0,1.0
mturk,3h34cgrzlp4wtlx1eo4tv73k,71,1,1.0,38.0,0.28,1.0,1.0
mturk,3h34cgrzlp4wtlx1eo4tv73k,72,1,1.0,38.0,0.313,1.0,1.0
mturk,3h34cgrzlp4wtlx1eo4tv73k,73,1,1.0,38.0,0.335,1.0,1.0
mturk,3h34cgrzlp4wtlx1eo4tv73k,74,1,1.0,38.0,0.319,1.0,1.0
mturk,3h34cgrzlp4wtlx1eo4tv73k,75,1,1.0,38.0,0.298,1.0,1.0
mturk,3h34cgrzlp4wtlx1eo4tv73k,76,2,1.0,38.0,0.309,0.0,1.0
mturk,3h34cgrzlp4wtlx1eo4tv73k,77,2,1.0,38.0,0.639,0.0,0.0
mturk,3h34cgrzlp4wtlx1eo4tv73k,78,2,2.0,39.0,0.08,1.0,1.0
mturk,3h34cgrzlp4wtlx1eo4tv73k,79,2,2.0,39.0,0.336,1.0,1.0
mturk,3h34cgrzlp4wtlx1eo4tv73k,80,2,2.0,39.0,0.395,1.0,1.0
mturk,3h34cgrzlp4wtlx1eo4tv73k,81,2,2.0,39.0,0.609,1.0,1.0
mturk,3h34cgrzlp4wtlx1eo4tv73k,82,2,2.0,39.0,0.494,1.0,1.0
mturk,3h34cgrzlp4wtlx1eo4tv73k,83,2,2.0,39.0,1.014,1.0,0.0
mturk,3h34cgrzlp4wtlx1eo4tv73k,84,2,1.0,38.0,0.274,0.0,0.0
mturk,3h34cgrzlp4wtlx1eo4tv73k,85,2,2.0,39.0,0.355,1.0,1.0
mturk,3h34cgrzlp4wtlx1eo4tv73k,86,2,2.0,39.0,0.482,1.0,0.0
mturk,3h34cgrzlp4wtlx1eo4tv73k,87,2,1.0,38.0,0.285,0.0,0.0
mturk,3h34cgrzlp4wtlx1eo4tv73k,88,2,0.0,37.0,0.195,0.0,0.0
mturk,3h34cgrzlp4wtlx1eo4tv73k,89,2,1.0,38.0,0.3,0.0,0.0
mturk,3h34cgrzlp4wtlx1eo4tv73k,90,2,2.0,39.0,0.249,1.0,1.0
mturk,48kl2yj4bk3oit3lc8y2c8qf,1,0,0.0,37.0,1.145,1.0,1.0
mturk,48kl2yj4bk3oit3lc8y2c8qf,2,0,2.0,39.0,0.026,0.0,0.0
mturk,48kl2yj4bk3oit3lc8y2c8qf,3,0,0.0,37.0,4.983,1.0,0.0
mturk,48kl2yj4bk3oit3lc8y2c8qf,4,0,0.0,37.0,1.203,1.0,1.0
mturk,48kl2yj4bk3oit3lc8y2c8qf,5,0,0.0,37.0,0.722,1.0,1.0
mturk,48kl2yj4bk3oit3lc8y2c8qf,6,0,0.0,37.0,0.092,1.0,0.0
mturk,48kl2yj4bk3oit3lc8y2c8qf,7,0,2.0,39.0,0.538,0.0,0.0
mturk,48kl2yj4bk3oit3lc8y2c8qf,8,0,0.0,37.0,0.837,1.0,1.0
mturk,48kl2yj4bk3oit3lc8y2c8qf,9,0,0.0,37.0,0.632,1.0,1.0
mturk,48kl2yj4bk3oit3lc8y2c8qf,10,0,0.0,37.0,0.453,1.0,1.0
mturk,48kl2yj4bk3oit3lc8y2c8qf,11,0,0.0,37.0,0.336,1.0,1.0
mturk,48kl2yj4bk3oit3lc8y2c8qf,12,0,0.0,37.0,0.679,1.0,1.0
mturk,48kl2yj4bk3oit3lc8y2c8qf,13,0,0.0,37.0,0.247,1.0,1.0
mturk,48kl2yj4bk3oit3lc8y2c8qf,14,0,0.0,37.0,0.337,1.0,1.0
mturk,48kl2yj4bk3oit3lc8y2c8qf,15,0,0.0,37.0,0.335,1.0,0.0
mturk,48kl2yj4bk3oit3lc8y2c8qf,16,1,0.0,37.0,0.266,0.0,0.0
mturk,48kl2yj4bk3oit3lc8y2c8qf,17,1,0.0,37.0,0.787,0.0,0.0
mturk,48kl2yj4bk3oit3lc8y2c8qf,18,1,0.0,37.0,0.257,0.0,1.0
mturk,48kl2yj4bk3oit3lc8y2c8qf,19,1,0.0,37.0,0.107,0.0,1.0
mturk,48kl2yj4bk3oit3lc8y2c8qf,20,1,0.0,37.0,0.655,0.0,0.0
mturk,48kl2yj4bk3oit3lc8y2c8qf,21,1,0.0,37.0,1.028,0.0,0.0
mturk,48kl2yj4bk3oit3lc8y2c8qf,22,1,0.0,37.0,0.757,0.0,0.0
mturk,48kl2yj4bk3oit3lc8y2c8qf,23,1,0.0,37.0,0.557,0.0,0.0
mturk,48kl2yj4bk3oit3lc8y2c8qf,24,1,2.0,39.0,0.396,0.0,0.0
mturk,48kl2yj4bk3oit3lc8y2c8qf,25,1,0.0,37.0,0.367,0.0,0.0
mturk,48kl2yj4bk3oit3lc8y2c8qf,26,1,0.0,37.0,0.767,0.0,0.0
mturk,48kl2yj4bk3oit3lc8y2c8qf,27,1,2.0,39.0,0.419,0.0,0.0
mturk,48kl2yj4bk3oit3lc8y2c8qf,28,1,0.0,37.0,1.056,0.0,0.0
mturk,48kl2yj4bk3oit3lc8y2c8qf,29,1,2.0,39.0,0.132,0.0,0.0
mturk,48kl2yj4bk3oit3lc8y2c8qf,30,1,0.0,37.0,0.795,0.0,1.0
mturk,48kl2yj4bk3oit3lc8y2c8qf,31,0,2.0,39.0,0.042,0.0,0.0
mturk,48kl2yj4bk3oit3lc8y2c8qf,32,0,0.0,37.0,0.131,1.0,1.0
mturk,48kl2yj4bk3oit3lc8y2c8qf,33,0,2.0,39.0,0.978,0.0,0.0
mturk,48kl2yj4bk3oit3lc8y2c8qf,34,0,0.0,37.0,0.397,1.0,1.0
mturk,48kl2yj4bk3oit3lc8y2c8qf,35,0,2.0,39.0,0.483,0.0,0.0
mturk,48kl2yj4bk3oit3lc8y2c8qf,36,0,0.0,37.0,0.491,1.0,0.0
mturk,48kl2yj4bk3oit3lc8y2c8qf,37,0,2.0,39.0,0.162,0.0,0.0
mturk,48kl2yj4bk3oit3lc8y2c8qf,38,0,0.0,37.0,0.413,1.0,0.0
mturk,48kl2yj4bk3oit3lc8y2c8qf,39,0,2.0,39.0,0.267,0.0,0.0
mturk,48kl2yj4bk3oit3lc8y2c8qf,40,0,0.0,37.0,0.197,1.0,0.0
mturk,48kl2yj4bk3oit3lc8y2c8qf,41,0,0.0,37.0,1.026,1.0,1.0
mturk,48kl2yj4bk3oit3lc8y2c8qf,42,0,2.0,39.0,0.206,0.0,0.0
mturk,48kl2yj4bk3oit3lc8y2c8qf,43,0,0.0,37.0,0.762,1.0,1.0
mturk,48kl2yj4bk3oit3lc8y2c8qf,44,0,2.0,39.0,0.284,0.0,0.0
mturk,48kl2yj4bk3oit3lc8y2c8qf,45,0,0.0,37.0,0.595,1.0,1.0
mturk,48kl2yj4bk3oit3lc8y2c8qf,46,2,2.0,39.0,0.499,1.0,1.0
mturk,48kl2yj4bk3oit3lc8y2c8qf,47,2,0.0,37.0,0.538,0.0,0.0
mturk,48kl2yj4bk3oit3lc8y2c8qf,48,2,2.0,39.0,0.194,1.0,1.0
mturk,48kl2yj4bk3oit3lc8y2c8qf,49,2,0.0,37.0,0.166,0.0,0.0
mturk,48kl2yj4bk3oit3lc8y2c8qf,50,2,2.0,39.0,0.103,1.0,1.0
mturk,48kl2yj4bk3oit3lc8y2c8qf,51,2,0.0,37.0,0.041,0.0,0.0
mturk,48kl2yj4bk3oit3lc8y2c8qf,52,2,2.0,39.0,1.207,1.0,1.0
mturk,48kl2yj4bk3oit3lc8y2c8qf,53,2,0.0,37.0,0.832,0.0,0.0
mturk,48kl2yj4bk3oit3lc8y2c8qf,54,2,2.0,39.0,0.267,1.0,1.0
mturk,48kl2yj4bk3oit3lc8y2c8qf,55,2,0.0,37.0,0.522,0.0,0.0
mturk,48kl2yj4bk3oit3lc8y2c8qf,56,2,2.0,39.0,0.237,1.0,1.0
mturk,48kl2yj4bk3oit3lc8y2c8qf,57,2,0.0,37.0,0.252,0.0,1.0
mturk,48kl2yj4bk3oit3lc8y2c8qf,58,2,2.0,39.0,0.048,1.0,1.0
mturk,48kl2yj4bk3oit3lc8y2c8qf,59,2,0.0,37.0,0.012,0.0,0.0
mturk,48kl2yj4bk3oit3lc8y2c8qf,60,2,2.0,39.0,0.921,1.0,1.0
mturk,48kl2yj4bk3oit3lc8y2c8qf,61,0,0.0,37.0,0.452,1.0,1.0
mturk,48kl2yj4bk3oit3lc8y2c8qf,62,0,2.0,39.0,0.428,0.0,0.0
mturk,48kl2yj4bk3oit3lc8y2c8qf,63,0,0.0,37.0,0.626,1.0,1.0
mturk,48kl2yj4bk3oit3lc8y2c8qf,64,0,2.0,39.0,0.604,0.0,0.0
mturk,48kl2yj4bk3oit3lc8y2c8qf,65,0,0.0,37.0,0.447,1.0,1.0
mturk,48kl2yj4bk3oit3lc8y2c8qf,66,0,2.0,39.0,0.181,0.0,0.0
mturk,48kl2yj4bk3oit3lc8y2c8qf,67,0,0.0,37.0,0.469,1.0,0.0
mturk,48kl2yj4bk3oit3lc8y2c8qf,68,0,2.0,39.0,0.106,0.0,0.0
mturk,48kl2yj4bk3oit3lc8y2c8qf,69,0,0.0,37.0,0.587,1.0,1.0
mturk,48kl2yj4bk3oit3lc8y2c8qf,70,0,2.0,39.0,0.488,0.0,1.0
mturk,48kl2yj4bk3oit3lc8y2c8qf,71,0,0.0,37.0,0.368,1.0,1.0
mturk,48kl2yj4bk3oit3lc8y2c8qf,72,0,2.0,39.0,0.168,0.0,0.0
mturk,48kl2yj4bk3oit3lc8y2c8qf,73,0,0.0,37.0,0.468,1.0,1.0
mturk,48kl2yj4bk3oit3lc8y2c8qf,74,0,2.0,39.0,0.147,0.0,0.0
mturk,48kl2yj4bk3oit3lc8y2c8qf,75,0,0.0,37.0,0.437,1.0,1.0
mturk,48kl2yj4bk3oit3lc8y2c8qf,76,1,2.0,39.0,0.265,0.0,0.0
mturk,48kl2yj4bk3oit3lc8y2c8qf,77,1,0.0,37.0,0.378,0.0,0.0
mturk,48kl2yj4bk3oit3lc8y2c8qf,78,1,2.0,39.0,0.095,0.0,0.0
mturk,48kl2yj4bk3oit3lc8y2c8qf,79,1,0.0,37.0,0.393,0.0,0.0
mturk,48kl2yj4bk3oit3lc8y2c8qf,80,1,2.0,39.0,1.112,0.0,0.0
mturk,48kl2yj4bk3oit3lc8y2c8qf,81,1,0.0,37.0,0.297,0.0,1.0
mturk,48kl2yj4bk3oit3lc8y2c8qf,82,1,2.0,39.0,0.414,0.0,1.0
mturk,48kl2yj4bk3oit3lc8y2c8qf,83,1,0.0,37.0,0.522,0.0,0.0
mturk,48kl2yj4bk3oit3lc8y2c8qf,84,1,2.0,39.0,0.298,0.0,0.0
mturk,48kl2yj4bk3oit3lc8y2c8qf,85,1,0.0,37.0,0.316,0.0,0.0
mturk,48kl2yj4bk3oit3lc8y2c8qf,86,1,2.0,39.0,0.858,0.0,0.0
mturk,48kl2yj4bk3oit3lc8y2c8qf,87,1,0.0,37.0,0.178,0.0,0.0
mturk,48kl2yj4bk3oit3lc8y2c8qf,88,1,2.0,39.0,0.996,0.0,1.0
mturk,48kl2yj4bk3oit3lc8y2c8qf,89,1,0.0,37.0,0.372,0.0,1.0
mturk,48kl2yj4bk3oit3lc8y2c8qf,90,1,2.0,39.0,0.478,0.0,0.0
mturk,49siubkt857w9wa5ym6zyrss,1,1,2.0,39.0,2.067,0.0,0.0
mturk,49siubkt857w9wa5ym6zyrss,2,1,0.0,37.0,0.15,0.0,1.0
mturk,49siubkt857w9wa5ym6zyrss,3,1,1.0,38.0,0.392,1.0,1.0
mturk,49siubkt857w9wa5ym6zyrss,4,1,1.0,38.0,0.126,1.0,1.0
mturk,49siubkt857w9wa5ym6zyrss,5,1,1.0,38.0,0.034,1.0,1.0
mturk,49siubkt857w9wa5ym6zyrss,6,1,1.0,38.0,0.316,1.0,1.0
mturk,49siubkt857w9wa5ym6zyrss,7,1,1.0,38.0,0.379,1.0,1.0
mturk,49siubkt857w9wa5ym6zyrss,8,1,1.0,38.0,0.684,1.0,1.0
mturk,49siubkt857w9wa5ym6zyrss,9,1,1.0,38.0,0.001,1.0,1.0
mturk,49siubkt857w9wa5ym6zyrss,10,1,1.0,38.0,0.574,1.0,0.0
mturk,49siubkt857w9wa5ym6zyrss,11,1,2.0,39.0,1.552,0.0,0.0
mturk,49siubkt857w9wa5ym6zyrss,12,1,0.0,37.0,0.086,0.0,1.0
mturk,49siubkt857w9wa5ym6zyrss,13,1,0.0,37.0,0.258,0.0,1.0
mturk,49siubkt857w9wa5ym6zyrss,14,1,0.0,37.0,0.043,0.0,0.0
mturk,49siubkt857w9wa5ym6zyrss,15,1,1.0,38.0,0.205,1.0,0.0
mturk,49siubkt857w9wa5ym6zyrss,16,0,2.0,39.0,0.16,0.0,0.0
mturk,49siubkt857w9wa5ym6zyrss,17,0,1.0,38.0,0.518,0.0,0.0
mturk,49siubkt857w9wa5ym6zyrss,18,0,0.0,37.0,0.233,1.0,0.0
mturk,49siubkt857w9wa5ym6zyrss,19,0,2.0,39.0,0.387,0.0,0.0
mturk,49siubkt857w9wa5ym6zyrss,20,0,1.0,38.0,0.249,0.0,1.0
mturk,49siubkt857w9wa5ym6zyrss,21,0,1.0,38.0,0.173,0.0,0.0
mturk,49siubkt857w9wa5ym6zyrss,22,0,2.0,39.0,0.07,0.0,1.0
mturk,49siubkt857w9wa5ym6zyrss,23,0,2.0,39.0,0.469,0.0,1.0
mturk,49siubkt857w9wa5ym6zyrss,24,0,2.0,39.0,0.047,0.0,0.0
mturk,49siubkt857w9wa5ym6zyrss,25,0,1.0,38.0,0.165,0.0,0.0
mturk,49siubkt857w9wa5ym6zyrss,26,0,0.0,37.0,0.099,1.0,1.0
mturk,49siubkt857w9wa5ym6zyrss,27,0,0.0,37.0,0.026,1.0,1.0
mturk,49siubkt857w9wa5ym6zyrss,28,0,0.0,37.0,0.098,1.0,1.0
mturk,49siubkt857w9wa5ym6zyrss,29,0,0.0,37.0,0.192,1.0,1.0
mturk,49siubkt857w9wa5ym6zyrss,30,0,0.0,37.0,0.11,1.0,0.0
mturk,49siubkt857w9wa5ym6zyrss,31,2,2.0,39.0,0.165,1.0,1.0
mturk,49siubkt857w9wa5ym6zyrss,32,2,1.0,38.0,0.061,0.0,0.0
mturk,49siubkt857w9wa5ym6zyrss,33,2,2.0,39.0,0.17,1.0,0.0
mturk,49siubkt857w9wa5ym6zyrss,34,2,0.0,37.0,0.524,0.0,1.0
mturk,49siubkt857w9wa5ym6zyrss,35,2,0.0,37.0,0.647,0.0,0.0
mturk,49siubkt857w9wa5ym6zyrss,36,2,2.0,39.0,0.052,1.0,0.0
mturk,49siubkt857w9wa5ym6zyrss,37,2,1.0,38.0,1.959,0.0,0.0
mturk,49siubkt857w9wa5ym6zyrss,38,2,0.0,37.0,0.245,0.0,0.0
mturk,49siubkt857w9wa5ym6zyrss,39,2,2.0,39.0,0.026,1.0,1.0
mturk,49siubkt857w9wa5ym6zyrss,40,2,2.0,39.0,0.047,1.0,1.0
mturk,49siubkt857w9wa5ym6zyrss,41,2,2.0,39.0,0.421,1.0,0.0
mturk,49siubkt857w9wa5ym6zyrss,42,2,1.0,38.0,0.11,0.0,1.0
mturk,49siubkt857w9wa5ym6zyrss,43,2,1.0,38.0,0.023,0.0,1.0
mturk,49siubkt857w9wa5ym6zyrss,44,2,1.0,38.0,0.149,0.0,1.0
mturk,49siubkt857w9wa5ym6zyrss,45,2,1.0,38.0,0.109,0.0,0.0
mturk,49siubkt857w9wa5ym6zyrss,46,0,0.0,37.0,0.559,1.0,1.0
mturk,49siubkt857w9wa5ym6zyrss,47,0,0.0,37.0,0.127,1.0,1.0
mturk,49siubkt857w9wa5ym6zyrss,48,0,0.0,37.0,0.089,1.0,1.0
mturk,49siubkt857w9wa5ym6zyrss,49,0,0.0,37.0,0.026,1.0,1.0
mturk,49siubkt857w9wa5ym6zyrss,50,0,0.0,37.0,0.021,1.0,1.0
mturk,49siubkt857w9wa5ym6zyrss,51,0,0.0,37.0,0.025,1.0,1.0
mturk,49siubkt857w9wa5ym6zyrss,52,0,0.0,37.0,0.324,1.0,0.0
mturk,49siubkt857w9wa5ym6zyrss,53,0,2.0,39.0,0.032,0.0,0.0
mturk,49siubkt857w9wa5ym6zyrss,54,0,1.0,38.0,0.001,0.0,1.0
mturk,49siubkt857w9wa5ym6zyrss,55,0,1.0,38.0,0.05,0.0,0.0
mturk,49siubkt857w9wa5ym6zyrss,56,0,0.0,37.0,0.327,1.0,1.0
mturk,49siubkt857w9wa5ym6zyrss,57,0,0.0,37.0,0.215,1.0,1.0
mturk,49siubkt857w9wa5ym6zyrss,58,0,0.0,37.0,0.099,1.0,1.0
mturk,49siubkt857w9wa5ym6zyrss,59,0,0.0,37.0,0.086,1.0,1.0
mturk,49siubkt857w9wa5ym6zyrss,60,0,0.0,37.0,0.042,1.0,1.0
mturk,49siubkt857w9wa5ym6zyrss,61,1,0.0,37.0,0.001,0.0,0.0
mturk,49siubkt857w9wa5ym6zyrss,62,1,2.0,39.0,0.063,0.0,0.0
mturk,49siubkt857w9wa5ym6zyrss,63,1,1.0,38.0,0.029,1.0,1.0
mturk,49siubkt857w9wa5ym6zyrss,64,1,1.0,38.0,0.049,1.0,1.0
mturk,49siubkt857w9wa5ym6zyrss,65,1,0.0,37.0,0.251,0.0,0.0
mturk,49siubkt857w9wa5ym6zyrss,66,1,2.0,39.0,0.587,0.0,0.0
mturk,49siubkt857w9wa5ym6zyrss,67,1,1.0,38.0,0.068,1.0,1.0
mturk,49siubkt857w9wa5ym6zyrss,68,1,1.0,38.0,0.11,1.0,1.0
mturk,49siubkt857w9wa5ym6zyrss,69,1,1.0,38.0,0.097,1.0,0.0
mturk,49siubkt857w9wa5ym6zyrss,70,1,0.0,37.0,0.127,0.0,0.0
mturk,49siubkt857w9wa5ym6zyrss,71,1,2.0,39.0,0.078,0.0,0.0
mturk,49siubkt857w9wa5ym6zyrss,72,1,1.0,38.0,0.151,1.0,0.0
mturk,49siubkt857w9wa5ym6zyrss,73,1,2.0,39.0,0.128,0.0,1.0
mturk,49siubkt857w9wa5ym6zyrss,74,1,2.0,39.0,0.544,0.0,0.0
mturk,49siubkt857w9wa5ym6zyrss,75,1,0.0,37.0,0.0,0.0,0.0
mturk,49siubkt857w9wa5ym6zyrss,76,0,2.0,39.0,0.239,0.0,0.0
mturk,49siubkt857w9wa5ym6zyrss,77,0,2.0,39.0,0.071,0.0,0.0
mturk,49siubkt857w9wa5ym6zyrss,78,0,1.0,38.0,0.514,0.0,0.0
mturk,49siubkt857w9wa5ym6zyrss,79,0,0.0,37.0,0.366,1.0,0.0
mturk,49siubkt857w9wa5ym6zyrss,80,0,2.0,39.0,0.388,0.0,0.0
mturk,49siubkt857w9wa5ym6zyrss,81,0,1.0,38.0,0.493,0.0,0.0
mturk,49siubkt857w9wa5ym6zyrss,82,0,0.0,37.0,0.206,1.0,1.0
mturk,49siubkt857w9wa5ym6zyrss,83,0,0.0,37.0,0.481,1.0,1.0
mturk,49siubkt857w9wa5ym6zyrss,84,0,0.0,37.0,0.488,1.0,1.0
mturk,49siubkt857w9wa5ym6zyrss,85,0,0.0,37.0,0.528,1.0,1.0
mturk,49siubkt857w9wa5ym6zyrss,86,0,0.0,37.0,0.051,1.0,1.0
mturk,49siubkt857w9wa5ym6zyrss,87,0,0.0,37.0,0.162,1.0,1.0
mturk,49siubkt857w9wa5ym6zyrss,88,0,0.0,37.0,0.463,1.0,1.0
mturk,49siubkt857w9wa5ym6zyrss,89,0,0.0,37.0,1.365,1.0,1.0
mturk,49siubkt857w9wa5ym6zyrss,90,0,0.0,37.0,0.275,1.0,1.0
mturk,5ia4n00eepgph445l075pzvt,1,2,1.0,38.0,1.131,0.0,1.0
mturk,5ia4n00eepgph445l075pzvt,2,2,2.0,39.0,1.471,1.0,1.0
mturk,5ia4n00eepgph445l075pzvt,3,2,0.0,37.0,0.84,0.0,0.0
mturk,5ia4n00eepgph445l075pzvt,4,2,1.0,38.0,0.87,0.0,0.0
mturk,5ia4n00eepgph445l075pzvt,5,2,0.0,37.0,0.649,0.0,0.0
mturk,5ia4n00eepgph445l075pzvt,6,2,1.0,38.0,0.546,0.0,0.0
mturk,5ia4n00eepgph445l075pzvt,7,2,2.0,39.0,0.518,1.0,1.0
mturk,5ia4n00eepgph445l075pzvt,8,2,2.0,39.0,0.542,1.0,1.0
mturk,5ia4n00eepgph445l075pzvt,9,2,2.0,39.0,0.7,1.0,1.0
mturk,5ia4n00eepgph445l075pzvt,10,2,2.0,39.0,0.578,1.0,1.0
mturk,5ia4n00eepgph445l075pzvt,11,2,2.0,39.0,0.671,1.0,0.0
mturk,5ia4n00eepgph445l075pzvt,12,2,2.0,39.0,0.595,1.0,1.0
mturk,5ia4n00eepgph445l075pzvt,13,2,2.0,39.0,0.603,1.0,1.0
mturk,5ia4n00eepgph445l075pzvt,14,2,2.0,39.0,0.648,1.0,1.0
mturk,5ia4n00eepgph445l075pzvt,15,2,2.0,39.0,0.592,1.0,1.0
mturk,5ia4n00eepgph445l075pzvt,16,1,2.0,39.0,0.543,0.0,1.0
mturk,5ia4n00eepgph445l075pzvt,17,1,2.0,39.0,0.673,0.0,1.0
mturk,5ia4n00eepgph445l075pzvt,18,1,2.0,39.0,0.516,0.0,0.0
mturk,5ia4n00eepgph445l075pzvt,19,1,2.0,39.0,0.53,0.0,0.0
mturk,5ia4n00eepgph445l075pzvt,20,1,1.0,38.0,0.55,1.0,1.0
mturk,5ia4n00eepgph445l075pzvt,21,1,1.0,38.0,0.439,1.0,1.0
mturk,5ia4n00eepgph445l075pzvt,22,1,1.0,38.0,0.529,1.0,1.0
mturk,5ia4n00eepgph445l075pzvt,23,1,1.0,38.0,0.475,1.0,1.0
mturk,5ia4n00eepgph445l075pzvt,24,1,1.0,38.0,0.447,1.0,1.0
mturk,5ia4n00eepgph445l075pzvt,25,1,1.0,38.0,0.484,1.0,1.0
mturk,5ia4n00eepgph445l075pzvt,26,1,1.0,38.0,0.473,1.0,1.0
mturk,5ia4n00eepgph445l075pzvt,27,1,1.0,38.0,0.461,1.0,1.0
mturk,5ia4n00eepgph445l075pzvt,28,1,1.0,38.0,0.511,1.0,1.0
mturk,5ia4n00eepgph445l075pzvt,29,1,1.0,38.0,0.457,1.0,0.0
mturk,5ia4n00eepgph445l075pzvt,30,1,1.0,38.0,0.515,1.0,1.0
mturk,5ia4n00eepgph445l075pzvt,31,2,1.0,38.0,0.527,0.0,1.0
mturk,5ia4n00eepgph445l075pzvt,32,2,1.0,38.0,0.475,0.0,0.0
mturk,5ia4n00eepgph445l075pzvt,33,2,1.0,38.0,0.472,0.0,0.0
mturk,5ia4n00eepgph445l075pzvt,34,2,0.0,37.0,0.515,0.0,1.0
mturk,5ia4n00eepgph445l075pzvt,35,2,0.0,37.0,0.405,0.0,0.0
mturk,5ia4n00eepgph445l075pzvt,36,2,2.0,39.0,0.409,1.0,1.0
mturk,5ia4n00eepgph445l075pzvt,37,2,2.0,39.0,0.42,1.0,1.0
mturk,5ia4n00eepgph445l075pzvt,38,2,2.0,39.0,0.386,1.0,1.0
mturk,5ia4n00eepgph445l075pzvt,39,2,2.0,39.0,0.451,1.0,1.0
mturk,5ia4n00eepgph445l075pzvt,40,2,2.0,39.0,0.374,1.0,1.0
mturk,5ia4n00eepgph445l075pzvt,41,2,2.0,39.0,0.387,1.0,1.0
mturk,5ia4n00eepgph445l075pzvt,42,2,2.0,39.0,0.393,1.0,0.0
mturk,5ia4n00eepgph445l075pzvt,43,2,2.0,39.0,0.526,1.0,1.0
mturk,5ia4n00eepgph445l075pzvt,44,2,2.0,39.0,0.515,1.0,1.0
mturk,5ia4n00eepgph445l075pzvt,45,2,2.0,39.0,0.45,1.0,1.0
mturk,5ia4n00eepgph445l075pzvt,46,0,2.0,39.0,0.465,0.0,0.0
mturk,5ia4n00eepgph445l075pzvt,47,0,2.0,39.0,0.458,0.0,0.0
mturk,5ia4n00eepgph445l075pzvt,48,0,1.0,38.0,0.449,0.0,0.0
mturk,5ia4n00eepgph445l075pzvt,49,0,1.0,38.0,0.439,0.0,1.0
mturk,5ia4n00eepgph445l075pzvt,50,0,1.0,38.0,0.455,0.0,0.0
mturk,5ia4n00eepgph445l075pzvt,51,0,1.0,38.0,0.459,0.0,0.0
mturk,5ia4n00eepgph445l075pzvt,52,0,0.0,37.0,0.42,1.0,1.0
mturk,5ia4n00eepgph445l075pzvt,53,0,0.0,37.0,0.436,1.0,0.0
mturk,5ia4n00eepgph445l075pzvt,54,0,0.0,37.0,0.487,1.0,0.0
mturk,5ia4n00eepgph445l075pzvt,55,0,1.0,38.0,0.447,0.0,0.0
mturk,5ia4n00eepgph445l075pzvt,56,0,1.0,38.0,0.347,0.0,0.0
mturk,5ia4n00eepgph445l075pzvt,57,0,2.0,39.0,0.344,0.0,0.0
mturk,5ia4n00eepgph445l075pzvt,58,0,2.0,39.0,0.515,0.0,1.0
mturk,5ia4n00eepgph445l075pzvt,59,0,2.0,39.0,0.38,0.0,0.0
mturk,5ia4n00eepgph445l075pzvt,60,0,2.0,39.0,0.363,0.0,0.0
mturk,5ia4n00eepgph445l075pzvt,61,2,2.0,39.0,0.389,1.0,1.0
mturk,5ia4n00eepgph445l075pzvt,62,2,2.0,39.0,0.723,1.0,1.0
mturk,5ia4n00eepgph445l075pzvt,63,2,2.0,39.0,0.426,1.0,1.0
mturk,5ia4n00eepgph445l075pzvt,64,2,2.0,39.0,0.49,1.0,1.0
mturk,5ia4n00eepgph445l075pzvt,65,2,2.0,39.0,0.414,1.0,1.0
mturk,5ia4n00eepgph445l075pzvt,66,2,2.0,39.0,0.399,1.0,1.0
mturk,5ia4n00eepgph445l075pzvt,67,2,2.0,39.0,0.38,1.0,1.0
mturk,5ia4n00eepgph445l075pzvt,68,2,2.0,39.0,0.392,1.0,0.0
mturk,5ia4n00eepgph445l075pzvt,69,2,2.0,39.0,0.482,1.0,0.0
mturk,5ia4n00eepgph445l075pzvt,70,2,2.0,39.0,0.455,1.0,0.0
mturk,5ia4n00eepgph445l075pzvt,71,2,1.0,38.0,0.415,0.0,0.0
mturk,5ia4n00eepgph445l075pzvt,72,2,1.0,38.0,0.352,0.0,0.0
mturk,5ia4n00eepgph445l075pzvt,73,2,1.0,38.0,0.39,0.0,0.0
mturk,5ia4n00eepgph445l075pzvt,74,2,0.0,37.0,0.453,0.0,0.0
mturk,5ia4n00eepgph445l075pzvt,75,2,0.0,37.0,0.363,0.0,0.0
mturk,5ia4n00eepgph445l075pzvt,76,0,0.0,37.0,0.351,1.0,1.0
mturk,5ia4n00eepgph445l075pzvt,77,0,0.0,37.0,0.409,1.0,1.0
mturk,5ia4n00eepgph445l075pzvt,78,0,0.0,37.0,0.385,1.0,0.0
mturk,5ia4n00eepgph445l075pzvt,79,0,0.0,37.0,0.398,1.0,1.0
mturk,5ia4n00eepgph445l075pzvt,80,0,0.0,37.0,0.442,1.0,1.0
mturk,5ia4n00eepgph445l075pzvt,81,0,0.0,37.0,0.444,1.0,1.0
mturk,5ia4n00eepgph445l075pzvt,82,0,0.0,37.0,0.442,1.0,0.0
mturk,5ia4n00eepgph445l075pzvt,83,0,0.0,37.0,0.356,1.0,1.0
mturk,5ia4n00eepgph445l075pzvt,84,0,0.0,37.0,0.45,1.0,1.0
mturk,5ia4n00eepgph445l075pzvt,85,0,0.0,37.0,0.379,1.0,1.0
mturk,5ia4n00eepgph445l075pzvt,86,0,0.0,37.0,0.383,1.0,1.0
mturk,5ia4n00eepgph445l075pzvt,87,0,0.0,37.0,0.438,1.0,1.0
mturk,5ia4n00eepgph445l075pzvt,88,0,0.0,37.0,0.355,1.0,1.0
mturk,5ia4n00eepgph445l075pzvt,89,0,0.0,37.0,0.366,1.0,1.0
mturk,5ia4n00eepgph445l075pzvt,90,0,0.0,37.0,0.312,1.0,1.0
mturk,5lukl1r5qtcpaaxcy1z4k2pb,1,2,0.0,37.0,2.099,0.0,0.0
mturk,5lukl1r5qtcpaaxcy1z4k2pb,2,2,1.0,38.0,1.225,0.0,1.0
mturk,5lukl1r5qtcpaaxcy1z4k2pb,3,2,2.0,39.0,0.818,1.0,1.0
mturk,5lukl1r5qtcpaaxcy1z4k2pb,4,2,1.0,38.0,0.442,0.0,0.0
mturk,5lukl1r5qtcpaaxcy1z4k2pb,5,2,2.0,39.0,0.477,1.0,1.0
mturk,5lukl1r5qtcpaaxcy1z4k2pb,6,2,2.0,39.0,0.415,1.0,1.0
mturk,5lukl1r5qtcpaaxcy1z4k2pb,7,2,2.0,39.0,0.434,1.0,1.0
mturk,5lukl1r5qtcpaaxcy1z4k2pb,8,2,2.0,39.0,0.378,1.0,1.0
mturk,5lukl1r5qtcpaaxcy1z4k2pb,9,2,2.0,39.0,0.346,1.0,0.0
mturk,5lukl1r5qtcpaaxcy1z4k2pb,10,2,2.0,39.0,0.45,1.0,1.0
mturk,5lukl1r5qtcpaaxcy1z4k2pb,11,2,2.0,39.0,0.378,1.0,1.0
mturk,5lukl1r5qtcpaaxcy1z4k2pb,12,2,2.0,39.0,0.381,1.0,1.0
mturk,5lukl1r5qtcpaaxcy1z4k2pb,13,2,2.0,39.0,0.336,1.0,1.0
mturk,5lukl1r5qtcpaaxcy1z4k2pb,14,2,2.0,39.0,0.258,1.0,1.0
mturk,5lukl1r5qtcpaaxcy1z4k2pb,15,2,2.0,39.0,0.306,1.0,1.0
mturk,5lukl1r5qtcpaaxcy1z4k2pb,16,0,2.0,39.0,0.362,0.0,1.0
mturk,5lukl1r5qtcpaaxcy1z4k2pb,17,0,2.0,39.0,0.314,0.0,0.0
mturk,5lukl1r5qtcpaaxcy1z4k2pb,18,0,2.0,39.0,0.346,0.0,0.0
mturk,5lukl1r5qtcpaaxcy1z4k2pb,19,0,2.0,39.0,0.404,0.0,0.0
mturk,5lukl1r5qtcpaaxcy1z4k2pb,20,0,0.0,37.0,0.343,1.0,1.0
mturk,5lukl1r5qtcpaaxcy1z4k2pb,21,0,0.0,37.0,0.266,1.0,1.0
mturk,5lukl1r5qtcpaaxcy1z4k2pb,22,0,0.0,37.0,0.354,1.0,1.0
mturk,5lukl1r5qtcpaaxcy1z4k2pb,23,0,0.0,37.0,0.266,1.0,1.0
mturk,5lukl1r5qtcpaaxcy1z4k2pb,24,0,0.0,37.0,0.25,1.0,1.0
mturk,5lukl1r5qtcpaaxcy1z4k2pb,25,0,0.0,37.0,0.227,1.0,0.0
mturk,5lukl1r5qtcpaaxcy1z4k2pb,26,0,0.0,37.0,0.277,1.0,0.0
mturk,5lukl1r5qtcpaaxcy1z4k2pb,27,0,0.0,37.0,0.256,1.0,1.0
mturk,5lukl1r5qtcpaaxcy1z4k2pb,28,0,0.0,37.0,0.275,1.0,0.0
mturk,5lukl1r5qtcpaaxcy1z4k2pb,29,0,1.0,38.0,0.298,0.0,0.0
mturk,5lukl1r5qtcpaaxcy1z4k2pb,30,0,1.0,38.0,0.266,0.0,0.0
mturk,5lukl1r5qtcpaaxcy1z4k2pb,31,1,2.0,39.0,0.258,0.0,0.0
mturk,5lukl1r5qtcpaaxcy1z4k2pb,32,1,2.0,39.0,0.306,0.0,0.0
mturk,5lukl1r5qtcpaaxcy1z4k2pb,33,1,0.0,37.0,0.268,0.0,0.0
mturk,5lukl1r5qtcpaaxcy1z4k2pb,34,1,1.0,38.0,0.288,1.0,1.0
mturk,5lukl1r5qtcpaaxcy1z4k2pb,35,1,1.0,38.0,0.37,1.0,1.0
mturk,5lukl1r5qtcpaaxcy1z4k2pb,36,1,1.0,38.0,0.274,1.0,1.0
mturk,5lukl1r5qtcpaaxcy1z4k2pb,37,1,1.0,38.0,0.282,1.0,1.0
mturk,5lukl1r5qtcpaaxcy1z4k2pb,38,1,1.0,38.0,0.266,1.0,1.0
mturk,5lukl1r5qtcpaaxcy1z4k2pb,39,1,1.0,38.0,0.362,1.0,1.0
mturk,5lukl1r5qtcpaaxcy1z4k2pb,40,1,1.0,38.0,0.324,1.0,1.0
mturk,5lukl1r5qtcpaaxcy1z4k2pb,41,1,1.0,38.0,0.176,1.0,0.0
mturk,5lukl1r5qtcpaaxcy1z4k2pb,42,1,1.0,38.0,0.25,1.0,1.0
mturk,5lukl1r5qtcpaaxcy1z4k2pb,43,1,1.0,38.0,0.282,1.0,1.0
mturk,5lukl1r5qtcpaaxcy1z4k2pb,44,1,1.0,38.0,0.306,1.0,1.0
mturk,5lukl1r5qtcpaaxcy1z4k2pb,45,1,1.0,38.0,0.258,1.0,1.0
mturk,5lukl1r5qtcpaaxcy1z4k2pb,46,2,1.0,38.0,0.289,0.0,0.0
mturk,5lukl1r5qtcpaaxcy1z4k2pb,47,2,1.0,38.0,0.268,0.0,0.0
mturk,5lukl1r5qtcpaaxcy1z4k2pb,48,2,2.0,39.0,0.264,1.0,1.0
mturk,5lukl1r5qtcpaaxcy1z4k2pb,49,2,2.0,39.0,0.178,1.0,1.0
mturk,5lukl1r5qtcpaaxcy1z4k2pb,50,2,2.0,39.0,0.226,1.0,1.0
mturk,5lukl1r5qtcpaaxcy1z4k2pb,51,2,2.0,39.0,0.194,1.0,1.0
mturk,5lukl1r5qtcpaaxcy1z4k2pb,52,2,2.0,39.0,0.259,1.0,1.0
mturk,5lukl1r5qtcpaaxcy1z4k2pb,53,2,2.0,39.0,0.195,1.0,1.0
mturk,5lukl1r5qtcpaaxcy1z4k2pb,54,2,2.0,39.0,0.147,1.0,0.0
mturk,5lukl1r5qtcpaaxcy1z4k2pb,55,2,2.0,39.0,0.205,1.0,1.0
mturk,5lukl1r5qtcpaaxcy1z4k2pb,56,2,2.0,39.0,0.152,1.0,1.0
mturk,5lukl1r5qtcpaaxcy1z4k2pb,57,2,2.0,39.0,0.218,1.0,1.0
mturk,5lukl1r5qtcpaaxcy1z4k2pb,58,2,2.0,39.0,0.258,1.0,1.0
mturk,5lukl1r5qtcpaaxcy1z4k2pb,59,2,2.0,39.0,0.202,1.0,1.0
mturk,5lukl1r5qtcpaaxcy1z4k2pb,60,2,2.0,39.0,0.131,1.0,1.0
mturk,5lukl1r5qtcpaaxcy1z4k2pb,61,1,2.0,39.0,0.162,0.0,0.0
mturk,5lukl1r5qtcpaaxcy1z4k2pb,62,1,2.0,39.0,0.121,0.0,0.0
mturk,5lukl1r5qtcpaaxcy1z4k2pb,63,1,2.0,39.0,0.285,0.0,1.0
mturk,5lukl1r5qtcpaaxcy1z4k2pb,64,1,2.0,39.0,0.248,0.0,0.0
mturk,5lukl1r5qtcpaaxcy1z4k2pb,65,1,0.0,37.0,0.282,0.0,0.0
mturk,5lukl1r5qtcpaaxcy1z4k2pb,66,1,0.0,37.0,0.21,0.0,0.0
mturk,5lukl1r5qtcpaaxcy1z4k2pb,67,1,1.0,38.0,0.29,1.0,1.0
mturk,5lukl1r5qtcpaaxcy1z4k2pb,68,1,1.0,38.0,0.106,1.0,1.0
mturk,5lukl1r5qtcpaaxcy1z4k2pb,69,1,1.0,38.0,0.05,1.0,1.0
mturk,5lukl1r5qtcpaaxcy1z4k2pb,70,1,1.0,38.0,0.226,1.0,1.0
mturk,5lukl1r5qtcpaaxcy1z4k2pb,71,1,1.0,38.0,0.316,1.0,1.0
mturk,5lukl1r5qtcpaaxcy1z4k2pb,72,1,1.0,38.0,0.184,1.0,0.0
mturk,5lukl1r5qtcpaaxcy1z4k2pb,73,1,1.0,38.0,0.258,1.0,0.0
mturk,5lukl1r5qtcpaaxcy1z4k2pb,74,1,2.0,39.0,0.378,0.0,0.0
mturk,5lukl1r5qtcpaaxcy1z4k2pb,75,1,0.0,37.0,0.09,0.0,0.0
mturk,5lukl1r5qtcpaaxcy1z4k2pb,76,2,1.0,38.0,0.008,0.0,0.0
mturk,5lukl1r5qtcpaaxcy1z4k2pb,77,2,2.0,39.0,0.044,1.0,0.0
mturk,5lukl1r5qtcpaaxcy1z4k2pb,78,2,2.0,39.0,0.772,1.0,1.0
mturk,5lukl1r5qtcpaaxcy1z4k2pb,79,2,2.0,39.0,0.151,1.0,1.0
mturk,5lukl1r5qtcpaaxcy1z4k2pb,80,2,2.0,39.0,0.074,1.0,1.0
mturk,5lukl1r5qtcpaaxcy1z4k2pb,81,2,2.0,39.0,0.906,1.0,0.0
mturk,5lukl1r5qtcpaaxcy1z4k2pb,82,2,2.0,39.0,0.331,1.0,0.0
mturk,5lukl1r5qtcpaaxcy1z4k2pb,83,2,0.0,37.0,0.371,0.0,1.0
mturk,5lukl1r5qtcpaaxcy1z4k2pb,84,2,0.0,37.0,0.291,0.0,0.0
mturk,5lukl1r5qtcpaaxcy1z4k2pb,85,2,0.0,37.0,0.173,0.0,0.0
mturk,5lukl1r5qtcpaaxcy1z4k2pb,86,2,1.0,38.0,0.263,0.0,0.0
mturk,5lukl1r5qtcpaaxcy1z4k2pb,87,2,2.0,39.0,0.299,1.0,0.0
mturk,5lukl1r5qtcpaaxcy1z4k2pb,88,2,1.0,38.0,0.106,0.0,0.0
mturk,5lukl1r5qtcpaaxcy1z4k2pb,89,2,0.0,37.0,0.282,0.0,0.0
mturk,5lukl1r5qtcpaaxcy1z4k2pb,90,2,0.0,37.0,0.138,0.0,0.0
mturk,5sg7gnocyd7oke5w09iyjmkw,1,2,2.0,39.0,3.274,1.0,1.0
mturk,5sg7gnocyd7oke5w09iyjmkw,2,2,2.0,39.0,0.649,1.0,1.0
mturk,5sg7gnocyd7oke5w09iyjmkw,3,2,1.0,38.0,0.703,0.0,0.0
mturk,5sg7gnocyd7oke5w09iyjmkw,4,2,0.0,37.0,0.486,0.0,1.0
mturk,5sg7gnocyd7oke5w09iyjmkw,5,2,0.0,37.0,0.428,0.0,1.0
mturk,5sg7gnocyd7oke5w09iyjmkw,6,2,2.0,39.0,0.112,1.0,1.0
mturk,5sg7gnocyd7oke5w09iyjmkw,7,2,0.0,37.0,0.143,0.0,0.0
mturk,5sg7gnocyd7oke5w09iyjmkw,8,2,2.0,39.0,0.117,1.0,0.0
mturk,5sg7gnocyd7oke5w09iyjmkw,9,2,2.0,39.0,0.031,1.0,1.0
mturk,5sg7gnocyd7oke5w09iyjmkw,10,2,0.0,37.0,0.5,0.0,0.0
mturk,5sg7gnocyd7oke5w09iyjmkw,11,2,2.0,39.0,0.052,1.0,0.0
mturk,5sg7gnocyd7oke5w09iyjmkw,12,2,2.0,39.0,0.294,1.0,1.0
mturk,5sg7gnocyd7oke5w09iyjmkw,13,2,0.0,37.0,0.073,0.0,0.0
mturk,5sg7gnocyd7oke5w09iyjmkw,14,2,2.0,39.0,0.029,1.0,0.0
mturk,5sg7gnocyd7oke5w09iyjmkw,15,2,1.0,38.0,0.267,0.0,0.0
mturk,5sg7gnocyd7oke5w09iyjmkw,16,0,1.0,38.0,0.181,0.0,0.0
mturk,5sg7gnocyd7oke5w09iyjmkw,17,0,2.0,39.0,0.16,0.0,0.0
mturk,5sg7gnocyd7oke5w09iyjmkw,18,0,0.0,37.0,0.032,1.0,1.0
mturk,5sg7gnocyd7oke5w09iyjmkw,19,0,2.0,39.0,0.096,0.0,1.0
mturk,5sg7gnocyd7oke5w09iyjmkw,20,0,0.0,37.0,0.385,1.0,1.0
mturk,5sg7gnocyd7oke5w09iyjmkw,21,0,2.0,39.0,0.059,0.0,1.0
mturk,5sg7gnocyd7oke5w09iyjmkw,22,0,0.0,37.0,0.191,1.0,1.0
mturk,5sg7gnocyd7oke5w09iyjmkw,23,0,2.0,39.0,0.221,0.0,0.0
mturk,5sg7gnocyd7oke5w09iyjmkw,24,0,0.0,37.0,0.251,1.0,1.0
mturk,5sg7gnocyd7oke5w09iyjmkw,25,0,0.0,37.0,0.11,1.0,0.0
mturk,5sg7gnocyd7oke5w09iyjmkw,26,0,2.0,39.0,0.067,0.0,1.0
mturk,5sg7gnocyd7oke5w09iyjmkw,27,0,2.0,39.0,0.279,0.0,0.0
mturk,5sg7gnocyd7oke5w09iyjmkw,28,0,2.0,39.0,0.11,0.0,0.0
mturk,5sg7gnocyd7oke5w09iyjmkw,29,0,0.0,37.0,0.661,1.0,1.0
mturk,5sg7gnocyd7oke5w09iyjmkw,30,0,2.0,39.0,0.207,0.0,0.0
mturk,5sg7gnocyd7oke5w09iyjmkw,31,2,0.0,37.0,0.026,0.0,0.0
mturk,5sg7gnocyd7oke5w09iyjmkw,32,2,1.0,38.0,0.505,0.0,0.0
mturk,5sg7gnocyd7oke5w09iyjmkw,33,2,2.0,39.0,0.237,1.0,1.0
mturk,5sg7gnocyd7oke5w09iyjmkw,34,2,0.0,37.0,0.268,0.0,0.0
mturk,5sg7gnocyd7oke5w09iyjmkw,35,2,2.0,39.0,0.032,1.0,1.0
mturk,5sg7gnocyd7oke5w09iyjmkw,36,2,0.0,37.0,0.15,0.0,0.0
mturk,5sg7gnocyd7oke5w09iyjmkw,37,2,2.0,39.0,0.149,1.0,1.0
mturk,5sg7gnocyd7oke5w09iyjmkw,38,2,2.0,39.0,0.048,1.0,1.0
mturk,5sg7gnocyd7oke5w09iyjmkw,39,2,2.0,39.0,0.024,1.0,1.0
mturk,5sg7gnocyd7oke5w09iyjmkw,40,2,2.0,39.0,0.047,1.0,1.0
mturk,5sg7gnocyd7oke5w09iyjmkw,41,2,2.0,39.0,0.237,1.0,0.0
mturk,5sg7gnocyd7oke5w09iyjmkw,42,2,0.0,37.0,0.045,0.0,0.0
mturk,5sg7gnocyd7oke5w09iyjmkw,43,2,0.0,37.0,0.138,0.0,0.0
mturk,5sg7gnocyd7oke5w09iyjmkw,44,2,0.0,37.0,0.129,0.0,0.0
mturk,5sg7gnocyd7oke5w09iyjmkw,45,2,2.0,39.0,0.03,1.0,1.0
mturk,5sg7gnocyd7oke5w09iyjmkw,46,1,2.0,39.0,0.136,0.0,0.0
mturk,5sg7gnocyd7oke5w09iyjmkw,47,1,1.0,38.0,0.419,1.0,1.0
mturk,5sg7gnocyd7oke5w09iyjmkw,48,1,2.0,39.0,0.313,0.0,0.0
mturk,5sg7gnocyd7oke5w09iyjmkw,49,1,1.0,38.0,0.324,1.0,0.0
mturk,5sg7gnocyd7oke5w09iyjmkw,50,1,0.0,37.0,0.541,0.0,0.0
mturk,5sg7gnocyd7oke5w09iyjmkw,51,1,2.0,39.0,0.034,0.0,1.0
mturk,5sg7gnocyd7oke5w09iyjmkw,52,1,2.0,39.0,0.397,0.0,0.0
mturk,5sg7gnocyd7oke5w09iyjmkw,53,1,2.0,39.0,0.202,0.0,0.0
mturk,5sg7gnocyd7oke5w09iyjmkw,54,1,1.0,38.0,0.181,1.0,1.0
mturk,5sg7gnocyd7oke5w09iyjmkw,55,1,2.0,39.0,0.119,0.0,0.0
mturk,5sg7gnocyd7oke5w09iyjmkw,56,1,1.0,38.0,0.32,1.0,1.0
mturk,5sg7gnocyd7oke5w09iyjmkw,57,1,2.0,39.0,0.305,0.0,1.0
mturk,5sg7gnocyd7oke5w09iyjmkw,58,1,1.0,38.0,0.318,1.0,1.0
mturk,5sg7gnocyd7oke5w09iyjmkw,59,1,2.0,39.0,0.232,0.0,0.0
mturk,5sg7gnocyd7oke5w09iyjmkw,60,1,1.0,38.0,0.073,1.0,1.0
mturk,5sg7gnocyd7oke5w09iyjmkw,61,2,2.0,39.0,0.085,1.0,1.0
mturk,5sg7gnocyd7oke5w09iyjmkw,62,2,1.0,38.0,0.21,0.0,0.0
mturk,5sg7gnocyd7oke5w09iyjmkw,63,2,2.0,39.0,0.08,1.0,1.0
mturk,5sg7gnocyd7oke5w09iyjmkw,64,2,1.0,38.0,0.301,0.0,0.0
mturk,5sg7gnocyd7oke5w09iyjmkw,65,2,2.0,39.0,0.007,1.0,0.0
mturk,5sg7gnocyd7oke5w09iyjmkw,66,2,0.0,37.0,0.099,0.0,0.0
mturk,5sg7gnocyd7oke5w09iyjmkw,67,2,1.0,38.0,0.273,0.0,0.0
mturk,5sg7gnocyd7oke5w09iyjmkw,68,2,2.0,39.0,0.131,1.0,1.0
mturk,5sg7gnocyd7oke5w09iyjmkw,69,2,1.0,38.0,0.18,0.0,0.0
mturk,5sg7gnocyd7oke5w09iyjmkw,70,2,2.0,39.0,0.224,1.0,1.0
mturk,5sg7gnocyd7oke5w09iyjmkw,71,2,2.0,39.0,0.291,1.0,1.0
mturk,5sg7gnocyd7oke5w09iyjmkw,72,2,1.0,38.0,0.192,0.0,1.0
mturk,5sg7gnocyd7oke5w09iyjmkw,73,2,2.0,39.0,0.271,1.0,0.0
mturk,5sg7gnocyd7oke5w09iyjmkw,74,2,1.0,38.0,0.245,0.0,0.0
mturk,5sg7gnocyd7oke5w09iyjmkw,75,2,2.0,39.0,0.536,1.0,1.0
mturk,5sg7gnocyd7oke5w09iyjmkw,76,0,1.0,38.0,0.468,0.0,0.0
mturk,5sg7gnocyd7oke5w09iyjmkw,77,0,2.0,39.0,0.397,0.0,0.0
mturk,5sg7gnocyd7oke5w09iyjmkw,78,0,2.0,39.0,0.888,0.0,0.0
mturk,5sg7gnocyd7oke5w09iyjmkw,79,0,1.0,38.0,0.273,0.0,0.0
mturk,5sg7gnocyd7oke5w09iyjmkw,80,0,2.0,39.0,8.615,0.0,0.0
mturk,5sg7gnocyd7oke5w09iyjmkw,81,0,1.0,38.0,0.071,0.0,1.0
mturk,5sg7gnocyd7oke5w09iyjmkw,82,0,1.0,38.0,0.428,0.0,0.0
mturk,5sg7gnocyd7oke5w09iyjmkw,83,0,2.0,39.0,0.986,0.0,1.0
mturk,5sg7gnocyd7oke5w09iyjmkw,84,0,2.0,39.0,0.295,0.0,0.0
mturk,5sg7gnocyd7oke5w09iyjmkw,85,0,1.0,38.0,0.271,0.0,0.0
mturk,5sg7gnocyd7oke5w09iyjmkw,86,0,2.0,39.0,0.28,0.0,0.0
mturk,5sg7gnocyd7oke5w09iyjmkw,87,0,0.0,37.0,0.159,1.0,1.0
mturk,5sg7gnocyd7oke5w09iyjmkw,88,0,1.0,38.0,0.236,0.0,0.0
mturk,5sg7gnocyd7oke5w09iyjmkw,89,0,2.0,39.0,0.25,0.0,0.0
mturk,5sg7gnocyd7oke5w09iyjmkw,90,0,0.0,37.0,0.168,1.0,1.0
mturk,6ddzcn9af3ba6dv3c91n5enx,1,0,0.0,37.0,3.437,1.0,1.0
mturk,6ddzcn9af3ba6dv3c91n5enx,2,0,2.0,39.0,1.158,0.0,0.0
mturk,6ddzcn9af3ba6dv3c91n5enx,3,0,0.0,37.0,0.596,1.0,1.0
mturk,6ddzcn9af3ba6dv3c91n5enx,4,0,0.0,37.0,0.465,1.0,0.0
mturk,6ddzcn9af3ba6dv3c91n5enx,5,0,1.0,38.0,0.477,0.0,0.0
mturk,6ddzcn9af3ba6dv3c91n5enx,6,0,0.0,37.0,0.556,1.0,1.0
mturk,6ddzcn9af3ba6dv3c91n5enx,7,0,1.0,38.0,0.526,0.0,0.0
mturk,6ddzcn9af3ba6dv3c91n5enx,8,0,2.0,39.0,0.376,0.0,0.0
mturk,6ddzcn9af3ba6dv3c91n5enx,9,0,2.0,39.0,0.346,0.0,0.0
mturk,6ddzcn9af3ba6dv3c91n5enx,10,0,0.0,37.0,0.307,1.0,1.0
mturk,6ddzcn9af3ba6dv3c91n5enx,11,0,2.0,39.0,0.405,0.0,1.0
mturk,6ddzcn9af3ba6dv3c91n5enx,12,0,1.0,38.0,0.495,0.0,0.0
mturk,6ddzcn9af3ba6dv3c91n5enx,13,0,2.0,39.0,0.274,0.0,0.0
mturk,6ddzcn9af3ba6dv3c91n5enx,14,0,0.0,37.0,0.377,1.0,1.0
mturk,6ddzcn9af3ba6dv3c91n5enx,15,0,2.0,39.0,0.305,0.0,0.0
mturk,6ddzcn9af3ba6dv3c91n5enx,16,1,0.0,37.0,0.346,0.0,0.0
mturk,6ddzcn9af3ba6dv3c91n5enx,17,1,0.0,37.0,0.278,0.0,1.0
mturk,6ddzcn9af3ba6dv3c91n5enx,18,1,0.0,37.0,0.336,0.0,1.0
mturk,6ddzcn9af3ba6dv3c91n5enx,19,1,0.0,37.0,0.346,0.0,0.0
mturk,6ddzcn9af3ba6dv3c91n5enx,20,1,2.0,39.0,1.337,0.0,1.0
mturk,6ddzcn9af3ba6dv3c91n5enx,21,1,1.0,38.0,0.378,1.0,1.0
mturk,6ddzcn9af3ba6dv3c91n5enx,22,1,1.0,38.0,0.378,1.0,1.0
mturk,6ddzcn9af3ba6dv3c91n5enx,23,1,0.0,37.0,0.328,0.0,0.0
mturk,6ddzcn9af3ba6dv3c91n5enx,24,1,2.0,39.0,0.316,0.0,0.0
mturk,6ddzcn9af3ba6dv3c91n5enx,25,1,2.0,39.0,0.332,0.0,1.0
mturk,6ddzcn9af3ba6dv3c91n5enx,26,1,2.0,39.0,0.437,0.0,0.0
mturk,6ddzcn9af3ba6dv3c91n5enx,27,1,1.0,38.0,0.379,1.0,0.0
mturk,6ddzcn9af3ba6dv3c91n5enx,28,1,2.0,39.0,0.326,0.0,0.0
mturk,6ddzcn9af3ba6dv3c91n5enx,29,1,0.0,37.0,0.257,0.0,1.0
mturk,6ddzcn9af3ba6dv3c91n5enx,30,1,0.0,37.0,0.208,0.0,0.0
mturk,6ddzcn9af3ba6dv3c91n5enx,31,0,2.0,39.0,0.328,0.0,1.0
mturk,6ddzcn9af3ba6dv3c91n5enx,32,0,2.0,39.0,0.545,0.0,1.0
mturk,6ddzcn9af3ba6dv3c91n5enx,33,0,2.0,39.0,1.815,0.0,0.0
mturk,6ddzcn9af3ba6dv3c91n5enx,34,0,0.0,37.0,0.487,1.0,1.0
mturk,6ddzcn9af3ba6dv3c91n5enx,35,0,0.0,37.0,0.327,1.0,1.0
mturk,6ddzcn9af3ba6dv3c91n5enx,36,0,1.0,38.0,0.284,0.0,0.0
mturk,6ddzcn9af3ba6dv3c91n5enx,37,0,0.0,37.0,0.379,1.0,1.0
mturk,6ddzcn9af3ba6dv3c91n5enx,38,0,0.0,37.0,0.384,1.0,1.0
mturk,6ddzcn9af3ba6dv3c91n5enx,39,0,2.0,39.0,0.611,0.0,0.0
mturk,6ddzcn9af3ba6dv3c91n5enx,40,0,1.0,38.0,0.353,0.0,0.0
mturk,6ddzcn9af3ba6dv3c91n5enx,41,0,0.0,37.0,0.358,1.0,0.0
mturk,6ddzcn9af3ba6dv3c91n5enx,42,0,2.0,39.0,0.395,0.0,1.0
mturk,6ddzcn9af3ba6dv3c91n5enx,43,0,2.0,39.0,0.518,0.0,0.0
mturk,6ddzcn9af3ba6dv3c91n5enx,44,0,1.0,38.0,0.483,0.0,0.0
mturk,6ddzcn9af3ba6dv3c91n5enx,45,0,0.0,37.0,0.708,1.0,1.0
mturk,6ddzcn9af3ba6dv3c91n5enx,46,2,0.0,37.0,0.747,0.0,0.0
mturk,6ddzcn9af3ba6dv3c91n5enx,47,2,2.0,39.0,0.494,1.0,1.0
mturk,6ddzcn9af3ba6dv3c91n5enx,48,2,2.0,39.0,0.496,1.0,0.0
mturk,6ddzcn9af3ba6dv3c91n5enx,49,2,0.0,37.0,0.527,0.0,0.0
mturk,6ddzcn9af3ba6dv3c91n5enx,50,2,0.0,37.0,0.718,0.0,0.0
mturk,6ddzcn9af3ba6dv3c91n5enx,51,2,0.0,37.0,1.756,0.0,0.0
mturk,6ddzcn9af3ba6dv3c91n5enx,52,2,0.0,37.0,0.617,0.0,0.0
mturk,6ddzcn9af3ba6dv3c91n5enx,53,2,0.0,37.0,0.805,0.0,0.0
mturk,6ddzcn9af3ba6dv3c91n5enx,54,2,2.0,39.0,0.508,1.0,1.0
mturk,6ddzcn9af3ba6dv3c91n5enx,55,2,2.0,39.0,0.838,1.0,0.0
mturk,6ddzcn9af3ba6dv3c91n5enx,56,2,0.0,37.0,0.125,0.0,0.0
mturk,6ddzcn9af3ba6dv3c91n5enx,57,2,2.0,39.0,0.475,1.0,1.0
mturk,6ddzcn9af3ba6dv3c91n5enx,58,2,2.0,39.0,0.317,1.0,0.0
mturk,6ddzcn9af3ba6dv3c91n5enx,59,2,0.0,37.0,0.456,0.0,0.0
mturk,6ddzcn9af3ba6dv3c91n5enx,60,2,1.0,38.0,0.429,0.0,0.0
mturk,6ddzcn9af3ba6dv3c91n5enx,61,0,1.0,38.0,0.267,0.0,0.0
mturk,6ddzcn9af3ba6dv3c91n5enx,62,0,0.0,37.0,0.314,1.0,1.0
mturk,6ddzcn9af3ba6dv3c91n5enx,63,0,2.0,39.0,0.266,0.0,0.0
mturk,6ddzcn9af3ba6dv3c91n5enx,64,0,0.0,37.0,0.218,1.0,1.0
mturk,6ddzcn9af3ba6dv3c91n5enx,65,0,0.0,37.0,0.388,1.0,1.0
mturk,6ddzcn9af3ba6dv3c91n5enx,66,0,0.0,37.0,0.335,1.0,1.0
mturk,6ddzcn9af3ba6dv3c91n5enx,67,0,0.0,37.0,0.379,1.0,1.0
mturk,6ddzcn9af3ba6dv3c91n5enx,68,0,0.0,37.0,0.465,1.0,0.0
mturk,6ddzcn9af3ba6dv3c91n5enx,69,0,0.0,37.0,0.417,1.0,1.0
mturk,6ddzcn9af3ba6dv3c91n5enx,70,0,2.0,39.0,0.297,0.0,0.0
mturk,6ddzcn9af3ba6dv3c91n5enx,71,0,0.0,37.0,0.448,1.0,1.0
mturk,6ddzcn9af3ba6dv3c91n5enx,72,0,1.0,38.0,0.606,0.0,0.0
mturk,6ddzcn9af3ba6dv3c91n5enx,73,0,0.0,37.0,0.326,1.0,1.0
mturk,6ddzcn9af3ba6dv3c91n5enx,74,0,0.0,37.0,0.616,1.0,0.0
mturk,6ddzcn9af3ba6dv3c91n5enx,75,0,2.0,39.0,0.158,0.0,0.0
mturk,6ddzcn9af3ba6dv3c91n5enx,76,1,0.0,37.0,0.446,0.0,0.0
mturk,6ddzcn9af3ba6dv3c91n5enx,77,1,1.0,38.0,0.505,1.0,1.0
mturk,6ddzcn9af3ba6dv3c91n5enx,78,1,1.0,38.0,0.578,1.0,1.0
mturk,6ddzcn9af3ba6dv3c91n5enx,79,1,1.0,38.0,0.498,1.0,1.0
mturk,6ddzcn9af3ba6dv3c91n5enx,80,1,1.0,38.0,0.585,1.0,1.0
