platform,subject,trial,correct,choice,key,rt,accuracy,outcome
mturk,0a8zkiu9rpf0mxo0h9ecdyzh,1,1,1.0,38.0,0.922,1.0,1.0
mturk,0a8zkiu9rpf0mxo0h9ecdyzh,2,1,0.0,37.0,1.045,0.0,0.0
mturk,0a8zkiu9rpf0mxo0h9ecdyzh,3,1,2.0,39.0,0.929,0.0,1.0
mturk,0a8zkiu9rpf0mxo0h9ecdyzh,4,1,1.0,38.0,0.662,1.0,1.0
mturk,0a8zkiu9rpf0mxo0h9ecdyzh,5,1,2.0,39.0,0.49,0.0,0.0
mturk,0a8zkiu9rpf0mxo0h9ecdyzh,6,1,1.0,38.0,0.402,1.0,1.0
mturk,0a8zkiu9rpf0mxo0h9ecdyzh,7,1,1.0,38.0,0.436,1.0,1.0
mturk,0a8zkiu9rpf0mxo0h9ecdyzh,8,1,1.0,38.0,0.812,1.0,1.0
mturk,0a8zkiu9rpf0mxo0h9ecdyzh,9,1,1.0,38.0,0.769,1.0,1.0
mturk,0a8zkiu9rpf0mxo0h9ecdyzh,10,1,1.0,38.0,0.661,1.0,1.0
mturk,0a8zkiu9rpf0mxo0h9ecdyzh,11,1,1.0,38.0,0.569,1.0,1.0
mturk,0a8zkiu9rpf0mxo0h9ecdyzh,12,1,1.0,38.0,0.483,1.0,1.0
mturk,0a8zkiu9rpf0mxo0h9ecdyzh,13,1,1.0,38.0,0.462,1.0,1.0
mturk,0a8zkiu9rpf0mxo0h9ecdyzh,14,1,1.0,38.0,0.347,1.0,1.0
mturk,0a8zkiu9rpf0mxo0h9ecdyzh,15,1,1.0,38.0,0.385,1.0,1.0
mturk,0a8zkiu9rpf0mxo0h9ecdyzh,16,0,1.0,38.0,0.548,0.0,0.0
mturk,0a8zkiu9rpf0mxo0h9ecdyzh,17,0,1.0,38.0,0.815,0.0,0.0
mturk,0a8zkiu9rpf0mxo0h9ecdyzh,18,0,2.0,39.0,0.291,0.0,1.0
mturk,0a8zkiu9rpf0mxo0h9ecdyzh,19,0,2.0,39.0,0.714,0.0,0.0
mturk,0a8zkiu9rpf0mxo0h9ecdyzh,20,0,0.0,37.0,0.232,1.0,1.0
mturk,0a8zkiu9rpf0mxo0h9ecdyzh,21,0,0.0,37.0,0.386,1.0,1.0
mturk,0a8zkiu9rpf0mxo0h9ecdyzh,22,0,0.0,37.0,0.471,1.0,1.0
mturk,0a8zkiu9rpf0mxo0h9ecdyzh,23,0,0.0,37.0,0.605,1.0,1.0
mturk,0a8zkiu9rpf0mxo0h9ecdyzh,24,0,0.0,37.0,0.368,1.0,1.0
mturk,0a8zkiu9rpf0mxo0h9ecdyzh,25,0,0.0,37.0,0.331,1.0,1.0
mturk,0a8zkiu9rpf0mxo0h9ecdyzh,26,0,0.0,37.0,0.333,1.0,0.0
mturk,0a8zkiu9rpf0mxo0h9ecdyzh,27,0,1.0,38.0,0.208,0.0,0.0
mturk,0a8zkiu9rpf0mxo0h9ecdyzh,28,0,2.0,39.0,0.56,0.0,0.0
mturk,0a8zkiu9rpf0mxo0h9ecdyzh,29,0,0.0,37.0,0.609,1.0,1.0
mturk,0a8zkiu9rpf0mxo0h9ecdyzh,30,0,0.0,37.0,0.45,1.0,1.0
mturk,0a8zkiu9rpf0mxo0h9ecdyzh,31,2,0.0,37.0,0.38,0.0,0.0
mturk,0a8zkiu9rpf0mxo0h9ecdyzh,32,2,1.0,38.0,0.283,0.0,0.0
mturk,0a8zkiu9rpf0mxo0h9ecdyzh,33,2,2.0,39.0,0.323,1.0,1.0
mturk,0a8zkiu9rpf0mxo0h9ecdyzh,34,2,2.0,39.0,0.322,1.0,1.0
mturk,0a8zkiu9rpf0mxo0h9ecdyzh,35,2,2.0,39.0,0.282,1.0,1.0
mturk,0a8zkiu9rpf0mxo0h9ecdyzh,36,2,2.0,39.0,0.355,1.0,1.0
mturk,0a8zkiu9rpf0mxo0h9ecdyzh,37,2,2.0,39.0,0.336,1.0,1.0
mturk,0a8zkiu9rpf0mxo0h9ecdyzh,38,2,2.0,39.0,0.033,1.0,1.0
mturk,0a8zkiu9rpf0mxo0h9ecdyzh,39,2,2.0,39.0,0.301,1.0,0.0
mturk,0a8zkiu9rpf0mxo0h9ecdyzh,40,2,0.0,37.0,0.333,0.0,1.0
mturk,0a8zkiu9rpf0mxo0h9ecdyzh,41,2,0.0,37.0,0.482,0.0,0.0
mturk,0a8zkiu9rpf0mxo0h9ecdyzh,42,2,1.0,38.0,0.38,0.0,0.0
mturk,0a8zkiu9rpf0mxo0h9ecdyzh,43,2,2.0,39.0,0.57,1.0,1.0
mturk,0a8zkiu9rpf0mxo0h9ecdyzh,44,2,2.0,39.0,0.464,1.0,1.0
mturk,0a8zkiu9rpf0mxo0h9ecdyzh,45,2,2.0,39.0,0.514,1.0,0.0
mturk,0a8zkiu9rpf0mxo0h9ecdyzh,46,0,0.0,37.0,0.38,1.0,1.0
mturk,0a8zkiu9rpf0mxo0h9ecdyzh,47,0,0.0,37.0,0.706,1.0,1.0
mturk,0a8zkiu9rpf0mxo0h9ecdyzh,48,0,0.0,37.0,0.499,1.0,1.0
mturk,0a8zkiu9rpf0mxo0h9ecdyzh,49,0,0.0,37.0,0.403,1.0,1.0
mturk,0a8zkiu9rpf0mxo0h9ecdyzh,50,0,0.0,37.0,0.971,1.0,0.0
mturk,0a8zkiu9rpf0mxo0h9ecdyzh,51,0,1.0,38.0,0.811,0.0,0.0
mturk,0a8zkiu9rpf0mxo0h9ecdyzh,52,0,2.0,39.0,0.435,0.0,0.0
mturk,0a8zkiu9rpf0mxo0h9ecdyzh,53,0,0.0,37.0,0.387,1.0,1.0
mturk,0a8zkiu9rpf0mxo0h9ecdyzh,54,0,0.0,37.0,0.682,1.0,1.0
mturk,0a8zkiu9rpf0mxo0h9ecdyzh,55,0,0.0,37.0,0.558,1.0,1.0
mturk,0a8zkiu9rpf0mxo0h9ecdyzh,56,0,0.0,37.0,0.434,1.0,1.0
mturk,0a8zkiu9rpf0mxo0h9ecdyzh,57,0,0.0,37.0,0.362,1.0,1.0
mturk,0a8zkiu9rpf0mxo0h9ecdyzh,58,0,0.0,37.0,0.868,1.0,1.0
mturk,0a8zkiu9rpf0mxo0h9ecdyzh,59,0,0.0,37.0,0.166,1.0,1.0
mturk,0a8zkiu9rpf0mxo0h9ecdyzh,60,0,0.0,37.0,0.556,1.0,1.0
mturk,0a8zkiu9rpf0mxo0h9ecdyzh,61,1,0.0,37.0,0.467,0.0,0.0
mturk,0a8zkiu9rpf0mxo0h9ecdyzh,62,1,1.0,38.0,0.248,1.0,1.0
mturk,0a8zkiu9rpf0mxo0h9ecdyzh,63,1,1.0,38.0,0.418,1.0,1.0
mturk,0a8zkiu9rpf0mxo0h9ecdyzh,64,1,1.0,38.0,1.197,1.0,1.0
mturk,0a8zkiu9rpf0mxo0h9ecdyzh,65,1,1.0,38.0,0.767,1.0,1.0
mturk,0a8zkiu9rpf0mxo0h9ecdyzh,66,1,1.0,38.0,0.58,1.0,1.0
mturk,0a8zkiu9rpf0mxo0h9ecdyzh,67,1,1.0,38.0,0.555,1.0,1.0
mturk,0a8zkiu9rpf0mxo0h9ecdyzh,68,1,1.0,38.0,0.372,1.0,1.0
mturk,0a8zkiu9rpf0mxo0h9ecdyzh,69,1,1.0,38.0,0.379,1.0,1.0
mturk,0a8zkiu9rpf0mxo0h9ecdyzh,70,1,1.0,38.0,0.427,1.0,1.0
mturk,0a8zkiu9rpf0mxo0h9ecdyzh,71,1,1.0,38.0,0.747,1.0,1.0
mturk,0a8zkiu9rpf0mxo0h9ecdyzh,72,1,1.0,38.0,0.434,1.0,1.0
mturk,0a8zkiu9rpf0mxo0h9ecdyzh,73,1,1.0,38.0,0.434,1.0,1.0
mturk,0a8zkiu9rpf0mxo0h9ecdyzh,74,1,1.0,38.0,0.405,1.0,1.0
mturk,0a8zkiu9rpf0mxo0h9ecdyzh,75,1,1.0,38.0,0.331,1.0,1.0
mturk,0a8zkiu9rpf0mxo0h9ecdyzh,76,2,1.0,38.0,0.315,0.0,1.0
mturk,0a8zkiu9rpf0mxo0h9ecdyzh,77,2,1.0,38.0,0.341,0.0,0.0
mturk,0a8zkiu9rpf0mxo0h9ecdyzh,78,2,2.0,39.0,0.061,1.0,1.0
mturk,0a8zkiu9rpf0mxo0h9ecdyzh,79,2,2.0,39.0,0.394,1.0,1.0
mturk,0a8zkiu9rpf0mxo0h9ecdyzh,80,2,2.0,39.0,0.365,1.0,0.0
mturk,0a8zkiu9rpf0mxo0h9ecdyzh,81,2,0.0,37.0,0.573,0.0,0.0
mturk,0a8zkiu9rpf0mxo0h9ecdyzh,82,2,1.0,38.0,1.095,0.0,0.0
mturk,0a8zkiu9rpf0mxo0h9ecdyzh,83,2,2.0,39.0,0.578,1.0,1.0
mturk,0a8zkiu9rpf0mxo0h9ecdyzh,84,2,2.0,39.0,0.324,1.0,1.0
mturk,0a8zkiu9rpf0mxo0h9ecdyzh,85,2,2.0,39.0,0.917,1.0,1.0
mturk,0a8zkiu9rpf0mxo0h9ecdyzh,86,2,2.0,39.0,0.693,1.0,1.0
mturk,0a8zkiu9rpf0mxo0h9ecdyzh,87,2,2.0,39.0,0.401,1.0,1.0
mturk,0a8zkiu9rpf0mxo0h9ecdyzh,88,2,2.0,39.0,3.22,1.0,1.0
mturk,0a8zkiu9rpf0mxo0h9ecdyzh,89,2,2.0,39.0,0.54,1.0,1.0
mturk,0a8zkiu9rpf0mxo0h9ecdyzh,90,2,2.0,39.0,0.611,1.0,1.0
mturk,0g4fx9g2wryeio74yzgqwpq8,1,2,1.0,38.0,2.022,0.0,0.0
mturk,0g4fx9g2wryeio74yzgqwpq8,2,2,0.0,37.0,0.555,0.0,0.0
mturk,0g4fx9g2wryeio74yzgqwpq8,3,2,2.0,39.0,0.3,1.0,1.0
mturk,0g4fx9g2wryeio74yzgqwpq8,4,2,2.0,39.0,0.373,1.0,1.0
mturk,0g4fx9g2wryeio74yzgqwpq8,5,2,2.0,39.0,0.292,1.0,0.0
mturk,0g4fx9g2wryeio74yzgqwpq8,6,2,1.0,38.0,0.245,0.0,0.0
mturk,0g4fx9g2wryeio74yzgqwpq8,7,2,2.0,39.0,0.085,1.0,1.0
mturk,0g4fx9g2wryeio74yzgqwpq8,8,2,2.0,39.0,0.3,1.0,0.0
mturk,0g4fx9g2wryeio74yzgqwpq8,9,2,0.0,37.0,0.11,0.0,0.0
mturk,0g4fx9g2wryeio74yzgqwpq8,10,2,2.0,39.0,0.02,1.0,1.0
mturk,0g4fx9g2wryeio74yzgqwpq8,11,2,2.0,39.0,0.3,1.0,1.0
mturk,0g4fx9g2wryeio74yzgqwpq8,12,2,2.0,39.0,0.525,1.0,1.0
mturk,0g4fx9g2wryeio74yzgqwpq8,13,2,2.0,39.0,0.309,1.0,0.0
mturk,0g4fx9g2wryeio74yzgqwpq8,14,2,1.0,38.0,0.158,0.0,0.0
mturk,0g4fx9g2wryeio74yzgqwpq8,15,2,2.0,39.0,0.044,1.0,1.0
mturk,0g4fx9g2wryeio74yzgqwpq8,16,0,2.0,39.0,0.309,0.0,0.0
mturk,0g4fx9g2wryeio74yzgqwpq8,17,0,0.0,37.0,0.253,1.0,1.0
mturk,0g4fx9g2wryeio74yzgqwpq8,18,0,0.0,37.0,0.093,1.0,1.0
mturk,0g4fx9g2wryeio74yzgqwpq8,19,0,0.0,37.0,0.309,1.0,1.0
mturk,0g4fx9g2wryeio74yzgqwpq8,20,0,0.0,37.0,0.365,1.0,1.0
mturk,0g4fx9g2wryeio74yzgqwpq8,21,0,0.0,37.0,0.364,1.0,0.0
mturk,0g4fx9g2wryeio74yzgqwpq8,22,0,2.0,39.0,0.309,0.0,0.0
mturk,0g4fx9g2wryeio74yzgqwpq8,23,0,0.0,37.0,0.11,1.0,0.0
mturk,0g4fx9g2wryeio74yzgqwpq8,24,0,1.0,38.0,0.005,0.0,0.0
mturk,0g4fx9g2wryeio74yzgqwpq8,25,0,0.0,37.0,0.323,1.0,1.0
mturk,0g4fx9g2wryeio74yzgqwpq8,26,0,0.0,37.0,0.284,1.0,1.0
mturk,0g4fx9g2wryeio74yzgqwpq8,27,0,0.0,37.0,0.317,1.0,1.0
mturk,0g4fx9g2wryeio74yzgqwpq8,28,0,0.0,37.0,0.364,1.0,0.0
mturk,0g4fx9g2wryeio74yzgqwpq8,29,0,2.0,39.0,0.349,0.0,0.0
mturk,0g4fx9g2wryeio74yzgqwpq8,30,0,1.0,38.0,0.396,0.0,0.0
mturk,0g4fx9g2wryeio74yzgqwpq8,31,1,0.0,37.0,0.105,0.0,1.0
mturk,0g4fx9g2wryeio74yzgqwpq8,32,1,0.0,37.0,0.193,0.0,1.0
mturk,0g4fx9g2wryeio74yzgqwpq8,33,1,0.0,37.0,0.182,0.0,0.0
mturk,0g4fx9g2wryeio74yzgqwpq8,34,1,0.0,37.0,0.278,0.0,0.0
mturk,0g4fx9g2wryeio74yzgqwpq8,35,1,1.0,38.0,0.014,1.0,1.0
mturk,0g4fx9g2wryeio74yzgqwpq8,36,1,1.0,38.0,0.277,1.0,1.0
mturk,0g4fx9g2wryeio74yzgqwpq8,37,1,1.0,38.0,0.278,1.0,1.0
mturk,0g4fx9g2wryeio74yzgqwpq8,38,1,1.0,38.0,0.277,1.0,1.0
mturk,0g4fx9g2wryeio74yzgqwpq8,39,1,1.0,38.0,0.237,1.0,1.0
mturk,0g4fx9g2wryeio74yzgqwpq8,40,1,1.0,38.0,0.244,1.0,0.0
mturk,0g4fx9g2wryeio74yzgqwpq8,41,1,1.0,38.0,0.269,1.0,1.0
mturk,0g4fx9g2wryeio74yzgqwpq8,42,1,1.0,38.0,0.134,1.0,1.0
mturk,0g4fx9g2wryeio74yzgqwpq8,43,1,1.0,38.0,0.325,1.0,1.0
mturk,0g4fx9g2wryeio74yzgqwpq8,44,1,1.0,38.0,0.205,1.0,1.0
mturk,0g4fx9g2wryeio74yzgqwpq8,45,1,1.0,38.0,0.126,1.0,1.0
mturk,0g4fx9g2wryeio74yzgqwpq8,46,2,1.0,38.0,0.292,0.0,1.0
mturk,0g4fx9g2wryeio74yzgqwpq8,47,2,1.0,38.0,0.213,0.0,0.0
mturk,0g4fx9g2wryeio74yzgqwpq8,48,2,1.0,38.0,0.245,0.0,0.0
mturk,0g4fx9g2wryeio74yzgqwpq8,49,2,2.0,39.0,0.035,1.0,1.0
mturk,0g4fx9g2wryeio74yzgqwpq8,50,2,2.0,39.0,0.158,1.0,1.0
mturk,0g4fx9g2wryeio74yzgqwpq8,51,2,2.0,39.0,0.149,1.0,1.0
mturk,0g4fx9g2wryeio74yzgqwpq8,52,2,2.0,39.0,0.26,1.0,1.0
mturk,0g4fx9g2wryeio74yzgqwpq8,53,2,2.0,39.0,0.214,1.0,1.0
mturk,0g4fx9g2wryeio74yzgqwpq8,54,2,2.0,39.0,0.292,1.0,0.0
mturk,0g4fx9g2wryeio74yzgqwpq8,55,2,2.0,39.0,0.237,1.0,1.0
mturk,0g4fx9g2wryeio74yzgqwpq8,56,2,2.0,39.0,0.165,1.0,1.0
mturk,0g4fx9g2wryeio74yzgqwpq8,57,2,2.0,39.0,0.22,1.0,1.0
mturk,0g4fx9g2wryeio74yzgqwpq8,58,2,2.0,39.0,0.054,1.0,0.0
mturk,0g4fx9g2wryeio74yzgqwpq8,59,2,2.0,39.0,0.172,1.0,1.0
mturk,0g4fx9g2wryeio74yzgqwpq8,60,2,2.0,39.0,0.124,1.0,0.0
mturk,0g4fx9g2wryeio74yzgqwpq8,61,0,2.0,39.0,0.062,0.0,1.0
mturk,0g4fx9g2wryeio74yzgqwpq8,62,0,2.0,39.0,0.269,0.0,1.0
mturk,0g4fx9g2wryeio74yzgqwpq8,63,0,2.0,39.0,0.11,0.0,0.0
mturk,0g4fx9g2wryeio74yzgqwpq8,64,0,2.0,39.0,0.22,0.0,0.0
mturk,0g4fx9g2wryeio74yzgqwpq8,65,0,0.0,37.0,0.029,1.0,1.0
mturk,0g4fx9g2wryeio74yzgqwpq8,66,0,0.0,37.0,0.373,1.0,1.0
mturk,0g4fx9g2wryeio74yzgqwpq8,67,0,0.0,37.0,0.181,1.0,0.0
mturk,0g4fx9g2wryeio74yzgqwpq8,68,0,0.0,37.0,0.187,1.0,1.0
mturk,0g4fx9g2wryeio74yzgqwpq8,69,0,0.0,37.0,0.07,1.0,0.0
mturk,0g4fx9g2wryeio74yzgqwpq8,70,0,0.0,37.0,0.156,1.0,1.0
mturk,0g4fx9g2wryeio74yzgqwpq8,71,0,0.0,37.0,0.181,1.0,1.0
mturk,0g4fx9g2wryeio74yzgqwpq8,72,0,0.0,37.0,0.046,1.0,1.0
mturk,0g4fx9g2wryeio74yzgqwpq8,73,0,0.0,37.0,0.19,1.0,1.0
mturk,0g4fx9g2wryeio74yzgqwpq8,74,0,0.0,37.0,0.214,1.0,1.0
mturk,0g4fx9g2wryeio74yzgqwpq8,75,0,0.0,37.0,0.236,1.0,1.0
mturk,0g4fx9g2wryeio74yzgqwpq8,76,1,0.0,37.0,0.385,0.0,1.0
mturk,0g4fx9g2wryeio74yzgqwpq8,77,1,0.0,37.0,0.201,0.0,1.0
mturk,0g4fx9g2wryeio74yzgqwpq8,78,1,0.0,37.0,0.229,0.0,0.0
mturk,0g4fx9g2wryeio74yzgqwpq8,79,1,0.0,37.0,0.126,0.0,0.0
mturk,0g4fx9g2wryeio74yzgqwpq8,80,1,1.0,38.0,0.003,1.0,1.0
mturk,0g4fx9g2wryeio74yzgqwpq8,81,1,1.0,38.0,0.205,1.0,1.0
mturk,0g4fx9g2wryeio74yzgqwpq8,82,1,1.0,38.0,0.18,1.0,1.0
mturk,0g4fx9g2wryeio74yzgqwpq8,83,1,1.0,38.0,0.037,1.0,1.0
mturk,0g4fx9g2wryeio74yzgqwpq8,84,1,1.0,38.0,0.077,1.0,1.0
mturk,0g4fx9g2wryeio74yzgqwpq8,85,1,1.0,38.0,0.222,1.0,0.0
mturk,0g4fx9g2wryeio74yzgqwpq8,86,1,1.0,38.0,0.077,1.0,1.0
mturk,0g4fx9g2wryeio74yzgqwpq8,87,1,1.0,38.0,0.116,1.0,0.0
mturk,0g4fx9g2wryeio74yzgqwpq8,88,1,1.0,38.0,0.222,1.0,1.0
mturk,0g4fx9g2wryeio74yzgqwpq8,89,1,1.0,38.0,0.116,1.0,1.0
mturk,0g4fx9g2wryeio74yzgqwpq8,90,1,1.0,38.0,0.439,1.0,1.0
mturk,1emkh8fj8n8ujo3jfrrswpna,1,1,1.0,38.0,5.607,1.0,0.0
mturk,1emkh8fj8n8ujo3jfrrswpna,2,1,0.0,37.0,2.16,0.0,1.0
mturk,1emkh8fj8n8ujo3jfrrswpna,3,1,0.0,37.0,0.901,0.0,1.0
mturk,1emkh8fj8n8ujo3jfrrswpna,4,1,0.0,37.0,0.658,0.0,0.0
mturk,1emkh8fj8n8ujo3jfrrswpna,5,1,0.0,37.0,1.023,0.0,0.0
mturk,1emkh8fj8n8ujo3jfrrswpna,6,1,0.0,37.0,0.831,0.0,0.0
mturk,1emkh8fj8n8ujo3jfrrswpna,7,1,0.0,37.0,0.728,0.0,0.0
mturk,1emkh8fj8n8ujo3jfrrswpna,8,1,2.0,39.0,0.446,0.0,0.0
mturk,1emkh8fj8n8ujo3jfrrswpna,9,1,0.0,37.0,0.41,0.0,1.0
mturk,1emkh8fj8n8ujo3jfrrswpna,10,1,0.0,37.0,0.605,0.0,0.0
mturk,1emkh8fj8n8ujo3jfrrswpna,11,1,1.0,38.0,0.506,1.0,1.0
mturk,1emkh8fj8n8ujo3jfrrswpna,12,1,1.0,38.0,0.578,1.0,1.0
mturk,1emkh8fj8n8ujo3jfrrswpna,13,1,1.0,38.0,0.48,1.0,1.0
mturk,1emkh8fj8n8ujo3jfrrswpna,14,1,1.0,38.0,0.671,1.0,1.0
mturk,1emkh8fj8n8ujo3jfrrswpna,15,1,1.0,38.0,0.419,1.0,1.0
mturk,1emkh8fj8n8ujo3jfrrswpna,16,2,1.0,38.0,0.453,0.0,0.0
mturk,1emkh8fj8n8ujo3jfrrswpna,17,2,2.0,39.0,0.38,1.0,1.0
mturk,1emkh8fj8n8ujo3jfrrswpna,18,2,2.0,39.0,0.441,1.0,1.0
mturk,1emkh8fj8n8ujo3jfrrswpna,19,2,2.0,39.0,0.433,1.0,1.0
mturk,1emkh8fj8n8ujo3jfrrswpna,20,2,2.0,39.0,0.421,1.0,1.0
mturk,1emkh8fj8n8ujo3jfrrswpna,21,2,2.0,39.0,0.41,1.0,1.0
mturk,1emkh8fj8n8ujo3jfrrswpna,22,2,2.0,39.0,0.352,1.0,1.0
mturk,1emkh8fj8n8ujo3jfrrswpna,23,2,2.0,39.0,0.409,1.0,1.0
mturk,1emkh8fj8n8ujo3jfrrswpna,24,2,2.0,39.0,0.379,1.0,1.0
mturk,1emkh8fj8n8ujo3jfrrswpna,25,2,2.0,39.0,0.744,1.0,1.0
mturk,1emkh8fj8n8ujo3jfrrswpna,26,2,2.0,39.0,0.949,1.0,1.0
mturk,1emkh8fj8n8ujo3jfrrswpna,27,2,2.0,39.0,0.468,1.0,1.0
mturk,1emkh8fj8n8ujo3jfrrswpna,28,2,2.0,39.0,0.535,1.0,0.0
mturk,1emkh8fj8n8ujo3jfrrswpna,29,2,1.0,38.0,0.315,0.0,0.0
mturk,1emkh8fj8n8ujo3jfrrswpna,30,2,0.0,37.0,0.642,0.0,0.0
mturk,1emkh8fj8n8ujo3jfrrswpna,31,1,1.0,38.0,0.429,1.0,1.0
mturk,1emkh8fj8n8ujo3jfrrswpna,32,1,1.0,38.0,0.517,1.0,1.0
mturk,1emkh8fj8n8ujo3jfrrswpna,33,1,1.0,38.0,0.471,1.0,0.0
mturk,1emkh8fj8n8ujo3jfrrswpna,34,1,2.0,39.0,0.413,0.0,0.0
mturk,1emkh8fj8n8ujo3jfrrswpna,35,1,2.0,39.0,0.54,0.0,0.0
mturk,1emkh8fj8n8ujo3jfrrswpna,36,1,1.0,38.0,0.394,1.0,1.0
mturk,1emkh8fj8n8ujo3jfrrswpna,37,1,1.0,38.0,1.504,1.0,1.0
mturk,1emkh8fj8n8ujo3jfrrswpna,38,1,1.0,38.0,0.742,1.0,1.0
mturk,1emkh8fj8n8ujo3jfrrswpna,39,1,1.0,38.0,0.287,1.0,1.0
mturk,1emkh8fj8n8ujo3jfrrswpna,40,1,1.0,38.0,0.317,1.0,1.0
mturk,1emkh8fj8n8ujo3jfrrswpna,41,1,1.0,38.0,0.27,1.0,1.0
mturk,1emkh8fj8n8ujo3jfrrswpna,42,1,1.0,38.0,0.456,1.0,1.0
mturk,1emkh8fj8n8ujo3jfrrswpna,43,1,1.0,38.0,0.479,1.0,1.0
mturk,1emkh8fj8n8ujo3jfrrswpna,44,1,1.0,38.0,0.371,1.0,1.0
mturk,1emkh8fj8n8ujo3jfrrswpna,45,1,1.0,38.0,0.286,1.0,0.0
mturk,1emkh8fj8n8ujo3jfrrswpna,46,2,2.0,39.0,0.243,1.0,0.0
mturk,1emkh8fj8n8ujo3jfrrswpna,47,2,2.0,39.0,0.358,1.0,0.0
mturk,1emkh8fj8n8ujo3jfrrswpna,48,2,0.0,37.0,0.036,0.0,1.0
mturk,1emkh8fj8n8ujo3jfrrswpna,49,2,0.0,37.0,0.367,0.0,1.0
mturk,1emkh8fj8n8ujo3jfrrswpna,50,2,0.0,37.0,0.399,0.0,0.0
mturk,1emkh8fj8n8ujo3jfrrswpna,51,2,2.0,39.0,0.385,1.0,1.0
mturk,1emkh8fj8n8ujo3jfrrswpna,52,2,2.0,39.0,0.334,1.0,0.0
mturk,1emkh8fj8n8ujo3jfrrswpna,53,2,1.0,38.0,0.32,0.0,0.0
mturk,1emkh8fj8n8ujo3jfrrswpna,54,2,2.0,39.0,0.431,1.0,1.0
mturk,1emkh8fj8n8ujo3jfrrswpna,55,2,2.0,39.0,0.471,1.0,1.0
mturk,1emkh8fj8n8ujo3jfrrswpna,56,2,2.0,39.0,0.491,1.0,1.0
mturk,1emkh8fj8n8ujo3jfrrswpna,57,2,2.0,39.0,0.301,1.0,0.0
mturk,1emkh8fj8n8ujo3jfrrswpna,58,2,1.0,38.0,0.376,0.0,0.0
mturk,1emkh8fj8n8ujo3jfrrswpna,59,2,0.0,37.0,0.28,0.0,0.0
mturk,1emkh8fj8n8ujo3jfrrswpna,60,2,2.0,39.0,0.287,1.0,1.0
mturk,1emkh8fj8n8ujo3jfrrswpna,61,0,2.0,39.0,0.45,0.0,0.0
mturk,1emkh8fj8n8ujo3jfrrswpna,62,0,1.0,38.0,0.509,0.0,0.0
mturk,1emkh8fj8n8ujo3jfrrswpna,63,0,1.0,38.0,0.671,0.0,1.0
mturk,1emkh8fj8n8ujo3jfrrswpna,64,0,1.0,38.0,0.306,0.0,0.0
mturk,1emkh8fj8n8ujo3jfrrswpna,65,0,2.0,39.0,0.595,0.0,0.0
mturk,1emkh8fj8n8ujo3jfrrswpna,66,0,0.0,37.0,0.479,1.0,1.0
mturk,1emkh8fj8n8ujo3jfrrswpna,67,0,0.0,37.0,0.378,1.0,1.0
mturk,1emkh8fj8n8ujo3jfrrswpna,68,0,0.0,37.0,0.376,1.0,1.0
mturk,1emkh8fj8n8ujo3jfrrswpna,69,0,0.0,37.0,0.643,1.0,1.0
mturk,1emkh8fj8n8ujo3jfrrswpna,70,0,0.0,37.0,1.06,1.0,1.0
mturk,1emkh8fj8n8ujo3jfrrswpna,71,0,0.0,37.0,0.726,1.0,1.0
mturk,1emkh8fj8n8ujo3jfrrswpna,72,0,0.0,37.0,2.224,1.0,1.0
mturk,1emkh8fj8n8ujo3jfrrswpna,73,0,0.0,37.0,0.693,1.0,0.0
mturk,1emkh8fj8n8ujo3jfrrswpna,74,0,2.0,39.0,0.349,0.0,1.0
mturk,1emkh8fj8n8ujo3jfrrswpna,75,0,2.0,39.0,0.462,0.0,0.0
mturk,1emkh8fj8n8ujo3jfrrswpna,76,2,1.0,38.0,0.215,0.0,0.0
mturk,1emkh8fj8n8ujo3jfrrswpna,77,2,1.0,38.0,0.459,0.0,0.0
mturk,1emkh8fj8n8ujo3jfrrswpna,78,2,2.0,39.0,0.29,1.0,0.0
mturk,1emkh8fj8n8ujo3jfrrswpna,79,2,0.0,37.0,0.286,0.0,0.0
mturk,1emkh8fj8n8ujo3jfrrswpna,80,2,1.0,38.0,0.292,0.0,1.0
mturk,1emkh8fj8n8ujo3jfrrswpna,81,2,1.0,38.0,0.461,0.0,0.0
mturk,1emkh8fj8n8ujo3jfrrswpna,82,2,2.0,39.0,0.401,1.0,1.0
mturk,1emkh8fj8n8ujo3jfrrswpna,83,2,2.0,39.0,0.367,1.0,1.0
mturk,1emkh8fj8n8ujo3jfrrswpna,84,2,2.0,39.0,0.266,1.0,1.0
mturk,1emkh8fj8n8ujo3jfrrswpna,85,2,2.0,39.0,1.045,1.0,0.0
mturk,1emkh8fj8n8ujo3jfrrswpna,86,2,1.0,38.0,0.242,0.0,0.0
mturk,1emkh8fj8n8ujo3jfrrswpna,87,2,0.0,37.0,0.371,0.0,0.0
mturk,1emkh8fj8n8ujo3jfrrswpna,88,2,2.0,39.0,0.369,1.0,1.0
mturk,1emkh8fj8n8ujo3jfrrswpna,89,2,2.0,39.0,0.356,1.0,0.0
mturk,1emkh8fj8n8ujo3jfrrswpna,90,2,2.0,39.0,0.372,1.0,1.0
mturk,1h67fnjgm45dzniy6y91vld7,1,2,1.0,38.0,1.732,0.0,1.0
mturk,1h67fnjgm45dzniy6y91vld7,2,2,1.0,38.0,0.689,0.0,0.0
mturk,1h67fnjgm45dzniy6y91vld7,3,2,2.0,39.0,0.335,1.0,1.0
mturk,1h67fnjgm45dzniy6y91vld7,4,2,0.0,37.0,0.456,0.0,0.0
mturk,1h67fnjgm45dzniy6y91vld7,5,2,2.0,39.0,0.304,1.0,0.0
mturk,1h67fnjgm45dzniy6y91vld7,6,2,1.0,38.0,0.09,0.0,0.0
mturk,1h67fnjgm45dzniy6y91vld7,7,2,1.0,38.0,0.354,0.0,0.0
mturk,1h67fnjgm45dzniy6y91vld7,8,2,1.0,38.0,0.135,0.0,0.0
mturk,1h67fnjgm45dzniy6y91vld7,9,2,2.0,39.0,0.288,1.0,1.0
mturk,1h67fnjgm45dzniy6y91vld7,10,2,2.0,39.0,0.276,1.0,1.0
mturk,1h67fnjgm45dzniy6y91vld7,11,2,2.0,39.0,0.579,1.0,1.0
mturk,1h67fnjgm45dzniy6y91vld7,12,2,2.0,39.0,0.259,1.0,1.0
mturk,1h67fnjgm45dzniy6y91vld7,13,2,2.0,39.0,0.239,1.0,1.0
mturk,1h67fnjgm45dzniy6y91vld7,14,2,2.0,39.0,0.268,1.0,1.0
mturk,1h67fnjgm45dzniy6y91vld7,15,2,2.0,39.0,0.209,1.0,0.0
mturk,1h67fnjgm45dzniy6y91vld7,16,0,0.0,37.0,0.294,1.0,1.0
mturk,1h67fnjgm45dzniy6y91vld7,17,0,2.0,39.0,0.116,0.0,0.0
mturk,1h67fnjgm45dzniy6y91vld7,18,0,0.0,37.0,0.262,1.0,1.0
mturk,1h67fnjgm45dzniy6y91vld7,19,0,0.0,37.0,0.273,1.0,1.0
mturk,1h67fnjgm45dzniy6y91vld7,20,0,0.0,37.0,0.231,1.0,0.0
mturk,1h67fnjgm45dzniy6y91vld7,21,0,0.0,37.0,0.171,1.0,1.0
mturk,1h67fnjgm45dzniy6y91vld7,22,0,0.0,37.0,0.263,1.0,0.0
mturk,1h67fnjgm45dzniy6y91vld7,23,0,1.0,38.0,0.265,0.0,0.0
mturk,1h67fnjgm45dzniy6y91vld7,24,0,0.0,37.0,0.127,1.0,1.0
mturk,1h67fnjgm45dzniy6y91vld7,25,0,0.0,37.0,0.136,1.0,0.0
mturk,1h67fnjgm45dzniy6y91vld7,26,0,2.0,39.0,0.19,0.0,0.0
mturk,1h67fnjgm45dzniy6y91vld7,27,0,2.0,39.0,0.126,0.0,0.0
mturk,1h67fnjgm45dzniy6y91vld7,28,0,0.0,37.0,0.057,1.0,0.0
mturk,1h67fnjgm45dzniy6y91vld7,29,0,0.0,37.0,0.165,1.0,1.0
mturk,1h67fnjgm45dzniy6y91vld7,30,0,0.0,37.0,0.056,1.0,0.0
mturk,1h67fnjgm45dzniy6y91vld7,31,2,0.0,37.0,0.127,0.0,0.0
mturk,1h67fnjgm45dzniy6y91vld7,32,2,1.0,38.0,0.003,0.0,0.0
mturk,1h67fnjgm45dzniy6y91vld7,33,2,1.0,38.0,0.082,0.0,0.0
mturk,1h67fnjgm45dzniy6y91vld7,34,2,2.0,39.0,0.103,1.0,1.0
mturk,1h67fnjgm45dzniy6y91vld7,35,2,2.0,39.0,0.212,1.0,0.0
mturk,1h67fnjgm45dzniy6y91vld7,36,2,2.0,39.0,0.215,1.0,1.0
mturk,1h67fnjgm45dzniy6y91vld7,37,2,2.0,39.0,0.339,1.0,1.0
mturk,1h67fnjgm45dzniy6y91vld7,38,2,2.0,39.0,0.188,1.0,1.0
mturk,1h67fnjgm45dzniy6y91vld7,39,2,2.0,39.0,0.267,1.0,1.0
mturk,1h67fnjgm45dzniy6y91vld7,40,2,2.0,39.0,0.288,1.0,1.0
mturk,1h67fnjgm45dzniy6y91vld7,41,2,2.0,39.0,0.209,1.0,1.0
mturk,1h67fnjgm45dzniy6y91vld7,42,2,2.0,39.0,0.229,1.0,1.0
mturk,1h67fnjgm45dzniy6y91vld7,43,2,2.0,39.0,0.191,1.0,1.0
mturk,1h67fnjgm45dzniy6y91vld7,44,2,2.0,39.0,0.283,1.0,1.0
mturk,1h67fnjgm45dzniy6y91vld7,45,2,2.0,39.0,0.207,1.0,0.0
mturk,1h67fnjgm45dzniy6y91vld7,46,0,2.0,39.0,0.215,0.0,0.0
mturk,1h67fnjgm45dzniy6y91vld7,47,0,0.0,37.0,0.126,1.0,1.0
mturk,1h67fnjgm45dzniy6y91vld7,48,0,0.0,37.0,0.217,1.0,1.0
mturk,1h67fnjgm45dzniy6y91vld7,49,0,0.0,37.0,0.519,1.0,1.0
mturk,1h67fnjgm45dzniy6y91vld7,50,0,0.0,37.0,0.08,1.0,1.0
mturk,1h67fnjgm45dzniy6y91vld7,51,0,0.0,37.0,0.253,1.0,1.0
mturk,1h67fnjgm45dzniy6y91vld7,52,0,0.0,37.0,0.239,1.0,1.0
mturk,1h67fnjgm45dzniy6y91vld7,53,0,0.0,37.0,0.184,1.0,1.0
mturk,1h67fnjgm45dzniy6y91vld7,54,0,0.0,37.0,0.225,1.0,1.0
mturk,1h67fnjgm45dzniy6y91vld7,55,0,0.0,37.0,0.283,1.0,0.0
mturk,1h67fnjgm45dzniy6y91vld7,56,0,0.0,37.0,0.245,1.0,1.0
mturk,1h67fnjgm45dzniy6y91vld7,57,0,0.0,37.0,0.252,1.0,0.0
mturk,1h67fnjgm45dzniy6y91vld7,58,0,1.0,38.0,0.236,0.0,0.0
mturk,1h67fnjgm45dzniy6y91vld7,59,0,2.0,39.0,0.06,0.0,0.0
mturk,1h67fnjgm45dzniy6y91vld7,60,0,1.0,38.0,0.177,0.0,0.0
mturk,1h67fnjgm45dzniy6y91vld7,61,2,1.0,38.0,0.049,0.0,0.0
mturk,1h67fnjgm45dzniy6y91vld7,62,2,0.0,37.0,0.238,0.0,0.0
mturk,1h67fnjgm45dzniy6y91vld7,63,2,0.0,37.0,0.106,0.0,0.0
mturk,1h67fnjgm45dzniy6y91vld7,64,2,2.0,39.0,0.135,1.0,1.0
mturk,1h67fnjgm45dzniy6y91vld7,65,2,2.0,39.0,0.119,1.0,1.0
mturk,1h67fnjgm45dzniy6y91vld7,66,2,2.0,39.0,0.177,1.0,1.0
mturk,1h67fnjgm45dzniy6y91vld7,67,2,2.0,39.0,0.246,1.0,1.0
mturk,1h67fnjgm45dzniy6y91vld7,68,2,2.0,39.0,0.146,1.0,0.0
mturk,1h67fnjgm45dzniy6y91vld7,69,2,2.0,39.0,0.003,1.0,1.0
mturk,1h67fnjgm45dzniy6y91vld7,70,2,2.0,39.0,0.13,1.0,0.0
mturk,1h67fnjgm45dzniy6y91vld7,71,2,0.0,37.0,0.041,0.0,0.0
mturk,1h67fnjgm45dzniy6y91vld7,72,2,2.0,39.0,0.003,1.0,1.0
mturk,1h67fnjgm45dzniy6y91vld7,73,2,2.0,39.0,0.457,1.0,1.0
mturk,1h67fnjgm45dzniy6y91vld7,74,2,2.0,39.0,0.165,1.0,0.0
mturk,1h67fnjgm45dzniy6y91vld7,75,2,2.0,39.0,0.259,1.0,1.0
mturk,1h67fnjgm45dzniy6y91vld7,76,1,2.0,39.0,0.243,0.0,0.0
mturk,1h67fnjgm45dzniy6y91vld7,77,1,2.0,39.0,0.265,0.0,0.0
mturk,1h67fnjgm45dzniy6y91vld7,78,1,0.0,37.0,0.219,0.0,0.0
mturk,1h67fnjgm45dzniy6y91vld7,79,1,1.0,38.0,0.182,1.0,1.0
mturk,1h67fnjgm45dzniy6y91vld7,80,1,1.0,38.0,0.095,1.0,1.0
mturk,1h67fnjgm45dzniy6y91vld7,81,1,1.0,38.0,0.225,1.0,1.0
mturk,1h67fnjgm45dzniy6y91vld7,82,1,1.0,38.0,0.107,1.0,0.0
mturk,1h67fnjgm45dzniy6y91vld7,83,1,1.0,38.0,0.239,1.0,1.0
mturk,1h67fnjgm45dzniy6y91vld7,84,1,1.0,38.0,0.229,1.0,1.0
mturk,1h67fnjgm45dzniy6y91vld7,85,1,1.0,38.0,0.092,1.0,1.0
mturk,1h67fnjgm45dzniy6y91vld7,86,1,1.0,38.0,0.246,1.0,1.0
mturk,1h67fnjgm45dzniy6y91vld7,87,1,1.0,38.0,0.054,1.0,1.0
mturk,1h67fnjgm45dzniy6y91vld7,88,1,1.0,38.0,0.138,1.0,1.0
mturk,1h67fnjgm45dzniy6y91vld7,89,1,1.0,38.0,0.191,1.0,1.0
mturk,1h67fnjgm45dzniy6y91vld7,90,1,1.0,38.0,0.188,1.0,1.0
mturk,2gbv6cbysitn0o9t9m53f3xi,1,1,1.0,38.0,4.05,1.0,1.0
mturk,2gbv6cbysitn0o9t9m53f3xi,2,1,1.0,38.0,1.753,1.0,0.0
mturk,2gbv6cbysitn0o9t9m53f3xi,3,1,1.0,38.0,0.931,1.0,1.0
mturk,2gbv6cbysitn0o9t9m53f3xi,4,1,1.0,38.0,1.289,1.0,0.0
mturk,2gbv6cbysitn0o9t9m53f3xi,5,1,1.0,38.0,0.88,1.0,1.0
mturk,2gbv6cbysitn0o9t9m53f3xi,6,1,1.0,38.0,0.902,1.0,1.0
mturk,2gbv6cbysitn0o9t9m53f3xi,7,1,1.0,38.0,1.325,1.0,0.0
mturk,2gbv6cbysitn0o9t9m53f3xi,8,1,1.0,38.0,0.93,1.0,0.0
mturk,2gbv6cbysitn0o9t9m53f3xi,9,1,2.0,39.0,1.654,0.0,0.0
mturk,2gbv6cbysitn0o9t9m53f3xi,10,1,2.0,39.0,0.807,0.0,0.0
mturk,2gbv6cbysitn0o9t9m53f3xi,11,1,0.0,37.0,1.249,0.0,0.0
mturk,2gbv6cbysitn0o9t9m53f3xi,12,1,0.0,37.0,0.71,0.0,0.0
mturk,2gbv6cbysitn0o9t9m53f3xi,13,1,2.0,39.0,0.603,0.0,0.0
mturk,2gbv6cbysitn0o9t9m53f3xi,14,1,1.0,38.0,0.57,1.0,1.0
mturk,2gbv6cbysitn0o9t9m53f3xi,15,1,1.0,38.0,0.556,1.0,1.0
mturk,2gbv6cbysitn0o9t9m53f3xi,16,2,1.0,38.0,0.952,0.0,0.0
mturk,2gbv6cbysitn0o9t9m53f3xi,17,2,1.0,38.0,0.435,0.0,0.0
mturk,2gbv6cbysitn0o9t9m53f3xi,18,2,1.0,38.0,0.381,0.0,0.0
mturk,2gbv6cbysitn0o9t9m53f3xi,19,2,1.0,38.0,0.606,0.0,1.0
mturk,2gbv6cbysitn0o9t9m53f3xi,20,2,1.0,38.0,0.738,0.0,0.0
mturk,2gbv6cbysitn0o9t9m53f3xi,21,2,1.0,38.0,0.417,0.0,0.0
mturk,2gbv6cbysitn0o9t9m53f3xi,22,2,1.0,38.0,0.411,0.0,0.0
mturk,2gbv6cbysitn0o9t9m53f3xi,23,2,2.0,39.0,0.799,1.0,1.0
mturk,2gbv6cbysitn0o9t9m53f3xi,24,2,2.0,39.0,0.532,1.0,1.0
mturk,2gbv6cbysitn0o9t9m53f3xi,25,2,2.0,39.0,0.468,1.0,1.0
mturk,2gbv6cbysitn0o9t9m53f3xi,26,2,2.0,39.0,0.518,1.0,1.0
mturk,2gbv6cbysitn0o9t9m53f3xi,27,2,2.0,39.0,0.561,1.0,0.0
mturk,2gbv6cbysitn0o9t9m53f3xi,28,2,2.0,39.0,0.524,1.0,0.0
mturk,2gbv6cbysitn0o9t9m53f3xi,29,2,2.0,39.0,0.52,1.0,1.0
mturk,2gbv6cbysitn0o9t9m53f3xi,30,2,2.0,39.0,0.404,1.0,1.0
mturk,2gbv6cbysitn0o9t9m53f3xi,31,0,2.0,39.0,0.459,0.0,0.0
mturk,2gbv6cbysitn0o9t9m53f3xi,32,0,2.0,39.0,0.383,0.0,0.0
mturk,2gbv6cbysitn0o9t9m53f3xi,33,0,2.0,39.0,0.848,0.0,0.0
mturk,2gbv6cbysitn0o9t9m53f3xi,34,0,0.0,37.0,0.845,1.0,1.0
mturk,2gbv6cbysitn0o9t9m53f3xi,35,0,0.0,37.0,0.403,1.0,1.0
mturk,2gbv6cbysitn0o9t9m53f3xi,36,0,0.0,37.0,0.461,1.0,1.0
mturk,2gbv6cbysitn0o9t9m53f3xi,37,0,0.0,37.0,0.544,1.0,1.0
mturk,2gbv6cbysitn0o9t9m53f3xi,38,0,0.0,37.0,0.46,1.0,1.0
mturk,2gbv6cbysitn0o9t9m53f3xi,39,0,0.0,37.0,0.485,1.0,1.0
mturk,2gbv6cbysitn0o9t9m53f3xi,40,0,0.0,37.0,0.479,1.0,1.0
mturk,2gbv6cbysitn0o9t9m53f3xi,41,0,0.0,37.0,0.465,1.0,0.0
mturk,2gbv6cbysitn0o9t9m53f3xi,42,0,0.0,37.0,0.552,1.0,0.0
mturk,2gbv6cbysitn0o9t9m53f3xi,43,0,0.0,37.0,0.614,1.0,1.0
mturk,2gbv6cbysitn0o9t9m53f3xi,44,0,0.0,37.0,0.696,1.0,1.0
mturk,2gbv6cbysitn0o9t9m53f3xi,45,0,0.0,37.0,0.491,1.0,1.0
mturk,2gbv6cbysitn0o9t9m53f3xi,46,2,0.0,37.0,0.629,0.0,0.0
mturk,2gbv6cbysitn0o9t9m53f3xi,47,2,0.0,37.0,0.596,0.0,0.0
mturk,2gbv6cbysitn0o9t9m53f3xi,48,2,0.0,37.0,0.408,0.0,0.0
mturk,2gbv6cbysitn0o9t9m53f3xi,49,2,0.0,37.0,0.423,0.0,0.0
mturk,2gbv6cbysitn0o9t9m53f3xi,50,2,1.0,38.0,0.37,0.0,1.0
mturk,2gbv6cbysitn0o9t9m53f3xi,51,2,1.0,38.0,0.406,0.0,0.0
mturk,2gbv6cbysitn0o9t9m53f3xi,52,2,1.0,38.0,0.445,0.0,0.0
mturk,2gbv6cbysitn0o9t9m53f3xi,53,2,1.0,38.0,0.382,0.0,0.0
mturk,2gbv6cbysitn0o9t9m53f3xi,54,2,2.0,39.0,0.581,1.0,1.0
mturk,2gbv6cbysitn0o9t9m53f3xi,55,2,2.0,39.0,0.536,1.0,1.0
mturk,2gbv6cbysitn0o9t9m53f3xi,56,2,2.0,39.0,0.393,1.0,1.0
mturk,2gbv6cbysitn0o9t9m53f3xi,57,2,2.0,39.0,0.429,1.0,1.0
mturk,2gbv6cbysitn0o9t9m53f3xi,58,2,2.0,39.0,0.368,1.0,0.0
mturk,2gbv6cbysitn0o9t9m53f3xi,59,2,2.0,39.0,0.419,1.0,1.0
mturk,2gbv6cbysitn0o9t9m53f3xi,60,2,2.0,39.0,0.414,1.0,1.0
mturk,2gbv6cbysitn0o9t9m53f3xi,61,1,2.0,39.0,0.362,0.0,1.0
mturk,2gbv6cbysitn0o9t9m53f3xi,62,1,2.0,39.0,0.372,0.0,0.0
mturk,2gbv6cbysitn0o9t9m53f3xi,63,1,2.0,39.0,0.549,0.0,0.0
mturk,2gbv6cbysitn0o9t9m53f3xi,64,1,2.0,39.0,0.44,0.0,1.0
mturk,2gbv6cbysitn0o9t9m53f3xi,65,1,2.0,39.0,0.416,0.0,0.0
mturk,2gbv6cbysitn0o9t9m53f3xi,66,1,2.0,39.0,0.601,0.0,0.0
mturk,2gbv6cbysitn0o9t9m53f3xi,67,1,0.0,37.0,0.193,0.0,0.0
mturk,2gbv6cbysitn0o9t9m53f3xi,68,1,0.0,37.0,0.423,0.0,0.0
mturk,2gbv6cbysitn0o9t9m53f3xi,69,1,1.0,38.0,0.815,1.0,1.0
mturk,2gbv6cbysitn0o9t9m53f3xi,70,1,1.0,38.0,0.413,1.0,1.0
mturk,2gbv6cbysitn0o9t9m53f3xi,71,1,1.0,38.0,0.331,1.0,1.0
mturk,2gbv6cbysitn0o9t9m53f3xi,72,1,1.0,38.0,0.514,1.0,1.0
mturk,2gbv6cbysitn0o9t9m53f3xi,73,1,1.0,38.0,0.513,1.0,1.0
mturk,2gbv6cbysitn0o9t9m53f3xi,74,1,1.0,38.0,0.384,1.0,1.0
mturk,2gbv6cbysitn0o9t9m53f3xi,75,1,1.0,38.0,0.451,1.0,0.0
mturk,2gbv6cbysitn0o9t9m53f3xi,76,0,1.0,38.0,0.42,0.0,0.0
mturk,2gbv6cbysitn0o9t9m53f3xi,77,0,1.0,38.0,0.392,0.0,0.0
mturk,2gbv6cbysitn0o9t9m53f3xi,78,0,2.0,39.0,0.42,0.0,0.0
mturk,2gbv6cbysitn0o9t9m53f3xi,79,0,2.0,39.0,0.42,0.0,0.0
mturk,2gbv6cbysitn0o9t9m53f3xi,80,0,0.0,37.0,0.348,1.0,1.0
mturk,2gbv6cbysitn0o9t9m53f3xi,81,0,0.0,37.0,0.41,1.0,1.0
mturk,2gbv6cbysitn0o9t9m53f3xi,82,0,0.0,37.0,0.445,1.0,1.0
mturk,2gbv6cbysitn0o9t9m53f3xi,83,0,0.0,37.0,0.501,1.0,1.0
mturk,2gbv6cbysitn0o9t9m53f3xi,84,0,0.0,37.0,0.432,1.0,1.0
mturk,2gbv6cbysitn0o9t9m53f3xi,85,0,0.0,37.0,0.394,1.0,0.0
mturk,2gbv6cbysitn0o9t9m53f3xi,86,0,0.0,37.0,0.459,1.0,1.0
mturk,2gbv6cbysitn0o9t9m53f3xi,87,0,0.0,37.0,0.433,1.0,0.0
mturk,2gbv6cbysitn0o9t9m53f3xi,88,0,0.0,37.0,0.436,1.0,1.0
mturk,2gbv6cbysitn0o9t9m53f3xi,89,0,0.0,37.0,0.436,1.0,1.0
mturk,2gbv6cbysitn0o9t9m53f3xi,90,0,0.0,37.0,0.419,1.0,1.0
mturk,48kl2yj4bk3oit3lc8y2c8qf,1,0,0.0,37.0,1.145,1.0,1.0
mturk,48kl2yj4bk3oit3lc8y2c8qf,2,0,2.0,39.0,0.026,0.0,0.0
mturk,48kl2yj4bk3oit3lc8y2c8qf,3,0,0.0,37.0,4.983,1.0,0.0
mturk,48kl2yj4bk3oit3lc8y2c8qf,4,0,0.0,37.0,1.203,1.0,1.0
mturk,48kl2yj4bk3oit3lc8y2c8qf,5,0,0.0,37.0,0.722,1.0,1.0
mturk,48kl2yj4bk3oit3lc8y2c8qf,6,0,0.0,37.0,0.092,1.0,0.0
mturk,48kl2yj4bk3oit3lc8y2c8qf,7,0,2.0,39.0,0.538,0.0,0.0
mturk,48kl2yj4bk3oit3lc8y2c8qf,8,0,0.0,37.0,0.837,1.0,1.0
mturk,48kl2yj4bk3oit3lc8y2c8qf,9,0,0.0,37.0,0.632,1.0,1.0
mturk,48kl2yj4bk3oit3lc8y2c8qf,10,0,0.0,37.0,0.453,1.0,1.0
mturk,48kl2yj4bk3oit3lc8y2c8qf,11,0,0.0,37.0,0.336,1.0,1.0
mturk,48kl2yj4bk3oit3lc8y2c8qf,12,0,0.0,37.0,0.679,1.0,1.0
mturk,48kl2yj4bk3oit3lc8y2c8qf,13,0,0.0,37.0,0.247,1.0,1.0
mturk,48kl2yj4bk3oit3lc8y2c8qf,14,0,0.0,37.0,0.337,1.0,1.0
mturk,48kl2yj4bk3oit3lc8y2c8qf,15,0,0.0,37.0,0.335,1.0,0.0
mturk,48kl2yj4bk3oit3lc8y2c8qf,16,1,0.0,37.0,0.266,0.0,0.0
mturk,48kl2yj4bk3oit3lc8y2c8qf,17,1,0.0,37.0,0.787,0.0,0.0
mturk,48kl2yj4bk3oit3lc8y2c8qf,18,1,0.0,37.0,0.257,0.0,1.0
mturk,48kl2yj4bk3oit3lc8y2c8qf,19,1,0.0,37.0,0.107,0.0,1.0
mturk,48kl2yj4bk3oit3lc8y2c8qf,20,1,0.0,37.0,0.655,0.0,0.0
mturk,48kl2yj4bk3oit3lc8y2c8qf,21,1,0.0,37.0,1.028,0.0,0.0
mturk,48kl2yj4bk3oit3lc8y2c8qf,22,1,0.0,37.0,0.757,0.0,0.0
mturk,48kl2yj4bk3oit3lc8y2c8qf,23,1,0.0,37.0,0.557,0.0,0.0
mturk,48kl2yj4bk3oit3lc8y2c8qf,24,1,2.0,39.0,0.396,0.0,0.0
mturk,48kl2yj4bk3oit3lc8y2c8qf,25,1,0.0,37.0,0.367,0.0,0.0
mturk,48kl2yj4bk3oit3lc8y2c8qf,26,1,0.0,37.0,0.767,0.0,0.0
mturk,48kl2yj4bk3oit3lc8y2c8qf,27,1,2.0,39.0,0.419,0.0,0.0
mturk,48kl2yj4bk3oit3lc8y2c8qf,28,1,0.0,37.0,1.056,0.0,0.0
mturk,48kl2yj4bk3oit3lc8y2c8qf,29,1,2.0,39.0,0.132,0.0,0.0
mturk,48kl2yj4bk3oit3lc8y2c8qf,30,1,0.0,37.0,0.795,0.0,1.0
mturk,48kl2yj4bk3oit3lc8y2c8qf,31,0,2.0,39.0,0.042,0.0,0.0
mturk,48kl2yj4bk3oit3lc8y2c8qf,32,0,0.0,37.0,0.131,1.0,1.0
mturk,48kl2yj4bk3oit3lc8y2c8qf,33,0,2.0,39.0,0.978,0.0,0.0
mturk,48kl2yj4bk3oit3lc8y2c8qf,34,0,0.0,37.0,0.397,1.0,1.0
mturk,48kl2yj4bk3oit3lc8y2c8qf,35,0,2.0,39.0,0.483,0.0,0.0
mturk,48kl2yj4bk3oit3lc8y2c8qf,36,0,0.0,37.0,0.491,1.0,0.0
mturk,48kl2yj4bk3oit3lc8y2c8qf,37,0,2.0,39.0,0.162,0.0,0.0
mturk,48kl2yj4bk3oit3lc8y2c8qf,38,0,0.0,37.0,0.413,1.0,0.0
mturk,48kl2yj4bk3oit3lc8y2c8qf,39,0,2.0,39.0,0.267,0.0,0.0
mturk,48kl2yj4bk3oit3lc8y2c8qf,40,0,0.0,37.0,0.197,1.0,0.0
mturk,48kl2yj4bk3oit3lc8y2c8qf,41,0,0.0,37.0,1.026,1.0,1.0
mturk,48kl2yj4bk3oit3lc8y2c8qf,42,0,2.0,39.0,0.206,0.0,0.0
mturk,48kl2yj4bk3oit3lc8y2c8qf,43,0,0.0,37.0,0.762,1.0,1.0
mturk,48kl2yj4bk3oit3lc8y2c8qf,44,0,2.0,39.0,0.284,0.0,0.0
mturk,48kl2yj4bk3oit3lc8y2c8qf,45,0,0.0,37.0,0.595,1.0,1.0
mturk,48kl2yj4bk3oit3lc8y2c8qf,46,2,2.0,39.0,0.499,1.0,1.0
mturk,48kl2yj4bk3oit3lc8y2c8qf,47,2,0.0,37.0,0.538,0.0,0.0
mturk,48kl2yj4bk3oit3lc8y2c8qf,48,2,2.0,39.0,0.194,1.0,1.0
mturk,48kl2yj4bk3oit3lc8y2c8qf,49,2,0.0,37.0,0.166,0.0,0.0
mturk,48kl2yj4bk3oit3lc8y2c8qf,50,2,2.0,39.0,0.103,1.0,1.0
mturk,48kl2yj4bk3oit3lc8y2c8qf,51,2,0.0,37.0,0.041,0.0,0.0
mturk,48kl2yj4bk3oit3lc8y2c8qf,52,2,2.0,39.0,1.207,1.0,1.0
mturk,48kl2yj4bk3oit3lc8y2c8qf,53,2,0.0,37.0,0.832,0.0,0.0
mturk,48kl2yj4bk3oit3lc8y2c8qf,54,2,2.0,39.0,0.267,1.0,1.0
mturk,48kl2yj4bk3oit3lc8y2c8qf,55,2,0.0,37.0,0.522,0.0,0.0
mturk,48kl2yj4bk3oit3lc8y2c8qf,56,2,2.0,39.0,0.237,1.0,1.0
mturk,48kl2yj4bk3oit3lc8y2c8qf,57,2,0.0,37.0,0.252,0.0,1.0
mturk,48kl2yj4bk3oit3lc8y2c8qf,58,2,2.0,39.0,0.048,1.0,1.0
mturk,48kl2yj4bk3oit3lc8y2c8qf,59,2,0.0,37.0,0.012,0.0,0.0
mturk,48kl2yj4bk3oit3lc8y2c8qf,60,2,2.0,39.0,0.921,1.0,1.0
mturk,48kl2yj4bk3oit3lc8y2c8qf,61,0,0.0,37.0,0.452,1.0,1.0
mturk,48kl2yj4bk3oit3lc8y2c8qf,62,0,2.0,39.0,0.428,0.0,0.0
mturk,48kl2yj4bk3oit3lc8y2c8qf,63,0,0.0,37.0,0.626,1.0,1.0
mturk,48kl2yj4bk3oit3lc8y2c8qf,64,0,2.0,39.0,0.604,0.0,0.0
mturk,48kl2yj4bk3oit3lc8y2c8qf,65,0,0.0,37.0,0.447,1.0,1.0
mturk,48kl2yj4bk3oit3lc8y2c8qf,66,0,2.0,39.0,0.181,0.0,0.0
mturk,48kl2yj4bk3oit3lc8y2c8qf,67,0,0.0,37.0,0.469,1.0,0.0
mturk,48kl2yj4bk3oit3lc8y2c8qf,68,0,2.0,39.0,0.106,0.0,0.0
mturk,48kl2yj4bk3oit3lc8y2c8qf,69,0,0.0,37.0,0.587,1.0,1.0
mturk,48kl2yj4bk3oit3lc8y2c8qf,70,0,2.0,39.0,0.488,0.0,1.0
mturk,48kl2yj4bk3oit3lc8y2c8qf,71,0,0.0,37.0,0.368,1.0,1.0
mturk,48kl2yj4bk3oit3lc8y2c8qf,72,0,2.0,39.0,0.168,0.0,0.0
mturk,48kl2yj4bk3oit3lc8y2c8qf,73,0,0.0,37.0,0.468,1.0,1.0
mturk,48kl2yj4bk3oit3lc8y2c8qf,74,0,2.0,39.0,0.147,0.0,0.0
mturk,48kl2yj4bk3oit3lc8y2c8qf,75,0,0.0,37.0,0.437,1.0,1.0
mturk,48kl2yj4bk3oit3lc8y2c8qf,76,1,2.0,39.0,0.265,0.0,0.0
mturk,48kl2yj4bk3oit3lc8y2c8qf,77,1,0.0,37.0,0.378,0.0,0.0
mturk,48kl2yj4bk3oit3lc8y2c8qf,78,1,2.0,39.0,0.095,0.0,0.0
mturk,48kl2yj4bk3oit3lc8y2c8qf,79,1,0.0,37.0,0.393,0.0,0.0
mturk,48kl2yj4bk3oit3lc8y2c8qf,80,1,2.0,39.0,1.112,0.0,0.0
mturk,48kl2yj4bk3oit3lc8y2c8qf,81,1,0.0,37.0,0.297,0.0,1.0
mturk,48kl2yj4bk3oit3lc8y2c8qf,82,1,2.0,39.0,0.414,0.0,1.0
mturk,48kl2yj4bk3oit3lc8y2c8qf,83,1,0.0,37.0,0.522,0.0,0.0
mturk,48kl2yj4bk3oit3lc8y2c8qf,84,1,2.0,39.0,0.298,0.0,0.0
mturk,48kl2yj4bk3oit3lc8y2c8qf,85,1,0.0,37.0,0.316,0.0,0.0
mturk,48kl2yj4bk3oit3lc8y2c8qf,86,1,2.0,39.0,0.858,0.0,0.0
mturk,48kl2yj4bk3oit3lc8y2c8qf,87,1,0.0,37.0,0.178,0.0,0.0
mturk,48kl2yj4bk3oit3lc8y2c8qf,88,1,2.0,39.0,0.996,0.0,1.0
mturk,48kl2yj4bk3oit3lc8y2c8qf,89,1,0.0,37.0,0.372,0.0,1.0
mturk,48kl2yj4bk3oit3lc8y2c8qf,90,1,2.0,39.0,0.478,0.0,0.0
mturk,5ia4n00eepgph445l075pzvt,1,2,1.0,38.0,1.131,0.0,1.0
mturk,5ia4n00eepgph445l075pzvt,2,2,2.0,39.0,1.471,1.0,1.0
mturk,5ia4n00eepgph445l075pzvt,3,2,0.0,37.0,0.84,0.0,0.0
mturk,5ia4n00eepgph445l075pzvt,4,2,1.0,38.0,0.87,0.0,0.0
mturk,5ia4n00eepgph445l075pzvt,5,2,0.0,37.0,0.649,0.0,0.0
mturk,5ia4n00eepgph445l075pzvt,6,2,1.0,38.0,0.546,0.0,0.0
mturk,5ia4n00eepgph445l075pzvt,7,2,2.0,39.0,0.518,1.0,1.0
mturk,5ia4n00eepgph445l075pzvt,8,2,2.0,39.0,0.542,1.0,1.0
mturk,5ia4n00eepgph445l075pzvt,9,2,2.0,39.0,0.7,1.0,1.0
mturk,5ia4n00eepgph445l075pzvt,10,2,2.0,39.0,0.578,1.0,1.0
mturk,5ia4n00eepgph445l075pzvt,11,2,2.0,39.0,0.671,1.0,0.0
mturk,5ia4n00eepgph445l075pzvt,12,2,2.0,39.0,0.595,1.0,1.0
mturk,5ia4n00eepgph445l075pzvt,13,2,2.0,39.0,0.603,1.0,1.0
mturk,5ia4n00eepgph445l075pzvt,14,2,2.0,39.0,0.648,1.0,1.0
mturk,5ia4n00eepgph445l075pzvt,15,2,2.0,39.0,0.592,1.0,1.0
mturk,5ia4n00eepgph445l075pzvt,16,1,2.0,39.0,0.543,0.0,1.0
mturk,5ia4n00eepgph445l075pzvt,17,1,2.0,39.0,0.673,0.0,1.0
mturk,5ia4n00eepgph445l075pzvt,18,1,2.0,39.0,0.516,0.0,0.0
mturk,5ia4n00eepgph445l075pzvt,19,1,2.0,39.0,0.53,0.0,0.0
mturk,5ia4n00eepgph445l075pzvt,20,1,1.0,38.0,0.55,1.0,1.0
mturk,5ia4n00eepgph445l075pzvt,21,1,1.0,38.0,0.439,1.0,1.0
mturk,5ia4n00eepgph445l075pzvt,22,1,1.0,38.0,0.529,1.0,1.0
mturk,5ia4n00eepgph445l075pzvt,23,1,1.0,38.0,0.475,1.0,1.0
mturk,5ia4n00eepgph445l075pzvt,24,1,1.0,38.0,0.447,1.0,1.0
mturk,5ia4n00eepgph445l075pzvt,25,1,1.0,38.0,0.484,1.0,1.0
mturk,5ia4n00eepgph445l075pzvt,26,1,1.0,38.0,0.473,1.0,1.0
mturk,5ia4n00eepgph445l075pzvt,27,1,1.0,38.0,0.461,1.0,1.0
mturk,5ia4n00eepgph445l075pzvt,28,1,1.0,38.0,0.511,1.0,1.0
mturk,5ia4n00eepgph445l075pzvt,29,1,1.0,38.0,0.457,1.0,0.0
mturk,5ia4n00eepgph445l075pzvt,30,1,1.0,38.0,0.515,1.0,1.0
mturk,5ia4n00eepgph445l075pzvt,31,2,1.0,38.0,0.527,0.0,1.0
mturk,5ia4n00eepgph445l075pzvt,32,2,1.0,38.0,0.475,0.0,0.0
mturk,5ia4n00eepgph445l075pzvt,33,2,1.0,38.0,0.472,0.0,0.0
mturk,5ia4n00eepgph445l075pzvt,34,2,0.0,37.0,0.515,0.0,1.0
mturk,5ia4n00eepgph445l075pzvt,35,2,0.0,37.0,0.405,0.0,0.0
mturk,5ia4n00eepgph445l075pzvt,36,2,2.0,39.0,0.409,1.0,1.0
mturk,5ia4n00eepgph445l075pzvt,37,2,2.0,39.0,0.42,1.0,1.0
mturk,5ia4n00eepgph445l075pzvt,38,2,2.0,39.0,0.386,1.0,1.0
mturk,5ia4n00eepgph445l075pzvt,39,2,2.0,39.0,0.451,1.0,1.0
mturk,5ia4n00eepgph445l075pzvt,40,2,2.0,39.0,0.374,1.0,1.0
mturk,5ia4n00eepgph445l075pzvt,41,2,2.0,39.0,0.387,1.0,1.0
mturk,5ia4n00eepgph445l075pzvt,42,2,2.0,39.0,0.393,1.0,0.0
mturk,5ia4n00eepgph445l075pzvt,43,2,2.0,39.0,0.526,1.0,1.0
mturk,5ia4n00eepgph445l075pzvt,44,2,2.0,39.0,0.515,1.0,1.0
mturk,5ia4n00eepgph445l075pzvt,45,2,2.0,39.0,0.45,1.0,1.0
mturk,5ia4n00eepgph445l075pzvt,46,0,2.0,39.0,0.465,0.0,0.0
mturk,5ia4n00eepgph445l075pzvt,47,0,2.0,39.0,0.458,0.0,0.0
mturk,5ia4n00eepgph445l075pzvt,48,0,1.0,38.0,0.449,0.0,0.0
mturk,5ia4n00eepgph445l075pzvt,49,0,1.0,38.0,0.439,0.0,1.0
mturk,5ia4n00eepgph445l075pzvt,50,0,1.0,38.0,0.455,0.0,0.0
mturk,5ia4n00eepgph445l075pzvt,51,0,1.0,38.0,0.459,0.0,0.0
mturk,5ia4n00eepgph445l075pzvt,52,0,0.0,37.0,0.42,1.0,1.0
mturk,5ia4n00eepgph445l075pzvt,53,0,0.0,37.0,0.436,1.0,0.0
mturk,5ia4n00eepgph445l075pzvt,54,0,0.0,37.0,0.487,1.0,0.0
mturk,5ia4n00eepgph445l075pzvt,55,0,1.0,38.0,0.447,0.0,0.0
mturk,5ia4n00eepgph445l075pzvt,56,0,1.0,38.0,0.347,0.0,0.0
mturk,5ia4n00eepgph445l075pzvt,57,0,2.0,39.0,0.344,0.0,0.0
mturk,5ia4n00eepgph445l075pzvt,58,0,2.0,39.0,0.515,0.0,1.0
mturk,5ia4n00eepgph445l075pzvt,59,0,2.0,39.0,0.38,0.0,0.0
mturk,5ia4n00eepgph445l075pzvt,60,0,2.0,39.0,0.363,0.0,0.0
mturk,5ia4n00eepgph445l075pzvt,61,2,2.0,39.0,0.389,1.0,1.0
mturk,5ia4n00eepgph445l075pzvt,62,2,2.0,39.0,0.723,1.0,1.0
mturk,5ia4n00eepgph445l075pzvt,63,2,2.0,39.0,0.426,1.0,1.0
mturk,5ia4n00eepgph445l075pzvt,64,2,2.0,39.0,0.49,1.0,1.0
mturk,5ia4n00eepgph445l075pzvt,65,2,2.0,39.0,0.414,1.0,1.0
mturk,5ia4n00eepgph445l075pzvt,66,2,2.0,39.0,0.399,1.0,1.0
mturk,5ia4n00eepgph445l075pzvt,67,2,2.0,39.0,0.38,1.0,1.0
mturk,5ia4n00eepgph445l075pzvt,68,2,2.0,39.0,0.392,1.0,0.0
mturk,5ia4n00eepgph445l075pzvt,69,2,2.0,39.0,0.482,1.0,0.0
mturk,5ia4n00eepgph445l075pzvt,70,2,2.0,39.0,0.455,1.0,0.0
mturk,5ia4n00eepgph445l075pzvt,71,2,1.0,38.0,0.415,0.0,0.0
mturk,5ia4n00eepgph445l075pzvt,72,2,1.0,38.0,0.352,0.0,0.0
mturk,5ia4n00eepgph445l075pzvt,73,2,1.0,38.0,0.39,0.0,0.0
mturk,5ia4n00eepgph445l075pzvt,74,2,0.0,37.0,0.453,0.0,0.0
mturk,5ia4n00eepgph445l075pzvt,75,2,0.0,37.0,0.363,0.0,0.0
mturk,5ia4n00eepgph445l075pzvt,76,0,0.0,37.0,0.351,1.0,1.0
mturk,5ia4n00eepgph445l075pzvt,77,0,0.0,37.0,0.409,1.0,1.0
mturk,5ia4n00eepgph445l075pzvt,78,0,0.0,37.0,0.385,1.0,0.0
mturk,5ia4n00eepgph445l075pzvt,79,0,0.0,37.0,0.398,1.0,1.0
mturk,5ia4n00eepgph445l075pzvt,80,0,0.0,37.0,0.442,1.0,1.0
mturk,5ia4n00eepgph445l075pzvt,81,0,0.0,37.0,0.444,1.0,1.0
mturk,5ia4n00eepgph445l075pzvt,82,0,0.0,37.0,0.442,1.0,0.0
mturk,5ia4n00eepgph445l075pzvt,83,0,0.0,37.0,0.356,1.0,1.0
mturk,5ia4n00eepgph445l075pzvt,84,0,0.0,37.0,0.45,1.0,1.0
mturk,5ia4n00eepgph445l075pzvt,85,0,0.0,37.0,0.379,1.0,1.0
mturk,5ia4n00eepgph445l075pzvt,86,0,0.0,37.0,0.383,1.0,1.0
mturk,5ia4n00eepgph445l075pzvt,87,0,0.0,37.0,0.438,1.0,1.0
mturk,5ia4n00eepgph445l075pzvt,88,0,0.0,37.0,0.355,1.0,1.0
mturk,5ia4n00eepgph445l075pzvt,89,0,0.0,37.0,0.366,1.0,1.0
mturk,5ia4n00eepgph445l075pzvt,90,0,0.0,37.0,0.312,1.0,1.0
mturk,6ddzcn9af3ba6dv3c91n5enx,1,0,0.0,37.0,3.437,1.0,1.0
mturk,6ddzcn9af3ba6dv3c91n5enx,2,0,2.0,39.0,1.158,0.0,0.0
mturk,6ddzcn9af3ba6dv3c91n5enx,3,0,0.0,37.0,0.596,1.0,1.0
mturk,6ddzcn9af3ba6dv3c91n5enx,4,0,0.0,37.0,0.465,1.0,0.0
mturk,6ddzcn9af3ba6dv3c91n5enx,5,0,1.0,38.0,0.477,0.0,0.0
mturk,6ddzcn9af3ba6dv3c91n5enx,6,0,0.0,37.0,0.556,1.0,1.0
mturk,6ddzcn9af3ba6dv3c91n5enx,7,0,1.0,38.0,0.526,0.0,0.0
mturk,6ddzcn9af3ba6dv3c91n5enx,8,0,2.0,39.0,0.376,0.0,0.0
mturk,6ddzcn9af3ba6dv3c91n5enx,9,0,2.0,39.0,0.346,0.0,0.0
mturk,6ddzcn9af3ba6dv3c91n5enx,10,0,0.0,37.0,0.307,1.0,1.0
mturk,6ddzcn9af3ba6dv3c91n5enx,11,0,2.0,39.0,0.405,0.0,1.0
mturk,6ddzcn9af3ba6dv3c91n5enx,12,0,1.0,38.0,0.495,0.0,0.0
mturk,6ddzcn9af3ba6dv3c91n5enx,13,0,2.0,39.0,0.274,0.0,0.0
mturk,6ddzcn9af3ba6dv3c91n5enx,14,0,0.0,37.0,0.377,1.0,1.0
mturk,6ddzcn9af3ba6dv3c91n5enx,15,0,2.0,39.0,0.305,0.0,0.0
mturk,6ddzcn9af3ba6dv3c91n5enx,16,1,0.0,37.0,0.346,0.0,0.0
mturk,6ddzcn9af3ba6dv3c91n5enx,17,1,0.0,37.0,0.278,0.0,1.0
mturk,6ddzcn9af3ba6dv3c91n5enx,18,1,0.0,37.0,0.336,0.0,1.0
mturk,6ddzcn9af3ba6dv3c91n5enx,19,1,0.0,37.0,0.346,0.0,0.0
mturk,6ddzcn9af3ba6dv3c91n5enx,20,1,2.0,39.0,1.337,0.0,1.0
mturk,6ddzcn9af3ba6dv3c91n5enx,21,1,1.0,38.0,0.378,1.0,1.0
mturk,6ddzcn9af3ba6dv3c91n5enx,22,1,1.0,38.0,0.378,1.0,1.0
mturk,6ddzcn9af3ba6dv3c91n5enx,23,1,0.0,37.0,0.328,0.0,0.0
mturk,6ddzcn9af3ba6dv3c91n5enx,24,1,2.0,39.0,0.316,0.0,0.0
mturk,6ddzcn9af3ba6dv3c91n5enx,25,1,2.0,39.0,0.332,0.0,1.0
mturk,6ddzcn9af3ba6dv3c91n5enx,26,1,2.0,39.0,0.437,0.0,0.0
mturk,6ddzcn9af3ba6dv3c91n5enx,27,1,1.0,38.0,0.379,1.0,0.0
mturk,6ddzcn9af3ba6dv3c91n5enx,28,1,2.0,39.0,0.326,0.0,0.0
mturk,6ddzcn9af3ba6dv3c91n5enx,29,1,0.0,37.0,0.257,0.0,1.0
mturk,6ddzcn9af3ba6dv3c91n5enx,30,1,0.0,37.0,0.208,0.0,0.0
mturk,6ddzcn9af3ba6dv3c91n5enx,31,0,2.0,39.0,0.328,0.0,1.0
mturk,6ddzcn9af3ba6dv3c91n5enx,32,0,2.0,39.0,0.545,0.0,1.0
mturk,6ddzcn9af3ba6dv3c91n5enx,33,0,2.0,39.0,1.815,0.0,0.0
mturk,6ddzcn9af3ba6dv3c91n5enx,34,0,0.0,37.0,0.487,1.0,1.0
mturk,6ddzcn9af3ba6dv3c91n5enx,35,0,0.0,37.0,0.327,1.0,1.0
mturk,6ddzcn9af3ba6dv3c91n5enx,36,0,1.0,38.0,0.284,0.0,0.0
mturk,6ddzcn9af3ba6dv3c91n5enx,37,0,0.0,37.0,0.379,1.0,1.0
mturk,6ddzcn9af3ba6dv3c91n5enx,38,0,0.0,37.0,0.384,1.0,1.0
mturk,6ddzcn9af3ba6dv3c91n5enx,39,0,2.0,39.0,0.611,0.0,0.0
mturk,6ddzcn9af3ba6dv3c91n5enx,40,0,1.0,38.0,0.353,0.0,0.0
mturk,6ddzcn9af3ba6dv3c91n5enx,41,0,0.0,37.0,0.358,1.0,0.0
mturk,6ddzcn9af3ba6dv3c91n5enx,42,0,2.0,39.0,0.395,0.0,1.0
mturk,6ddzcn9af3ba6dv3c91n5enx,43,0,2.0,39.0,0.518,0.0,0.0
mturk,6ddzcn9af3ba6dv3c91n5enx,44,0,1.0,38.0,0.483,0.0,0.0
mturk,6ddzcn9af3ba6dv3c91n5enx,45,0,0.0,37.0,0.708,1.0,1.0
mturk,6ddzcn9af3ba6dv3c91n5enx,46,2,0.0,37.0,0.747,0.0,0.0
mturk,6ddzcn9af3ba6dv3c91n5enx,47,2,2.0,39.0,0.494,1.0,1.0
mturk,6ddzcn9af3ba6dv3c91n5enx,48,2,2.0,39.0,0.496,1.0,0.0
mturk,6ddzcn9af3ba6dv3c91n5enx,49,2,0.0,37.0,0.527,0.0,0.0
mturk,6ddzcn9af3ba6dv3c91n5enx,50,2,0.0,37.0,0.718,0.0,0.0
mturk,6ddzcn9af3ba6dv3c91n5enx,51,2,0.0,37.0,1.756,0.0,0.0
mturk,6ddzcn9af3ba6dv3c91n5enx,52,2,0.0,37.0,0.617,0.0,0.0
mturk,6ddzcn9af3ba6dv3c91n5enx,53,2,0.0,37.0,0.805,0.0,0.0
mturk,6ddzcn9af3ba6dv3c91n5enx,54,2,2.0,39.0,0.508,1.0,1.0
mturk,6ddzcn9af3ba6dv3c91n5enx,55,2,2.0,39.0,0.838,1.0,0.0
mturk,6ddzcn9af3ba6dv3c91n5enx,56,2,0.0,37.0,0.125,0.0,0.0
mturk,6ddzcn9af3ba6dv3c91n5enx,57,2,2.0,39.0,0.475,1.0,1.0
mturk,6ddzcn9af3ba6dv3c91n5enx,58,2,2.0,39.0,0.317,1.0,0.0
mturk,6ddzcn9af3ba6dv3c91n5enx,59,2,0.0,37.0,0.456,0.0,0.0
mturk,6ddzcn9af3ba6dv3c91n5enx,60,2,1.0,38.0,0.429,0.0,0.0
mturk,6ddzcn9af3ba6dv3c91n5enx,61,0,1.0,38.0,0.267,0.0,0.0
mturk,6ddzcn9af3ba6dv3c91n5enx,62,0,0.0,37.0,0.314,1.0,1.0
mturk,6ddzcn9af3ba6dv3c91n5enx,63,0,2.0,39.0,0.266,0.0,0.0
mturk,6ddzcn9af3ba6dv3c91n5enx,64,0,0.0,37.0,0.218,1.0,1.0
mturk,6ddzcn9af3ba6dv3c91n5enx,65,0,0.0,37.0,0.388,1.0,1.0
mturk,6ddzcn9af3ba6dv3c91n5enx,66,0,0.0,37.0,0.335,1.0,1.0
mturk,6ddzcn9af3ba6dv3c91n5enx,67,0,0.0,37.0,0.379,1.0,1.0
mturk,6ddzcn9af3ba6dv3c91n5enx,68,0,0.0,37.0,0.465,1.0,0.0
mturk,6ddzcn9af3ba6dv3c91n5enx,69,0,0.0,37.0,0.417,1.0,1.0
mturk,6ddzcn9af3ba6dv3c91n5enx,70,0,2.0,39.0,0.297,0.0,0.0
mturk,6ddzcn9af3ba6dv3c91n5enx,71,0,0.0,37.0,0.448,1.0,1.0
mturk,6ddzcn9af3ba6dv3c91n5enx,72,0,1.0,38.0,0.606,0.0,0.0
mturk,6ddzcn9af3ba6dv3c91n5enx,73,0,0.0,37.0,0.326,1.0,1.0
mturk,6ddzcn9af3ba6dv3c91n5enx,74,0,0.0,37.0,0.616,1.0,0.0
mturk,6ddzcn9af3ba6dv3c91n5enx,75,0,2.0,39.0,0.158,0.0,0.0
mturk,6ddzcn9af3ba6dv3c91n5enx,76,1,0.0,37.0,0.446,0.0,0.0
mturk,6ddzcn9af3ba6dv3c91n5enx,77,1,1.0,38.0,0.505,1.0,1.0
mturk,6ddzcn9af3ba6dv3c91n5enx,78,1,1.0,38.0,0.578,1.0,1.0
mturk,6ddzcn9af3ba6dv3c91n5enx,79,1,1.0,38.0,0.498,1.0,1.0
mturk,6ddzcn9af3ba6dv3c91n5enx,80,1,1.0,38.0,0.585,1.0,1.0
mturk,6ddzcn9af3ba6dv3c91n5enx,81,1,1.0,38.0,0.767,1.0,1.0
mturk,6ddzcn9af3ba6dv3c91n5enx,82,1,0.0,37.0,0.427,0.0,1.0
mturk,6ddzcn9af3ba6dv3c91n5enx,83,1,0.0,37.0,0.478,0.0,0.0
mturk,6ddzcn9af3ba6dv3c91n5enx,84,1,1.0,38.0,0.568,1.0,1.0
mturk,6ddzcn9af3ba6dv3c91n5enx,85,1,1.0,38.0,0.496,1.0,1.0
mturk,6ddzcn9af3ba6dv3c91n5enx,86,1,1.0,38.0,0.345,1.0,0.0
mturk,6ddzcn9af3ba6dv3c91n5enx,87,1,0.0,37.0,0.436,0.0,0.0
mturk,6ddzcn9af3ba6dv3c91n5enx,88,1,1.0,38.0,0.288,1.0,0.0
mturk,6ddzcn9af3ba6dv3c91n5enx,89,1,0.0,37.0,0.546,0.0,0.0
mturk,6ddzcn9af3ba6dv3c91n5enx,90,1,0.0,37.0,0.508,0.0,1.0
mturk,6ebn8yjdbepfbi3vshim0fa4,1,1,1.0,38.0,4.414,1.0,1.0
mturk,6ebn8yjdbepfbi3vshim0fa4,2,1,0.0,37.0,3.206,0.0,0.0
mturk,6ebn8yjdbepfbi3vshim0fa4,3,1,1.0,38.0,2.696,1.0,1.0
mturk,6ebn8yjdbepfbi3vshim0fa4,4,1,2.0,39.0,1.145,0.0,1.0
mturk,6ebn8yjdbepfbi3vshim0fa4,5,1,0.0,37.0,1.164,0.0,0.0
mturk,6ebn8yjdbepfbi3vshim0fa4,6,1,2.0,39.0,1.148,0.0,0.0
mturk,6ebn8yjdbepfbi3vshim0fa4,7,1,1.0,38.0,0.542,1.0,1.0
mturk,6ebn8yjdbepfbi3vshim0fa4,8,1,1.0,38.0,0.954,1.0,1.0
mturk,6ebn8yjdbepfbi3vshim0fa4,9,1,2.0,39.0,0.847,0.0,1.0
mturk,6ebn8yjdbepfbi3vshim0fa4,10,1,0.0,37.0,0.603,0.0,0.0
mturk,6ebn8yjdbepfbi3vshim0fa4,11,1,2.0,39.0,0.826,0.0,0.0
mturk,6ebn8yjdbepfbi3vshim0fa4,12,1,1.0,38.0,0.459,1.0,1.0
mturk,6ebn8yjdbepfbi3vshim0fa4,13,1,1.0,38.0,0.942,1.0,1.0
mturk,6ebn8yjdbepfbi3vshim0fa4,14,1,1.0,38.0,1.014,1.0,1.0
mturk,6ebn8yjdbepfbi3vshim0fa4,15,1,2.0,39.0,0.486,0.0,1.0
mturk,6ebn8yjdbepfbi3vshim0fa4,16,2,1.0,38.0,0.807,0.0,0.0
mturk,6ebn8yjdbepfbi3vshim0fa4,17,2,0.0,37.0,0.69,0.0,0.0
mturk,6ebn8yjdbepfbi3vshim0fa4,18,2,2.0,39.0,1.811,1.0,1.0
mturk,6ebn8yjdbepfbi3vshim0fa4,19,2,1.0,38.0,2.06,0.0,0.0
mturk,6ebn8yjdbepfbi3vshim0fa4,20,2,2.0,39.0,0.799,1.0,1.0
mturk,6ebn8yjdbepfbi3vshim0fa4,21,2,2.0,39.0,1.146,1.0,0.0
mturk,6ebn8yjdbepfbi3vshim0fa4,22,2,1.0,38.0,0.465,0.0,1.0
mturk,6ebn8yjdbepfbi3vshim0fa4,23,2,1.0,38.0,0.645,0.0,1.0
mturk,6ebn8yjdbepfbi3vshim0fa4,24,2,0.0,37.0,0.571,0.0,0.0
mturk,6ebn8yjdbepfbi3vshim0fa4,25,2,1.0,38.0,4.521,0.0,0.0
mturk,6ebn8yjdbepfbi3vshim0fa4,26,2,2.0,39.0,0.473,1.0,1.0
mturk,6ebn8yjdbepfbi3vshim0fa4,27,2,2.0,39.0,0.536,1.0,1.0
mturk,6ebn8yjdbepfbi3vshim0fa4,28,2,1.0,38.0,0.525,0.0,1.0
mturk,6ebn8yjdbepfbi3vshim0fa4,29,2,2.0,39.0,1.242,1.0,1.0
mturk,6ebn8yjdbepfbi3vshim0fa4,30,2,2.0,39.0,0.489,1.0,1.0
mturk,6ebn8yjdbepfbi3vshim0fa4,31,0,1.0,38.0,0.589,0.0,0.0
mturk,6ebn8yjdbepfbi3vshim0fa4,32,0,0.0,37.0,0.463,1.0,1.0
mturk,6ebn8yjdbepfbi3vshim0fa4,33,0,0.0,37.0,0.43,1.0,1.0
mturk,6ebn8yjdbepfbi3vshim0fa4,34,0,2.0,39.0,0.575,0.0,1.0
mturk,6ebn8yjdbepfbi3vshim0fa4,35,0,1.0,38.0,0.517,0.0,0.0
mturk,6ebn8yjdbepfbi3vshim0fa4,36,0,2.0,39.0,0.372,0.0,1.0
mturk,6ebn8yjdbepfbi3vshim0fa4,37,0,0.0,37.0,0.703,1.0,1.0
mturk,6ebn8yjdbepfbi3vshim0fa4,38,0,1.0,38.0,1.018,0.0,1.0
mturk,6ebn8yjdbepfbi3vshim0fa4,39,0,2.0,39.0,0.875,0.0,0.0
mturk,6ebn8yjdbepfbi3vshim0fa4,40,0,1.0,38.0,0.61,0.0,0.0
mturk,6ebn8yjdbepfbi3vshim0fa4,41,0,1.0,38.0,0.788,0.0,0.0
mturk,6ebn8yjdbepfbi3vshim0fa4,42,0,0.0,37.0,0.39,1.0,1.0
mturk,6ebn8yjdbepfbi3vshim0fa4,43,0,0.0,37.0,0.504,1.0,1.0
mturk,6ebn8yjdbepfbi3vshim0fa4,44,0,2.0,39.0,0.446,0.0,0.0
mturk,6ebn8yjdbepfbi3vshim0fa4,45,0,0.0,37.0,0.401,1.0,1.0
mturk,6ebn8yjdbepfbi3vshim0fa4,46,2,0.0,37.0,0.731,0.0,0.0
mturk,6ebn8yjdbepfbi3vshim0fa4,47,2,1.0,38.0,0.655,0.0,1.0
mturk,6ebn8yjdbepfbi3vshim0fa4,48,2,1.0,38.0,0.578,0.0,0.0
mturk,6ebn8yjdbepfbi3vshim0fa4,49,2,0.0,37.0,1.356,0.0,0.0
mturk,6ebn8yjdbepfbi3vshim0fa4,50,2,1.0,38.0,0.383,0.0,1.0
mturk,6ebn8yjdbepfbi3vshim0fa4,51,2,2.0,39.0,0.409,1.0,1.0
mturk,6ebn8yjdbepfbi3vshim0fa4,52,2,2.0,39.0,0.811,1.0,1.0
mturk,6ebn8yjdbepfbi3vshim0fa4,53,2,1.0,38.0,0.5,0.0,0.0
mturk,6ebn8yjdbepfbi3vshim0fa4,54,2,1.0,38.0,0.849,0.0,0.0
mturk,6ebn8yjdbepfbi3vshim0fa4,55,2,2.0,39.0,0.653,1.0,1.0
mturk,6ebn8yjdbepfbi3vshim0fa4,56,2,2.0,39.0,1.286,1.0,1.0
mturk,6ebn8yjdbepfbi3vshim0fa4,57,2,1.0,38.0,1.147,0.0,1.0
mturk,6ebn8yjdbepfbi3vshim0fa4,58,2,2.0,39.0,0.612,1.0,1.0
mturk,6ebn8yjdbepfbi3vshim0fa4,59,2,2.0,39.0,1.007,1.0,1.0
mturk,6ebn8yjdbepfbi3vshim0fa4,60,2,1.0,38.0,1.172,0.0,0.0
mturk,6ebn8yjdbepfbi3vshim0fa4,61,0,0.0,37.0,0.747,1.0,1.0
mturk,6ebn8yjdbepfbi3vshim0fa4,62,0,0.0,37.0,0.622,1.0,0.0
mturk,6ebn8yjdbepfbi3vshim0fa4,63,0,2.0,39.0,0.412,0.0,0.0
mturk,6ebn8yjdbepfbi3vshim0fa4,64,0,1.0,38.0,0.346,0.0,1.0
mturk,6ebn8yjdbepfbi3vshim0fa4,65,0,1.0,38.0,0.805,0.0,0.0
mturk,6ebn8yjdbepfbi3vshim0fa4,66,0,2.0,39.0,0.394,0.0,0.0
mturk,6ebn8yjdbepfbi3vshim0fa4,67,0,0.0,37.0,0.771,1.0,1.0
mturk,6ebn8yjdbepfbi3vshim0fa4,68,0,0.0,37.0,0.344,1.0,1.0
mturk,6ebn8yjdbepfbi3vshim0fa4,69,0,0.0,37.0,1.471,1.0,1.0
mturk,6ebn8yjdbepfbi3vshim0fa4,70,0,1.0,38.0,0.572,0.0,1.0
mturk,6ebn8yjdbepfbi3vshim0fa4,71,0,2.0,39.0,1.056,0.0,0.0
mturk,6ebn8yjdbepfbi3vshim0fa4,72,0,2.0,39.0,0.581,0.0,0.0
mturk,6ebn8yjdbepfbi3vshim0fa4,73,0,0.0,37.0,0.4,1.0,1.0
mturk,6ebn8yjdbepfbi3vshim0fa4,74,0,0.0,37.0,0.598,1.0,0.0
mturk,6ebn8yjdbepfbi3vshim0fa4,75,0,1.0,38.0,0.41,0.0,0.0
mturk,6ebn8yjdbepfbi3vshim0fa4,76,2,1.0,38.0,0.497,0.0,1.0
mturk,6ebn8yjdbepfbi3vshim0fa4,77,2,1.0,38.0,0.418,0.0,1.0
mturk,6ebn8yjdbepfbi3vshim0fa4,78,2,2.0,39.0,0.658,1.0,0.0
mturk,6ebn8yjdbepfbi3vshim0fa4,79,2,2.0,39.0,0.481,1.0,1.0
mturk,6ebn8yjdbepfbi3vshim0fa4,80,2,1.0,38.0,0.408,0.0,0.0
mturk,6ebn8yjdbepfbi3vshim0fa4,81,2,1.0,38.0,0.412,0.0,0.0
mturk,6ebn8yjdbepfbi3vshim0fa4,82,2,0.0,37.0,0.28,0.0,0.0
mturk,6ebn8yjdbepfbi3vshim0fa4,83,2,2.0,39.0,0.432,1.0,1.0
mturk,6ebn8yjdbepfbi3vshim0fa4,84,2,2.0,39.0,0.381,1.0,1.0
mturk,6ebn8yjdbepfbi3vshim0fa4,85,2,1.0,38.0,0.478,0.0,0.0
mturk,6ebn8yjdbepfbi3vshim0fa4,86,2,2.0,39.0,0.184,1.0,1.0
mturk,6ebn8yjdbepfbi3vshim0fa4,87,2,2.0,39.0,0.397,1.0,1.0
mturk,6ebn8yjdbepfbi3vshim0fa4,88,2,2.0,39.0,0.9,1.0,0.0
mturk,6ebn8yjdbepfbi3vshim0fa4,89,2,1.0,38.0,0.49,0.0,0.0
mturk,6ebn8yjdbepfbi3vshim0fa4,90,2,0.0,37.0,0.922,0.0,0.0
mturk,6g0smxt28qc8rof31hj311l7,1,2,1.0,38.0,1.232,0.0,0.0
mturk,6g0smxt28qc8rof31hj311l7,2,2,0.0,37.0,0.417,0.0,0.0
mturk,6g0smxt28qc8rof31hj311l7,3,2,2.0,39.0,0.386,1.0,1.0
mturk,6g0smxt28qc8rof31hj311l7,4,2,2.0,39.0,0.353,1.0,0.0
mturk,6g0smxt28qc8rof31hj311l7,5,2,2.0,39.0,0.304,1.0,1.0
mturk,6g0smxt28qc8rof31hj311l7,6,2,2.0,39.0,0.362,1.0,0.0
mturk,6g0smxt28qc8rof31hj311l7,7,2,2.0,39.0,0.118,1.0,1.0
mturk,6g0smxt28qc8rof31hj311l7,8,2,2.0,39.0,0.32,1.0,1.0
mturk,6g0smxt28qc8rof31hj311l7,9,2,2.0,39.0,0.35,1.0,1.0
mturk,6g0smxt28qc8rof31hj311l7,10,2,2.0,39.0,0.365,1.0,1.0
mturk,6g0smxt28qc8rof31hj311l7,11,2,2.0,39.0,0.407,1.0,1.0
mturk,6g0smxt28qc8rof31hj311l7,12,2,2.0,39.0,0.347,1.0,1.0
mturk,6g0smxt28qc8rof31hj311l7,13,2,2.0,39.0,0.584,1.0,1.0
mturk,6g0smxt28qc8rof31hj311l7,14,2,2.0,39.0,0.68,1.0,1.0
mturk,6g0smxt28qc8rof31hj311l7,15,2,2.0,39.0,0.738,1.0,0.0
mturk,6g0smxt28qc8rof31hj311l7,16,0,2.0,39.0,0.446,0.0,0.0
mturk,6g0smxt28qc8rof31hj311l7,17,0,0.0,37.0,0.25,1.0,1.0
mturk,6g0smxt28qc8rof31hj311l7,18,0,0.0,37.0,0.439,1.0,1.0
mturk,6g0smxt28qc8rof31hj311l7,19,0,0.0,37.0,0.423,1.0,1.0
mturk,6g0smxt28qc8rof31hj311l7,20,0,0.0,37.0,0.895,1.0,1.0
mturk,6g0smxt28qc8rof31hj311l7,21,0,0.0,37.0,0.658,1.0,1.0
mturk,6g0smxt28qc8rof31hj311l7,22,0,0.0,37.0,1.108,1.0,1.0
mturk,6g0smxt28qc8rof31hj311l7,23,0,0.0,37.0,0.482,1.0,1.0
mturk,6g0smxt28qc8rof31hj311l7,24,0,0.0,37.0,0.387,1.0,1.0
mturk,6g0smxt28qc8rof31hj311l7,25,0,0.0,37.0,0.467,1.0,1.0
mturk,6g0smxt28qc8rof31hj311l7,26,0,0.0,37.0,0.381,1.0,1.0
mturk,6g0smxt28qc8rof31hj311l7,27,0,0.0,37.0,0.298,1.0,1.0
mturk,6g0smxt28qc8rof31hj311l7,28,0,0.0,37.0,0.851,1.0,1.0
mturk,6g0smxt28qc8rof31hj311l7,29,0,0.0,37.0,0.332,1.0,1.0
mturk,6g0smxt28qc8rof31hj311l7,30,0,0.0,37.0,0.292,1.0,1.0
mturk,6g0smxt28qc8rof31hj311l7,31,2,0.0,37.0,0.174,0.0,0.0
mturk,6g0smxt28qc8rof31hj311l7,32,2,1.0,38.0,0.188,0.0,1.0
mturk,6g0smxt28qc8rof31hj311l7,33,2,1.0,38.0,0.346,0.0,0.0
mturk,6g0smxt28qc8rof31hj311l7,34,2,1.0,38.0,0.104,0.0,0.0
mturk,6g0smxt28qc8rof31hj311l7,35,2,2.0,39.0,0.458,1.0,1.0
mturk,6g0smxt28qc8rof31hj311l7,36,2,2.0,39.0,0.205,1.0,1.0
mturk,6g0smxt28qc8rof31hj311l7,37,2,2.0,39.0,0.278,1.0,1.0
mturk,6g0smxt28qc8rof31hj311l7,38,2,2.0,39.0,0.276,1.0,1.0
mturk,6g0smxt28qc8rof31hj311l7,39,2,2.0,39.0,0.138,1.0,0.0
mturk,6g0smxt28qc8rof31hj311l7,40,2,0.0,37.0,0.132,0.0,0.0
mturk,6g0smxt28qc8rof31hj311l7,41,2,1.0,38.0,0.128,0.0,0.0
mturk,6g0smxt28qc8rof31hj311l7,42,2,2.0,39.0,0.516,1.0,1.0
mturk,6g0smxt28qc8rof31hj311l7,43,2,2.0,39.0,0.281,1.0,0.0
mturk,6g0smxt28qc8rof31hj311l7,44,2,2.0,39.0,0.263,1.0,1.0
mturk,6g0smxt28qc8rof31hj311l7,45,2,2.0,39.0,0.149,1.0,0.0
mturk,6g0smxt28qc8rof31hj311l7,46,1,0.0,37.0,0.027,0.0,0.0
mturk,6g0smxt28qc8rof31hj311l7,47,1,0.0,37.0,0.128,0.0,0.0
mturk,6g0smxt28qc8rof31hj311l7,48,1,0.0,37.0,0.102,0.0,0.0
mturk,6g0smxt28qc8rof31hj311l7,49,1,1.0,38.0,0.055,1.0,0.0
mturk,6g0smxt28qc8rof31hj311l7,50,1,2.0,39.0,0.609,0.0,0.0
mturk,6g0smxt28qc8rof31hj311l7,51,1,2.0,39.0,0.269,0.0,0.0
mturk,6g0smxt28qc8rof31hj311l7,52,1,1.0,38.0,0.0,1.0,1.0
mturk,6g0smxt28qc8rof31hj311l7,53,1,1.0,38.0,0.357,1.0,1.0
mturk,6g0smxt28qc8rof31hj311l7,54,1,1.0,38.0,0.389,1.0,0.0
mturk,6g0smxt28qc8rof31hj311l7,55,1,1.0,38.0,0.357,1.0,1.0
mturk,6g0smxt28qc8rof31hj311l7,56,1,1.0,38.0,0.12,1.0,1.0
mturk,6g0smxt28qc8rof31hj311l7,57,1,1.0,38.0,0.298,1.0,1.0
mturk,6g0smxt28qc8rof31hj311l7,58,1,1.0,38.0,0.206,1.0,1.0
mturk,6g0smxt28qc8rof31hj311l7,59,1,1.0,38.0,0.149,1.0,1.0
mturk,6g0smxt28qc8rof31hj311l7,60,1,1.0,38.0,0.287,1.0,1.0
mturk,6g0smxt28qc8rof31hj311l7,61,2,1.0,38.0,0.024,0.0,0.0
mturk,6g0smxt28qc8rof31hj311l7,62,2,1.0,38.0,0.042,0.0,0.0
mturk,6g0smxt28qc8rof31hj311l7,63,2,0.0,37.0,1.229,0.0,1.0
mturk,6g0smxt28qc8rof31hj311l7,64,2,0.0,37.0,0.127,0.0,0.0
mturk,6g0smxt28qc8rof31hj311l7,65,2,2.0,39.0,0.223,1.0,1.0
mturk,6g0smxt28qc8rof31hj311l7,66,2,2.0,39.0,0.1,1.0,0.0
mturk,6g0smxt28qc8rof31hj311l7,67,2,2.0,39.0,0.608,1.0,1.0
mturk,6g0smxt28qc8rof31hj311l7,68,2,2.0,39.0,0.106,1.0,1.0
mturk,6g0smxt28qc8rof31hj311l7,69,2,2.0,39.0,0.283,1.0,1.0
mturk,6g0smxt28qc8rof31hj311l7,70,2,2.0,39.0,0.389,1.0,0.0
mturk,6g0smxt28qc8rof31hj311l7,71,2,0.0,37.0,0.856,0.0,0.0
mturk,6g0smxt28qc8rof31hj311l7,72,2,0.0,37.0,0.598,0.0,0.0
mturk,6g0smxt28qc8rof31hj311l7,73,2,2.0,39.0,0.198,1.0,0.0
mturk,6g0smxt28qc8rof31hj311l7,74,2,2.0,39.0,0.133,1.0,1.0
mturk,6g0smxt28qc8rof31hj311l7,75,2,2.0,39.0,0.308,1.0,1.0
mturk,6g0smxt28qc8rof31hj311l7,76,0,2.0,39.0,0.305,0.0,0.0
mturk,6g0smxt28qc8rof31hj311l7,77,0,2.0,39.0,0.329,0.0,0.0
mturk,6g0smxt28qc8rof31hj311l7,78,0,2.0,39.0,0.264,0.0,0.0
mturk,6g0smxt28qc8rof31hj311l7,79,0,2.0,39.0,0.185,0.0,0.0
mturk,6g0smxt28qc8rof31hj311l7,80,0,0.0,37.0,0.299,1.0,1.0
mturk,6g0smxt28qc8rof31hj311l7,81,0,1.0,38.0,0.119,0.0,0.0
mturk,6g0smxt28qc8rof31hj311l7,82,0,0.0,37.0,0.106,1.0,1.0
mturk,6g0smxt28qc8rof31hj311l7,83,0,0.0,37.0,0.229,1.0,0.0
mturk,6g0smxt28qc8rof31hj311l7,84,0,2.0,39.0,0.074,0.0,0.0
mturk,6g0smxt28qc8rof31hj311l7,85,0,2.0,39.0,0.091,0.0,0.0
mturk,6g0smxt28qc8rof31hj311l7,86,0,1.0,38.0,0.125,0.0,0.0
mturk,6g0smxt28qc8rof31hj311l7,87,0,0.0,37.0,0.523,1.0,1.0
mturk,6g0smxt28qc8rof31hj311l7,88,0,0.0,37.0,0.135,1.0,1.0
mturk,6g0smxt28qc8rof31hj311l7,89,0,0.0,37.0,0.094,1.0,0.0
mturk,6g0smxt28qc8rof31hj311l7,90,0,2.0,39.0,0.153,0.0,0.0
mturk,6o83uqmv0frbft9n0ojoh68u,1,2,2.0,39.0,2.885,1.0,1.0
mturk,6o83uqmv0frbft9n0ojoh68u,2,2,2.0,39.0,0.409,1.0,1.0
mturk,6o83uqmv0frbft9n0ojoh68u,3,2,0.0,37.0,0.38,0.0,0.0
mturk,6o83uqmv0frbft9n0ojoh68u,4,2,2.0,39.0,0.394,1.0,0.0
mturk,6o83uqmv0frbft9n0ojoh68u,5,2,1.0,38.0,0.324,0.0,0.0
mturk,6o83uqmv0frbft9n0ojoh68u,6,2,2.0,39.0,0.765,1.0,1.0
mturk,6o83uqmv0frbft9n0ojoh68u,7,2,0.0,37.0,0.531,0.0,0.0
mturk,6o83uqmv0frbft9n0ojoh68u,8,2,2.0,39.0,0.251,1.0,0.0
mturk,6o83uqmv0frbft9n0ojoh68u,9,2,1.0,38.0,0.264,0.0,1.0
mturk,6o83uqmv0frbft9n0ojoh68u,10,2,1.0,38.0,0.152,0.0,0.0
mturk,6o83uqmv0frbft9n0ojoh68u,11,2,2.0,39.0,0.087,1.0,0.0
mturk,6o83uqmv0frbft9n0ojoh68u,12,2,0.0,37.0,0.018,0.0,0.0
mturk,6o83uqmv0frbft9n0ojoh68u,13,2,2.0,39.0,0.264,1.0,1.0
mturk,6o83uqmv0frbft9n0ojoh68u,14,2,0.0,37.0,0.053,0.0,0.0
mturk,6o83uqmv0frbft9n0ojoh68u,15,2,2.0,39.0,0.029,1.0,1.0
mturk,6o83uqmv0frbft9n0ojoh68u,16,0,2.0,39.0,0.216,0.0,0.0
mturk,6o83uqmv0frbft9n0ojoh68u,17,0,0.0,37.0,0.257,1.0,1.0
mturk,6o83uqmv0frbft9n0ojoh68u,18,0,2.0,39.0,0.288,0.0,0.0
mturk,6o83uqmv0frbft9n0ojoh68u,19,0,0.0,37.0,0.079,1.0,1.0
mturk,6o83uqmv0frbft9n0ojoh68u,20,0,0.0,37.0,0.001,1.0,1.0
mturk,6o83uqmv0frbft9n0ojoh68u,21,0,0.0,37.0,0.331,1.0,1.0
mturk,6o83uqmv0frbft9n0ojoh68u,22,0,0.0,37.0,0.663,1.0,0.0
mturk,6o83uqmv0frbft9n0ojoh68u,23,0,1.0,38.0,3.548,0.0,1.0
mturk,6o83uqmv0frbft9n0ojoh68u,24,0,2.0,39.0,3.138,0.0,0.0
mturk,6o83uqmv0frbft9n0ojoh68u,25,0,0.0,37.0,0.023,1.0,1.0
mturk,6o83uqmv0frbft9n0ojoh68u,26,0,0.0,37.0,0.283,1.0,1.0
mturk,6o83uqmv0frbft9n0ojoh68u,27,0,0.0,37.0,0.212,1.0,0.0
mturk,6o83uqmv0frbft9n0ojoh68u,28,0,2.0,39.0,2.032,0.0,0.0
mturk,6o83uqmv0frbft9n0ojoh68u,29,0,0.0,37.0,0.521,1.0,1.0
mturk,6o83uqmv0frbft9n0ojoh68u,30,0,0.0,37.0,0.049,1.0,1.0
mturk,6o83uqmv0frbft9n0ojoh68u,31,1,0.0,37.0,0.008,0.0,0.0
mturk,6o83uqmv0frbft9n0ojoh68u,32,1,2.0,39.0,0.409,0.0,0.0
mturk,6o83uqmv0frbft9n0ojoh68u,33,1,0.0,37.0,0.319,0.0,0.0
mturk,6o83uqmv0frbft9n0ojoh68u,34,1,0.0,37.0,0.304,0.0,0.0
mturk,6o83uqmv0frbft9n0ojoh68u,35,1,2.0,39.0,0.387,0.0,0.0
mturk,6o83uqmv0frbft9n0ojoh68u,36,1,0.0,37.0,0.241,0.0,0.0
mturk,6o83uqmv0frbft9n0ojoh68u,37,1,1.0,38.0,0.334,1.0,1.0
mturk,6o83uqmv0frbft9n0ojoh68u,38,1,2.0,39.0,0.932,0.0,0.0
mturk,6o83uqmv0frbft9n0ojoh68u,39,1,0.0,37.0,0.078,0.0,0.0
mturk,6o83uqmv0frbft9n0ojoh68u,40,1,2.0,39.0,0.261,0.0,1.0
mturk,6o83uqmv0frbft9n0ojoh68u,41,1,2.0,39.0,5.337,0.0,0.0
mturk,6o83uqmv0frbft9n0ojoh68u,42,1,0.0,37.0,0.11,0.0,0.0
mturk,6o83uqmv0frbft9n0ojoh68u,43,1,0.0,37.0,0.812,0.0,0.0
mturk,6o83uqmv0frbft9n0ojoh68u,44,1,1.0,38.0,1.112,1.0,1.0
mturk,6o83uqmv0frbft9n0ojoh68u,45,1,1.0,38.0,1.444,1.0,1.0
mturk,6o83uqmv0frbft9n0ojoh68u,46,0,0.0,37.0,1.145,1.0,0.0
mturk,6o83uqmv0frbft9n0ojoh68u,47,0,2.0,39.0,3.21,0.0,0.0
mturk,6o83uqmv0frbft9n0ojoh68u,48,0,0.0,37.0,0.301,1.0,1.0
mturk,6o83uqmv0frbft9n0ojoh68u,49,0,2.0,39.0,4.631,0.0,0.0
mturk,6o83uqmv0frbft9n0ojoh68u,50,0,0.0,37.0,0.306,1.0,1.0
mturk,6o83uqmv0frbft9n0ojoh68u,51,0,1.0,38.0,0.241,0.0,0.0
mturk,6o83uqmv0frbft9n0ojoh68u,52,0,0.0,37.0,0.207,1.0,1.0
mturk,6o83uqmv0frbft9n0ojoh68u,53,0,2.0,39.0,0.062,0.0,1.0
mturk,6o83uqmv0frbft9n0ojoh68u,54,0,0.0,37.0,0.081,1.0,1.0
mturk,6o83uqmv0frbft9n0ojoh68u,55,0,2.0,39.0,0.344,0.0,0.0
mturk,6o83uqmv0frbft9n0ojoh68u,56,0,1.0,38.0,0.293,0.0,0.0
mturk,6o83uqmv0frbft9n0ojoh68u,57,0,0.0,37.0,0.313,1.0,1.0
mturk,6o83uqmv0frbft9n0ojoh68u,58,0,2.0,39.0,0.137,0.0,0.0
mturk,6o83uqmv0frbft9n0ojoh68u,59,0,0.0,37.0,0.695,1.0,1.0
mturk,6o83uqmv0frbft9n0ojoh68u,60,0,2.0,39.0,1.096,0.0,0.0
mturk,6o83uqmv0frbft9n0ojoh68u,61,1,1.0,38.0,0.413,1.0,1.0
mturk,6o83uqmv0frbft9n0ojoh68u,62,1,0.0,37.0,0.412,0.0,1.0
mturk,6o83uqmv0frbft9n0ojoh68u,63,1,0.0,37.0,0.065,0.0,0.0
mturk,6o83uqmv0frbft9n0ojoh68u,64,1,2.0,39.0,0.361,0.0,1.0
mturk,6o83uqmv0frbft9n0ojoh68u,65,1,2.0,39.0,1.009,0.0,0.0
mturk,6o83uqmv0frbft9n0ojoh68u,66,1,0.0,37.0,0.139,0.0,0.0
mturk,6o83uqmv0frbft9n0ojoh68u,67,1,1.0,38.0,0.463,1.0,1.0
mturk,6o83uqmv0frbft9n0ojoh68u,68,1,2.0,39.0,0.348,0.0,0.0
mturk,6o83uqmv0frbft9n0ojoh68u,69,1,0.0,37.0,0.531,0.0,0.0
mturk,6o83uqmv0frbft9n0ojoh68u,70,1,1.0,38.0,0.303,1.0,1.0
mturk,6o83uqmv0frbft9n0ojoh68u,71,1,2.0,39.0,0.063,0.0,1.0
mturk,6o83uqmv0frbft9n0ojoh68u,72,1,0.0,37.0,0.013,0.0,0.0
mturk,6o83uqmv0frbft9n0ojoh68u,73,1,1.0,38.0,0.348,1.0,1.0
mturk,6o83uqmv0frbft9n0ojoh68u,74,1,2.0,39.0,0.304,0.0,1.0
mturk,6o83uqmv0frbft9n0ojoh68u,75,1,0.0,37.0,0.228,0.0,0.0
mturk,6o83uqmv0frbft9n0ojoh68u,76,0,1.0,38.0,0.382,0.0,0.0
mturk,6o83uqmv0frbft9n0ojoh68u,77,0,2.0,39.0,0.121,0.0,0.0
mturk,6o83uqmv0frbft9n0ojoh68u,78,0,0.0,37.0,0.266,1.0,1.0
mturk,6o83uqmv0frbft9n0ojoh68u,79,0,2.0,39.0,0.023,0.0,0.0
mturk,6o83uqmv0frbft9n0ojoh68u,80,0,0.0,37.0,0.383,1.0,1.0
mturk,6o83uqmv0frbft9n0ojoh68u,81,0,0.0,37.0,0.488,1.0,1.0
mturk,6o83uqmv0frbft9n0ojoh68u,82,0,0.0,37.0,0.261,1.0,0.0
mturk,6o83uqmv0frbft9n0ojoh68u,83,0,2.0,39.0,0.222,0.0,0.0
mturk,6o83uqmv0frbft9n0ojoh68u,84,0,0.0,37.0,0.104,1.0,1.0
mturk,6o83uqmv0frbft9n0ojoh68u,85,0,0.0,37.0,0.38,1.0,1.0
mturk,6o83uqmv0frbft9n0ojoh68u,86,0,0.0,37.0,0.205,1.0,1.0
mturk,6o83uqmv0frbft9n0ojoh68u,87,0,0.0,37.0,0.385,1.0,1.0
mturk,6o83uqmv0frbft9n0ojoh68u,88,0,0.0,37.0,0.882,1.0,1.0
mturk,6o83uqmv0frbft9n0ojoh68u,89,0,2.0,39.0,1.089,0.0,0.0
mturk,6o83uqmv0frbft9n0ojoh68u,90,0,0.0,37.0,0.096,1.0,0.0
mturk,6u3el0wrisrdbl98ibq0opof,1,1,0.0,37.0,1.263,0.0,0.0
mturk,6u3el0wrisrdbl98ibq0opof,2,1,2.0,39.0,0.372,0.0,0.0
mturk,6u3el0wrisrdbl98ibq0opof,3,1,0.0,37.0,0.307,0.0,1.0
mturk,6u3el0wrisrdbl98ibq0opof,4,1,2.0,39.0,0.278,0.0,0.0
mturk,6u3el0wrisrdbl98ibq0opof,5,1,1.0,38.0,0.185,1.0,1.0
mturk,6u3el0wrisrdbl98ibq0opof,6,1,0.0,37.0,0.152,0.0,0.0
mturk,6u3el0wrisrdbl98ibq0opof,7,1,1.0,38.0,0.175,1.0,1.0
mturk,6u3el0wrisrdbl98ibq0opof,8,1,1.0,38.0,0.144,1.0,1.0
mturk,6u3el0wrisrdbl98ibq0opof,9,1,1.0,38.0,0.146,1.0,0.0
mturk,6u3el0wrisrdbl98ibq0opof,10,1,0.0,37.0,0.185,0.0,0.0
mturk,6u3el0wrisrdbl98ibq0opof,11,1,2.0,39.0,0.239,0.0,0.0
mturk,6u3el0wrisrdbl98ibq0opof,12,1,0.0,37.0,0.13,0.0,0.0
mturk,6u3el0wrisrdbl98ibq0opof,13,1,1.0,38.0,0.184,1.0,1.0
mturk,6u3el0wrisrdbl98ibq0opof,14,1,1.0,38.0,0.01,1.0,1.0
mturk,6u3el0wrisrdbl98ibq0opof,15,1,1.0,38.0,0.2,1.0,1.0
mturk,6u3el0wrisrdbl98ibq0opof,16,0,1.0,38.0,0.279,0.0,0.0
mturk,6u3el0wrisrdbl98ibq0opof,17,0,0.0,37.0,0.085,1.0,1.0
mturk,6u3el0wrisrdbl98ibq0opof,18,0,0.0,37.0,0.123,1.0,1.0
mturk,6u3el0wrisrdbl98ibq0opof,19,0,0.0,37.0,0.088,1.0,1.0
mturk,6u3el0wrisrdbl98ibq0opof,20,0,0.0,37.0,0.159,1.0,1.0
mturk,6u3el0wrisrdbl98ibq0opof,21,0,0.0,37.0,0.141,1.0,1.0
mturk,6u3el0wrisrdbl98ibq0opof,22,0,0.0,37.0,0.134,1.0,1.0
mturk,6u3el0wrisrdbl98ibq0opof,23,0,0.0,37.0,0.114,1.0,0.0
mturk,6u3el0wrisrdbl98ibq0opof,24,0,1.0,38.0,0.078,0.0,0.0
mturk,6u3el0wrisrdbl98ibq0opof,25,0,2.0,39.0,0.143,0.0,0.0
mturk,6u3el0wrisrdbl98ibq0opof,26,0,1.0,38.0,0.113,0.0,0.0
mturk,6u3el0wrisrdbl98ibq0opof,27,0,0.0,37.0,0.106,1.0,1.0
mturk,6u3el0wrisrdbl98ibq0opof,28,0,0.0,37.0,0.073,1.0,1.0
mturk,6u3el0wrisrdbl98ibq0opof,29,0,0.0,37.0,0.161,1.0,1.0
mturk,6u3el0wrisrdbl98ibq0opof,30,0,0.0,37.0,0.082,1.0,1.0
mturk,6u3el0wrisrdbl98ibq0opof,31,2,0.0,37.0,0.153,0.0,0.0
mturk,6u3el0wrisrdbl98ibq0opof,32,2,0.0,37.0,0.179,0.0,0.0
mturk,6u3el0wrisrdbl98ibq0opof,33,2,1.0,38.0,0.095,0.0,0.0
mturk,6u3el0wrisrdbl98ibq0opof,34,2,2.0,39.0,0.089,1.0,1.0
mturk,6u3el0wrisrdbl98ibq0opof,35,2,2.0,39.0,0.025,1.0,1.0
mturk,6u3el0wrisrdbl98ibq0opof,36,2,2.0,39.0,0.066,1.0,1.0
mturk,6u3el0wrisrdbl98ibq0opof,37,2,2.0,39.0,0.025,1.0,1.0
mturk,6u3el0wrisrdbl98ibq0opof,38,2,2.0,39.0,0.65,1.0,1.0
mturk,6u3el0wrisrdbl98ibq0opof,39,2,2.0,39.0,0.229,1.0,1.0
mturk,6u3el0wrisrdbl98ibq0opof,40,2,2.0,39.0,0.069,1.0,1.0
mturk,6u3el0wrisrdbl98ibq0opof,41,2,2.0,39.0,0.036,1.0,1.0
mturk,6u3el0wrisrdbl98ibq0opof,42,2,2.0,39.0,0.283,1.0,0.0
mturk,6u3el0wrisrdbl98ibq0opof,43,2,0.0,37.0,0.103,0.0,0.0
mturk,6u3el0wrisrdbl98ibq0opof,44,2,1.0,38.0,0.065,0.0,0.0
mturk,6u3el0wrisrdbl98ibq0opof,45,2,0.0,37.0,0.079,0.0,0.0
mturk,6u3el0wrisrdbl98ibq0opof,46,0,2.0,39.0,0.159,0.0,0.0
mturk,6u3el0wrisrdbl98ibq0opof,47,0,0.0,37.0,0.067,1.0,1.0
mturk,6u3el0wrisrdbl98ibq0opof,48,0,0.0,37.0,0.146,1.0,1.0
mturk,6u3el0wrisrdbl98ibq0opof,49,0,0.0,37.0,0.203,1.0,1.0
mturk,6u3el0wrisrdbl98ibq0opof,50,0,0.0,37.0,0.133,1.0,1.0
mturk,6u3el0wrisrdbl98ibq0opof,51,0,0.0,37.0,0.247,1.0,1.0
mturk,6u3el0wrisrdbl98ibq0opof,52,0,0.0,37.0,0.266,1.0,0.0
mturk,6u3el0wrisrdbl98ibq0opof,53,0,1.0,38.0,0.05,0.0,0.0
mturk,6u3el0wrisrdbl98ibq0opof,54,0,0.0,37.0,0.088,1.0,0.0
mturk,6u3el0wrisrdbl98ibq0opof,55,0,2.0,39.0,0.13,0.0,0.0
mturk,6u3el0wrisrdbl98ibq0opof,56,0,0.0,37.0,0.21,1.0,1.0
mturk,6u3el0wrisrdbl98ibq0opof,57,0,0.0,37.0,0.197,1.0,0.0
mturk,6u3el0wrisrdbl98ibq0opof,58,0,1.0,38.0,0.15,0.0,1.0
mturk,6u3el0wrisrdbl98ibq0opof,59,0,1.0,38.0,0.108,0.0,1.0
mturk,6u3el0wrisrdbl98ibq0opof,60,0,1.0,38.0,0.269,0.0,0.0
mturk,6u3el0wrisrdbl98ibq0opof,61,2,0.0,37.0,0.189,0.0,0.0
mturk,6u3el0wrisrdbl98ibq0opof,62,2,2.0,39.0,0.179,1.0,1.0
mturk,6u3el0wrisrdbl98ibq0opof,63,2,2.0,39.0,0.146,1.0,1.0
mturk,6u3el0wrisrdbl98ibq0opof,64,2,2.0,39.0,1.365,1.0,1.0
mturk,6u3el0wrisrdbl98ibq0opof,65,2,2.0,39.0,0.698,1.0,1.0
mturk,6u3el0wrisrdbl98ibq0opof,66,2,2.0,39.0,0.232,1.0,1.0
mturk,6u3el0wrisrdbl98ibq0opof,67,2,2.0,39.0,0.194,1.0,1.0
mturk,6u3el0wrisrdbl98ibq0opof,68,2,2.0,39.0,0.28,1.0,1.0
mturk,6u3el0wrisrdbl98ibq0opof,69,2,2.0,39.0,1.163,1.0,1.0
mturk,6u3el0wrisrdbl98ibq0opof,70,2,2.0,39.0,1.197,1.0,0.0
mturk,6u3el0wrisrdbl98ibq0opof,71,2,0.0,37.0,0.182,0.0,0.0
mturk,6u3el0wrisrdbl98ibq0opof,72,2,1.0,38.0,0.296,0.0,1.0
mturk,6u3el0wrisrdbl98ibq0opof,73,2,1.0,38.0,0.26,0.0,0.0
mturk,6u3el0wrisrdbl98ibq0opof,74,2,0.0,37.0,0.11,0.0,1.0
mturk,6u3el0wrisrdbl98ibq0opof,75,2,0.0,37.0,0.052,0.0,0.0
mturk,6u3el0wrisrdbl98ibq0opof,76,0,2.0,39.0,0.133,0.0,0.0
mturk,6u3el0wrisrdbl98ibq0opof,77,0,1.0,38.0,0.113,0.0,0.0
mturk,6u3el0wrisrdbl98ibq0opof,78,0,0.0,37.0,0.171,1.0,1.0
mturk,6u3el0wrisrdbl98ibq0opof,79,0,0.0,37.0,0.147,1.0,1.0
mturk,6u3el0wrisrdbl98ibq0opof,80,0,0.0,37.0,0.149,1.0,1.0
mturk,6u3el0wrisrdbl98ibq0opof,81,0,0.0,37.0,0.25,1.0,0.0
mturk,6u3el0wrisrdbl98ibq0opof,82,0,2.0,39.0,0.015,0.0,0.0
mturk,6u3el0wrisrdbl98ibq0opof,83,0,1.0,38.0,0.057,0.0,0.0
mturk,6u3el0wrisrdbl98ibq0opof,84,0,0.0,37.0,0.17,1.0,1.0
mturk,6u3el0wrisrdbl98ibq0opof,85,0,0.0,37.0,0.176,1.0,1.0
mturk,6u3el0wrisrdbl98ibq0opof,86,0,0.0,37.0,0.234,1.0,0.0
mturk,6u3el0wrisrdbl98ibq0opof,87,0,1.0,38.0,0.11,0.0,0.0
mturk,6u3el0wrisrdbl98ibq0opof,88,0,2.0,39.0,0.134,0.0,0.0
mturk,6u3el0wrisrdbl98ibq0opof,89,0,0.0,37.0,0.163,1.0,1.0
mturk,6u3el0wrisrdbl98ibq0opof,90,0,0.0,37.0,0.2,1.0,0.0
mturk,79wkgbbalgknlalvcbuej04n,1,0,0.0,37.0,2.338,1.0,0.0
mturk,79wkgbbalgknlalvcbuej04n,2,0,0.0,37.0,0.691,1.0,1.0
mturk,79wkgbbalgknlalvcbuej04n,3,0,0.0,37.0,0.385,1.0,1.0
mturk,79wkgbbalgknlalvcbuej04n,4,0,0.0,37.0,0.359,1.0,1.0
mturk,79wkgbbalgknlalvcbuej04n,5,0,0.0,37.0,0.31,1.0,1.0
mturk,79wkgbbalgknlalvcbuej04n,6,0,0.0,37.0,0.332,1.0,0.0
mturk,79wkgbbalgknlalvcbuej04n,7,0,0.0,37.0,0.106,1.0,0.0
mturk,79wkgbbalgknlalvcbuej04n,8,0,2.0,39.0,0.586,0.0,0.0
mturk,79wkgbbalgknlalvcbuej04n,9,0,2.0,39.0,0.324,0.0,0.0
mturk,79wkgbbalgknlalvcbuej04n,10,0,1.0,38.0,0.44,0.0,1.0
mturk,79wkgbbalgknlalvcbuej04n,11,0,1.0,38.0,0.358,0.0,1.0
mturk,79wkgbbalgknlalvcbuej04n,12,0,1.0,38.0,0.433,0.0,0.0
mturk,79wkgbbalgknlalvcbuej04n,13,0,1.0,38.0,0.354,0.0,0.0
mturk,79wkgbbalgknlalvcbuej04n,14,0,1.0,38.0,0.341,0.0,0.0
mturk,79wkgbbalgknlalvcbuej04n,15,0,2.0,39.0,0.33,0.0,0.0
mturk,79wkgbbalgknlalvcbuej04n,16,1,2.0,39.0,0.295,0.0,0.0
mturk,79wkgbbalgknlalvcbuej04n,17,1,2.0,39.0,0.347,0.0,0.0
mturk,79wkgbbalgknlalvcbuej04n,18,1,0.0,37.0,0.352,0.0,0.0
mturk,79wkgbbalgknlalvcbuej04n,19,1,0.0,37.0,0.178,0.0,0.0
mturk,79wkgbbalgknlalvcbuej04n,20,1,0.0,37.0,0.646,0.0,0.0
mturk,79wkgbbalgknlalvcbuej04n,21,1,0.0,37.0,0.314,0.0,1.0
mturk,79wkgbbalgknlalvcbuej04n,22,1,0.0,37.0,0.738,0.0,0.0
mturk,79wkgbbalgknlalvcbuej04n,23,1,0.0,37.0,0.438,0.0,0.0
mturk,79wkgbbalgknlalvcbuej04n,24,1,1.0,38.0,0.387,1.0,1.0
mturk,79wkgbbalgknlalvcbuej04n,25,1,1.0,38.0,0.56,1.0,1.0
mturk,79wkgbbalgknlalvcbuej04n,26,1,1.0,38.0,0.411,1.0,1.0
mturk,79wkgbbalgknlalvcbuej04n,27,1,1.0,38.0,0.37,1.0,1.0
mturk,79wkgbbalgknlalvcbuej04n,28,1,1.0,38.0,0.379,1.0,1.0
mturk,79wkgbbalgknlalvcbuej04n,29,1,1.0,38.0,0.363,1.0,1.0
mturk,79wkgbbalgknlalvcbuej04n,30,1,1.0,38.0,0.347,1.0,1.0
mturk,79wkgbbalgknlalvcbuej04n,31,2,1.0,38.0,0.358,0.0,0.0
mturk,79wkgbbalgknlalvcbuej04n,32,2,1.0,38.0,0.532,0.0,0.0
mturk,79wkgbbalgknlalvcbuej04n,33,2,2.0,39.0,0.362,1.0,1.0
mturk,79wkgbbalgknlalvcbuej04n,34,2,2.0,39.0,0.199,1.0,1.0
mturk,79wkgbbalgknlalvcbuej04n,35,2,2.0,39.0,0.193,1.0,0.0
mturk,79wkgbbalgknlalvcbuej04n,36,2,2.0,39.0,0.597,1.0,0.0
mturk,79wkgbbalgknlalvcbuej04n,37,2,1.0,38.0,0.354,0.0,0.0
mturk,79wkgbbalgknlalvcbuej04n,38,2,1.0,38.0,0.39,0.0,0.0
mturk,79wkgbbalgknlalvcbuej04n,39,2,0.0,37.0,0.237,0.0,0.0
mturk,79wkgbbalgknlalvcbuej04n,40,2,0.0,37.0,0.317,0.0,0.0
mturk,79wkgbbalgknlalvcbuej04n,41,2,2.0,39.0,0.311,1.0,0.0
mturk,79wkgbbalgknlalvcbuej04n,42,2,2.0,39.0,0.393,1.0,1.0
mturk,79wkgbbalgknlalvcbuej04n,43,2,2.0,39.0,0.379,1.0,1.0
mturk,79wkgbbalgknlalvcbuej04n,44,2,2.0,39.0,0.358,1.0,1.0
mturk,79wkgbbalgknlalvcbuej04n,45,2,2.0,39.0,0.395,1.0,1.0
mturk,79wkgbbalgknlalvcbuej04n,46,1,2.0,39.0,0.403,0.0,0.0
mturk,79wkgbbalgknlalvcbuej04n,47,1,0.0,37.0,0.432,0.0,0.0
mturk,79wkgbbalgknlalvcbuej04n,48,1,0.0,37.0,0.324,0.0,0.0
mturk,79wkgbbalgknlalvcbuej04n,49,1,0.0,37.0,0.322,0.0,0.0
mturk,79wkgbbalgknlalvcbuej04n,50,1,0.0,37.0,0.342,0.0,0.0
mturk,79wkgbbalgknlalvcbuej04n,51,1,1.0,38.0,0.297,1.0,0.0
mturk,79wkgbbalgknlalvcbuej04n,52,1,1.0,38.0,0.172,1.0,0.0
mturk,79wkgbbalgknlalvcbuej04n,53,1,1.0,38.0,0.284,1.0,0.0
mturk,79wkgbbalgknlalvcbuej04n,54,1,2.0,39.0,0.203,0.0,0.0
mturk,79wkgbbalgknlalvcbuej04n,55,1,2.0,39.0,0.201,0.0,0.0
mturk,79wkgbbalgknlalvcbuej04n,56,1,2.0,39.0,0.493,0.0,1.0
mturk,79wkgbbalgknlalvcbuej04n,57,1,2.0,39.0,0.111,0.0,0.0
mturk,79wkgbbalgknlalvcbuej04n,58,1,2.0,39.0,0.579,0.0,0.0
mturk,79wkgbbalgknlalvcbuej04n,59,1,1.0,38.0,0.297,1.0,1.0
mturk,79wkgbbalgknlalvcbuej04n,60,1,1.0,38.0,0.316,1.0,1.0
mturk,79wkgbbalgknlalvcbuej04n,61,2,1.0,38.0,0.136,0.0,0.0
mturk,79wkgbbalgknlalvcbuej04n,62,2,0.0,37.0,0.419,0.0,1.0
mturk,79wkgbbalgknlalvcbuej04n,63,2,0.0,37.0,0.245,0.0,1.0
mturk,79wkgbbalgknlalvcbuej04n,64,2,0.0,37.0,0.248,0.0,0.0
mturk,79wkgbbalgknlalvcbuej04n,65,2,0.0,37.0,0.106,0.0,0.0
mturk,79wkgbbalgknlalvcbuej04n,66,2,0.0,37.0,0.105,0.0,1.0
mturk,79wkgbbalgknlalvcbuej04n,67,2,0.0,37.0,0.0,0.0,0.0
mturk,79wkgbbalgknlalvcbuej04n,68,2,0.0,37.0,0.0,0.0,0.0
mturk,79wkgbbalgknlalvcbuej04n,69,2,0.0,37.0,0.093,0.0,0.0
mturk,79wkgbbalgknlalvcbuej04n,70,2,1.0,38.0,0.316,0.0,1.0
mturk,79wkgbbalgknlalvcbuej04n,71,2,1.0,38.0,0.143,0.0,0.0
mturk,79wkgbbalgknlalvcbuej04n,72,2,1.0,38.0,0.437,0.0,0.0
mturk,79wkgbbalgknlalvcbuej04n,73,2,2.0,39.0,0.068,1.0,1.0
mturk,79wkgbbalgknlalvcbuej04n,74,2,2.0,39.0,0.501,1.0,0.0
mturk,79wkgbbalgknlalvcbuej04n,75,2,2.0,39.0,0.3,1.0,1.0
mturk,79wkgbbalgknlalvcbuej04n,76,1,2.0,39.0,0.106,0.0,0.0
mturk,79wkgbbalgknlalvcbuej04n,77,1,2.0,39.0,0.121,0.0,0.0
mturk,79wkgbbalgknlalvcbuej04n,78,1,2.0,39.0,0.536,0.0,1.0
mturk,79wkgbbalgknlalvcbuej04n,79,1,2.0,39.0,0.181,0.0,0.0
mturk,79wkgbbalgknlalvcbuej04n,80,1,0.0,37.0,0.086,0.0,0.0
mturk,79wkgbbalgknlalvcbuej04n,81,1,0.0,37.0,0.275,0.0,1.0
mturk,79wkgbbalgknlalvcbuej04n,82,1,0.0,37.0,0.245,0.0,0.0
mturk,79wkgbbalgknlalvcbuej04n,83,1,1.0,38.0,0.011,1.0,0.0
mturk,79wkgbbalgknlalvcbuej04n,84,1,1.0,38.0,0.36,1.0,0.0
mturk,79wkgbbalgknlalvcbuej04n,85,1,1.0,38.0,0.209,1.0,0.0
mturk,79wkgbbalgknlalvcbuej04n,86,1,0.0,37.0,0.283,0.0,0.0
mturk,79wkgbbalgknlalvcbuej04n,87,1,0.0,37.0,0.314,0.0,0.0
mturk,79wkgbbalgknlalvcbuej04n,88,1,0.0,37.0,0.151,0.0,0.0
mturk,79wkgbbalgknlalvcbuej04n,89,1,2.0,39.0,0.014,0.0,0.0
mturk,79wkgbbalgknlalvcbuej04n,90,1,2.0,39.0,0.446,0.0,0.0
mturk,8gms1x5mpu3zq71ytb9tjrss,1,0,2.0,39.0,1.463,0.0,0.0
mturk,8gms1x5mpu3zq71ytb9tjrss,2,0,1.0,38.0,0.313,0.0,1.0
mturk,8gms1x5mpu3zq71ytb9tjrss,3,0,1.0,38.0,0.268,0.0,0.0
mturk,8gms1x5mpu3zq71ytb9tjrss,4,0,0.0,37.0,0.079,1.0,1.0
mturk,8gms1x5mpu3zq71ytb9tjrss,5,0,0.0,37.0,0.252,1.0,0.0
mturk,8gms1x5mpu3zq71ytb9tjrss,6,0,1.0,38.0,0.319,0.0,0.0
mturk,8gms1x5mpu3zq71ytb9tjrss,7,0,0.0,37.0,0.044,1.0,1.0
mturk,8gms1x5mpu3zq71ytb9tjrss,8,0,0.0,37.0,0.077,1.0,1.0
mturk,8gms1x5mpu3zq71ytb9tjrss,9,0,0.0,37.0,0.205,1.0,1.0
mturk,8gms1x5mpu3zq71ytb9tjrss,10,0,0.0,37.0,0.155,1.0,0.0
mturk,8gms1x5mpu3zq71ytb9tjrss,11,0,0.0,37.0,0.156,1.0,1.0
mturk,8gms1x5mpu3zq71ytb9tjrss,12,0,0.0,37.0,0.283,1.0,1.0
mturk,8gms1x5mpu3zq71ytb9tjrss,13,0,0.0,37.0,0.171,1.0,1.0
mturk,8gms1x5mpu3zq71ytb9tjrss,14,0,0.0,37.0,0.413,1.0,1.0
mturk,8gms1x5mpu3zq71ytb9tjrss,15,0,0.0,37.0,0.331,1.0,1.0
mturk,8gms1x5mpu3zq71ytb9tjrss,16,1,0.0,37.0,0.125,0.0,0.0
mturk,8gms1x5mpu3zq71ytb9tjrss,17,1,0.0,37.0,0.48,0.0,1.0
mturk,8gms1x5mpu3zq71ytb9tjrss,18,1,0.0,37.0,0.184,0.0,1.0
mturk,8gms1x5mpu3zq71ytb9tjrss,19,1,0.0,37.0,0.347,0.0,0.0
mturk,8gms1x5mpu3zq71ytb9tjrss,20,1,0.0,37.0,0.175,0.0,0.0
mturk,8gms1x5mpu3zq71ytb9tjrss,21,1,2.0,39.0,0.411,0.0,0.0
mturk,8gms1x5mpu3zq71ytb9tjrss,22,1,1.0,38.0,0.272,1.0,0.0
mturk,8gms1x5mpu3zq71ytb9tjrss,23,1,0.0,37.0,0.089,0.0,1.0
mturk,8gms1x5mpu3zq71ytb9tjrss,24,1,0.0,37.0,0.285,0.0,1.0
mturk,8gms1x5mpu3zq71ytb9tjrss,25,1,0.0,37.0,0.237,0.0,0.0
mturk,8gms1x5mpu3zq71ytb9tjrss,26,1,0.0,37.0,0.026,0.0,1.0
mturk,8gms1x5mpu3zq71ytb9tjrss,27,1,0.0,37.0,0.188,0.0,0.0
mturk,8gms1x5mpu3zq71ytb9tjrss,28,1,0.0,37.0,0.27,0.0,0.0
mturk,8gms1x5mpu3zq71ytb9tjrss,29,1,2.0,39.0,0.139,0.0,0.0
mturk,8gms1x5mpu3zq71ytb9tjrss,30,1,1.0,38.0,0.187,1.0,0.0
mturk,8gms1x5mpu3zq71ytb9tjrss,31,0,0.0,37.0,0.155,1.0,1.0
mturk,8gms1x5mpu3zq71ytb9tjrss,32,0,0.0,37.0,0.174,1.0,1.0
mturk,8gms1x5mpu3zq71ytb9tjrss,33,0,0.0,37.0,0.202,1.0,0.0
mturk,8gms1x5mpu3zq71ytb9tjrss,34,0,0.0,37.0,0.14,1.0,1.0
mturk,8gms1x5mpu3zq71ytb9tjrss,35,0,0.0,37.0,0.188,1.0,1.0
mturk,8gms1x5mpu3zq71ytb9tjrss,36,0,0.0,37.0,0.282,1.0,1.0
mturk,8gms1x5mpu3zq71ytb9tjrss,37,0,0.0,37.0,0.154,1.0,1.0
mturk,8gms1x5mpu3zq71ytb9tjrss,38,0,0.0,37.0,0.141,1.0,1.0
mturk,8gms1x5mpu3zq71ytb9tjrss,39,0,0.0,37.0,0.431,1.0,1.0
mturk,8gms1x5mpu3zq71ytb9tjrss,40,0,0.0,37.0,0.33,1.0,1.0
mturk,8gms1x5mpu3zq71ytb9tjrss,41,0,0.0,37.0,0.203,1.0,0.0
mturk,8gms1x5mpu3zq71ytb9tjrss,42,0,0.0,37.0,0.171,1.0,1.0
mturk,8gms1x5mpu3zq71ytb9tjrss,43,0,0.0,37.0,0.285,1.0,1.0
mturk,8gms1x5mpu3zq71ytb9tjrss,44,0,0.0,37.0,0.075,1.0,1.0
mturk,8gms1x5mpu3zq71ytb9tjrss,45,0,0.0,37.0,0.298,1.0,1.0
mturk,8gms1x5mpu3zq71ytb9tjrss,46,2,0.0,37.0,0.269,0.0,0.0
mturk,8gms1x5mpu3zq71ytb9tjrss,47,2,0.0,37.0,0.154,0.0,0.0
mturk,8gms1x5mpu3zq71ytb9tjrss,48,2,0.0,37.0,0.072,0.0,0.0
mturk,8gms1x5mpu3zq71ytb9tjrss,49,2,2.0,39.0,0.141,1.0,1.0
mturk,8gms1x5mpu3zq71ytb9tjrss,50,2,2.0,39.0,0.108,1.0,1.0
mturk,8gms1x5mpu3zq71ytb9tjrss,51,2,2.0,39.0,0.317,1.0,1.0
mturk,8gms1x5mpu3zq71ytb9tjrss,52,2,2.0,39.0,0.269,1.0,1.0
mturk,8gms1x5mpu3zq71ytb9tjrss,53,2,2.0,39.0,0.299,1.0,1.0
mturk,8gms1x5mpu3zq71ytb9tjrss,54,2,2.0,39.0,0.203,1.0,1.0
mturk,8gms1x5mpu3zq71ytb9tjrss,55,2,2.0,39.0,0.144,1.0,1.0
mturk,8gms1x5mpu3zq71ytb9tjrss,56,2,2.0,39.0,0.283,1.0,1.0
mturk,8gms1x5mpu3zq71ytb9tjrss,57,2,2.0,39.0,0.427,1.0,1.0
mturk,8gms1x5mpu3zq71ytb9tjrss,58,2,2.0,39.0,0.268,1.0,1.0
mturk,8gms1x5mpu3zq71ytb9tjrss,59,2,2.0,39.0,0.43,1.0,1.0
mturk,8gms1x5mpu3zq71ytb9tjrss,60,2,2.0,39.0,0.35,1.0,0.0
mturk,8gms1x5mpu3zq71ytb9tjrss,61,1,2.0,39.0,0.104,0.0,0.0
mturk,8gms1x5mpu3zq71ytb9tjrss,62,1,2.0,39.0,1.677,0.0,0.0
mturk,8gms1x5mpu3zq71ytb9tjrss,63,1,1.0,38.0,0.332,1.0,0.0
mturk,8gms1x5mpu3zq71ytb9tjrss,64,1,0.0,37.0,0.127,0.0,1.0
mturk,8gms1x5mpu3zq71ytb9tjrss,65,1,0.0,37.0,0.503,0.0,0.0
mturk,8gms1x5mpu3zq71ytb9tjrss,66,1,0.0,37.0,0.079,0.0,0.0
mturk,8gms1x5mpu3zq71ytb9tjrss,67,1,2.0,39.0,0.124,0.0,1.0
mturk,8gms1x5mpu3zq71ytb9tjrss,68,1,2.0,39.0,0.381,0.0,1.0
mturk,8gms1x5mpu3zq71ytb9tjrss,69,1,2.0,39.0,0.38,0.0,0.0
mturk,8gms1x5mpu3zq71ytb9tjrss,70,1,2.0,39.0,0.411,0.0,0.0
mturk,8gms1x5mpu3zq71ytb9tjrss,71,1,2.0,39.0,0.123,0.0,0.0
mturk,8gms1x5mpu3zq71ytb9tjrss,72,1,2.0,39.0,0.286,0.0,1.0
mturk,8gms1x5mpu3zq71ytb9tjrss,73,1,2.0,39.0,0.33,0.0,0.0
mturk,8gms1x5mpu3zq71ytb9tjrss,74,1,0.0,37.0,0.285,0.0,0.0
mturk,8gms1x5mpu3zq71ytb9tjrss,75,1,1.0,38.0,0.076,1.0,1.0
mturk,8gms1x5mpu3zq71ytb9tjrss,76,2,1.0,38.0,0.239,0.0,0.0
mturk,8gms1x5mpu3zq71ytb9tjrss,77,2,1.0,38.0,0.344,0.0,1.0
mturk,8gms1x5mpu3zq71ytb9tjrss,78,2,1.0,38.0,0.126,0.0,0.0
mturk,8gms1x5mpu3zq71ytb9tjrss,79,2,1.0,38.0,0.223,0.0,0.0
mturk,8gms1x5mpu3zq71ytb9tjrss,80,2,1.0,38.0,0.137,0.0,0.0
mturk,8gms1x5mpu3zq71ytb9tjrss,81,2,0.0,37.0,0.078,0.0,0.0
mturk,8gms1x5mpu3zq71ytb9tjrss,82,2,2.0,39.0,0.094,1.0,1.0
mturk,8gms1x5mpu3zq71ytb9tjrss,83,2,2.0,39.0,0.459,1.0,1.0
mturk,8gms1x5mpu3zq71ytb9tjrss,84,2,2.0,39.0,0.444,1.0,1.0
mturk,8gms1x5mpu3zq71ytb9tjrss,85,2,2.0,39.0,0.62,1.0,1.0
mturk,8gms1x5mpu3zq71ytb9tjrss,86,2,2.0,39.0,0.333,1.0,1.0
mturk,8gms1x5mpu3zq71ytb9tjrss,87,2,2.0,39.0,0.364,1.0,1.0
mturk,8gms1x5mpu3zq71ytb9tjrss,88,2,2.0,39.0,0.414,1.0,1.0
mturk,8gms1x5mpu3zq71ytb9tjrss,89,2,2.0,39.0,0.397,1.0,1.0
mturk,8gms1x5mpu3zq71ytb9tjrss,90,2,2.0,39.0,0.379,1.0,1.0
mturk,elw3bumjdsy00i3eny567iz0,1,0,1.0,38.0,1.155,0.0,1.0
mturk,elw3bumjdsy00i3eny567iz0,2,0,1.0,38.0,0.586,0.0,0.0
mturk,elw3bumjdsy00i3eny567iz0,3,0,1.0,38.0,0.354,0.0,1.0
mturk,elw3bumjdsy00i3eny567iz0,4,0,1.0,38.0,0.343,0.0,0.0
mturk,elw3bumjdsy00i3eny567iz0,5,0,0.0,37.0,0.257,1.0,0.0
mturk,elw3bumjdsy00i3eny567iz0,6,0,2.0,39.0,0.265,0.0,0.0
mturk,elw3bumjdsy00i3eny567iz0,7,0,1.0,38.0,0.142,0.0,1.0
mturk,elw3bumjdsy00i3eny567iz0,8,0,1.0,38.0,0.304,0.0,0.0
mturk,elw3bumjdsy00i3eny567iz0,9,0,1.0,38.0,0.443,0.0,0.0
mturk,elw3bumjdsy00i3eny567iz0,10,0,0.0,37.0,0.269,1.0,1.0
mturk,elw3bumjdsy00i3eny567iz0,11,0,0.0,37.0,0.294,1.0,1.0
mturk,elw3bumjdsy00i3eny567iz0,12,0,0.0,37.0,0.304,1.0,1.0
mturk,elw3bumjdsy00i3eny567iz0,13,0,0.0,37.0,0.27,1.0,1.0
mturk,elw3bumjdsy00i3eny567iz0,14,0,0.0,37.0,0.264,1.0,1.0
mturk,elw3bumjdsy00i3eny567iz0,15,0,0.0,37.0,0.338,1.0,1.0
mturk,elw3bumjdsy00i3eny567iz0,16,1,0.0,37.0,0.27,0.0,0.0
mturk,elw3bumjdsy00i3eny567iz0,17,1,0.0,37.0,0.303,0.0,0.0
mturk,elw3bumjdsy00i3eny567iz0,18,1,2.0,39.0,0.14,0.0,0.0
mturk,elw3bumjdsy00i3eny567iz0,19,1,2.0,39.0,0.289,0.0,1.0
mturk,elw3bumjdsy00i3eny567iz0,20,1,2.0,39.0,0.237,0.0,0.0
mturk,elw3bumjdsy00i3eny567iz0,21,1,1.0,38.0,0.214,1.0,0.0
mturk,elw3bumjdsy00i3eny567iz0,22,1,1.0,38.0,0.236,1.0,1.0
mturk,elw3bumjdsy00i3eny567iz0,23,1,1.0,38.0,0.303,1.0,0.0
mturk,elw3bumjdsy00i3eny567iz0,24,1,1.0,38.0,0.245,1.0,1.0
mturk,elw3bumjdsy00i3eny567iz0,25,1,1.0,38.0,0.289,1.0,1.0
mturk,elw3bumjdsy00i3eny567iz0,26,1,1.0,38.0,0.218,1.0,1.0
mturk,elw3bumjdsy00i3eny567iz0,27,1,1.0,38.0,0.141,1.0,1.0
mturk,elw3bumjdsy00i3eny567iz0,28,1,1.0,38.0,0.164,1.0,1.0
mturk,elw3bumjdsy00i3eny567iz0,29,1,1.0,38.0,0.039,1.0,1.0
mturk,elw3bumjdsy00i3eny567iz0,30,1,1.0,38.0,0.02,1.0,1.0
mturk,elw3bumjdsy00i3eny567iz0,31,2,1.0,38.0,0.545,0.0,0.0
mturk,elw3bumjdsy00i3eny567iz0,32,2,1.0,38.0,0.396,0.0,1.0
mturk,elw3bumjdsy00i3eny567iz0,33,2,1.0,38.0,0.087,0.0,1.0
mturk,elw3bumjdsy00i3eny567iz0,34,2,1.0,38.0,0.229,0.0,0.0
mturk,elw3bumjdsy00i3eny567iz0,35,2,1.0,38.0,0.155,0.0,1.0
mturk,elw3bumjdsy00i3eny567iz0,36,2,1.0,38.0,0.419,0.0,0.0
mturk,elw3bumjdsy00i3eny567iz0,37,2,1.0,38.0,0.222,0.0,0.0
mturk,elw3bumjdsy00i3eny567iz0,38,2,0.0,37.0,0.036,0.0,1.0
mturk,elw3bumjdsy00i3eny567iz0,39,2,0.0,37.0,0.243,0.0,0.0
mturk,elw3bumjdsy00i3eny567iz0,40,2,0.0,37.0,0.237,0.0,0.0
mturk,elw3bumjdsy00i3eny567iz0,41,2,2.0,39.0,0.181,1.0,1.0
mturk,elw3bumjdsy00i3eny567iz0,42,2,2.0,39.0,0.23,1.0,1.0
mturk,elw3bumjdsy00i3eny567iz0,43,2,2.0,39.0,0.097,1.0,1.0
mturk,elw3bumjdsy00i3eny567iz0,44,2,2.0,39.0,0.11,1.0,1.0
mturk,elw3bumjdsy00i3eny567iz0,45,2,2.0,39.0,0.074,1.0,1.0
mturk,elw3bumjdsy00i3eny567iz0,46,1,2.0,39.0,0.066,0.0,0.0
mturk,elw3bumjdsy00i3eny567iz0,47,1,2.0,39.0,0.067,0.0,1.0
mturk,elw3bumjdsy00i3eny567iz0,48,1,2.0,39.0,0.085,0.0,0.0
mturk,elw3bumjdsy00i3eny567iz0,49,1,2.0,39.0,0.029,0.0,1.0
mturk,elw3bumjdsy00i3eny567iz0,50,1,2.0,39.0,0.08,0.0,0.0
mturk,elw3bumjdsy00i3eny567iz0,51,1,0.0,37.0,0.089,0.0,1.0
mturk,elw3bumjdsy00i3eny567iz0,52,1,0.0,37.0,0.075,0.0,1.0
mturk,elw3bumjdsy00i3eny567iz0,53,1,0.0,37.0,0.09,0.0,0.0
mturk,elw3bumjdsy00i3eny567iz0,54,1,0.0,37.0,0.027,0.0,0.0
mturk,elw3bumjdsy00i3eny567iz0,55,1,1.0,38.0,0.034,1.0,0.0
mturk,elw3bumjdsy00i3eny567iz0,56,1,1.0,38.0,0.159,1.0,1.0
mturk,elw3bumjdsy00i3eny567iz0,57,1,1.0,38.0,0.025,1.0,1.0
mturk,elw3bumjdsy00i3eny567iz0,58,1,1.0,38.0,0.1,1.0,1.0
mturk,elw3bumjdsy00i3eny567iz0,59,1,1.0,38.0,0.062,1.0,1.0
mturk,elw3bumjdsy00i3eny567iz0,60,1,1.0,38.0,0.048,1.0,1.0
mturk,elw3bumjdsy00i3eny567iz0,61,2,1.0,38.0,0.034,0.0,0.0
mturk,elw3bumjdsy00i3eny567iz0,62,2,1.0,38.0,0.594,0.0,0.0
mturk,elw3bumjdsy00i3eny567iz0,63,2,0.0,37.0,0.11,0.0,1.0
mturk,elw3bumjdsy00i3eny567iz0,64,2,0.0,37.0,0.432,0.0,0.0
mturk,elw3bumjdsy00i3eny567iz0,65,2,0.0,37.0,0.285,0.0,0.0
mturk,elw3bumjdsy00i3eny567iz0,66,2,2.0,39.0,0.296,1.0,1.0
mturk,elw3bumjdsy00i3eny567iz0,67,2,2.0,39.0,0.165,1.0,1.0
mturk,elw3bumjdsy00i3eny567iz0,68,2,2.0,39.0,0.125,1.0,1.0
mturk,elw3bumjdsy00i3eny567iz0,69,2,2.0,39.0,0.119,1.0,1.0
mturk,elw3bumjdsy00i3eny567iz0,70,2,2.0,39.0,0.162,1.0,1.0
mturk,elw3bumjdsy00i3eny567iz0,71,2,2.0,39.0,0.0,1.0,1.0
mturk,elw3bumjdsy00i3eny567iz0,72,2,2.0,39.0,0.141,1.0,1.0
mturk,elw3bumjdsy00i3eny567iz0,73,2,2.0,39.0,0.115,1.0,1.0
mturk,elw3bumjdsy00i3eny567iz0,74,2,2.0,39.0,0.006,1.0,1.0
mturk,elw3bumjdsy00i3eny567iz0,75,2,2.0,39.0,0.076,1.0,1.0
mturk,elw3bumjdsy00i3eny567iz0,76,1,2.0,39.0,0.019,0.0,0.0
mturk,elw3bumjdsy00i3eny567iz0,77,1,2.0,39.0,0.501,0.0,0.0
mturk,elw3bumjdsy00i3eny567iz0,78,1,1.0,38.0,0.288,1.0,1.0
mturk,elw3bumjdsy00i3eny567iz0,79,1,1.0,38.0,0.125,1.0,1.0
mturk,elw3bumjdsy00i3eny567iz0,80,1,1.0,38.0,0.009,1.0,1.0
mturk,elw3bumjdsy00i3eny567iz0,81,1,1.0,38.0,0.089,1.0,1.0
mturk,elw3bumjdsy00i3eny567iz0,82,1,1.0,38.0,0.066,1.0,1.0
mturk,elw3bumjdsy00i3eny567iz0,83,1,1.0,38.0,0.423,1.0,1.0
mturk,elw3bumjdsy00i3eny567iz0,84,1,1.0,38.0,0.049,1.0,1.0
mturk,elw3bumjdsy00i3eny567iz0,85,1,1.0,38.0,0.078,1.0,1.0
mturk,elw3bumjdsy00i3eny567iz0,86,1,1.0,38.0,0.145,1.0,1.0
mturk,elw3bumjdsy00i3eny567iz0,87,1,1.0,38.0,0.43,1.0,0.0
mturk,elw3bumjdsy00i3eny567iz0,88,1,1.0,38.0,0.088,1.0,1.0
mturk,elw3bumjdsy00i3eny567iz0,89,1,1.0,38.0,0.168,1.0,1.0
mturk,elw3bumjdsy00i3eny567iz0,90,1,1.0,38.0,0.083,1.0,0.0
mturk,f413rfthchh1liluwockcj93,1,1,2.0,39.0,2.818,0.0,1.0
mturk,f413rfthchh1liluwockcj93,2,1,2.0,39.0,2.062,0.0,0.0
mturk,f413rfthchh1liluwockcj93,3,1,1.0,38.0,1.397,1.0,0.0
mturk,f413rfthchh1liluwockcj93,4,1,0.0,37.0,1.19,0.0,0.0
mturk,f413rfthchh1liluwockcj93,5,1,2.0,39.0,1.174,0.0,0.0
mturk,f413rfthchh1liluwockcj93,6,1,1.0,38.0,0.99,1.0,0.0
mturk,f413rfthchh1liluwockcj93,7,1,2.0,39.0,1.182,0.0,0.0
mturk,f413rfthchh1liluwockcj93,8,1,0.0,37.0,0.893,0.0,0.0
mturk,f413rfthchh1liluwockcj93,9,1,0.0,37.0,0.951,0.0,0.0
mturk,f413rfthchh1liluwockcj93,10,1,1.0,38.0,0.774,1.0,1.0
mturk,f413rfthchh1liluwockcj93,11,1,2.0,39.0,1.285,0.0,0.0
mturk,f413rfthchh1liluwockcj93,12,1,1.0,38.0,0.791,1.0,0.0
mturk,f413rfthchh1liluwockcj93,13,1,0.0,37.0,0.733,0.0,0.0
mturk,f413rfthchh1liluwockcj93,14,1,0.0,37.0,0.737,0.0,0.0
mturk,f413rfthchh1liluwockcj93,15,1,0.0,37.0,0.869,0.0,0.0
mturk,f413rfthchh1liluwockcj93,16,2,2.0,39.0,0.775,1.0,1.0
mturk,f413rfthchh1liluwockcj93,17,2,1.0,38.0,1.147,0.0,0.0
mturk,f413rfthchh1liluwockcj93,18,2,2.0,39.0,0.758,1.0,0.0
mturk,f413rfthchh1liluwockcj93,19,2,0.0,37.0,1.453,0.0,0.0
mturk,f413rfthchh1liluwockcj93,20,2,0.0,37.0,0.797,0.0,0.0
mturk,f413rfthchh1liluwockcj93,21,2,1.0,38.0,0.74,0.0,0.0
mturk,f413rfthchh1liluwockcj93,22,2,1.0,38.0,0.694,0.0,1.0
mturk,f413rfthchh1liluwockcj93,23,2,2.0,39.0,0.926,1.0,1.0
mturk,f413rfthchh1liluwockcj93,24,2,1.0,38.0,1.11,0.0,0.0
mturk,f413rfthchh1liluwockcj93,25,2,0.0,37.0,0.604,0.0,0.0
mturk,f413rfthchh1liluwockcj93,26,2,0.0,37.0,0.668,0.0,0.0
mturk,f413rfthchh1liluwockcj93,27,2,2.0,39.0,0.766,1.0,1.0
mturk,f413rfthchh1liluwockcj93,28,2,2.0,39.0,1.558,1.0,0.0
mturk,f413rfthchh1liluwockcj93,29,2,1.0,38.0,0.654,0.0,0.0
mturk,f413rfthchh1liluwockcj93,30,2,0.0,37.0,0.783,0.0,1.0
mturk,f413rfthchh1liluwockcj93,31,0,1.0,38.0,0.708,0.0,0.0
mturk,f413rfthchh1liluwockcj93,32,0,0.0,37.0,0.591,1.0,1.0
mturk,f413rfthchh1liluwockcj93,33,0,1.0,38.0,0.743,0.0,1.0
mturk,f413rfthchh1liluwockcj93,34,0,2.0,39.0,0.635,0.0,1.0
mturk,f413rfthchh1liluwockcj93,35,0,1.0,38.0,1.543,0.0,1.0
mturk,f413rfthchh1liluwockcj93,36,0,2.0,39.0,0.788,0.0,0.0
mturk,f413rfthchh1liluwockcj93,37,0,0.0,37.0,0.631,1.0,1.0
mturk,f413rfthchh1liluwockcj93,38,0,1.0,38.0,0.644,0.0,0.0
mturk,f413rfthchh1liluwockcj93,39,0,0.0,37.0,0.702,1.0,1.0
mturk,f413rfthchh1liluwockcj93,40,0,2.0,39.0,0.715,0.0,0.0
mturk,f413rfthchh1liluwockcj93,41,0,0.0,37.0,0.621,1.0,1.0
mturk,f413rfthchh1liluwockcj93,42,0,0.0,37.0,0.619,1.0,1.0
mturk,f413rfthchh1liluwockcj93,43,0,0.0,37.0,0.764,1.0,1.0
mturk,f413rfthchh1liluwockcj93,44,0,0.0,37.0,0.602,1.0,0.0
mturk,f413rfthchh1liluwockcj93,45,0,1.0,38.0,0.606,0.0,0.0
mturk,f413rfthchh1liluwockcj93,46,2,2.0,39.0,0.597,1.0,1.0
mturk,f413rfthchh1liluwockcj93,47,2,2.0,39.0,0.71,1.0,1.0
mturk,f413rfthchh1liluwockcj93,48,2,2.0,39.0,0.637,1.0,1.0
mturk,f413rfthchh1liluwockcj93,49,2,2.0,39.0,0.719,1.0,1.0
mturk,f413rfthchh1liluwockcj93,50,2,2.0,39.0,0.606,1.0,1.0
mturk,f413rfthchh1liluwockcj93,51,2,2.0,39.0,0.685,1.0,0.0
mturk,f413rfthchh1liluwockcj93,52,2,1.0,38.0,0.589,0.0,0.0
mturk,f413rfthchh1liluwockcj93,53,2,0.0,37.0,0.486,0.0,1.0
mturk,f413rfthchh1liluwockcj93,54,2,0.0,37.0,0.436,0.0,0.0
mturk,f413rfthchh1liluwockcj93,55,2,1.0,38.0,0.336,0.0,0.0
mturk,f413rfthchh1liluwockcj93,56,2,2.0,39.0,0.444,1.0,1.0
mturk,f413rfthchh1liluwockcj93,57,2,2.0,39.0,0.54,1.0,1.0
mturk,f413rfthchh1liluwockcj93,58,2,2.0,39.0,0.629,1.0,1.0
mturk,f413rfthchh1liluwockcj93,59,2,2.0,39.0,0.647,1.0,1.0
mturk,f413rfthchh1liluwockcj93,60,2,2.0,39.0,0.541,1.0,1.0
mturk,f413rfthchh1liluwockcj93,61,0,2.0,39.0,0.462,0.0,0.0
mturk,f413rfthchh1liluwockcj93,62,0,0.0,37.0,0.396,1.0,1.0
mturk,f413rfthchh1liluwockcj93,63,0,0.0,37.0,0.532,1.0,1.0
mturk,f413rfthchh1liluwockcj93,64,0,0.0,37.0,0.513,1.0,1.0
mturk,f413rfthchh1liluwockcj93,65,0,0.0,37.0,0.417,1.0,1.0
mturk,f413rfthchh1liluwockcj93,66,0,0.0,37.0,0.583,1.0,1.0
mturk,f413rfthchh1liluwockcj93,67,0,0.0,37.0,0.518,1.0,1.0
mturk,f413rfthchh1liluwockcj93,68,0,0.0,37.0,0.381,1.0,1.0
mturk,f413rfthchh1liluwockcj93,69,0,0.0,37.0,0.591,1.0,1.0
mturk,f413rfthchh1liluwockcj93,70,0,0.0,37.0,0.756,1.0,1.0
mturk,f413rfthchh1liluwockcj93,71,0,0.0,37.0,0.501,1.0,0.0
mturk,f413rfthchh1liluwockcj93,72,0,1.0,38.0,0.436,0.0,0.0
mturk,f413rfthchh1liluwockcj93,73,0,2.0,39.0,0.414,0.0,0.0
mturk,f413rfthchh1liluwockcj93,74,0,0.0,37.0,0.478,1.0,1.0
mturk,f413rfthchh1liluwockcj93,75,0,0.0,37.0,0.495,1.0,1.0
mturk,f413rfthchh1liluwockcj93,76,1,0.0,37.0,0.452,0.0,1.0
mturk,f413rfthchh1liluwockcj93,77,1,0.0,37.0,0.405,0.0,1.0
mturk,f413rfthchh1liluwockcj93,78,1,0.0,37.0,0.428,0.0,0.0
mturk,f413rfthchh1liluwockcj93,79,1,1.0,38.0,0.349,1.0,0.0
mturk,f413rfthchh1liluwockcj93,80,1,2.0,39.0,0.483,0.0,0.0
mturk,f413rfthchh1liluwockcj93,81,1,0.0,37.0,0.398,0.0,0.0
mturk,f413rfthchh1liluwockcj93,82,1,1.0,38.0,0.35,1.0,1.0
mturk,f413rfthchh1liluwockcj93,83,1,1.0,38.0,0.549,1.0,1.0
mturk,f413rfthchh1liluwockcj93,84,1,1.0,38.0,0.51,1.0,1.0
mturk,f413rfthchh1liluwockcj93,85,1,1.0,38.0,0.437,1.0,1.0
mturk,f413rfthchh1liluwockcj93,86,1,1.0,38.0,0.501,1.0,1.0
mturk,f413rfthchh1liluwockcj93,87,1,1.0,38.0,0.456,1.0,0.0
mturk,f413rfthchh1liluwockcj93,88,1,2.0,39.0,0.37,0.0,0.0
mturk,f413rfthchh1liluwockcj93,89,1,0.0,37.0,0.421,0.0,1.0
mturk,f413rfthchh1liluwockcj93,90,1,0.0,37.0,0.693,0.0,0.0
mturk,fexsj0u5oib0e90p5kvm0lal,1,0,1.0,38.0,2.961,0.0,0.0
mturk,fexsj0u5oib0e90p5kvm0lal,2,0,1.0,38.0,1.006,0.0,0.0
mturk,fexsj0u5oib0e90p5kvm0lal,3,0,2.0,39.0,1.196,0.0,1.0
mturk,fexsj0u5oib0e90p5kvm0lal,4,0,2.0,39.0,0.519,0.0,0.0
mturk,fexsj0u5oib0e90p5kvm0lal,5,0,2.0,39.0,1.289,0.0,0.0
mturk,fexsj0u5oib0e90p5kvm0lal,6,0,0.0,37.0,0.439,1.0,1.0
mturk,fexsj0u5oib0e90p5kvm0lal,7,0,0.0,37.0,0.693,1.0,1.0
mturk,fexsj0u5oib0e90p5kvm0lal,8,0,0.0,37.0,0.459,1.0,1.0
mturk,fexsj0u5oib0e90p5kvm0lal,9,0,0.0,37.0,0.421,1.0,0.0
mturk,fexsj0u5oib0e90p5kvm0lal,10,0,0.0,37.0,0.411,1.0,1.0
mturk,fexsj0u5oib0e90p5kvm0lal,11,0,0.0,37.0,0.557,1.0,0.0
mturk,fexsj0u5oib0e90p5kvm0lal,12,0,0.0,37.0,0.42,1.0,1.0
mturk,fexsj0u5oib0e90p5kvm0lal,13,0,0.0,37.0,0.484,1.0,1.0
mturk,fexsj0u5oib0e90p5kvm0lal,14,0,0.0,37.0,0.576,1.0,0.0
mturk,fexsj0u5oib0e90p5kvm0lal,15,0,0.0,37.0,0.42,1.0,1.0
mturk,fexsj0u5oib0e90p5kvm0lal,16,1,0.0,37.0,0.597,0.0,0.0
mturk,fexsj0u5oib0e90p5kvm0lal,17,1,0.0,37.0,0.425,0.0,0.0
mturk,fexsj0u5oib0e90p5kvm0lal,18,1,1.0,38.0,0.899,1.0,1.0
mturk,fexsj0u5oib0e90p5kvm0lal,19,1,1.0,38.0,0.356,1.0,1.0
mturk,fexsj0u5oib0e90p5kvm0lal,20,1,1.0,38.0,0.383,1.0,1.0
mturk,fexsj0u5oib0e90p5kvm0lal,21,1,1.0,38.0,0.38,1.0,1.0
mturk,fexsj0u5oib0e90p5kvm0lal,22,1,1.0,38.0,0.399,1.0,1.0
mturk,fexsj0u5oib0e90p5kvm0lal,23,1,1.0,38.0,0.356,1.0,1.0
mturk,fexsj0u5oib0e90p5kvm0lal,24,1,1.0,38.0,0.357,1.0,1.0
mturk,fexsj0u5oib0e90p5kvm0lal,25,1,1.0,38.0,0.371,1.0,1.0
mturk,fexsj0u5oib0e90p5kvm0lal,26,1,1.0,38.0,0.443,1.0,0.0
mturk,fexsj0u5oib0e90p5kvm0lal,27,1,1.0,38.0,0.352,1.0,1.0
mturk,fexsj0u5oib0e90p5kvm0lal,28,1,1.0,38.0,0.361,1.0,1.0
mturk,fexsj0u5oib0e90p5kvm0lal,29,1,1.0,38.0,0.363,1.0,1.0
mturk,fexsj0u5oib0e90p5kvm0lal,30,1,1.0,38.0,0.37,1.0,1.0
mturk,fexsj0u5oib0e90p5kvm0lal,31,0,1.0,38.0,0.355,0.0,0.0
mturk,fexsj0u5oib0e90p5kvm0lal,32,0,1.0,38.0,0.386,0.0,0.0
mturk,fexsj0u5oib0e90p5kvm0lal,33,0,2.0,39.0,0.355,0.0,0.0
mturk,fexsj0u5oib0e90p5kvm0lal,34,0,2.0,39.0,0.35,0.0,0.0
mturk,fexsj0u5oib0e90p5kvm0lal,35,0,0.0,37.0,0.384,1.0,0.0
mturk,fexsj0u5oib0e90p5kvm0lal,36,0,0.0,37.0,0.366,1.0,1.0
mturk,fexsj0u5oib0e90p5kvm0lal,37,0,0.0,37.0,0.419,1.0,1.0
mturk,fexsj0u5oib0e90p5kvm0lal,38,0,0.0,37.0,0.399,1.0,1.0
mturk,fexsj0u5oib0e90p5kvm0lal,39,0,0.0,37.0,0.384,1.0,1.0
mturk,fexsj0u5oib0e90p5kvm0lal,40,0,0.0,37.0,0.454,1.0,1.0
mturk,fexsj0u5oib0e90p5kvm0lal,41,0,0.0,37.0,0.345,1.0,1.0
mturk,fexsj0u5oib0e90p5kvm0lal,42,0,0.0,37.0,0.335,1.0,0.0
mturk,fexsj0u5oib0e90p5kvm0lal,43,0,0.0,37.0,0.322,1.0,1.0
mturk,fexsj0u5oib0e90p5kvm0lal,44,0,0.0,37.0,0.386,1.0,1.0
mturk,fexsj0u5oib0e90p5kvm0lal,45,0,0.0,37.0,0.336,1.0,0.0
mturk,fexsj0u5oib0e90p5kvm0lal,46,2,0.0,37.0,0.34,0.0,0.0
mturk,fexsj0u5oib0e90p5kvm0lal,47,2,1.0,38.0,0.385,0.0,0.0
mturk,fexsj0u5oib0e90p5kvm0lal,48,2,1.0,38.0,0.328,0.0,0.0
mturk,fexsj0u5oib0e90p5kvm0lal,49,2,2.0,39.0,0.348,1.0,0.0
mturk,fexsj0u5oib0e90p5kvm0lal,50,2,2.0,39.0,0.355,1.0,1.0
mturk,fexsj0u5oib0e90p5kvm0lal,51,2,2.0,39.0,0.364,1.0,1.0
mturk,fexsj0u5oib0e90p5kvm0lal,52,2,2.0,39.0,0.358,1.0,1.0
mturk,fexsj0u5oib0e90p5kvm0lal,53,2,2.0,39.0,0.355,1.0,1.0
mturk,fexsj0u5oib0e90p5kvm0lal,54,2,2.0,39.0,0.38,1.0,1.0
mturk,fexsj0u5oib0e90p5kvm0lal,55,2,2.0,39.0,0.343,1.0,1.0
mturk,fexsj0u5oib0e90p5kvm0lal,56,2,2.0,39.0,0.359,1.0,1.0
mturk,fexsj0u5oib0e90p5kvm0lal,57,2,2.0,39.0,0.314,1.0,1.0
mturk,fexsj0u5oib0e90p5kvm0lal,58,2,2.0,39.0,0.368,1.0,1.0
mturk,fexsj0u5oib0e90p5kvm0lal,59,2,2.0,39.0,0.344,1.0,0.0
mturk,fexsj0u5oib0e90p5kvm0lal,60,2,2.0,39.0,0.351,1.0,1.0
mturk,fexsj0u5oib0e90p5kvm0lal,61,1,2.0,39.0,0.363,0.0,0.0
mturk,fexsj0u5oib0e90p5kvm0lal,62,1,2.0,39.0,0.384,0.0,0.0
mturk,fexsj0u5oib0e90p5kvm0lal,63,1,1.0,38.0,0.358,1.0,1.0
mturk,fexsj0u5oib0e90p5kvm0lal,64,1,1.0,38.0,0.32,1.0,1.0
mturk,fexsj0u5oib0e90p5kvm0lal,65,1,1.0,38.0,0.399,1.0,1.0
mturk,fexsj0u5oib0e90p5kvm0lal,66,1,1.0,38.0,0.373,1.0,1.0
mturk,fexsj0u5oib0e90p5kvm0lal,67,1,1.0,38.0,0.338,1.0,1.0
mturk,fexsj0u5oib0e90p5kvm0lal,68,1,1.0,38.0,0.359,1.0,1.0
mturk,fexsj0u5oib0e90p5kvm0lal,69,1,1.0,38.0,0.336,1.0,0.0
mturk,fexsj0u5oib0e90p5kvm0lal,70,1,1.0,38.0,0.343,1.0,1.0
mturk,fexsj0u5oib0e90p5kvm0lal,71,1,1.0,38.0,0.319,1.0,1.0
mturk,fexsj0u5oib0e90p5kvm0lal,72,1,1.0,38.0,0.4,1.0,1.0
mturk,fexsj0u5oib0e90p5kvm0lal,73,1,1.0,38.0,0.341,1.0,1.0
mturk,fexsj0u5oib0e90p5kvm0lal,74,1,1.0,38.0,0.387,1.0,1.0
mturk,fexsj0u5oib0e90p5kvm0lal,75,1,1.0,38.0,0.315,1.0,1.0
mturk,fexsj0u5oib0e90p5kvm0lal,76,2,1.0,38.0,0.319,0.0,0.0
mturk,fexsj0u5oib0e90p5kvm0lal,77,2,1.0,38.0,0.312,0.0,0.0
mturk,fexsj0u5oib0e90p5kvm0lal,78,2,0.0,37.0,0.39,0.0,0.0
mturk,fexsj0u5oib0e90p5kvm0lal,79,2,0.0,37.0,0.341,0.0,0.0
mturk,fexsj0u5oib0e90p5kvm0lal,80,2,2.0,39.0,0.325,1.0,1.0
mturk,fexsj0u5oib0e90p5kvm0lal,81,2,2.0,39.0,0.321,1.0,0.0
mturk,fexsj0u5oib0e90p5kvm0lal,82,2,2.0,39.0,0.353,1.0,1.0
mturk,fexsj0u5oib0e90p5kvm0lal,83,2,2.0,39.0,0.333,1.0,1.0
mturk,fexsj0u5oib0e90p5kvm0lal,84,2,2.0,39.0,0.367,1.0,0.0
mturk,fexsj0u5oib0e90p5kvm0lal,85,2,2.0,39.0,0.352,1.0,1.0
mturk,fexsj0u5oib0e90p5kvm0lal,86,2,2.0,39.0,0.351,1.0,1.0
mturk,fexsj0u5oib0e90p5kvm0lal,87,2,2.0,39.0,0.349,1.0,1.0
mturk,fexsj0u5oib0e90p5kvm0lal,88,2,2.0,39.0,0.432,1.0,0.0
mturk,fexsj0u5oib0e90p5kvm0lal,89,2,2.0,39.0,0.358,1.0,1.0
mturk,fexsj0u5oib0e90p5kvm0lal,90,2,2.0,39.0,0.361,1.0,1.0
mturk,fl0bey18x3e1awvawxjz06jf,1,0,0.0,37.0,1.363,1.0,1.0
mturk,fl0bey18x3e1awvawxjz06jf,2,0,1.0,38.0,0.484,0.0,0.0
mturk,fl0bey18x3e1awvawxjz06jf,3,0,2.0,39.0,0.135,0.0,0.0
mturk,fl0bey18x3e1awvawxjz06jf,4,0,0.0,37.0,0.071,1.0,1.0
mturk,fl0bey18x3e1awvawxjz06jf,5,0,0.0,37.0,0.321,1.0,1.0
mturk,fl0bey18x3e1awvawxjz06jf,6,0,0.0,37.0,0.325,1.0,1.0
mturk,fl0bey18x3e1awvawxjz06jf,7,0,0.0,37.0,0.345,1.0,1.0
mturk,fl0bey18x3e1awvawxjz06jf,8,0,0.0,37.0,0.363,1.0,0.0
mturk,fl0bey18x3e1awvawxjz06jf,9,0,0.0,37.0,0.373,1.0,1.0
mturk,fl0bey18x3e1awvawxjz06jf,10,0,0.0,37.0,0.348,1.0,1.0
mturk,fl0bey18x3e1awvawxjz06jf,11,0,0.0,37.0,0.339,1.0,1.0
mturk,fl0bey18x3e1awvawxjz06jf,12,0,0.0,37.0,0.364,1.0,1.0
mturk,fl0bey18x3e1awvawxjz06jf,13,0,0.0,37.0,0.627,1.0,1.0
mturk,fl0bey18x3e1awvawxjz06jf,14,0,0.0,37.0,0.332,1.0,1.0
mturk,fl0bey18x3e1awvawxjz06jf,15,0,0.0,37.0,0.222,1.0,1.0
mturk,fl0bey18x3e1awvawxjz06jf,16,1,0.0,37.0,0.361,0.0,0.0
mturk,fl0bey18x3e1awvawxjz06jf,17,1,0.0,37.0,0.248,0.0,1.0
mturk,fl0bey18x3e1awvawxjz06jf,18,1,0.0,37.0,0.315,0.0,0.0
mturk,fl0bey18x3e1awvawxjz06jf,19,1,1.0,38.0,0.188,1.0,1.0
mturk,fl0bey18x3e1awvawxjz06jf,20,1,1.0,38.0,0.135,1.0,0.0
mturk,fl0bey18x3e1awvawxjz06jf,21,1,1.0,38.0,0.424,1.0,1.0
mturk,fl0bey18x3e1awvawxjz06jf,22,1,1.0,38.0,0.016,1.0,1.0
mturk,fl0bey18x3e1awvawxjz06jf,23,1,1.0,38.0,0.368,1.0,0.0
mturk,fl0bey18x3e1awvawxjz06jf,24,1,1.0,38.0,0.371,1.0,0.0
mturk,fl0bey18x3e1awvawxjz06jf,25,1,2.0,39.0,0.355,0.0,0.0
mturk,fl0bey18x3e1awvawxjz06jf,26,1,2.0,39.0,0.329,0.0,0.0
mturk,fl0bey18x3e1awvawxjz06jf,27,1,2.0,39.0,0.31,0.0,0.0
mturk,fl0bey18x3e1awvawxjz06jf,28,1,1.0,38.0,0.283,1.0,1.0
mturk,fl0bey18x3e1awvawxjz06jf,29,1,1.0,38.0,0.391,1.0,1.0
mturk,fl0bey18x3e1awvawxjz06jf,30,1,1.0,38.0,0.295,1.0,1.0
mturk,fl0bey18x3e1awvawxjz06jf,31,0,1.0,38.0,0.27,0.0,0.0
mturk,fl0bey18x3e1awvawxjz06jf,32,0,1.0,38.0,0.212,0.0,0.0
mturk,fl0bey18x3e1awvawxjz06jf,33,0,1.0,38.0,0.178,0.0,1.0
mturk,fl0bey18x3e1awvawxjz06jf,34,0,1.0,38.0,0.306,0.0,0.0
mturk,fl0bey18x3e1awvawxjz06jf,35,0,2.0,39.0,0.205,0.0,0.0
mturk,fl0bey18x3e1awvawxjz06jf,36,0,2.0,39.0,0.288,0.0,0.0
mturk,fl0bey18x3e1awvawxjz06jf,37,0,0.0,37.0,0.228,1.0,1.0
mturk,fl0bey18x3e1awvawxjz06jf,38,0,0.0,37.0,0.322,1.0,1.0
mturk,fl0bey18x3e1awvawxjz06jf,39,0,0.0,37.0,0.451,1.0,0.0
mturk,fl0bey18x3e1awvawxjz06jf,40,0,0.0,37.0,0.34,1.0,1.0
mturk,fl0bey18x3e1awvawxjz06jf,41,0,0.0,37.0,0.392,1.0,1.0
mturk,fl0bey18x3e1awvawxjz06jf,42,0,0.0,37.0,0.41,1.0,1.0
mturk,fl0bey18x3e1awvawxjz06jf,43,0,0.0,37.0,0.372,1.0,1.0
mturk,fl0bey18x3e1awvawxjz06jf,44,0,0.0,37.0,0.714,1.0,0.0
mturk,fl0bey18x3e1awvawxjz06jf,45,0,0.0,37.0,0.326,1.0,1.0
mturk,fl0bey18x3e1awvawxjz06jf,46,2,0.0,37.0,0.164,0.0,1.0
mturk,fl0bey18x3e1awvawxjz06jf,47,2,0.0,37.0,0.077,0.0,0.0
mturk,fl0bey18x3e1awvawxjz06jf,48,2,0.0,37.0,0.317,0.0,0.0
mturk,fl0bey18x3e1awvawxjz06jf,49,2,1.0,38.0,0.228,0.0,1.0
mturk,fl0bey18x3e1awvawxjz06jf,50,2,1.0,38.0,0.226,0.0,0.0
mturk,fl0bey18x3e1awvawxjz06jf,51,2,1.0,38.0,0.061,0.0,0.0
mturk,fl0bey18x3e1awvawxjz06jf,52,2,2.0,39.0,0.431,1.0,0.0
mturk,fl0bey18x3e1awvawxjz06jf,53,2,2.0,39.0,0.114,1.0,1.0
mturk,fl0bey18x3e1awvawxjz06jf,54,2,2.0,39.0,0.19,1.0,1.0
mturk,fl0bey18x3e1awvawxjz06jf,55,2,2.0,39.0,0.303,1.0,1.0
mturk,fl0bey18x3e1awvawxjz06jf,56,2,2.0,39.0,0.165,1.0,0.0
mturk,fl0bey18x3e1awvawxjz06jf,57,2,2.0,39.0,0.291,1.0,1.0
mturk,fl0bey18x3e1awvawxjz06jf,58,2,2.0,39.0,0.269,1.0,0.0
mturk,fl0bey18x3e1awvawxjz06jf,59,2,2.0,39.0,0.031,1.0,1.0
mturk,fl0bey18x3e1awvawxjz06jf,60,2,2.0,39.0,0.268,1.0,1.0
mturk,fl0bey18x3e1awvawxjz06jf,61,0,2.0,39.0,0.068,0.0,1.0
mturk,fl0bey18x3e1awvawxjz06jf,62,0,2.0,39.0,0.257,0.0,0.0
mturk,fl0bey18x3e1awvawxjz06jf,63,0,2.0,39.0,0.547,0.0,0.0
mturk,fl0bey18x3e1awvawxjz06jf,64,0,2.0,39.0,0.243,0.0,0.0
mturk,fl0bey18x3e1awvawxjz06jf,65,0,1.0,38.0,0.163,0.0,0.0
mturk,fl0bey18x3e1awvawxjz06jf,66,0,1.0,38.0,0.349,0.0,0.0
mturk,fl0bey18x3e1awvawxjz06jf,67,0,0.0,37.0,0.063,1.0,1.0
mturk,fl0bey18x3e1awvawxjz06jf,68,0,0.0,37.0,0.386,1.0,1.0
mturk,fl0bey18x3e1awvawxjz06jf,69,0,0.0,37.0,0.808,1.0,1.0
mturk,fl0bey18x3e1awvawxjz06jf,70,0,0.0,37.0,0.967,1.0,1.0
mturk,fl0bey18x3e1awvawxjz06jf,71,0,0.0,37.0,0.693,1.0,1.0
mturk,fl0bey18x3e1awvawxjz06jf,72,0,0.0,37.0,0.677,1.0,1.0
mturk,fl0bey18x3e1awvawxjz06jf,73,0,0.0,37.0,0.811,1.0,0.0
mturk,fl0bey18x3e1awvawxjz06jf,74,0,0.0,37.0,0.412,1.0,0.0
mturk,fl0bey18x3e1awvawxjz06jf,75,0,0.0,37.0,0.494,1.0,1.0
mturk,fl0bey18x3e1awvawxjz06jf,76,1,0.0,37.0,0.287,0.0,0.0
mturk,fl0bey18x3e1awvawxjz06jf,77,1,1.0,38.0,0.23,1.0,1.0
mturk,fl0bey18x3e1awvawxjz06jf,78,1,1.0,38.0,0.204,1.0,1.0
mturk,fl0bey18x3e1awvawxjz06jf,79,1,1.0,38.0,0.141,1.0,1.0
mturk,fl0bey18x3e1awvawxjz06jf,80,1,1.0,38.0,0.266,1.0,0.0
mturk,fl0bey18x3e1awvawxjz06jf,81,1,1.0,38.0,0.582,1.0,1.0
mturk,fl0bey18x3e1awvawxjz06jf,82,1,1.0,38.0,0.383,1.0,1.0
mturk,fl0bey18x3e1awvawxjz06jf,83,1,1.0,38.0,0.488,1.0,1.0
mturk,fl0bey18x3e1awvawxjz06jf,84,1,1.0,38.0,0.317,1.0,1.0
mturk,fl0bey18x3e1awvawxjz06jf,85,1,1.0,38.0,0.329,1.0,1.0
mturk,fl0bey18x3e1awvawxjz06jf,86,1,1.0,38.0,0.235,1.0,1.0
mturk,fl0bey18x3e1awvawxjz06jf,87,1,1.0,38.0,0.11,1.0,1.0
mturk,fl0bey18x3e1awvawxjz06jf,88,1,1.0,38.0,0.035,1.0,0.0
mturk,fl0bey18x3e1awvawxjz06jf,89,1,1.0,38.0,0.247,1.0,1.0
mturk,fl0bey18x3e1awvawxjz06jf,90,1,1.0,38.0,0.207,1.0,1.0
mturk,g0hcri7lt06it7zaxn7bdehy,1,2,2.0,39.0,0.922,1.0,1.0
mturk,g0hcri7lt06it7zaxn7bdehy,2,2,0.0,37.0,1.512,0.0,0.0
mturk,g0hcri7lt06it7zaxn7bdehy,3,2,1.0,38.0,0.809,0.0,0.0
mturk,g0hcri7lt06it7zaxn7bdehy,4,2,2.0,39.0,0.587,1.0,1.0
mturk,g0hcri7lt06it7zaxn7bdehy,5,2,2.0,39.0,0.613,1.0,1.0
mturk,g0hcri7lt06it7zaxn7bdehy,6,2,2.0,39.0,0.592,1.0,1.0
mturk,g0hcri7lt06it7zaxn7bdehy,7,2,2.0,39.0,0.562,1.0,0.0
mturk,g0hcri7lt06it7zaxn7bdehy,8,2,1.0,38.0,0.488,0.0,0.0
mturk,g0hcri7lt06it7zaxn7bdehy,9,2,2.0,39.0,0.749,1.0,1.0
mturk,g0hcri7lt06it7zaxn7bdehy,10,2,2.0,39.0,1.391,1.0,1.0
mturk,g0hcri7lt06it7zaxn7bdehy,11,2,2.0,39.0,1.491,1.0,1.0
mturk,g0hcri7lt06it7zaxn7bdehy,12,2,2.0,39.0,0.586,1.0,0.0
mturk,g0hcri7lt06it7zaxn7bdehy,13,2,0.0,37.0,0.308,0.0,0.0
mturk,g0hcri7lt06it7zaxn7bdehy,14,2,2.0,39.0,0.49,1.0,1.0
mturk,g0hcri7lt06it7zaxn7bdehy,15,2,2.0,39.0,0.624,1.0,0.0
mturk,g0hcri7lt06it7zaxn7bdehy,16,0,1.0,38.0,2.099,0.0,0.0
mturk,g0hcri7lt06it7zaxn7bdehy,17,0,2.0,39.0,0.584,0.0,1.0
mturk,g0hcri7lt06it7zaxn7bdehy,18,0,2.0,39.0,0.549,0.0,1.0
mturk,g0hcri7lt06it7zaxn7bdehy,19,0,2.0,39.0,0.503,0.0,0.0
mturk,g0hcri7lt06it7zaxn7bdehy,20,0,0.0,37.0,0.642,1.0,0.0
mturk,g0hcri7lt06it7zaxn7bdehy,21,0,2.0,39.0,0.62,0.0,0.0
mturk,g0hcri7lt06it7zaxn7bdehy,22,0,0.0,37.0,0.552,1.0,1.0
mturk,g0hcri7lt06it7zaxn7bdehy,23,0,0.0,37.0,0.657,1.0,0.0
mturk,g0hcri7lt06it7zaxn7bdehy,24,0,2.0,39.0,1.483,0.0,0.0
mturk,g0hcri7lt06it7zaxn7bdehy,25,0,1.0,38.0,1.511,0.0,0.0
mturk,g0hcri7lt06it7zaxn7bdehy,26,0,2.0,39.0,0.557,0.0,1.0
mturk,g0hcri7lt06it7zaxn7bdehy,27,0,2.0,39.0,0.427,0.0,0.0
mturk,g0hcri7lt06it7zaxn7bdehy,28,0,0.0,37.0,0.666,1.0,1.0
mturk,g0hcri7lt06it7zaxn7bdehy,29,0,2.0,39.0,0.47,0.0,0.0
mturk,g0hcri7lt06it7zaxn7bdehy,30,0,0.0,37.0,0.439,1.0,1.0
mturk,g0hcri7lt06it7zaxn7bdehy,31,2,1.0,38.0,2.163,0.0,0.0
mturk,g0hcri7lt06it7zaxn7bdehy,32,2,0.0,37.0,0.409,0.0,0.0
mturk,g0hcri7lt06it7zaxn7bdehy,33,2,2.0,39.0,0.375,1.0,1.0
mturk,g0hcri7lt06it7zaxn7bdehy,34,2,2.0,39.0,0.7,1.0,0.0
mturk,g0hcri7lt06it7zaxn7bdehy,35,2,1.0,38.0,0.883,0.0,0.0
mturk,g0hcri7lt06it7zaxn7bdehy,36,2,2.0,39.0,0.492,1.0,0.0
mturk,g0hcri7lt06it7zaxn7bdehy,37,2,0.0,37.0,1.136,0.0,0.0
mturk,g0hcri7lt06it7zaxn7bdehy,38,2,2.0,39.0,0.411,1.0,1.0
mturk,g0hcri7lt06it7zaxn7bdehy,39,2,2.0,39.0,0.552,1.0,1.0
mturk,g0hcri7lt06it7zaxn7bdehy,40,2,2.0,39.0,0.475,1.0,0.0
mturk,g0hcri7lt06it7zaxn7bdehy,41,2,0.0,37.0,0.788,0.0,0.0
mturk,g0hcri7lt06it7zaxn7bdehy,42,2,2.0,39.0,0.498,1.0,1.0
mturk,g0hcri7lt06it7zaxn7bdehy,43,2,2.0,39.0,0.482,1.0,0.0
mturk,g0hcri7lt06it7zaxn7bdehy,44,2,1.0,38.0,1.048,0.0,0.0
mturk,g0hcri7lt06it7zaxn7bdehy,45,2,2.0,39.0,0.418,1.0,1.0
mturk,g0hcri7lt06it7zaxn7bdehy,46,1,0.0,37.0,0.467,0.0,0.0
mturk,g0hcri7lt06it7zaxn7bdehy,47,1,2.0,39.0,0.414,0.0,1.0
mturk,g0hcri7lt06it7zaxn7bdehy,48,1,2.0,39.0,0.529,0.0,1.0
mturk,g0hcri7lt06it7zaxn7bdehy,49,1,0.0,37.0,0.414,0.0,0.0
mturk,g0hcri7lt06it7zaxn7bdehy,50,1,2.0,39.0,0.673,0.0,0.0
mturk,g0hcri7lt06it7zaxn7bdehy,51,1,1.0,38.0,1.238,1.0,1.0
mturk,g0hcri7lt06it7zaxn7bdehy,52,1,1.0,38.0,0.466,1.0,1.0
mturk,g0hcri7lt06it7zaxn7bdehy,53,1,1.0,38.0,0.658,1.0,1.0
mturk,g0hcri7lt06it7zaxn7bdehy,54,1,1.0,38.0,0.399,1.0,1.0
mturk,g0hcri7lt06it7zaxn7bdehy,55,1,1.0,38.0,0.458,1.0,1.0
mturk,g0hcri7lt06it7zaxn7bdehy,56,1,1.0,38.0,0.424,1.0,1.0
mturk,g0hcri7lt06it7zaxn7bdehy,57,1,1.0,38.0,0.557,1.0,1.0
mturk,g0hcri7lt06it7zaxn7bdehy,58,1,1.0,38.0,0.614,1.0,1.0
mturk,g0hcri7lt06it7zaxn7bdehy,59,1,1.0,38.0,0.537,1.0,1.0
mturk,g0hcri7lt06it7zaxn7bdehy,60,1,1.0,38.0,0.409,1.0,1.0
mturk,g0hcri7lt06it7zaxn7bdehy,61,2,1.0,38.0,0.401,0.0,0.0
mturk,g0hcri7lt06it7zaxn7bdehy,62,2,2.0,39.0,0.384,1.0,1.0
mturk,g0hcri7lt06it7zaxn7bdehy,63,2,2.0,39.0,0.468,1.0,1.0
mturk,g0hcri7lt06it7zaxn7bdehy,64,2,2.0,39.0,0.453,1.0,0.0
mturk,g0hcri7lt06it7zaxn7bdehy,65,2,1.0,38.0,0.358,0.0,0.0
mturk,g0hcri7lt06it7zaxn7bdehy,66,2,0.0,37.0,0.324,0.0,0.0
mturk,g0hcri7lt06it7zaxn7bdehy,67,2,1.0,38.0,0.314,0.0,0.0
mturk,g0hcri7lt06it7zaxn7bdehy,68,2,2.0,39.0,0.407,1.0,1.0
mturk,g0hcri7lt06it7zaxn7bdehy,69,2,2.0,39.0,0.28,1.0,1.0
mturk,g0hcri7lt06it7zaxn7bdehy,70,2,2.0,39.0,0.581,1.0,1.0
mturk,g0hcri7lt06it7zaxn7bdehy,71,2,2.0,39.0,0.369,1.0,1.0
mturk,g0hcri7lt06it7zaxn7bdehy,72,2,2.0,39.0,0.396,1.0,1.0
mturk,g0hcri7lt06it7zaxn7bdehy,73,2,2.0,39.0,0.389,1.0,0.0
mturk,g0hcri7lt06it7zaxn7bdehy,74,2,1.0,38.0,0.472,0.0,0.0
mturk,g0hcri7lt06it7zaxn7bdehy,75,2,2.0,39.0,0.556,1.0,1.0
mturk,g0hcri7lt06it7zaxn7bdehy,76,0,2.0,39.0,0.19,0.0,0.0
mturk,g0hcri7lt06it7zaxn7bdehy,77,0,1.0,38.0,0.247,0.0,0.0
mturk,g0hcri7lt06it7zaxn7bdehy,78,0,2.0,39.0,0.788,0.0,0.0
mturk,g0hcri7lt06it7zaxn7bdehy,79,0,0.0,37.0,0.85,1.0,1.0
