subject,trial,correct,choice,key,rt,accuracy,outcome
5q3wggyza27kad8vco4fc8hz,1,1,0.0,37.0,2.506,0.0,0.0
5q3wggyza27kad8vco4fc8hz,2,1,1.0,38.0,1.249,1.0,1.0
5q3wggyza27kad8vco4fc8hz,3,1,1.0,38.0,1.267,1.0,0.0
5q3wggyza27kad8vco4fc8hz,4,1,2.0,39.0,0.57,0.0,0.0
5q3wggyza27kad8vco4fc8hz,5,1,2.0,39.0,0.589,0.0,0.0
5q3wggyza27kad8vco4fc8hz,6,1,1.0,38.0,0.326,1.0,1.0
5q3wggyza27kad8vco4fc8hz,7,1,0.0,37.0,0.604,0.0,0.0
5q3wggyza27kad8vco4fc8hz,8,1,1.0,38.0,0.413,1.0,1.0
5q3wggyza27kad8vco4fc8hz,9,1,1.0,38.0,0.505,1.0,1.0
5q3wggyza27kad8vco4fc8hz,10,1,1.0,38.0,0.444,1.0,1.0
5q3wggyza27kad8vco4fc8hz,11,1,1.0,38.0,0.321,1.0,1.0
5q3wggyza27kad8vco4fc8hz,12,1,1.0,38.0,0.506,1.0,1.0
5q3wggyza27kad8vco4fc8hz,13,1,1.0,38.0,0.445,1.0,0.0
5q3wggyza27kad8vco4fc8hz,14,1,1.0,38.0,0.319,1.0,1.0
5q3wggyza27kad8vco4fc8hz,15,1,1.0,38.0,0.278,1.0,1.0
5q3wggyza27kad8vco4fc8hz,16,2,1.0,38.0,0.266,0.0,0.0
5q3wggyza27kad8vco4fc8hz,17,2,0.0,37.0,0.24,0.0,1.0
5q3wggyza27kad8vco4fc8hz,18,2,0.0,37.0,0.285,0.0,0.0
5q3wggyza27kad8vco4fc8hz,19,2,0.0,37.0,0.222,0.0,0.0
5q3wggyza27kad8vco4fc8hz,20,2,0.0,37.0,0.268,0.0,0.0
5q3wggyza27kad8vco4fc8hz,21,2,2.0,39.0,0.287,1.0,0.0
5q3wggyza27kad8vco4fc8hz,22,2,2.0,39.0,0.326,1.0,1.0
5q3wggyza27kad8vco4fc8hz,23,2,2.0,39.0,0.327,1.0,0.0
5q3wggyza27kad8vco4fc8hz,24,2,1.0,38.0,0.343,0.0,0.0
5q3wggyza27kad8vco4fc8hz,25,2,2.0,39.0,0.076,1.0,1.0
5q3wggyza27kad8vco4fc8hz,26,2,2.0,39.0,0.327,1.0,1.0
5q3wggyza27kad8vco4fc8hz,27,2,2.0,39.0,0.233,1.0,1.0
5q3wggyza27kad8vco4fc8hz,28,2,2.0,39.0,0.283,1.0,1.0
5q3wggyza27kad8vco4fc8hz,29,2,2.0,39.0,0.249,1.0,1.0
5q3wggyza27kad8vco4fc8hz,30,2,2.0,39.0,0.103,1.0,1.0
5q3wggyza27kad8vco4fc8hz,31,0,2.0,39.0,0.123,0.0,0.0
5q3wggyza27kad8vco4fc8hz,32,0,2.0,39.0,0.546,0.0,1.0
5q3wggyza27kad8vco4fc8hz,33,0,2.0,39.0,0.355,0.0,0.0
5q3wggyza27kad8vco4fc8hz,34,0,0.0,37.0,0.206,1.0,1.0
5q3wggyza27kad8vco4fc8hz,35,0,0.0,37.0,0.268,1.0,1.0
5q3wggyza27kad8vco4fc8hz,36,0,0.0,37.0,0.014,1.0,1.0
5q3wggyza27kad8vco4fc8hz,37,0,0.0,37.0,0.338,1.0,0.0
5q3wggyza27kad8vco4fc8hz,38,0,0.0,37.0,0.151,1.0,1.0
5q3wggyza27kad8vco4fc8hz,39,0,0.0,37.0,0.342,1.0,1.0
5q3wggyza27kad8vco4fc8hz,40,0,0.0,37.0,0.305,1.0,1.0
5q3wggyza27kad8vco4fc8hz,41,0,0.0,37.0,0.317,1.0,1.0
5q3wggyza27kad8vco4fc8hz,42,0,0.0,37.0,0.298,1.0,0.0
5q3wggyza27kad8vco4fc8hz,43,0,0.0,37.0,0.164,1.0,1.0
5q3wggyza27kad8vco4fc8hz,44,0,0.0,37.0,0.238,1.0,1.0
5q3wggyza27kad8vco4fc8hz,45,0,0.0,37.0,0.176,1.0,1.0
5q3wggyza27kad8vco4fc8hz,46,1,0.0,37.0,0.243,0.0,1.0
5q3wggyza27kad8vco4fc8hz,47,1,0.0,37.0,0.117,0.0,0.0
5q3wggyza27kad8vco4fc8hz,48,1,0.0,37.0,0.217,0.0,0.0
5q3wggyza27kad8vco4fc8hz,49,1,0.0,37.0,0.066,0.0,1.0
5q3wggyza27kad8vco4fc8hz,50,1,0.0,37.0,0.151,0.0,0.0
5q3wggyza27kad8vco4fc8hz,51,1,0.0,37.0,0.136,0.0,0.0
5q3wggyza27kad8vco4fc8hz,52,1,0.0,37.0,0.186,0.0,0.0
5q3wggyza27kad8vco4fc8hz,53,1,0.0,37.0,0.069,0.0,0.0
5q3wggyza27kad8vco4fc8hz,54,1,1.0,38.0,0.448,1.0,0.0
5q3wggyza27kad8vco4fc8hz,55,1,2.0,39.0,0.275,0.0,0.0
5q3wggyza27kad8vco4fc8hz,56,1,1.0,38.0,0.17,1.0,0.0
5q3wggyza27kad8vco4fc8hz,57,1,1.0,38.0,0.233,1.0,1.0
5q3wggyza27kad8vco4fc8hz,58,1,1.0,38.0,0.283,1.0,0.0
5q3wggyza27kad8vco4fc8hz,59,1,0.0,37.0,0.161,0.0,0.0
5q3wggyza27kad8vco4fc8hz,60,1,0.0,37.0,0.142,0.0,0.0
5q3wggyza27kad8vco4fc8hz,61,0,0.0,37.0,0.152,1.0,1.0
5q3wggyza27kad8vco4fc8hz,62,0,0.0,37.0,0.22,1.0,1.0
5q3wggyza27kad8vco4fc8hz,63,0,0.0,37.0,0.362,1.0,1.0
5q3wggyza27kad8vco4fc8hz,64,0,0.0,37.0,0.302,1.0,1.0
5q3wggyza27kad8vco4fc8hz,65,0,0.0,37.0,0.226,1.0,1.0
5q3wggyza27kad8vco4fc8hz,66,0,0.0,37.0,0.288,1.0,1.0
5q3wggyza27kad8vco4fc8hz,67,0,0.0,37.0,0.216,1.0,1.0
5q3wggyza27kad8vco4fc8hz,68,0,0.0,37.0,0.254,1.0,0.0
5q3wggyza27kad8vco4fc8hz,69,0,1.0,38.0,0.02,0.0,1.0
5q3wggyza27kad8vco4fc8hz,70,0,1.0,38.0,0.237,0.0,0.0
5q3wggyza27kad8vco4fc8hz,71,0,1.0,38.0,0.27,0.0,1.0
5q3wggyza27kad8vco4fc8hz,72,0,1.0,38.0,0.252,0.0,0.0
5q3wggyza27kad8vco4fc8hz,73,0,2.0,39.0,0.198,0.0,1.0
5q3wggyza27kad8vco4fc8hz,74,0,2.0,39.0,0.318,0.0,0.0
5q3wggyza27kad8vco4fc8hz,75,0,2.0,39.0,0.058,0.0,0.0
5q3wggyza27kad8vco4fc8hz,76,1,2.0,39.0,0.347,0.0,1.0
5q3wggyza27kad8vco4fc8hz,77,1,2.0,39.0,0.375,0.0,0.0
5q3wggyza27kad8vco4fc8hz,78,1,0.0,37.0,0.488,0.0,0.0
5q3wggyza27kad8vco4fc8hz,79,1,0.0,37.0,0.334,0.0,1.0
5q3wggyza27kad8vco4fc8hz,80,1,0.0,37.0,0.17,0.0,0.0
5q3wggyza27kad8vco4fc8hz,81,1,0.0,37.0,0.24,0.0,1.0
5q3wggyza27kad8vco4fc8hz,82,1,0.0,37.0,0.123,0.0,1.0
5q3wggyza27kad8vco4fc8hz,83,1,0.0,37.0,0.272,0.0,0.0
5q3wggyza27kad8vco4fc8hz,84,1,0.0,37.0,0.114,0.0,0.0
5q3wggyza27kad8vco4fc8hz,85,1,0.0,37.0,0.11,0.0,0.0
5q3wggyza27kad8vco4fc8hz,86,1,0.0,37.0,0.08,0.0,0.0
5q3wggyza27kad8vco4fc8hz,87,1,1.0,38.0,0.133,1.0,1.0
5q3wggyza27kad8vco4fc8hz,88,1,1.0,38.0,0.203,1.0,1.0
5q3wggyza27kad8vco4fc8hz,89,1,1.0,38.0,0.187,1.0,0.0
5q3wggyza27kad8vco4fc8hz,90,1,2.0,39.0,0.243,0.0,0.0
6u7g7i5nf80uce7o3l13o30f,1,2,0.0,37.0,5.271,0.0,0.0
6u7g7i5nf80uce7o3l13o30f,2,2,1.0,38.0,2.879,0.0,0.0
6u7g7i5nf80uce7o3l13o30f,3,2,1.0,38.0,0.572,0.0,0.0
6u7g7i5nf80uce7o3l13o30f,4,2,2.0,39.0,0.121,1.0,1.0
6u7g7i5nf80uce7o3l13o30f,5,2,0.0,37.0,0.962,0.0,0.0
6u7g7i5nf80uce7o3l13o30f,6,2,1.0,38.0,0.04,0.0,0.0
6u7g7i5nf80uce7o3l13o30f,7,2,2.0,39.0,0.333,1.0,1.0
6u7g7i5nf80uce7o3l13o30f,8,2,2.0,39.0,0.05,1.0,1.0
6u7g7i5nf80uce7o3l13o30f,9,2,2.0,39.0,0.031,1.0,1.0
6u7g7i5nf80uce7o3l13o30f,10,2,2.0,39.0,0.044,1.0,1.0
6u7g7i5nf80uce7o3l13o30f,11,2,2.0,39.0,0.044,1.0,0.0
6u7g7i5nf80uce7o3l13o30f,12,2,0.0,37.0,0.591,0.0,0.0
6u7g7i5nf80uce7o3l13o30f,13,2,2.0,39.0,0.448,1.0,1.0
6u7g7i5nf80uce7o3l13o30f,14,2,2.0,39.0,0.049,1.0,1.0
6u7g7i5nf80uce7o3l13o30f,15,2,2.0,39.0,0.046,1.0,1.0
6u7g7i5nf80uce7o3l13o30f,16,1,2.0,39.0,0.047,0.0,0.0
6u7g7i5nf80uce7o3l13o30f,17,1,1.0,38.0,0.193,1.0,1.0
6u7g7i5nf80uce7o3l13o30f,18,1,1.0,38.0,0.0,1.0,0.0
6u7g7i5nf80uce7o3l13o30f,19,1,1.0,38.0,0.042,1.0,1.0
6u7g7i5nf80uce7o3l13o30f,20,1,1.0,38.0,0.057,1.0,1.0
6u7g7i5nf80uce7o3l13o30f,21,1,1.0,38.0,0.074,1.0,1.0
6u7g7i5nf80uce7o3l13o30f,22,1,1.0,38.0,0.108,1.0,1.0
6u7g7i5nf80uce7o3l13o30f,23,1,1.0,38.0,0.045,1.0,0.0
6u7g7i5nf80uce7o3l13o30f,24,1,1.0,38.0,0.105,1.0,1.0
6u7g7i5nf80uce7o3l13o30f,25,1,1.0,38.0,0.064,1.0,1.0
6u7g7i5nf80uce7o3l13o30f,26,1,1.0,38.0,0.0,1.0,1.0
6u7g7i5nf80uce7o3l13o30f,27,1,1.0,38.0,0.091,1.0,0.0
6u7g7i5nf80uce7o3l13o30f,28,1,1.0,38.0,0.033,1.0,1.0
6u7g7i5nf80uce7o3l13o30f,29,1,1.0,38.0,0.16,1.0,0.0
6u7g7i5nf80uce7o3l13o30f,30,1,1.0,38.0,0.131,1.0,1.0
6u7g7i5nf80uce7o3l13o30f,31,2,1.0,38.0,0.039,0.0,0.0
6u7g7i5nf80uce7o3l13o30f,32,2,0.0,37.0,0.052,0.0,0.0
6u7g7i5nf80uce7o3l13o30f,33,2,2.0,39.0,0.275,1.0,1.0
6u7g7i5nf80uce7o3l13o30f,34,2,2.0,39.0,0.098,1.0,1.0
6u7g7i5nf80uce7o3l13o30f,35,2,2.0,39.0,0.083,1.0,1.0
6u7g7i5nf80uce7o3l13o30f,36,2,2.0,39.0,0.066,1.0,0.0
6u7g7i5nf80uce7o3l13o30f,37,2,2.0,39.0,0.032,1.0,0.0
6u7g7i5nf80uce7o3l13o30f,38,2,2.0,39.0,0.261,1.0,1.0
6u7g7i5nf80uce7o3l13o30f,39,2,2.0,39.0,0.474,1.0,1.0
6u7g7i5nf80uce7o3l13o30f,40,2,2.0,39.0,0.162,1.0,0.0
6u7g7i5nf80uce7o3l13o30f,41,2,2.0,39.0,0.04,1.0,1.0
6u7g7i5nf80uce7o3l13o30f,42,2,2.0,39.0,0.018,1.0,1.0
6u7g7i5nf80uce7o3l13o30f,43,2,2.0,39.0,0.1,1.0,0.0
6u7g7i5nf80uce7o3l13o30f,44,2,2.0,39.0,0.043,1.0,1.0
6u7g7i5nf80uce7o3l13o30f,45,2,2.0,39.0,0.251,1.0,1.0
6u7g7i5nf80uce7o3l13o30f,46,0,2.0,39.0,0.027,0.0,0.0
6u7g7i5nf80uce7o3l13o30f,47,0,2.0,39.0,0.185,0.0,0.0
6u7g7i5nf80uce7o3l13o30f,48,0,1.0,38.0,0.114,0.0,0.0
6u7g7i5nf80uce7o3l13o30f,49,0,1.0,38.0,0.179,0.0,0.0
6u7g7i5nf80uce7o3l13o30f,50,0,0.0,37.0,0.021,1.0,1.0
6u7g7i5nf80uce7o3l13o30f,51,0,0.0,37.0,0.013,1.0,1.0
6u7g7i5nf80uce7o3l13o30f,52,0,0.0,37.0,0.118,1.0,1.0
6u7g7i5nf80uce7o3l13o30f,53,0,0.0,37.0,0.0,1.0,1.0
6u7g7i5nf80uce7o3l13o30f,54,0,0.0,37.0,0.162,1.0,1.0
6u7g7i5nf80uce7o3l13o30f,55,0,0.0,37.0,0.106,1.0,1.0
6u7g7i5nf80uce7o3l13o30f,56,0,0.0,37.0,0.088,1.0,0.0
6u7g7i5nf80uce7o3l13o30f,57,0,0.0,37.0,0.195,1.0,1.0
6u7g7i5nf80uce7o3l13o30f,58,0,0.0,37.0,0.173,1.0,1.0
6u7g7i5nf80uce7o3l13o30f,59,0,0.0,37.0,0.175,1.0,1.0
6u7g7i5nf80uce7o3l13o30f,60,0,0.0,37.0,0.073,1.0,0.0
6u7g7i5nf80uce7o3l13o30f,61,1,0.0,37.0,0.047,0.0,0.0
6u7g7i5nf80uce7o3l13o30f,62,1,0.0,37.0,0.051,0.0,0.0
6u7g7i5nf80uce7o3l13o30f,63,1,1.0,38.0,0.019,1.0,1.0
6u7g7i5nf80uce7o3l13o30f,64,1,1.0,38.0,0.122,1.0,1.0
6u7g7i5nf80uce7o3l13o30f,65,1,1.0,38.0,0.066,1.0,1.0
6u7g7i5nf80uce7o3l13o30f,66,1,1.0,38.0,0.043,1.0,1.0
6u7g7i5nf80uce7o3l13o30f,67,1,1.0,38.0,0.0,1.0,0.0
6u7g7i5nf80uce7o3l13o30f,68,1,1.0,38.0,0.12,1.0,1.0
6u7g7i5nf80uce7o3l13o30f,69,1,1.0,38.0,0.135,1.0,1.0
6u7g7i5nf80uce7o3l13o30f,70,1,1.0,38.0,0.135,1.0,1.0
6u7g7i5nf80uce7o3l13o30f,71,1,1.0,38.0,0.089,1.0,1.0
6u7g7i5nf80uce7o3l13o30f,72,1,1.0,38.0,0.13,1.0,0.0
6u7g7i5nf80uce7o3l13o30f,73,1,1.0,38.0,0.066,1.0,1.0
6u7g7i5nf80uce7o3l13o30f,74,1,1.0,38.0,0.059,1.0,1.0
6u7g7i5nf80uce7o3l13o30f,75,1,1.0,38.0,0.08,1.0,1.0
6u7g7i5nf80uce7o3l13o30f,76,2,1.0,38.0,0.128,0.0,0.0
6u7g7i5nf80uce7o3l13o30f,77,2,1.0,38.0,0.05,0.0,0.0
6u7g7i5nf80uce7o3l13o30f,78,2,1.0,38.0,0.081,0.0,0.0
6u7g7i5nf80uce7o3l13o30f,79,2,2.0,39.0,0.0,1.0,0.0
6u7g7i5nf80uce7o3l13o30f,80,2,0.0,37.0,0.061,0.0,0.0
6u7g7i5nf80uce7o3l13o30f,81,2,1.0,38.0,0.02,0.0,0.0
6u7g7i5nf80uce7o3l13o30f,82,2,2.0,39.0,0.144,1.0,1.0
6u7g7i5nf80uce7o3l13o30f,83,2,2.0,39.0,0.048,1.0,1.0
6u7g7i5nf80uce7o3l13o30f,84,2,2.0,39.0,0.117,1.0,1.0
6u7g7i5nf80uce7o3l13o30f,85,2,2.0,39.0,0.043,1.0,0.0
6u7g7i5nf80uce7o3l13o30f,86,2,2.0,39.0,0.089,1.0,0.0
6u7g7i5nf80uce7o3l13o30f,87,2,2.0,39.0,0.022,1.0,1.0
6u7g7i5nf80uce7o3l13o30f,88,2,2.0,39.0,0.159,1.0,0.0
6u7g7i5nf80uce7o3l13o30f,89,2,0.0,37.0,0.088,0.0,0.0
6u7g7i5nf80uce7o3l13o30f,90,2,1.0,38.0,0.124,0.0,1.0
ckcmgqmyrb64e0f49hqcbdc3,1,0,2.0,39.0,2.669,0.0,0.0
ckcmgqmyrb64e0f49hqcbdc3,2,0,2.0,39.0,2.106,0.0,0.0
ckcmgqmyrb64e0f49hqcbdc3,3,0,1.0,38.0,0.73,0.0,0.0
ckcmgqmyrb64e0f49hqcbdc3,4,0,0.0,37.0,0.642,1.0,1.0
ckcmgqmyrb64e0f49hqcbdc3,5,0,2.0,39.0,2.037,0.0,1.0
ckcmgqmyrb64e0f49hqcbdc3,6,0,0.0,37.0,1.267,1.0,1.0
ckcmgqmyrb64e0f49hqcbdc3,7,0,0.0,37.0,1.051,1.0,1.0
ckcmgqmyrb64e0f49hqcbdc3,8,0,1.0,38.0,1.076,0.0,0.0
ckcmgqmyrb64e0f49hqcbdc3,9,0,0.0,37.0,0.485,1.0,1.0
ckcmgqmyrb64e0f49hqcbdc3,10,0,0.0,37.0,0.772,1.0,1.0
ckcmgqmyrb64e0f49hqcbdc3,11,0,0.0,37.0,0.861,1.0,1.0
ckcmgqmyrb64e0f49hqcbdc3,12,0,0.0,37.0,0.663,1.0,1.0
ckcmgqmyrb64e0f49hqcbdc3,13,0,0.0,37.0,0.697,1.0,1.0
ckcmgqmyrb64e0f49hqcbdc3,14,0,0.0,37.0,0.781,1.0,1.0
ckcmgqmyrb64e0f49hqcbdc3,15,0,0.0,37.0,0.485,1.0,0.0
ckcmgqmyrb64e0f49hqcbdc3,16,1,0.0,37.0,0.426,0.0,0.0
ckcmgqmyrb64e0f49hqcbdc3,17,1,2.0,39.0,0.395,0.0,1.0
ckcmgqmyrb64e0f49hqcbdc3,18,1,2.0,39.0,0.511,0.0,0.0
ckcmgqmyrb64e0f49hqcbdc3,19,1,1.0,38.0,0.411,1.0,1.0
ckcmgqmyrb64e0f49hqcbdc3,20,1,1.0,38.0,0.498,1.0,1.0
ckcmgqmyrb64e0f49hqcbdc3,21,1,1.0,38.0,0.5,1.0,1.0
ckcmgqmyrb64e0f49hqcbdc3,22,1,1.0,38.0,0.451,1.0,1.0
ckcmgqmyrb64e0f49hqcbdc3,23,1,1.0,38.0,1.405,1.0,1.0
ckcmgqmyrb64e0f49hqcbdc3,24,1,1.0,38.0,0.47,1.0,1.0
ckcmgqmyrb64e0f49hqcbdc3,25,1,1.0,38.0,0.314,1.0,1.0
ckcmgqmyrb64e0f49hqcbdc3,26,1,1.0,38.0,0.34,1.0,1.0
ckcmgqmyrb64e0f49hqcbdc3,27,1,1.0,38.0,0.316,1.0,1.0
ckcmgqmyrb64e0f49hqcbdc3,28,1,1.0,38.0,0.282,1.0,1.0
ckcmgqmyrb64e0f49hqcbdc3,29,1,1.0,38.0,0.412,1.0,0.0
ckcmgqmyrb64e0f49hqcbdc3,30,1,1.0,38.0,0.332,1.0,1.0
ckcmgqmyrb64e0f49hqcbdc3,31,2,1.0,38.0,0.289,0.0,0.0
ckcmgqmyrb64e0f49hqcbdc3,32,2,2.0,39.0,0.275,1.0,1.0
ckcmgqmyrb64e0f49hqcbdc3,33,2,2.0,39.0,0.308,1.0,1.0
ckcmgqmyrb64e0f49hqcbdc3,34,2,2.0,39.0,0.317,1.0,1.0
ckcmgqmyrb64e0f49hqcbdc3,35,2,2.0,39.0,0.311,1.0,1.0
ckcmgqmyrb64e0f49hqcbdc3,36,2,2.0,39.0,0.435,1.0,1.0
ckcmgqmyrb64e0f49hqcbdc3,37,2,2.0,39.0,0.331,1.0,1.0
ckcmgqmyrb64e0f49hqcbdc3,38,2,2.0,39.0,0.394,1.0,1.0
ckcmgqmyrb64e0f49hqcbdc3,39,2,2.0,39.0,0.346,1.0,1.0
ckcmgqmyrb64e0f49hqcbdc3,40,2,2.0,39.0,0.291,1.0,1.0
ckcmgqmyrb64e0f49hqcbdc3,41,2,2.0,39.0,0.299,1.0,1.0
ckcmgqmyrb64e0f49hqcbdc3,42,2,2.0,39.0,0.34,1.0,1.0
ckcmgqmyrb64e0f49hqcbdc3,43,2,2.0,39.0,0.342,1.0,1.0
ckcmgqmyrb64e0f49hqcbdc3,44,2,2.0,39.0,0.324,1.0,1.0
ckcmgqmyrb64e0f49hqcbdc3,45,2,2.0,39.0,0.355,1.0,1.0
ckcmgqmyrb64e0f49hqcbdc3,46,0,2.0,39.0,0.349,0.0,1.0
ckcmgqmyrb64e0f49hqcbdc3,47,0,2.0,39.0,0.496,0.0,0.0
ckcmgqmyrb64e0f49hqcbdc3,48,0,2.0,39.0,1.065,0.0,0.0
ckcmgqmyrb64e0f49hqcbdc3,49,0,0.0,37.0,0.548,1.0,1.0
ckcmgqmyrb64e0f49hqcbdc3,50,0,0.0,37.0,0.332,1.0,1.0
ckcmgqmyrb64e0f49hqcbdc3,51,0,0.0,37.0,0.314,1.0,1.0
ckcmgqmyrb64e0f49hqcbdc3,52,0,0.0,37.0,0.075,1.0,1.0
ckcmgqmyrb64e0f49hqcbdc3,53,0,0.0,37.0,0.683,1.0,1.0
ckcmgqmyrb64e0f49hqcbdc3,54,0,0.0,37.0,1.844,1.0,1.0
ckcmgqmyrb64e0f49hqcbdc3,55,0,0.0,37.0,0.381,1.0,1.0
ckcmgqmyrb64e0f49hqcbdc3,56,0,0.0,37.0,0.3,1.0,1.0
ckcmgqmyrb64e0f49hqcbdc3,57,0,0.0,37.0,0.387,1.0,1.0
ckcmgqmyrb64e0f49hqcbdc3,58,0,0.0,37.0,0.395,1.0,1.0
ckcmgqmyrb64e0f49hqcbdc3,59,0,0.0,37.0,3.517,1.0,0.0
ckcmgqmyrb64e0f49hqcbdc3,60,0,0.0,37.0,0.468,1.0,1.0
ckcmgqmyrb64e0f49hqcbdc3,61,2,0.0,37.0,0.261,0.0,0.0
ckcmgqmyrb64e0f49hqcbdc3,62,2,1.0,38.0,0.269,0.0,1.0
ckcmgqmyrb64e0f49hqcbdc3,63,2,1.0,38.0,0.298,0.0,0.0
ckcmgqmyrb64e0f49hqcbdc3,64,2,2.0,39.0,0.421,1.0,1.0
ckcmgqmyrb64e0f49hqcbdc3,65,2,2.0,39.0,0.317,1.0,1.0
ckcmgqmyrb64e0f49hqcbdc3,66,2,2.0,39.0,0.334,1.0,1.0
ckcmgqmyrb64e0f49hqcbdc3,67,2,2.0,39.0,0.265,1.0,1.0
ckcmgqmyrb64e0f49hqcbdc3,68,2,2.0,39.0,0.333,1.0,1.0
ckcmgqmyrb64e0f49hqcbdc3,69,2,2.0,39.0,0.276,1.0,1.0
ckcmgqmyrb64e0f49hqcbdc3,70,2,2.0,39.0,0.479,1.0,1.0
ckcmgqmyrb64e0f49hqcbdc3,71,2,2.0,39.0,0.282,1.0,1.0
ckcmgqmyrb64e0f49hqcbdc3,72,2,2.0,39.0,0.253,1.0,0.0
ckcmgqmyrb64e0f49hqcbdc3,73,2,0.0,37.0,0.506,0.0,1.0
ckcmgqmyrb64e0f49hqcbdc3,74,2,0.0,37.0,0.466,0.0,0.0
ckcmgqmyrb64e0f49hqcbdc3,75,2,1.0,38.0,0.34,0.0,0.0
ckcmgqmyrb64e0f49hqcbdc3,76,1,1.0,38.0,0.404,1.0,0.0
ckcmgqmyrb64e0f49hqcbdc3,77,1,2.0,39.0,0.323,0.0,0.0
ckcmgqmyrb64e0f49hqcbdc3,78,1,2.0,39.0,0.294,0.0,1.0
ckcmgqmyrb64e0f49hqcbdc3,79,1,2.0,39.0,0.339,0.0,0.0
ckcmgqmyrb64e0f49hqcbdc3,80,1,0.0,37.0,0.306,0.0,0.0
ckcmgqmyrb64e0f49hqcbdc3,81,1,0.0,37.0,0.309,0.0,0.0
ckcmgqmyrb64e0f49hqcbdc3,82,1,0.0,37.0,0.346,0.0,0.0
ckcmgqmyrb64e0f49hqcbdc3,83,1,0.0,37.0,0.364,0.0,0.0
ckcmgqmyrb64e0f49hqcbdc3,84,1,1.0,38.0,0.295,1.0,1.0
ckcmgqmyrb64e0f49hqcbdc3,85,1,1.0,38.0,0.306,1.0,1.0
ckcmgqmyrb64e0f49hqcbdc3,86,1,1.0,38.0,0.355,1.0,1.0
ckcmgqmyrb64e0f49hqcbdc3,87,1,1.0,38.0,0.327,1.0,1.0
ckcmgqmyrb64e0f49hqcbdc3,88,1,1.0,38.0,0.722,1.0,0.0
ckcmgqmyrb64e0f49hqcbdc3,89,1,1.0,38.0,0.314,1.0,1.0
ckcmgqmyrb64e0f49hqcbdc3,90,1,1.0,38.0,0.317,1.0,1.0
fjhbgbguv0247wdphahnk6jt,1,0,0.0,37.0,4.769,1.0,1.0
fjhbgbguv0247wdphahnk6jt,2,0,2.0,39.0,0.523,0.0,0.0
fjhbgbguv0247wdphahnk6jt,3,0,1.0,38.0,0.502,0.0,1.0
fjhbgbguv0247wdphahnk6jt,4,0,1.0,38.0,0.65,0.0,1.0
fjhbgbguv0247wdphahnk6jt,5,0,1.0,38.0,0.524,0.0,0.0
fjhbgbguv0247wdphahnk6jt,6,0,1.0,38.0,0.354,0.0,0.0
fjhbgbguv0247wdphahnk6jt,7,0,0.0,37.0,0.307,1.0,1.0
fjhbgbguv0247wdphahnk6jt,8,0,2.0,39.0,0.348,0.0,1.0
fjhbgbguv0247wdphahnk6jt,9,0,0.0,37.0,0.923,1.0,1.0
fjhbgbguv0247wdphahnk6jt,10,0,1.0,38.0,0.561,0.0,0.0
fjhbgbguv0247wdphahnk6jt,11,0,0.0,37.0,0.544,1.0,0.0
fjhbgbguv0247wdphahnk6jt,12,0,2.0,39.0,0.842,0.0,0.0
fjhbgbguv0247wdphahnk6jt,13,0,2.0,39.0,0.354,0.0,1.0
fjhbgbguv0247wdphahnk6jt,14,0,2.0,39.0,0.677,0.0,0.0
fjhbgbguv0247wdphahnk6jt,15,0,2.0,39.0,0.683,0.0,0.0
fjhbgbguv0247wdphahnk6jt,16,2,0.0,37.0,0.002,0.0,1.0
fjhbgbguv0247wdphahnk6jt,17,2,0.0,37.0,1.003,0.0,0.0
fjhbgbguv0247wdphahnk6jt,18,2,1.0,38.0,0.503,0.0,0.0
fjhbgbguv0247wdphahnk6jt,19,2,0.0,37.0,0.438,0.0,1.0
fjhbgbguv0247wdphahnk6jt,20,2,0.0,37.0,0.638,0.0,0.0
fjhbgbguv0247wdphahnk6jt,21,2,2.0,39.0,0.277,1.0,1.0
fjhbgbguv0247wdphahnk6jt,22,2,1.0,38.0,0.554,0.0,0.0
fjhbgbguv0247wdphahnk6jt,23,2,2.0,39.0,0.337,1.0,1.0
fjhbgbguv0247wdphahnk6jt,24,2,2.0,39.0,0.822,1.0,1.0
fjhbgbguv0247wdphahnk6jt,25,2,0.0,37.0,0.92,0.0,0.0
fjhbgbguv0247wdphahnk6jt,26,2,2.0,39.0,2.201,1.0,1.0
fjhbgbguv0247wdphahnk6jt,27,2,0.0,37.0,1.616,0.0,1.0
fjhbgbguv0247wdphahnk6jt,28,2,0.0,37.0,2.306,0.0,1.0
fjhbgbguv0247wdphahnk6jt,29,2,1.0,38.0,1.992,0.0,0.0
fjhbgbguv0247wdphahnk6jt,30,2,0.0,37.0,1.289,0.0,0.0
fjhbgbguv0247wdphahnk6jt,31,1,0.0,37.0,1.218,0.0,1.0
fjhbgbguv0247wdphahnk6jt,32,1,1.0,38.0,0.501,1.0,1.0
fjhbgbguv0247wdphahnk6jt,33,1,2.0,39.0,0.753,0.0,0.0
fjhbgbguv0247wdphahnk6jt,34,1,2.0,39.0,0.36,0.0,0.0
fjhbgbguv0247wdphahnk6jt,35,1,1.0,38.0,0.024,1.0,1.0
fjhbgbguv0247wdphahnk6jt,36,1,1.0,38.0,0.56,1.0,1.0
fjhbgbguv0247wdphahnk6jt,37,1,1.0,38.0,0.618,1.0,1.0
fjhbgbguv0247wdphahnk6jt,38,1,1.0,38.0,0.796,1.0,1.0
fjhbgbguv0247wdphahnk6jt,39,1,1.0,38.0,0.859,1.0,0.0
fjhbgbguv0247wdphahnk6jt,40,1,0.0,37.0,0.063,0.0,0.0
fjhbgbguv0247wdphahnk6jt,41,1,0.0,37.0,0.793,0.0,1.0
fjhbgbguv0247wdphahnk6jt,42,1,0.0,37.0,0.339,0.0,0.0
fjhbgbguv0247wdphahnk6jt,43,1,0.0,37.0,0.345,0.0,0.0
fjhbgbguv0247wdphahnk6jt,44,1,2.0,39.0,0.562,0.0,0.0
fjhbgbguv0247wdphahnk6jt,45,1,2.0,39.0,0.575,0.0,0.0
fjhbgbguv0247wdphahnk6jt,46,0,2.0,39.0,0.805,0.0,1.0
fjhbgbguv0247wdphahnk6jt,47,0,2.0,39.0,1.383,0.0,1.0
fjhbgbguv0247wdphahnk6jt,48,0,0.0,37.0,0.729,1.0,1.0
fjhbgbguv0247wdphahnk6jt,49,0,0.0,37.0,1.614,1.0,1.0
fjhbgbguv0247wdphahnk6jt,50,0,1.0,38.0,1.198,0.0,0.0
fjhbgbguv0247wdphahnk6jt,51,0,0.0,37.0,0.473,1.0,1.0
fjhbgbguv0247wdphahnk6jt,52,0,0.0,37.0,0.46,1.0,1.0
fjhbgbguv0247wdphahnk6jt,53,0,0.0,37.0,2.239,1.0,1.0
fjhbgbguv0247wdphahnk6jt,54,0,0.0,37.0,0.588,1.0,1.0
fjhbgbguv0247wdphahnk6jt,55,0,0.0,37.0,1.208,1.0,1.0
fjhbgbguv0247wdphahnk6jt,56,0,2.0,39.0,0.937,0.0,0.0
fjhbgbguv0247wdphahnk6jt,57,0,0.0,37.0,0.224,1.0,1.0
fjhbgbguv0247wdphahnk6jt,58,0,0.0,37.0,0.4,1.0,1.0
fjhbgbguv0247wdphahnk6jt,59,0,0.0,37.0,0.385,1.0,1.0
fjhbgbguv0247wdphahnk6jt,60,0,0.0,37.0,0.304,1.0,1.0
fjhbgbguv0247wdphahnk6jt,61,2,0.0,37.0,0.364,0.0,0.0
fjhbgbguv0247wdphahnk6jt,62,2,2.0,39.0,0.21,1.0,1.0
fjhbgbguv0247wdphahnk6jt,63,2,2.0,39.0,0.396,1.0,1.0
fjhbgbguv0247wdphahnk6jt,64,2,0.0,37.0,0.532,0.0,0.0
fjhbgbguv0247wdphahnk6jt,65,2,1.0,38.0,0.166,0.0,1.0
fjhbgbguv0247wdphahnk6jt,66,2,2.0,39.0,0.368,1.0,1.0
fjhbgbguv0247wdphahnk6jt,67,2,1.0,38.0,0.324,0.0,0.0
fjhbgbguv0247wdphahnk6jt,68,2,2.0,39.0,0.13,1.0,1.0
fjhbgbguv0247wdphahnk6jt,69,2,2.0,39.0,0.352,1.0,0.0
fjhbgbguv0247wdphahnk6jt,70,2,1.0,38.0,0.36,0.0,1.0
fjhbgbguv0247wdphahnk6jt,71,2,1.0,38.0,0.191,0.0,0.0
fjhbgbguv0247wdphahnk6jt,72,2,2.0,39.0,0.217,1.0,1.0
fjhbgbguv0247wdphahnk6jt,73,2,2.0,39.0,0.461,1.0,1.0
fjhbgbguv0247wdphahnk6jt,74,2,2.0,39.0,0.321,1.0,1.0
fjhbgbguv0247wdphahnk6jt,75,2,2.0,39.0,0.365,1.0,1.0
fjhbgbguv0247wdphahnk6jt,76,0,0.0,37.0,0.36,1.0,1.0
fjhbgbguv0247wdphahnk6jt,77,0,0.0,37.0,0.358,1.0,0.0
fjhbgbguv0247wdphahnk6jt,78,0,0.0,37.0,0.312,1.0,0.0
fjhbgbguv0247wdphahnk6jt,79,0,0.0,37.0,0.294,1.0,1.0
fjhbgbguv0247wdphahnk6jt,80,0,0.0,37.0,0.332,1.0,1.0
fjhbgbguv0247wdphahnk6jt,81,0,1.0,38.0,0.13,0.0,1.0
fjhbgbguv0247wdphahnk6jt,82,0,1.0,38.0,0.43,0.0,1.0
fjhbgbguv0247wdphahnk6jt,83,0,1.0,38.0,0.32,0.0,0.0
fjhbgbguv0247wdphahnk6jt,84,0,2.0,39.0,0.521,0.0,0.0
fjhbgbguv0247wdphahnk6jt,85,0,2.0,39.0,0.343,0.0,0.0
fjhbgbguv0247wdphahnk6jt,86,0,0.0,37.0,0.085,1.0,0.0
fjhbgbguv0247wdphahnk6jt,87,0,0.0,37.0,0.654,1.0,0.0
fjhbgbguv0247wdphahnk6jt,88,0,0.0,37.0,0.41,1.0,1.0
fjhbgbguv0247wdphahnk6jt,89,0,0.0,37.0,0.327,1.0,1.0
fjhbgbguv0247wdphahnk6jt,90,0,0.0,37.0,0.544,1.0,1.0
j8go7oms3ckvw9a11zbo497i,1,2,1.0,38.0,1.816,0.0,0.0
j8go7oms3ckvw9a11zbo497i,2,2,0.0,37.0,0.93,0.0,1.0
j8go7oms3ckvw9a11zbo497i,3,2,2.0,39.0,0.787,1.0,1.0
j8go7oms3ckvw9a11zbo497i,4,2,0.0,37.0,0.782,0.0,0.0
j8go7oms3ckvw9a11zbo497i,5,2,2.0,39.0,0.96,1.0,0.0
j8go7oms3ckvw9a11zbo497i,6,2,1.0,38.0,0.715,0.0,0.0
j8go7oms3ckvw9a11zbo497i,7,2,0.0,37.0,0.598,0.0,0.0
j8go7oms3ckvw9a11zbo497i,8,2,2.0,39.0,0.6,1.0,1.0
j8go7oms3ckvw9a11zbo497i,9,2,2.0,39.0,0.637,1.0,1.0
j8go7oms3ckvw9a11zbo497i,10,2,2.0,39.0,0.894,1.0,1.0
j8go7oms3ckvw9a11zbo497i,11,2,2.0,39.0,0.8,1.0,1.0
j8go7oms3ckvw9a11zbo497i,12,2,2.0,39.0,0.73,1.0,0.0
j8go7oms3ckvw9a11zbo497i,13,2,0.0,37.0,0.398,0.0,0.0
j8go7oms3ckvw9a11zbo497i,14,2,1.0,38.0,0.381,0.0,0.0
j8go7oms3ckvw9a11zbo497i,15,2,2.0,39.0,0.335,1.0,1.0
j8go7oms3ckvw9a11zbo497i,16,0,2.0,39.0,0.344,0.0,0.0
j8go7oms3ckvw9a11zbo497i,17,0,0.0,37.0,0.361,1.0,1.0
j8go7oms3ckvw9a11zbo497i,18,0,0.0,37.0,0.416,1.0,1.0
j8go7oms3ckvw9a11zbo497i,19,0,0.0,37.0,0.494,1.0,0.0
j8go7oms3ckvw9a11zbo497i,20,0,1.0,38.0,0.385,0.0,0.0
j8go7oms3ckvw9a11zbo497i,21,0,1.0,38.0,0.421,0.0,0.0
j8go7oms3ckvw9a11zbo497i,22,0,2.0,39.0,0.441,0.0,0.0
j8go7oms3ckvw9a11zbo497i,23,0,2.0,39.0,0.517,0.0,0.0
j8go7oms3ckvw9a11zbo497i,24,0,0.0,37.0,0.367,1.0,1.0
j8go7oms3ckvw9a11zbo497i,25,0,0.0,37.0,0.457,1.0,1.0
j8go7oms3ckvw9a11zbo497i,26,0,0.0,37.0,0.649,1.0,1.0
j8go7oms3ckvw9a11zbo497i,27,0,0.0,37.0,0.66,1.0,1.0
j8go7oms3ckvw9a11zbo497i,28,0,0.0,37.0,0.54,1.0,1.0
j8go7oms3ckvw9a11zbo497i,29,0,0.0,37.0,0.73,1.0,1.0
j8go7oms3ckvw9a11zbo497i,30,0,0.0,37.0,0.694,1.0,1.0
j8go7oms3ckvw9a11zbo497i,31,1,0.0,37.0,0.763,0.0,1.0
j8go7oms3ckvw9a11zbo497i,32,1,0.0,37.0,0.859,0.0,0.0
j8go7oms3ckvw9a11zbo497i,33,1,2.0,39.0,0.667,0.0,0.0
j8go7oms3ckvw9a11zbo497i,34,1,1.0,38.0,0.391,1.0,1.0
j8go7oms3ckvw9a11zbo497i,35,1,1.0,38.0,0.881,1.0,1.0
j8go7oms3ckvw9a11zbo497i,36,1,1.0,38.0,0.805,1.0,1.0
j8go7oms3ckvw9a11zbo497i,37,1,1.0,38.0,0.766,1.0,1.0
j8go7oms3ckvw9a11zbo497i,38,1,1.0,38.0,0.64,1.0,0.0
j8go7oms3ckvw9a11zbo497i,39,1,2.0,39.0,0.412,0.0,0.0
j8go7oms3ckvw9a11zbo497i,40,1,2.0,39.0,0.498,0.0,0.0
j8go7oms3ckvw9a11zbo497i,41,1,0.0,37.0,0.311,0.0,0.0
j8go7oms3ckvw9a11zbo497i,42,1,1.0,38.0,0.376,1.0,0.0
j8go7oms3ckvw9a11zbo497i,43,1,1.0,38.0,0.479,1.0,1.0
j8go7oms3ckvw9a11zbo497i,44,1,1.0,38.0,0.523,1.0,1.0
j8go7oms3ckvw9a11zbo497i,45,1,1.0,38.0,0.649,1.0,0.0
j8go7oms3ckvw9a11zbo497i,46,2,2.0,39.0,0.385,1.0,1.0
j8go7oms3ckvw9a11zbo497i,47,2,2.0,39.0,0.612,1.0,1.0
j8go7oms3ckvw9a11zbo497i,48,2,2.0,39.0,0.494,1.0,1.0
j8go7oms3ckvw9a11zbo497i,49,2,2.0,39.0,0.411,1.0,1.0
j8go7oms3ckvw9a11zbo497i,50,2,2.0,39.0,0.348,1.0,1.0
j8go7oms3ckvw9a11zbo497i,51,2,2.0,39.0,0.447,1.0,1.0
j8go7oms3ckvw9a11zbo497i,52,2,2.0,39.0,0.62,1.0,1.0
j8go7oms3ckvw9a11zbo497i,53,2,2.0,39.0,0.634,1.0,1.0
j8go7oms3ckvw9a11zbo497i,54,2,2.0,39.0,2.166,1.0,1.0
j8go7oms3ckvw9a11zbo497i,55,2,2.0,39.0,0.763,1.0,1.0
j8go7oms3ckvw9a11zbo497i,56,2,2.0,39.0,0.754,1.0,1.0
j8go7oms3ckvw9a11zbo497i,57,2,2.0,39.0,0.721,1.0,1.0
j8go7oms3ckvw9a11zbo497i,58,2,2.0,39.0,0.979,1.0,1.0
j8go7oms3ckvw9a11zbo497i,59,2,2.0,39.0,0.782,1.0,1.0
j8go7oms3ckvw9a11zbo497i,60,2,2.0,39.0,0.426,1.0,1.0
j8go7oms3ckvw9a11zbo497i,61,0,2.0,39.0,0.541,0.0,0.0
j8go7oms3ckvw9a11zbo497i,62,0,0.0,37.0,1.722,1.0,1.0
j8go7oms3ckvw9a11zbo497i,63,0,0.0,37.0,0.47,1.0,1.0
j8go7oms3ckvw9a11zbo497i,64,0,0.0,37.0,0.64,1.0,1.0
j8go7oms3ckvw9a11zbo497i,65,0,0.0,37.0,0.403,1.0,1.0
j8go7oms3ckvw9a11zbo497i,66,0,0.0,37.0,0.776,1.0,1.0
j8go7oms3ckvw9a11zbo497i,67,0,0.0,37.0,0.575,1.0,1.0
j8go7oms3ckvw9a11zbo497i,68,0,0.0,37.0,1.15,1.0,1.0
j8go7oms3ckvw9a11zbo497i,69,0,0.0,37.0,0.676,1.0,0.0
j8go7oms3ckvw9a11zbo497i,70,0,1.0,38.0,0.424,0.0,0.0
j8go7oms3ckvw9a11zbo497i,71,0,1.0,38.0,0.455,0.0,1.0
j8go7oms3ckvw9a11zbo497i,72,0,1.0,38.0,0.621,0.0,1.0
j8go7oms3ckvw9a11zbo497i,73,0,1.0,38.0,0.944,0.0,0.0
j8go7oms3ckvw9a11zbo497i,74,0,2.0,39.0,0.4,0.0,1.0
j8go7oms3ckvw9a11zbo497i,75,0,2.0,39.0,0.422,0.0,0.0
j8go7oms3ckvw9a11zbo497i,76,2,2.0,39.0,0.459,1.0,0.0
j8go7oms3ckvw9a11zbo497i,77,2,0.0,37.0,0.532,0.0,0.0
j8go7oms3ckvw9a11zbo497i,78,2,0.0,37.0,0.578,0.0,0.0
j8go7oms3ckvw9a11zbo497i,79,2,1.0,38.0,0.341,0.0,0.0
j8go7oms3ckvw9a11zbo497i,80,2,1.0,38.0,0.437,0.0,0.0
j8go7oms3ckvw9a11zbo497i,81,2,2.0,39.0,0.662,1.0,1.0
j8go7oms3ckvw9a11zbo497i,82,2,2.0,39.0,0.343,1.0,1.0
j8go7oms3ckvw9a11zbo497i,83,2,2.0,39.0,0.556,1.0,1.0
j8go7oms3ckvw9a11zbo497i,84,2,2.0,39.0,0.696,1.0,1.0
j8go7oms3ckvw9a11zbo497i,85,2,2.0,39.0,0.496,1.0,1.0
j8go7oms3ckvw9a11zbo497i,86,2,2.0,39.0,0.58,1.0,1.0
j8go7oms3ckvw9a11zbo497i,87,2,2.0,39.0,0.566,1.0,1.0
j8go7oms3ckvw9a11zbo497i,88,2,2.0,39.0,0.573,1.0,0.0
j8go7oms3ckvw9a11zbo497i,89,2,2.0,39.0,0.554,1.0,1.0
j8go7oms3ckvw9a11zbo497i,90,2,2.0,39.0,0.771,1.0,0.0
t2stcn7cccqw74vt984y53xy,1,1,0.0,37.0,5.305,0.0,0.0
t2stcn7cccqw74vt984y53xy,2,1,1.0,38.0,1.67,1.0,1.0
t2stcn7cccqw74vt984y53xy,3,1,1.0,38.0,2.897,1.0,1.0
t2stcn7cccqw74vt984y53xy,4,1,1.0,38.0,3.592,1.0,1.0
t2stcn7cccqw74vt984y53xy,5,1,1.0,38.0,1.735,1.0,0.0
t2stcn7cccqw74vt984y53xy,6,1,2.0,39.0,0.452,0.0,0.0
t2stcn7cccqw74vt984y53xy,7,1,0.0,37.0,0.809,0.0,0.0
t2stcn7cccqw74vt984y53xy,8,1,1.0,38.0,0.386,1.0,1.0
t2stcn7cccqw74vt984y53xy,9,1,1.0,38.0,1.537,1.0,1.0
t2stcn7cccqw74vt984y53xy,10,1,1.0,38.0,0.446,1.0,1.0
t2stcn7cccqw74vt984y53xy,11,1,1.0,38.0,0.287,1.0,1.0
t2stcn7cccqw74vt984y53xy,12,1,1.0,38.0,0.39,1.0,1.0
t2stcn7cccqw74vt984y53xy,13,1,1.0,38.0,0.32,1.0,1.0
t2stcn7cccqw74vt984y53xy,14,1,1.0,38.0,0.604,1.0,0.0
t2stcn7cccqw74vt984y53xy,15,1,1.0,38.0,0.994,1.0,1.0
t2stcn7cccqw74vt984y53xy,16,0,1.0,38.0,0.343,0.0,0.0
t2stcn7cccqw74vt984y53xy,17,0,2.0,39.0,0.327,0.0,1.0
t2stcn7cccqw74vt984y53xy,18,0,2.0,39.0,0.356,0.0,0.0
t2stcn7cccqw74vt984y53xy,19,0,2.0,39.0,0.325,0.0,0.0
t2stcn7cccqw74vt984y53xy,20,0,1.0,38.0,0.314,0.0,0.0
t2stcn7cccqw74vt984y53xy,21,0,0.0,37.0,0.233,1.0,0.0
t2stcn7cccqw74vt984y53xy,22,0,2.0,39.0,0.352,0.0,1.0
t2stcn7cccqw74vt984y53xy,23,0,2.0,39.0,0.342,0.0,1.0
t2stcn7cccqw74vt984y53xy,24,0,2.0,39.0,0.215,0.0,0.0
t2stcn7cccqw74vt984y53xy,25,0,1.0,38.0,0.052,0.0,0.0
t2stcn7cccqw74vt984y53xy,26,0,0.0,37.0,0.335,1.0,1.0
t2stcn7cccqw74vt984y53xy,27,0,0.0,37.0,0.147,1.0,1.0
t2stcn7cccqw74vt984y53xy,28,0,0.0,37.0,0.244,1.0,1.0
t2stcn7cccqw74vt984y53xy,29,0,0.0,37.0,0.1,1.0,1.0
t2stcn7cccqw74vt984y53xy,30,0,0.0,37.0,0.114,1.0,1.0
t2stcn7cccqw74vt984y53xy,31,2,0.0,37.0,0.117,0.0,1.0
t2stcn7cccqw74vt984y53xy,32,2,0.0,37.0,0.032,0.0,0.0
t2stcn7cccqw74vt984y53xy,33,2,2.0,39.0,0.04,1.0,1.0
t2stcn7cccqw74vt984y53xy,34,2,2.0,39.0,0.034,1.0,1.0
t2stcn7cccqw74vt984y53xy,35,2,2.0,39.0,0.056,1.0,0.0
t2stcn7cccqw74vt984y53xy,36,2,1.0,38.0,0.096,0.0,0.0
t2stcn7cccqw74vt984y53xy,37,2,0.0,37.0,0.115,0.0,0.0
t2stcn7cccqw74vt984y53xy,38,2,2.0,39.0,0.049,1.0,1.0
t2stcn7cccqw74vt984y53xy,39,2,2.0,39.0,0.043,1.0,0.0
t2stcn7cccqw74vt984y53xy,40,2,2.0,39.0,0.414,1.0,1.0
t2stcn7cccqw74vt984y53xy,41,2,2.0,39.0,0.431,1.0,1.0
t2stcn7cccqw74vt984y53xy,42,2,2.0,39.0,0.324,1.0,1.0
t2stcn7cccqw74vt984y53xy,43,2,2.0,39.0,0.235,1.0,1.0
t2stcn7cccqw74vt984y53xy,44,2,2.0,39.0,0.126,1.0,0.0
t2stcn7cccqw74vt984y53xy,45,2,1.0,38.0,0.454,0.0,0.0
t2stcn7cccqw74vt984y53xy,46,1,0.0,37.0,0.055,0.0,1.0
t2stcn7cccqw74vt984y53xy,47,1,0.0,37.0,0.259,0.0,0.0
t2stcn7cccqw74vt984y53xy,48,1,0.0,37.0,0.295,0.0,0.0
t2stcn7cccqw74vt984y53xy,49,1,2.0,39.0,0.161,0.0,0.0
t2stcn7cccqw74vt984y53xy,50,1,2.0,39.0,0.334,0.0,0.0
t2stcn7cccqw74vt984y53xy,51,1,1.0,38.0,0.005,1.0,0.0
t2stcn7cccqw74vt984y53xy,52,1,1.0,38.0,0.053,1.0,1.0
t2stcn7cccqw74vt984y53xy,53,1,1.0,38.0,0.051,1.0,1.0
t2stcn7cccqw74vt984y53xy,54,1,1.0,38.0,0.051,1.0,1.0
t2stcn7cccqw74vt984y53xy,55,1,1.0,38.0,0.107,1.0,1.0
t2stcn7cccqw74vt984y53xy,56,1,1.0,38.0,0.15,1.0,1.0
t2stcn7cccqw74vt984y53xy,57,1,1.0,38.0,0.058,1.0,1.0
t2stcn7cccqw74vt984y53xy,58,1,1.0,38.0,0.134,1.0,1.0
t2stcn7cccqw74vt984y53xy,59,1,1.0,38.0,0.061,1.0,1.0
t2stcn7cccqw74vt984y53xy,60,1,1.0,38.0,0.096,1.0,1.0
t2stcn7cccqw74vt984y53xy,61,2,1.0,38.0,0.184,0.0,1.0
t2stcn7cccqw74vt984y53xy,62,2,1.0,38.0,0.386,0.0,0.0
t2stcn7cccqw74vt984y53xy,63,2,1.0,38.0,0.419,0.0,0.0
t2stcn7cccqw74vt984y53xy,64,2,0.0,37.0,0.061,0.0,1.0
t2stcn7cccqw74vt984y53xy,65,2,0.0,37.0,0.106,0.0,0.0
t2stcn7cccqw74vt984y53xy,66,2,0.0,37.0,0.155,0.0,1.0
t2stcn7cccqw74vt984y53xy,67,2,0.0,37.0,0.099,0.0,0.0
t2stcn7cccqw74vt984y53xy,68,2,0.0,37.0,0.128,0.0,0.0
t2stcn7cccqw74vt984y53xy,69,2,2.0,39.0,0.069,1.0,1.0
t2stcn7cccqw74vt984y53xy,70,2,2.0,39.0,0.248,1.0,1.0
t2stcn7cccqw74vt984y53xy,71,2,2.0,39.0,0.197,1.0,1.0
t2stcn7cccqw74vt984y53xy,72,2,2.0,39.0,0.041,1.0,0.0
t2stcn7cccqw74vt984y53xy,73,2,2.0,39.0,0.031,1.0,1.0
t2stcn7cccqw74vt984y53xy,74,2,2.0,39.0,0.036,1.0,1.0
t2stcn7cccqw74vt984y53xy,75,2,2.0,39.0,0.304,1.0,0.0
t2stcn7cccqw74vt984y53xy,76,0,2.0,39.0,0.261,0.0,0.0
t2stcn7cccqw74vt984y53xy,77,0,1.0,38.0,0.197,0.0,0.0
t2stcn7cccqw74vt984y53xy,78,0,0.0,37.0,0.053,1.0,1.0
t2stcn7cccqw74vt984y53xy,79,0,0.0,37.0,0.088,1.0,0.0
t2stcn7cccqw74vt984y53xy,80,0,0.0,37.0,0.11,1.0,1.0
t2stcn7cccqw74vt984y53xy,81,0,0.0,37.0,0.151,1.0,1.0
t2stcn7cccqw74vt984y53xy,82,0,0.0,37.0,0.056,1.0,1.0
t2stcn7cccqw74vt984y53xy,83,0,0.0,37.0,0.043,1.0,1.0
t2stcn7cccqw74vt984y53xy,84,0,0.0,37.0,0.09,1.0,1.0
t2stcn7cccqw74vt984y53xy,85,0,0.0,37.0,0.106,1.0,0.0
t2stcn7cccqw74vt984y53xy,86,0,0.0,37.0,0.037,1.0,0.0
t2stcn7cccqw74vt984y53xy,87,0,0.0,37.0,0.513,1.0,1.0
t2stcn7cccqw74vt984y53xy,88,0,0.0,37.0,0.458,1.0,0.0
t2stcn7cccqw74vt984y53xy,89,0,0.0,37.0,0.268,1.0,0.0
t2stcn7cccqw74vt984y53xy,90,0,2.0,39.0,0.106,0.0,0.0
w28986h9l9usezrw9spaop8q,1,2,0.0,37.0,1.05,0.0,1.0
w28986h9l9usezrw9spaop8q,2,2,2.0,39.0,0.449,1.0,0.0
w28986h9l9usezrw9spaop8q,3,2,0.0,37.0,0.465,0.0,0.0
w28986h9l9usezrw9spaop8q,4,2,0.0,37.0,0.292,0.0,0.0
w28986h9l9usezrw9spaop8q,5,2,2.0,39.0,0.252,1.0,0.0
w28986h9l9usezrw9spaop8q,6,2,1.0,38.0,0.001,0.0,0.0
w28986h9l9usezrw9spaop8q,7,2,1.0,38.0,0.239,0.0,0.0
w28986h9l9usezrw9spaop8q,8,2,1.0,38.0,0.259,0.0,0.0
w28986h9l9usezrw9spaop8q,9,2,0.0,37.0,0.107,0.0,1.0
w28986h9l9usezrw9spaop8q,10,2,1.0,38.0,0.118,0.0,0.0
w28986h9l9usezrw9spaop8q,11,2,1.0,38.0,0.242,0.0,1.0
w28986h9l9usezrw9spaop8q,12,2,1.0,38.0,0.288,0.0,0.0
w28986h9l9usezrw9spaop8q,13,2,0.0,37.0,0.263,0.0,0.0
w28986h9l9usezrw9spaop8q,14,2,2.0,39.0,0.05,1.0,1.0
w28986h9l9usezrw9spaop8q,15,2,2.0,39.0,0.295,1.0,1.0
w28986h9l9usezrw9spaop8q,16,0,1.0,38.0,0.561,0.0,1.0
w28986h9l9usezrw9spaop8q,17,0,2.0,39.0,0.184,0.0,0.0
w28986h9l9usezrw9spaop8q,18,0,0.0,37.0,0.261,1.0,0.0
w28986h9l9usezrw9spaop8q,19,0,1.0,38.0,0.022,0.0,1.0
w28986h9l9usezrw9spaop8q,20,0,1.0,38.0,0.387,0.0,0.0
w28986h9l9usezrw9spaop8q,21,0,2.0,39.0,0.079,0.0,0.0
w28986h9l9usezrw9spaop8q,22,0,0.0,37.0,0.062,1.0,0.0
w28986h9l9usezrw9spaop8q,23,0,2.0,39.0,0.192,0.0,0.0
w28986h9l9usezrw9spaop8q,24,0,0.0,37.0,0.051,1.0,1.0
w28986h9l9usezrw9spaop8q,25,0,0.0,37.0,0.389,1.0,0.0
w28986h9l9usezrw9spaop8q,26,0,1.0,38.0,0.222,0.0,0.0
w28986h9l9usezrw9spaop8q,27,0,2.0,39.0,0.174,0.0,0.0
w28986h9l9usezrw9spaop8q,28,0,2.0,39.0,0.051,0.0,1.0
w28986h9l9usezrw9spaop8q,29,0,2.0,39.0,0.057,0.0,0.0
w28986h9l9usezrw9spaop8q,30,0,0.0,37.0,0.072,1.0,1.0
w28986h9l9usezrw9spaop8q,31,2,0.0,37.0,0.021,0.0,0.0
w28986h9l9usezrw9spaop8q,32,2,0.0,37.0,0.249,0.0,0.0
w28986h9l9usezrw9spaop8q,33,2,1.0,38.0,0.101,0.0,0.0
w28986h9l9usezrw9spaop8q,34,2,1.0,38.0,0.001,0.0,1.0
w28986h9l9usezrw9spaop8q,35,2,2.0,39.0,0.1,1.0,1.0
w28986h9l9usezrw9spaop8q,36,2,2.0,39.0,0.385,1.0,1.0
w28986h9l9usezrw9spaop8q,37,2,2.0,39.0,0.436,1.0,1.0
w28986h9l9usezrw9spaop8q,38,2,2.0,39.0,0.33,1.0,1.0
w28986h9l9usezrw9spaop8q,39,2,2.0,39.0,0.315,1.0,0.0
w28986h9l9usezrw9spaop8q,40,2,0.0,37.0,0.191,0.0,0.0
w28986h9l9usezrw9spaop8q,41,2,1.0,38.0,0.041,0.0,0.0
w28986h9l9usezrw9spaop8q,42,2,0.0,37.0,0.174,0.0,1.0
w28986h9l9usezrw9spaop8q,43,2,0.0,37.0,0.277,0.0,0.0
w28986h9l9usezrw9spaop8q,44,2,0.0,37.0,0.23,0.0,0.0
w28986h9l9usezrw9spaop8q,45,2,0.0,37.0,0.074,0.0,1.0
w28986h9l9usezrw9spaop8q,46,1,0.0,37.0,0.119,0.0,1.0
w28986h9l9usezrw9spaop8q,47,1,0.0,37.0,0.033,0.0,0.0
w28986h9l9usezrw9spaop8q,48,1,2.0,39.0,0.129,0.0,0.0
w28986h9l9usezrw9spaop8q,49,1,2.0,39.0,0.4,0.0,0.0
w28986h9l9usezrw9spaop8q,50,1,1.0,38.0,0.108,1.0,0.0
w28986h9l9usezrw9spaop8q,51,1,1.0,38.0,0.139,1.0,1.0
w28986h9l9usezrw9spaop8q,52,1,1.0,38.0,0.195,1.0,0.0
w28986h9l9usezrw9spaop8q,53,1,1.0,38.0,0.224,1.0,1.0
w28986h9l9usezrw9spaop8q,54,1,1.0,38.0,0.134,1.0,0.0
w28986h9l9usezrw9spaop8q,55,1,1.0,38.0,0.165,1.0,0.0
w28986h9l9usezrw9spaop8q,56,1,1.0,38.0,0.088,1.0,1.0
w28986h9l9usezrw9spaop8q,57,1,1.0,38.0,0.127,1.0,1.0
w28986h9l9usezrw9spaop8q,58,1,1.0,38.0,0.033,1.0,1.0
w28986h9l9usezrw9spaop8q,59,1,1.0,38.0,0.039,1.0,1.0
w28986h9l9usezrw9spaop8q,60,1,1.0,38.0,0.129,1.0,1.0
w28986h9l9usezrw9spaop8q,61,2,1.0,38.0,0.244,0.0,0.0
w28986h9l9usezrw9spaop8q,62,2,0.0,37.0,0.27,0.0,1.0
w28986h9l9usezrw9spaop8q,63,2,0.0,37.0,0.283,0.0,1.0
w28986h9l9usezrw9spaop8q,64,2,0.0,37.0,0.226,0.0,0.0
w28986h9l9usezrw9spaop8q,65,2,0.0,37.0,0.244,0.0,0.0
w28986h9l9usezrw9spaop8q,66,2,2.0,39.0,0.249,1.0,1.0
w28986h9l9usezrw9spaop8q,67,2,2.0,39.0,0.235,1.0,0.0
w28986h9l9usezrw9spaop8q,68,2,2.0,39.0,0.159,1.0,1.0
w28986h9l9usezrw9spaop8q,69,2,2.0,39.0,0.209,1.0,1.0
w28986h9l9usezrw9spaop8q,70,2,2.0,39.0,0.174,1.0,1.0
w28986h9l9usezrw9spaop8q,71,2,2.0,39.0,0.173,1.0,1.0
w28986h9l9usezrw9spaop8q,72,2,2.0,39.0,0.217,1.0,1.0
w28986h9l9usezrw9spaop8q,73,2,2.0,39.0,0.137,1.0,1.0
w28986h9l9usezrw9spaop8q,74,2,2.0,39.0,0.251,1.0,0.0
w28986h9l9usezrw9spaop8q,75,2,1.0,38.0,0.17,0.0,0.0
w28986h9l9usezrw9spaop8q,76,1,2.0,39.0,0.228,0.0,1.0
w28986h9l9usezrw9spaop8q,77,1,2.0,39.0,0.115,0.0,0.0
w28986h9l9usezrw9spaop8q,78,1,1.0,38.0,0.224,1.0,1.0
w28986h9l9usezrw9spaop8q,79,1,1.0,38.0,0.064,1.0,1.0
w28986h9l9usezrw9spaop8q,80,1,1.0,38.0,0.221,1.0,1.0
w28986h9l9usezrw9spaop8q,81,1,1.0,38.0,0.222,1.0,1.0
w28986h9l9usezrw9spaop8q,82,1,1.0,38.0,0.25,1.0,1.0
w28986h9l9usezrw9spaop8q,83,1,1.0,38.0,0.176,1.0,0.0
w28986h9l9usezrw9spaop8q,84,1,0.0,37.0,0.1,0.0,0.0
w28986h9l9usezrw9spaop8q,85,1,2.0,39.0,0.197,0.0,0.0
w28986h9l9usezrw9spaop8q,86,1,2.0,39.0,0.054,0.0,0.0
w28986h9l9usezrw9spaop8q,87,1,0.0,37.0,0.25,0.0,0.0
w28986h9l9usezrw9spaop8q,88,1,0.0,37.0,0.047,0.0,0.0
w28986h9l9usezrw9spaop8q,89,1,1.0,38.0,0.23,1.0,1.0
w28986h9l9usezrw9spaop8q,90,1,1.0,38.0,0.174,1.0,0.0
waf7sad8ssd01oqiyprkimhg,1,0,1.0,38.0,3.602,0.0,1.0
waf7sad8ssd01oqiyprkimhg,2,0,2.0,39.0,2.706,0.0,0.0
waf7sad8ssd01oqiyprkimhg,3,0,0.0,37.0,2.876,1.0,1.0
waf7sad8ssd01oqiyprkimhg,4,0,1.0,38.0,2.785,0.0,0.0
waf7sad8ssd01oqiyprkimhg,5,0,0.0,37.0,4.851,1.0,1.0
waf7sad8ssd01oqiyprkimhg,6,0,1.0,38.0,0.631,0.0,0.0
waf7sad8ssd01oqiyprkimhg,7,0,0.0,37.0,0.326,1.0,0.0
waf7sad8ssd01oqiyprkimhg,8,0,1.0,38.0,0.789,0.0,0.0
waf7sad8ssd01oqiyprkimhg,9,0,2.0,39.0,0.28,0.0,0.0
waf7sad8ssd01oqiyprkimhg,10,0,0.0,37.0,0.283,1.0,1.0
waf7sad8ssd01oqiyprkimhg,11,0,2.0,39.0,0.244,0.0,0.0
waf7sad8ssd01oqiyprkimhg,12,0,0.0,37.0,0.217,1.0,1.0
waf7sad8ssd01oqiyprkimhg,13,0,1.0,38.0,0.24,0.0,0.0
waf7sad8ssd01oqiyprkimhg,14,0,0.0,37.0,0.494,1.0,1.0
waf7sad8ssd01oqiyprkimhg,15,0,0.0,37.0,0.324,1.0,1.0
waf7sad8ssd01oqiyprkimhg,16,2,0.0,37.0,0.283,0.0,0.0
waf7sad8ssd01oqiyprkimhg,17,2,1.0,38.0,0.293,0.0,0.0
waf7sad8ssd01oqiyprkimhg,18,2,2.0,39.0,0.396,1.0,1.0
waf7sad8ssd01oqiyprkimhg,19,2,2.0,39.0,0.324,1.0,1.0
waf7sad8ssd01oqiyprkimhg,20,2,1.0,38.0,0.175,0.0,0.0
waf7sad8ssd01oqiyprkimhg,21,2,2.0,39.0,0.062,1.0,1.0
waf7sad8ssd01oqiyprkimhg,22,2,2.0,39.0,0.589,1.0,1.0
waf7sad8ssd01oqiyprkimhg,23,2,2.0,39.0,0.477,1.0,0.0
waf7sad8ssd01oqiyprkimhg,24,2,0.0,37.0,0.291,0.0,0.0
waf7sad8ssd01oqiyprkimhg,25,2,1.0,38.0,0.218,0.0,0.0
waf7sad8ssd01oqiyprkimhg,26,2,0.0,37.0,0.148,0.0,0.0
waf7sad8ssd01oqiyprkimhg,27,2,1.0,38.0,0.3,0.0,0.0
waf7sad8ssd01oqiyprkimhg,28,2,2.0,39.0,0.291,1.0,1.0
waf7sad8ssd01oqiyprkimhg,29,2,2.0,39.0,0.321,1.0,0.0
waf7sad8ssd01oqiyprkimhg,30,2,1.0,38.0,0.259,0.0,0.0
waf7sad8ssd01oqiyprkimhg,31,1,0.0,37.0,0.02,0.0,1.0
waf7sad8ssd01oqiyprkimhg,32,1,0.0,37.0,0.305,0.0,0.0
waf7sad8ssd01oqiyprkimhg,33,1,1.0,38.0,0.296,1.0,0.0
waf7sad8ssd01oqiyprkimhg,34,1,2.0,39.0,0.135,0.0,0.0
waf7sad8ssd01oqiyprkimhg,35,1,0.0,37.0,0.05,0.0,0.0
waf7sad8ssd01oqiyprkimhg,36,1,1.0,38.0,0.233,1.0,1.0
waf7sad8ssd01oqiyprkimhg,37,1,1.0,38.0,0.261,1.0,1.0
waf7sad8ssd01oqiyprkimhg,38,1,1.0,38.0,0.082,1.0,1.0
waf7sad8ssd01oqiyprkimhg,39,1,1.0,38.0,0.043,1.0,1.0
waf7sad8ssd01oqiyprkimhg,40,1,1.0,38.0,0.105,1.0,1.0
waf7sad8ssd01oqiyprkimhg,41,1,1.0,38.0,0.092,1.0,1.0
waf7sad8ssd01oqiyprkimhg,42,1,1.0,38.0,0.039,1.0,1.0
waf7sad8ssd01oqiyprkimhg,43,1,1.0,38.0,0.06,1.0,1.0
waf7sad8ssd01oqiyprkimhg,44,1,1.0,38.0,0.013,1.0,1.0
waf7sad8ssd01oqiyprkimhg,45,1,1.0,38.0,0.07,1.0,1.0
waf7sad8ssd01oqiyprkimhg,46,2,1.0,38.0,0.256,0.0,0.0
waf7sad8ssd01oqiyprkimhg,47,2,0.0,37.0,0.107,0.0,0.0
waf7sad8ssd01oqiyprkimhg,48,2,2.0,39.0,0.903,1.0,1.0
waf7sad8ssd01oqiyprkimhg,49,2,2.0,39.0,0.206,1.0,1.0
waf7sad8ssd01oqiyprkimhg,50,2,2.0,39.0,0.304,1.0,1.0
waf7sad8ssd01oqiyprkimhg,51,2,2.0,39.0,0.069,1.0,1.0
waf7sad8ssd01oqiyprkimhg,52,2,2.0,39.0,0.287,1.0,1.0
waf7sad8ssd01oqiyprkimhg,53,2,2.0,39.0,0.251,1.0,0.0
waf7sad8ssd01oqiyprkimhg,54,2,1.0,38.0,0.0,0.0,1.0
waf7sad8ssd01oqiyprkimhg,55,2,1.0,38.0,0.764,0.0,1.0
waf7sad8ssd01oqiyprkimhg,56,2,1.0,38.0,0.263,0.0,0.0
waf7sad8ssd01oqiyprkimhg,57,2,2.0,39.0,0.212,1.0,1.0
waf7sad8ssd01oqiyprkimhg,58,2,2.0,39.0,0.147,1.0,1.0
waf7sad8ssd01oqiyprkimhg,59,2,2.0,39.0,0.165,1.0,1.0
waf7sad8ssd01oqiyprkimhg,60,2,2.0,39.0,0.219,1.0,1.0
waf7sad8ssd01oqiyprkimhg,61,0,2.0,39.0,0.079,0.0,1.0
waf7sad8ssd01oqiyprkimhg,62,0,2.0,39.0,0.244,0.0,0.0
waf7sad8ssd01oqiyprkimhg,63,0,1.0,38.0,0.368,0.0,0.0
waf7sad8ssd01oqiyprkimhg,64,0,0.0,37.0,0.369,1.0,1.0
waf7sad8ssd01oqiyprkimhg,65,0,0.0,37.0,0.767,1.0,1.0
waf7sad8ssd01oqiyprkimhg,66,0,0.0,37.0,0.311,1.0,1.0
waf7sad8ssd01oqiyprkimhg,67,0,0.0,37.0,0.23,1.0,1.0
waf7sad8ssd01oqiyprkimhg,68,0,0.0,37.0,0.233,1.0,1.0
waf7sad8ssd01oqiyprkimhg,69,0,0.0,37.0,0.228,1.0,1.0
waf7sad8ssd01oqiyprkimhg,70,0,0.0,37.0,0.26,1.0,1.0
waf7sad8ssd01oqiyprkimhg,71,0,0.0,37.0,0.141,1.0,1.0
waf7sad8ssd01oqiyprkimhg,72,0,0.0,37.0,0.292,1.0,1.0
waf7sad8ssd01oqiyprkimhg,73,0,0.0,37.0,0.234,1.0,1.0
waf7sad8ssd01oqiyprkimhg,74,0,0.0,37.0,0.304,1.0,1.0
waf7sad8ssd01oqiyprkimhg,75,0,0.0,37.0,0.281,1.0,1.0
waf7sad8ssd01oqiyprkimhg,76,2,0.0,37.0,0.264,0.0,0.0
waf7sad8ssd01oqiyprkimhg,77,2,1.0,38.0,0.168,0.0,0.0
waf7sad8ssd01oqiyprkimhg,78,2,2.0,39.0,0.0,1.0,1.0
waf7sad8ssd01oqiyprkimhg,79,2,2.0,39.0,0.075,1.0,1.0
waf7sad8ssd01oqiyprkimhg,80,2,2.0,39.0,0.581,1.0,0.0
waf7sad8ssd01oqiyprkimhg,81,2,0.0,37.0,0.624,0.0,0.0
waf7sad8ssd01oqiyprkimhg,82,2,1.0,38.0,0.317,0.0,1.0
waf7sad8ssd01oqiyprkimhg,83,2,1.0,38.0,0.222,0.0,1.0
waf7sad8ssd01oqiyprkimhg,84,2,1.0,38.0,0.024,0.0,0.0
waf7sad8ssd01oqiyprkimhg,85,2,2.0,39.0,0.516,1.0,1.0
waf7sad8ssd01oqiyprkimhg,86,2,2.0,39.0,0.534,1.0,0.0
waf7sad8ssd01oqiyprkimhg,87,2,0.0,37.0,0.383,0.0,0.0
waf7sad8ssd01oqiyprkimhg,88,2,1.0,38.0,0.31,0.0,0.0
waf7sad8ssd01oqiyprkimhg,89,2,2.0,39.0,0.285,1.0,1.0
waf7sad8ssd01oqiyprkimhg,90,2,2.0,39.0,0.313,1.0,1.0
wn6swqgn6ik1rus5wq0xwfpf,1,1,1.0,38.0,3.327,1.0,1.0
wn6swqgn6ik1rus5wq0xwfpf,2,1,1.0,38.0,1.228,1.0,1.0
wn6swqgn6ik1rus5wq0xwfpf,3,1,1.0,38.0,0.662,1.0,1.0
wn6swqgn6ik1rus5wq0xwfpf,4,1,1.0,38.0,0.454,1.0,1.0
wn6swqgn6ik1rus5wq0xwfpf,5,1,1.0,38.0,0.462,1.0,1.0
wn6swqgn6ik1rus5wq0xwfpf,6,1,1.0,38.0,0.286,1.0,1.0
wn6swqgn6ik1rus5wq0xwfpf,7,1,1.0,38.0,0.351,1.0,1.0
wn6swqgn6ik1rus5wq0xwfpf,8,1,1.0,38.0,0.285,1.0,1.0
wn6swqgn6ik1rus5wq0xwfpf,9,1,1.0,38.0,0.262,1.0,1.0
wn6swqgn6ik1rus5wq0xwfpf,10,1,1.0,38.0,0.285,1.0,1.0
wn6swqgn6ik1rus5wq0xwfpf,11,1,1.0,38.0,0.326,1.0,0.0
wn6swqgn6ik1rus5wq0xwfpf,12,1,1.0,38.0,1.445,1.0,1.0
wn6swqgn6ik1rus5wq0xwfpf,13,1,1.0,38.0,0.455,1.0,1.0
wn6swqgn6ik1rus5wq0xwfpf,14,1,1.0,38.0,0.349,1.0,1.0
wn6swqgn6ik1rus5wq0xwfpf,15,1,1.0,38.0,0.734,1.0,1.0
wn6swqgn6ik1rus5wq0xwfpf,16,2,1.0,38.0,0.454,0.0,1.0
wn6swqgn6ik1rus5wq0xwfpf,17,2,1.0,38.0,0.374,0.0,0.0
wn6swqgn6ik1rus5wq0xwfpf,18,2,2.0,39.0,0.502,1.0,0.0
wn6swqgn6ik1rus5wq0xwfpf,19,2,2.0,39.0,0.271,1.0,1.0
wn6swqgn6ik1rus5wq0xwfpf,20,2,2.0,39.0,0.287,1.0,1.0
wn6swqgn6ik1rus5wq0xwfpf,21,2,2.0,39.0,0.301,1.0,1.0
wn6swqgn6ik1rus5wq0xwfpf,22,2,2.0,39.0,0.319,1.0,1.0
wn6swqgn6ik1rus5wq0xwfpf,23,2,2.0,39.0,0.397,1.0,1.0
wn6swqgn6ik1rus5wq0xwfpf,24,2,2.0,39.0,0.389,1.0,0.0
wn6swqgn6ik1rus5wq0xwfpf,25,2,2.0,39.0,0.546,1.0,1.0
wn6swqgn6ik1rus5wq0xwfpf,26,2,2.0,39.0,0.213,1.0,1.0
wn6swqgn6ik1rus5wq0xwfpf,27,2,2.0,39.0,0.286,1.0,0.0
wn6swqgn6ik1rus5wq0xwfpf,28,2,0.0,37.0,0.254,0.0,0.0
wn6swqgn6ik1rus5wq0xwfpf,29,2,0.0,37.0,0.093,0.0,0.0
wn6swqgn6ik1rus5wq0xwfpf,30,2,1.0,38.0,0.318,0.0,0.0
wn6swqgn6ik1rus5wq0xwfpf,31,0,1.0,38.0,0.238,0.0,0.0
wn6swqgn6ik1rus5wq0xwfpf,32,0,2.0,39.0,1.438,0.0,1.0
wn6swqgn6ik1rus5wq0xwfpf,33,0,2.0,39.0,0.037,0.0,1.0
wn6swqgn6ik1rus5wq0xwfpf,34,0,2.0,39.0,0.327,0.0,0.0
wn6swqgn6ik1rus5wq0xwfpf,35,0,2.0,39.0,0.309,0.0,1.0
wn6swqgn6ik1rus5wq0xwfpf,36,0,2.0,39.0,0.286,0.0,1.0
wn6swqgn6ik1rus5wq0xwfpf,37,0,2.0,39.0,0.358,0.0,0.0
wn6swqgn6ik1rus5wq0xwfpf,38,0,0.0,37.0,0.301,1.0,1.0
wn6swqgn6ik1rus5wq0xwfpf,39,0,0.0,37.0,0.206,1.0,1.0
wn6swqgn6ik1rus5wq0xwfpf,40,0,0.0,37.0,0.27,1.0,1.0
wn6swqgn6ik1rus5wq0xwfpf,41,0,0.0,37.0,0.229,1.0,1.0
wn6swqgn6ik1rus5wq0xwfpf,42,0,0.0,37.0,0.325,1.0,0.0
wn6swqgn6ik1rus5wq0xwfpf,43,0,1.0,38.0,0.462,0.0,0.0
wn6swqgn6ik1rus5wq0xwfpf,44,0,1.0,38.0,0.573,0.0,0.0
wn6swqgn6ik1rus5wq0xwfpf,45,0,1.0,38.0,0.438,0.0,0.0
wn6swqgn6ik1rus5wq0xwfpf,46,1,0.0,37.0,0.182,0.0,0.0
wn6swqgn6ik1rus5wq0xwfpf,47,1,0.0,37.0,0.238,0.0,0.0
wn6swqgn6ik1rus5wq0xwfpf,48,1,0.0,37.0,0.534,0.0,0.0
wn6swqgn6ik1rus5wq0xwfpf,49,1,2.0,39.0,0.309,0.0,0.0
wn6swqgn6ik1rus5wq0xwfpf,50,1,2.0,39.0,0.221,0.0,0.0
wn6swqgn6ik1rus5wq0xwfpf,51,1,2.0,39.0,0.494,0.0,1.0
wn6swqgn6ik1rus5wq0xwfpf,52,1,2.0,39.0,0.286,0.0,0.0
wn6swqgn6ik1rus5wq0xwfpf,53,1,0.0,37.0,0.286,0.0,0.0
wn6swqgn6ik1rus5wq0xwfpf,54,1,0.0,37.0,0.19,0.0,0.0
wn6swqgn6ik1rus5wq0xwfpf,55,1,1.0,38.0,0.207,1.0,1.0
wn6swqgn6ik1rus5wq0xwfpf,56,1,1.0,38.0,0.261,1.0,1.0
wn6swqgn6ik1rus5wq0xwfpf,57,1,1.0,38.0,0.238,1.0,1.0
wn6swqgn6ik1rus5wq0xwfpf,58,1,1.0,38.0,0.341,1.0,0.0
wn6swqgn6ik1rus5wq0xwfpf,59,1,1.0,38.0,0.262,1.0,0.0
wn6swqgn6ik1rus5wq0xwfpf,60,1,1.0,38.0,0.694,1.0,1.0
wn6swqgn6ik1rus5wq0xwfpf,61,2,1.0,38.0,0.294,0.0,0.0
wn6swqgn6ik1rus5wq0xwfpf,62,2,1.0,38.0,0.341,0.0,0.0
wn6swqgn6ik1rus5wq0xwfpf,63,2,2.0,39.0,0.125,1.0,1.0
wn6swqgn6ik1rus5wq0xwfpf,64,2,2.0,39.0,0.966,1.0,1.0
wn6swqgn6ik1rus5wq0xwfpf,65,2,2.0,39.0,0.686,1.0,1.0
wn6swqgn6ik1rus5wq0xwfpf,66,2,2.0,39.0,0.358,1.0,1.0
wn6swqgn6ik1rus5wq0xwfpf,67,2,2.0,39.0,0.358,1.0,0.0
wn6swqgn6ik1rus5wq0xwfpf,68,2,2.0,39.0,0.366,1.0,1.0
wn6swqgn6ik1rus5wq0xwfpf,69,2,2.0,39.0,0.285,1.0,1.0
wn6swqgn6ik1rus5wq0xwfpf,70,2,2.0,39.0,0.35,1.0,1.0
wn6swqgn6ik1rus5wq0xwfpf,71,2,2.0,39.0,0.286,1.0,0.0
wn6swqgn6ik1rus5wq0xwfpf,72,2,2.0,39.0,0.261,1.0,0.0
wn6swqgn6ik1rus5wq0xwfpf,73,2,0.0,37.0,0.286,0.0,1.0
wn6swqgn6ik1rus5wq0xwfpf,74,2,0.0,37.0,0.213,0.0,1.0
wn6swqgn6ik1rus5wq0xwfpf,75,2,0.0,37.0,0.277,0.0,0.0
wn6swqgn6ik1rus5wq0xwfpf,76,0,0.0,37.0,0.293,1.0,0.0
wn6swqgn6ik1rus5wq0xwfpf,77,0,0.0,37.0,0.406,1.0,1.0
wn6swqgn6ik1rus5wq0xwfpf,78,0,0.0,37.0,0.301,1.0,0.0
wn6swqgn6ik1rus5wq0xwfpf,79,0,1.0,38.0,0.469,0.0,0.0
wn6swqgn6ik1rus5wq0xwfpf,80,0,1.0,38.0,0.245,0.0,0.0
wn6swqgn6ik1rus5wq0xwfpf,81,0,2.0,39.0,0.238,0.0,0.0
wn6swqgn6ik1rus5wq0xwfpf,82,0,0.0,37.0,0.095,1.0,0.0
wn6swqgn6ik1rus5wq0xwfpf,83,0,1.0,38.0,0.318,0.0,1.0
wn6swqgn6ik1rus5wq0xwfpf,84,0,1.0,38.0,0.35,0.0,0.0
wn6swqgn6ik1rus5wq0xwfpf,85,0,1.0,38.0,0.357,0.0,0.0
wn6swqgn6ik1rus5wq0xwfpf,86,0,2.0,39.0,0.342,0.0,0.0
wn6swqgn6ik1rus5wq0xwfpf,87,0,2.0,39.0,0.254,0.0,0.0
wn6swqgn6ik1rus5wq0xwfpf,88,0,2.0,39.0,0.302,0.0,1.0
wn6swqgn6ik1rus5wq0xwfpf,89,0,2.0,39.0,0.534,0.0,1.0
wn6swqgn6ik1rus5wq0xwfpf,90,0,2.0,39.0,0.477,0.0,1.0
z4fa5gxv2n8kevw9qhl9inry,1,0,1.0,38.0,4.076,0.0,1.0
z4fa5gxv2n8kevw9qhl9inry,2,0,0.0,37.0,0.905,1.0,1.0
z4fa5gxv2n8kevw9qhl9inry,3,0,0.0,37.0,3.54,1.0,1.0
z4fa5gxv2n8kevw9qhl9inry,4,0,2.0,39.0,2.801,0.0,0.0
z4fa5gxv2n8kevw9qhl9inry,5,0,2.0,39.0,1.035,0.0,1.0
z4fa5gxv2n8kevw9qhl9inry,6,0,1.0,38.0,0.879,0.0,1.0
z4fa5gxv2n8kevw9qhl9inry,7,0,1.0,38.0,1.198,0.0,0.0
z4fa5gxv2n8kevw9qhl9inry,8,0,0.0,37.0,0.601,1.0,1.0
z4fa5gxv2n8kevw9qhl9inry,9,0,0.0,37.0,3.111,1.0,1.0
z4fa5gxv2n8kevw9qhl9inry,10,0,0.0,37.0,1.018,1.0,0.0
z4fa5gxv2n8kevw9qhl9inry,11,0,0.0,37.0,3.768,1.0,1.0
z4fa5gxv2n8kevw9qhl9inry,12,0,0.0,37.0,2.789,1.0,1.0
z4fa5gxv2n8kevw9qhl9inry,13,0,2.0,39.0,0.915,0.0,1.0
z4fa5gxv2n8kevw9qhl9inry,14,0,0.0,37.0,0.107,1.0,0.0
z4fa5gxv2n8kevw9qhl9inry,15,0,0.0,37.0,0.084,1.0,0.0
z4fa5gxv2n8kevw9qhl9inry,16,1,0.0,37.0,0.059,0.0,1.0
z4fa5gxv2n8kevw9qhl9inry,17,1,0.0,37.0,0.01,0.0,0.0
z4fa5gxv2n8kevw9qhl9inry,18,1,1.0,38.0,0.051,1.0,1.0
z4fa5gxv2n8kevw9qhl9inry,19,1,1.0,38.0,0.141,1.0,1.0
z4fa5gxv2n8kevw9qhl9inry,20,1,1.0,38.0,0.18,1.0,1.0
z4fa5gxv2n8kevw9qhl9inry,21,1,1.0,38.0,0.143,1.0,0.0
z4fa5gxv2n8kevw9qhl9inry,22,1,2.0,39.0,0.005,0.0,1.0
z4fa5gxv2n8kevw9qhl9inry,23,1,2.0,39.0,0.087,0.0,0.0
z4fa5gxv2n8kevw9qhl9inry,24,1,1.0,38.0,0.0,1.0,1.0
z4fa5gxv2n8kevw9qhl9inry,25,1,1.0,38.0,0.176,1.0,1.0
z4fa5gxv2n8kevw9qhl9inry,26,1,2.0,39.0,0.189,0.0,0.0
z4fa5gxv2n8kevw9qhl9inry,27,1,1.0,38.0,0.055,1.0,1.0
z4fa5gxv2n8kevw9qhl9inry,28,1,1.0,38.0,0.003,1.0,0.0
z4fa5gxv2n8kevw9qhl9inry,29,1,1.0,38.0,0.047,1.0,1.0
z4fa5gxv2n8kevw9qhl9inry,30,1,1.0,38.0,0.005,1.0,1.0
z4fa5gxv2n8kevw9qhl9inry,31,0,2.0,39.0,0.468,0.0,1.0
z4fa5gxv2n8kevw9qhl9inry,32,0,2.0,39.0,0.098,0.0,0.0
z4fa5gxv2n8kevw9qhl9inry,33,0,0.0,37.0,0.108,1.0,1.0
z4fa5gxv2n8kevw9qhl9inry,34,0,0.0,37.0,0.047,1.0,1.0
z4fa5gxv2n8kevw9qhl9inry,35,0,0.0,37.0,0.047,1.0,0.0
z4fa5gxv2n8kevw9qhl9inry,36,0,1.0,38.0,0.1,0.0,0.0
z4fa5gxv2n8kevw9qhl9inry,37,0,0.0,37.0,0.174,1.0,1.0
z4fa5gxv2n8kevw9qhl9inry,38,0,0.0,37.0,0.125,1.0,1.0
z4fa5gxv2n8kevw9qhl9inry,39,0,2.0,39.0,0.184,0.0,0.0
z4fa5gxv2n8kevw9qhl9inry,40,0,0.0,37.0,0.166,1.0,0.0
z4fa5gxv2n8kevw9qhl9inry,41,0,1.0,38.0,0.062,0.0,0.0
z4fa5gxv2n8kevw9qhl9inry,42,0,2.0,39.0,0.169,0.0,0.0
z4fa5gxv2n8kevw9qhl9inry,43,0,0.0,37.0,0.42,1.0,1.0
z4fa5gxv2n8kevw9qhl9inry,44,0,0.0,37.0,0.232,1.0,1.0
z4fa5gxv2n8kevw9qhl9inry,45,0,0.0,37.0,0.005,1.0,1.0
z4fa5gxv2n8kevw9qhl9inry,46,1,1.0,38.0,0.09,1.0,1.0
z4fa5gxv2n8kevw9qhl9inry,47,1,1.0,38.0,0.135,1.0,1.0
z4fa5gxv2n8kevw9qhl9inry,48,1,2.0,39.0,0.124,0.0,0.0
z4fa5gxv2n8kevw9qhl9inry,49,1,1.0,38.0,0.074,1.0,1.0
z4fa5gxv2n8kevw9qhl9inry,50,1,1.0,38.0,0.068,1.0,0.0
z4fa5gxv2n8kevw9qhl9inry,51,1,1.0,38.0,0.107,1.0,0.0
z4fa5gxv2n8kevw9qhl9inry,52,1,2.0,39.0,0.095,0.0,0.0
z4fa5gxv2n8kevw9qhl9inry,53,1,1.0,38.0,0.164,1.0,1.0
z4fa5gxv2n8kevw9qhl9inry,54,1,1.0,38.0,0.058,1.0,1.0
z4fa5gxv2n8kevw9qhl9inry,55,1,1.0,38.0,0.056,1.0,1.0
z4fa5gxv2n8kevw9qhl9inry,56,1,1.0,38.0,0.111,1.0,1.0
z4fa5gxv2n8kevw9qhl9inry,57,1,0.0,37.0,0.098,0.0,0.0
z4fa5gxv2n8kevw9qhl9inry,58,1,1.0,38.0,0.215,1.0,1.0
z4fa5gxv2n8kevw9qhl9inry,59,1,1.0,38.0,0.126,1.0,1.0
z4fa5gxv2n8kevw9qhl9inry,60,1,1.0,38.0,0.116,1.0,1.0
z4fa5gxv2n8kevw9qhl9inry,61,0,1.0,38.0,0.169,0.0,0.0
z4fa5gxv2n8kevw9qhl9inry,62,0,2.0,39.0,0.126,0.0,0.0
z4fa5gxv2n8kevw9qhl9inry,63,0,0.0,37.0,0.075,1.0,0.0
z4fa5gxv2n8kevw9qhl9inry,64,0,1.0,38.0,0.295,0.0,1.0
z4fa5gxv2n8kevw9qhl9inry,65,0,1.0,38.0,0.14,0.0,0.0
z4fa5gxv2n8kevw9qhl9inry,66,0,0.0,37.0,0.107,1.0,1.0
z4fa5gxv2n8kevw9qhl9inry,67,0,2.0,39.0,0.008,0.0,0.0
z4fa5gxv2n8kevw9qhl9inry,68,0,0.0,37.0,0.044,1.0,1.0
z4fa5gxv2n8kevw9qhl9inry,69,0,0.0,37.0,0.14,1.0,1.0
z4fa5gxv2n8kevw9qhl9inry,70,0,0.0,37.0,0.133,1.0,1.0
z4fa5gxv2n8kevw9qhl9inry,71,0,0.0,37.0,0.007,1.0,1.0
z4fa5gxv2n8kevw9qhl9inry,72,0,0.0,37.0,0.047,1.0,1.0
z4fa5gxv2n8kevw9qhl9inry,73,0,0.0,37.0,0.005,1.0,1.0
z4fa5gxv2n8kevw9qhl9inry,74,0,0.0,37.0,0.177,1.0,0.0
z4fa5gxv2n8kevw9qhl9inry,75,0,0.0,37.0,0.726,1.0,1.0
z4fa5gxv2n8kevw9qhl9inry,76,2,0.0,37.0,0.108,0.0,0.0
z4fa5gxv2n8kevw9qhl9inry,77,2,2.0,39.0,0.103,1.0,1.0
z4fa5gxv2n8kevw9qhl9inry,78,2,2.0,39.0,0.054,1.0,1.0
z4fa5gxv2n8kevw9qhl9inry,79,2,2.0,39.0,0.125,1.0,1.0
z4fa5gxv2n8kevw9qhl9inry,80,2,2.0,39.0,0.131,1.0,1.0
z4fa5gxv2n8kevw9qhl9inry,81,2,1.0,38.0,0.09,0.0,0.0
z4fa5gxv2n8kevw9qhl9inry,82,2,2.0,39.0,0.128,1.0,0.0
z4fa5gxv2n8kevw9qhl9inry,83,2,1.0,38.0,0.107,0.0,1.0
z4fa5gxv2n8kevw9qhl9inry,84,2,2.0,39.0,0.23,1.0,1.0
z4fa5gxv2n8kevw9qhl9inry,85,2,0.0,37.0,0.038,0.0,1.0
z4fa5gxv2n8kevw9qhl9inry,86,2,2.0,39.0,0.041,1.0,0.0
z4fa5gxv2n8kevw9qhl9inry,87,2,2.0,39.0,0.403,1.0,1.0
z4fa5gxv2n8kevw9qhl9inry,88,2,2.0,39.0,0.047,1.0,0.0
z4fa5gxv2n8kevw9qhl9inry,89,2,2.0,39.0,2.478,1.0,1.0
z4fa5gxv2n8kevw9qhl9inry,90,2,1.0,38.0,0.466,0.0,1.0
