platform,subject,trial,correct,choice,key,rt,accuracy,outcome
prolific,02hfkd0x4jtnoiwsds69adoq,1,0,0.0,37.0,4.966,1.0,1.0
prolific,02hfkd0x4jtnoiwsds69adoq,2,0,0.0,37.0,3.405,1.0,1.0
prolific,02hfkd0x4jtnoiwsds69adoq,3,0,2.0,39.0,6.508,0.0,0.0
prolific,02hfkd0x4jtnoiwsds69adoq,4,0,0.0,37.0,0.459,1.0,1.0
prolific,02hfkd0x4jtnoiwsds69adoq,5,0,0.0,37.0,0.99,1.0,1.0
prolific,02hfkd0x4jtnoiwsds69adoq,6,0,0.0,37.0,0.477,1.0,1.0
prolific,02hfkd0x4jtnoiwsds69adoq,7,0,0.0,37.0,0.461,1.0,1.0
prolific,02hfkd0x4jtnoiwsds69adoq,8,0,0.0,37.0,0.365,1.0,1.0
prolific,02hfkd0x4jtnoiwsds69adoq,9,0,0.0,37.0,0.346,1.0,1.0
prolific,02hfkd0x4jtnoiwsds69adoq,10,0,0.0,37.0,0.366,1.0,1.0
prolific,02hfkd0x4jtnoiwsds69adoq,11,0,0.0,37.0,0.317,1.0,1.0
prolific,02hfkd0x4jtnoiwsds69adoq,12,0,2.0,39.0,0.46,0.0,1.0
prolific,02hfkd0x4jtnoiwsds69adoq,13,0,0.0,37.0,0.427,1.0,1.0
prolific,02hfkd0x4jtnoiwsds69adoq,14,0,0.0,37.0,0.572,1.0,1.0
prolific,02hfkd0x4jtnoiwsds69adoq,15,0,0.0,37.0,0.27,1.0,1.0
prolific,02hfkd0x4jtnoiwsds69adoq,16,2,2.0,39.0,0.716,1.0,1.0
prolific,02hfkd0x4jtnoiwsds69adoq,17,2,2.0,39.0,0.724,1.0,1.0
prolific,02hfkd0x4jtnoiwsds69adoq,18,2,1.0,38.0,0.742,0.0,1.0
prolific,02hfkd0x4jtnoiwsds69adoq,19,2,2.0,39.0,0.573,1.0,1.0
prolific,02hfkd0x4jtnoiwsds69adoq,20,2,0.0,37.0,0.796,0.0,1.0
prolific,02hfkd0x4jtnoiwsds69adoq,21,2,0.0,37.0,0.797,0.0,1.0
prolific,02hfkd0x4jtnoiwsds69adoq,22,2,2.0,39.0,0.592,1.0,1.0
prolific,02hfkd0x4jtnoiwsds69adoq,23,2,1.0,38.0,1.051,0.0,1.0
prolific,02hfkd0x4jtnoiwsds69adoq,24,2,0.0,37.0,0.591,0.0,1.0
prolific,02hfkd0x4jtnoiwsds69adoq,25,2,1.0,38.0,0.636,0.0,1.0
prolific,02hfkd0x4jtnoiwsds69adoq,26,2,2.0,39.0,0.477,1.0,1.0
prolific,02hfkd0x4jtnoiwsds69adoq,27,2,0.0,37.0,0.462,0.0,1.0
prolific,02hfkd0x4jtnoiwsds69adoq,28,2,2.0,39.0,0.462,1.0,1.0
prolific,02hfkd0x4jtnoiwsds69adoq,29,2,0.0,37.0,1.054,0.0,0.0
prolific,02hfkd0x4jtnoiwsds69adoq,30,2,0.0,37.0,0.542,0.0,1.0
prolific,02hfkd0x4jtnoiwsds69adoq,31,1,1.0,38.0,0.509,1.0,1.0
prolific,02hfkd0x4jtnoiwsds69adoq,32,1,2.0,39.0,0.653,0.0,1.0
prolific,02hfkd0x4jtnoiwsds69adoq,33,1,1.0,38.0,0.576,1.0,1.0
prolific,02hfkd0x4jtnoiwsds69adoq,34,1,1.0,38.0,0.414,1.0,1.0
prolific,02hfkd0x4jtnoiwsds69adoq,35,1,0.0,37.0,0.491,0.0,1.0
prolific,02hfkd0x4jtnoiwsds69adoq,36,1,1.0,38.0,0.494,1.0,1.0
prolific,02hfkd0x4jtnoiwsds69adoq,37,1,0.0,37.0,0.526,0.0,1.0
prolific,02hfkd0x4jtnoiwsds69adoq,38,1,1.0,38.0,0.476,1.0,1.0
prolific,02hfkd0x4jtnoiwsds69adoq,39,1,0.0,37.0,0.909,0.0,0.0
prolific,02hfkd0x4jtnoiwsds69adoq,40,1,0.0,37.0,0.411,0.0,1.0
prolific,02hfkd0x4jtnoiwsds69adoq,41,1,0.0,37.0,0.893,0.0,0.0
prolific,02hfkd0x4jtnoiwsds69adoq,42,1,1.0,38.0,0.54,1.0,1.0
prolific,02hfkd0x4jtnoiwsds69adoq,43,1,1.0,38.0,0.827,1.0,1.0
prolific,02hfkd0x4jtnoiwsds69adoq,44,1,1.0,38.0,0.397,1.0,1.0
prolific,02hfkd0x4jtnoiwsds69adoq,45,1,0.0,37.0,0.67,0.0,0.0
prolific,02hfkd0x4jtnoiwsds69adoq,46,0,0.0,37.0,0.35,1.0,1.0
prolific,02hfkd0x4jtnoiwsds69adoq,47,0,0.0,37.0,0.511,1.0,1.0
prolific,02hfkd0x4jtnoiwsds69adoq,48,0,0.0,37.0,0.384,1.0,1.0
prolific,02hfkd0x4jtnoiwsds69adoq,49,0,0.0,37.0,0.52,1.0,1.0
prolific,02hfkd0x4jtnoiwsds69adoq,50,0,0.0,37.0,0.364,1.0,1.0
prolific,02hfkd0x4jtnoiwsds69adoq,51,0,0.0,37.0,0.351,1.0,0.0
prolific,02hfkd0x4jtnoiwsds69adoq,52,0,1.0,38.0,0.168,0.0,0.0
prolific,02hfkd0x4jtnoiwsds69adoq,53,0,0.0,37.0,0.46,1.0,1.0
prolific,02hfkd0x4jtnoiwsds69adoq,54,0,0.0,37.0,0.43,1.0,1.0
prolific,02hfkd0x4jtnoiwsds69adoq,55,0,0.0,37.0,0.413,1.0,1.0
prolific,02hfkd0x4jtnoiwsds69adoq,56,0,0.0,37.0,0.348,1.0,1.0
prolific,02hfkd0x4jtnoiwsds69adoq,57,0,0.0,37.0,0.427,1.0,1.0
prolific,02hfkd0x4jtnoiwsds69adoq,58,0,0.0,37.0,0.397,1.0,1.0
prolific,02hfkd0x4jtnoiwsds69adoq,59,0,0.0,37.0,0.382,1.0,1.0
prolific,02hfkd0x4jtnoiwsds69adoq,60,0,2.0,39.0,0.605,0.0,1.0
prolific,02hfkd0x4jtnoiwsds69adoq,61,2,2.0,39.0,0.59,1.0,1.0
prolific,02hfkd0x4jtnoiwsds69adoq,62,2,0.0,37.0,0.479,0.0,1.0
prolific,02hfkd0x4jtnoiwsds69adoq,63,2,1.0,38.0,0.463,0.0,1.0
prolific,02hfkd0x4jtnoiwsds69adoq,64,2,2.0,39.0,0.461,1.0,1.0
prolific,02hfkd0x4jtnoiwsds69adoq,65,2,0.0,37.0,0.428,0.0,1.0
prolific,02hfkd0x4jtnoiwsds69adoq,66,2,2.0,39.0,0.445,1.0,1.0
prolific,02hfkd0x4jtnoiwsds69adoq,67,2,2.0,39.0,0.506,1.0,1.0
prolific,02hfkd0x4jtnoiwsds69adoq,68,2,1.0,38.0,0.541,0.0,1.0
prolific,02hfkd0x4jtnoiwsds69adoq,69,2,2.0,39.0,0.512,1.0,1.0
prolific,02hfkd0x4jtnoiwsds69adoq,70,2,2.0,39.0,0.62,1.0,1.0
prolific,02hfkd0x4jtnoiwsds69adoq,71,2,1.0,38.0,0.551,0.0,1.0
prolific,02hfkd0x4jtnoiwsds69adoq,72,2,2.0,39.0,0.412,1.0,1.0
prolific,02hfkd0x4jtnoiwsds69adoq,73,2,0.0,37.0,0.845,0.0,0.0
prolific,02hfkd0x4jtnoiwsds69adoq,74,2,2.0,39.0,0.591,1.0,1.0
prolific,02hfkd0x4jtnoiwsds69adoq,75,2,2.0,39.0,0.588,1.0,1.0
prolific,02hfkd0x4jtnoiwsds69adoq,76,0,0.0,37.0,0.366,1.0,1.0
prolific,02hfkd0x4jtnoiwsds69adoq,77,0,0.0,37.0,0.459,1.0,1.0
prolific,02hfkd0x4jtnoiwsds69adoq,78,0,2.0,39.0,0.606,0.0,1.0
prolific,02hfkd0x4jtnoiwsds69adoq,79,0,0.0,37.0,0.35,1.0,0.0
prolific,02hfkd0x4jtnoiwsds69adoq,80,0,0.0,37.0,0.427,1.0,1.0
prolific,02hfkd0x4jtnoiwsds69adoq,81,0,2.0,39.0,0.464,0.0,1.0
prolific,02hfkd0x4jtnoiwsds69adoq,82,0,0.0,37.0,0.394,1.0,1.0
prolific,02hfkd0x4jtnoiwsds69adoq,83,0,0.0,37.0,0.555,1.0,1.0
prolific,02hfkd0x4jtnoiwsds69adoq,84,0,0.0,37.0,0.349,1.0,1.0
prolific,02hfkd0x4jtnoiwsds69adoq,85,0,0.0,37.0,0.414,1.0,1.0
prolific,02hfkd0x4jtnoiwsds69adoq,86,0,0.0,37.0,0.508,1.0,1.0
prolific,02hfkd0x4jtnoiwsds69adoq,87,0,0.0,37.0,1.246,1.0,1.0
prolific,02hfkd0x4jtnoiwsds69adoq,88,0,0.0,37.0,0.522,1.0,1.0
prolific,02hfkd0x4jtnoiwsds69adoq,89,0,1.0,38.0,0.492,0.0,1.0
prolific,02hfkd0x4jtnoiwsds69adoq,90,0,0.0,37.0,0.894,1.0,0.0
prolific,0do1x8qmwi6ok206agh1xqwb,1,1,2.0,39.0,1.779,0.0,0.0
prolific,0do1x8qmwi6ok206agh1xqwb,2,1,0.0,37.0,0.459,0.0,0.0
prolific,0do1x8qmwi6ok206agh1xqwb,3,1,1.0,38.0,0.304,1.0,1.0
prolific,0do1x8qmwi6ok206agh1xqwb,4,1,1.0,38.0,0.256,1.0,1.0
prolific,0do1x8qmwi6ok206agh1xqwb,5,1,1.0,38.0,0.262,1.0,1.0
prolific,0do1x8qmwi6ok206agh1xqwb,6,1,1.0,38.0,0.179,1.0,1.0
prolific,0do1x8qmwi6ok206agh1xqwb,7,1,1.0,38.0,0.285,1.0,1.0
prolific,0do1x8qmwi6ok206agh1xqwb,8,1,1.0,38.0,0.32,1.0,1.0
prolific,0do1x8qmwi6ok206agh1xqwb,9,1,1.0,38.0,0.466,1.0,1.0
prolific,0do1x8qmwi6ok206agh1xqwb,10,1,1.0,38.0,0.303,1.0,1.0
prolific,0do1x8qmwi6ok206agh1xqwb,11,1,1.0,38.0,0.199,1.0,1.0
prolific,0do1x8qmwi6ok206agh1xqwb,12,1,1.0,38.0,0.23,1.0,1.0
prolific,0do1x8qmwi6ok206agh1xqwb,13,1,1.0,38.0,0.242,1.0,1.0
prolific,0do1x8qmwi6ok206agh1xqwb,14,1,1.0,38.0,0.238,1.0,1.0
prolific,0do1x8qmwi6ok206agh1xqwb,15,1,1.0,38.0,0.118,1.0,1.0
prolific,0do1x8qmwi6ok206agh1xqwb,16,2,1.0,38.0,0.28,0.0,0.0
prolific,0do1x8qmwi6ok206agh1xqwb,17,2,2.0,39.0,0.125,1.0,1.0
prolific,0do1x8qmwi6ok206agh1xqwb,18,2,2.0,39.0,0.153,1.0,1.0
prolific,0do1x8qmwi6ok206agh1xqwb,19,2,2.0,39.0,0.208,1.0,1.0
prolific,0do1x8qmwi6ok206agh1xqwb,20,2,2.0,39.0,0.115,1.0,1.0
prolific,0do1x8qmwi6ok206agh1xqwb,21,2,2.0,39.0,0.235,1.0,1.0
prolific,0do1x8qmwi6ok206agh1xqwb,22,2,2.0,39.0,0.142,1.0,1.0
prolific,0do1x8qmwi6ok206agh1xqwb,23,2,2.0,39.0,0.228,1.0,1.0
prolific,0do1x8qmwi6ok206agh1xqwb,24,2,2.0,39.0,0.124,1.0,1.0
prolific,0do1x8qmwi6ok206agh1xqwb,25,2,2.0,39.0,0.176,1.0,1.0
prolific,0do1x8qmwi6ok206agh1xqwb,26,2,2.0,39.0,0.184,1.0,1.0
prolific,0do1x8qmwi6ok206agh1xqwb,27,2,2.0,39.0,0.288,1.0,1.0
prolific,0do1x8qmwi6ok206agh1xqwb,28,2,2.0,39.0,0.273,1.0,1.0
prolific,0do1x8qmwi6ok206agh1xqwb,29,2,2.0,39.0,0.135,1.0,1.0
prolific,0do1x8qmwi6ok206agh1xqwb,30,2,2.0,39.0,0.201,1.0,1.0
prolific,0do1x8qmwi6ok206agh1xqwb,31,0,2.0,39.0,0.119,0.0,0.0
prolific,0do1x8qmwi6ok206agh1xqwb,32,0,0.0,37.0,0.152,1.0,1.0
prolific,0do1x8qmwi6ok206agh1xqwb,33,0,0.0,37.0,0.267,1.0,0.0
prolific,0do1x8qmwi6ok206agh1xqwb,34,0,2.0,39.0,0.14,0.0,0.0
prolific,0do1x8qmwi6ok206agh1xqwb,35,0,1.0,38.0,0.061,0.0,0.0
prolific,0do1x8qmwi6ok206agh1xqwb,36,0,0.0,37.0,0.13,1.0,1.0
prolific,0do1x8qmwi6ok206agh1xqwb,37,0,0.0,37.0,0.179,1.0,1.0
prolific,0do1x8qmwi6ok206agh1xqwb,38,0,0.0,37.0,0.303,1.0,1.0
prolific,0do1x8qmwi6ok206agh1xqwb,39,0,0.0,37.0,0.014,1.0,0.0
prolific,0do1x8qmwi6ok206agh1xqwb,40,0,0.0,37.0,0.23,1.0,1.0
prolific,0do1x8qmwi6ok206agh1xqwb,41,0,0.0,37.0,0.077,1.0,0.0
prolific,0do1x8qmwi6ok206agh1xqwb,42,0,1.0,38.0,0.01,0.0,0.0
prolific,0do1x8qmwi6ok206agh1xqwb,43,0,1.0,38.0,0.219,0.0,0.0
prolific,0do1x8qmwi6ok206agh1xqwb,44,0,2.0,39.0,0.39,0.0,0.0
prolific,0do1x8qmwi6ok206agh1xqwb,45,0,1.0,38.0,0.155,0.0,0.0
prolific,0do1x8qmwi6ok206agh1xqwb,46,1,2.0,39.0,0.131,0.0,0.0
prolific,0do1x8qmwi6ok206agh1xqwb,47,1,2.0,39.0,0.201,0.0,1.0
prolific,0do1x8qmwi6ok206agh1xqwb,48,1,2.0,39.0,0.215,0.0,1.0
prolific,0do1x8qmwi6ok206agh1xqwb,49,1,2.0,39.0,0.267,0.0,0.0
prolific,0do1x8qmwi6ok206agh1xqwb,50,1,1.0,38.0,0.488,1.0,1.0
prolific,0do1x8qmwi6ok206agh1xqwb,51,1,1.0,38.0,0.021,1.0,1.0
prolific,0do1x8qmwi6ok206agh1xqwb,52,1,1.0,38.0,0.377,1.0,1.0
prolific,0do1x8qmwi6ok206agh1xqwb,53,1,1.0,38.0,0.152,1.0,1.0
prolific,0do1x8qmwi6ok206agh1xqwb,54,1,1.0,38.0,0.309,1.0,1.0
prolific,0do1x8qmwi6ok206agh1xqwb,55,1,1.0,38.0,0.302,1.0,1.0
prolific,0do1x8qmwi6ok206agh1xqwb,56,1,1.0,38.0,0.119,1.0,1.0
prolific,0do1x8qmwi6ok206agh1xqwb,57,1,1.0,38.0,0.118,1.0,1.0
prolific,0do1x8qmwi6ok206agh1xqwb,58,1,1.0,38.0,0.08,1.0,1.0
prolific,0do1x8qmwi6ok206agh1xqwb,59,1,1.0,38.0,0.076,1.0,0.0
prolific,0do1x8qmwi6ok206agh1xqwb,60,1,1.0,38.0,0.16,1.0,0.0
prolific,0do1x8qmwi6ok206agh1xqwb,61,0,1.0,38.0,0.178,0.0,0.0
prolific,0do1x8qmwi6ok206agh1xqwb,62,0,1.0,38.0,0.01,0.0,0.0
prolific,0do1x8qmwi6ok206agh1xqwb,63,0,1.0,38.0,0.079,0.0,0.0
prolific,0do1x8qmwi6ok206agh1xqwb,64,0,2.0,39.0,0.085,0.0,0.0
prolific,0do1x8qmwi6ok206agh1xqwb,65,0,0.0,37.0,0.338,1.0,1.0
prolific,0do1x8qmwi6ok206agh1xqwb,66,0,0.0,37.0,0.071,1.0,0.0
prolific,0do1x8qmwi6ok206agh1xqwb,67,0,0.0,37.0,0.374,1.0,1.0
prolific,0do1x8qmwi6ok206agh1xqwb,68,0,0.0,37.0,0.273,1.0,1.0
prolific,0do1x8qmwi6ok206agh1xqwb,69,0,0.0,37.0,0.289,1.0,1.0
prolific,0do1x8qmwi6ok206agh1xqwb,70,0,0.0,37.0,0.353,1.0,1.0
prolific,0do1x8qmwi6ok206agh1xqwb,71,0,0.0,37.0,0.39,1.0,1.0
prolific,0do1x8qmwi6ok206agh1xqwb,72,0,0.0,37.0,0.3,1.0,1.0
prolific,0do1x8qmwi6ok206agh1xqwb,73,0,0.0,37.0,0.26,1.0,0.0
prolific,0do1x8qmwi6ok206agh1xqwb,74,0,2.0,39.0,0.2,0.0,0.0
prolific,0do1x8qmwi6ok206agh1xqwb,75,0,0.0,37.0,0.277,1.0,1.0
prolific,0do1x8qmwi6ok206agh1xqwb,76,1,0.0,37.0,0.207,0.0,1.0
prolific,0do1x8qmwi6ok206agh1xqwb,77,1,0.0,37.0,0.284,0.0,1.0
prolific,0do1x8qmwi6ok206agh1xqwb,78,1,0.0,37.0,0.3,0.0,0.0
prolific,0do1x8qmwi6ok206agh1xqwb,79,1,0.0,37.0,0.261,0.0,0.0
prolific,0do1x8qmwi6ok206agh1xqwb,80,1,0.0,37.0,0.14,0.0,1.0
prolific,0do1x8qmwi6ok206agh1xqwb,81,1,0.0,37.0,0.293,0.0,0.0
prolific,0do1x8qmwi6ok206agh1xqwb,82,1,2.0,39.0,0.14,0.0,0.0
prolific,0do1x8qmwi6ok206agh1xqwb,83,1,0.0,37.0,0.122,0.0,1.0
prolific,0do1x8qmwi6ok206agh1xqwb,84,1,0.0,37.0,0.33,0.0,0.0
prolific,0do1x8qmwi6ok206agh1xqwb,85,1,0.0,37.0,0.182,0.0,0.0
prolific,0do1x8qmwi6ok206agh1xqwb,86,1,0.0,37.0,0.077,0.0,0.0
prolific,0do1x8qmwi6ok206agh1xqwb,87,1,0.0,37.0,0.139,0.0,0.0
prolific,0do1x8qmwi6ok206agh1xqwb,88,1,2.0,39.0,0.325,0.0,0.0
prolific,0do1x8qmwi6ok206agh1xqwb,89,1,1.0,38.0,0.355,1.0,1.0
prolific,0do1x8qmwi6ok206agh1xqwb,90,1,1.0,38.0,0.164,1.0,1.0
prolific,0kw0yjeyfmbqohivbcjol0y4,1,2,1.0,38.0,5.115,0.0,0.0
prolific,0kw0yjeyfmbqohivbcjol0y4,2,2,0.0,37.0,2.49,0.0,0.0
prolific,0kw0yjeyfmbqohivbcjol0y4,3,2,2.0,39.0,0.571,1.0,1.0
prolific,0kw0yjeyfmbqohivbcjol0y4,4,2,2.0,39.0,0.717,1.0,1.0
prolific,0kw0yjeyfmbqohivbcjol0y4,5,2,1.0,38.0,0.915,0.0,0.0
prolific,0kw0yjeyfmbqohivbcjol0y4,6,2,0.0,37.0,1.412,0.0,0.0
prolific,0kw0yjeyfmbqohivbcjol0y4,7,2,2.0,39.0,0.89,1.0,1.0
prolific,0kw0yjeyfmbqohivbcjol0y4,8,2,2.0,39.0,0.554,1.0,1.0
prolific,0kw0yjeyfmbqohivbcjol0y4,9,2,2.0,39.0,0.403,1.0,1.0
prolific,0kw0yjeyfmbqohivbcjol0y4,10,2,2.0,39.0,0.421,1.0,0.0
prolific,0kw0yjeyfmbqohivbcjol0y4,11,2,1.0,38.0,0.472,0.0,0.0
prolific,0kw0yjeyfmbqohivbcjol0y4,12,2,0.0,37.0,0.343,0.0,0.0
prolific,0kw0yjeyfmbqohivbcjol0y4,13,2,2.0,39.0,0.488,1.0,0.0
prolific,0kw0yjeyfmbqohivbcjol0y4,14,2,2.0,39.0,0.417,1.0,1.0
prolific,0kw0yjeyfmbqohivbcjol0y4,15,2,2.0,39.0,1.14,1.0,1.0
prolific,0kw0yjeyfmbqohivbcjol0y4,16,0,2.0,39.0,0.489,0.0,0.0
prolific,0kw0yjeyfmbqohivbcjol0y4,17,0,1.0,38.0,0.452,0.0,0.0
prolific,0kw0yjeyfmbqohivbcjol0y4,18,0,1.0,38.0,0.33,0.0,1.0
prolific,0kw0yjeyfmbqohivbcjol0y4,19,0,1.0,38.0,0.443,0.0,0.0
prolific,0kw0yjeyfmbqohivbcjol0y4,20,0,0.0,37.0,0.381,1.0,1.0
prolific,0kw0yjeyfmbqohivbcjol0y4,21,0,2.0,39.0,0.496,0.0,0.0
prolific,0kw0yjeyfmbqohivbcjol0y4,22,0,2.0,39.0,0.524,0.0,0.0
prolific,0kw0yjeyfmbqohivbcjol0y4,23,0,1.0,38.0,0.372,0.0,0.0
prolific,0kw0yjeyfmbqohivbcjol0y4,24,0,1.0,38.0,0.268,0.0,1.0
prolific,0kw0yjeyfmbqohivbcjol0y4,25,0,0.0,37.0,0.37,1.0,1.0
prolific,0kw0yjeyfmbqohivbcjol0y4,26,0,2.0,39.0,1.195,0.0,0.0
prolific,0kw0yjeyfmbqohivbcjol0y4,27,0,2.0,39.0,0.411,0.0,0.0
prolific,0kw0yjeyfmbqohivbcjol0y4,28,0,1.0,38.0,0.707,0.0,1.0
prolific,0kw0yjeyfmbqohivbcjol0y4,29,0,0.0,37.0,0.542,1.0,1.0
prolific,0kw0yjeyfmbqohivbcjol0y4,30,0,1.0,38.0,1.162,0.0,0.0
prolific,0kw0yjeyfmbqohivbcjol0y4,31,1,0.0,37.0,0.227,0.0,0.0
prolific,0kw0yjeyfmbqohivbcjol0y4,32,1,2.0,39.0,0.317,0.0,0.0
prolific,0kw0yjeyfmbqohivbcjol0y4,33,1,2.0,39.0,0.307,0.0,0.0
prolific,0kw0yjeyfmbqohivbcjol0y4,34,1,2.0,39.0,0.269,0.0,0.0
prolific,0kw0yjeyfmbqohivbcjol0y4,35,1,1.0,38.0,0.139,1.0,1.0
prolific,0kw0yjeyfmbqohivbcjol0y4,36,1,0.0,37.0,1.467,0.0,0.0
prolific,0kw0yjeyfmbqohivbcjol0y4,37,1,1.0,38.0,0.573,1.0,1.0
prolific,0kw0yjeyfmbqohivbcjol0y4,38,1,1.0,38.0,0.411,1.0,1.0
prolific,0kw0yjeyfmbqohivbcjol0y4,39,1,1.0,38.0,0.482,1.0,1.0
prolific,0kw0yjeyfmbqohivbcjol0y4,40,1,1.0,38.0,0.382,1.0,1.0
prolific,0kw0yjeyfmbqohivbcjol0y4,41,1,1.0,38.0,0.507,1.0,1.0
prolific,0kw0yjeyfmbqohivbcjol0y4,42,1,1.0,38.0,0.34,1.0,1.0
prolific,0kw0yjeyfmbqohivbcjol0y4,43,1,1.0,38.0,0.347,1.0,1.0
prolific,0kw0yjeyfmbqohivbcjol0y4,44,1,1.0,38.0,0.389,1.0,1.0
prolific,0kw0yjeyfmbqohivbcjol0y4,45,1,1.0,38.0,0.444,1.0,1.0
prolific,0kw0yjeyfmbqohivbcjol0y4,46,2,1.0,38.0,0.388,0.0,1.0
prolific,0kw0yjeyfmbqohivbcjol0y4,47,2,1.0,38.0,0.421,0.0,0.0
prolific,0kw0yjeyfmbqohivbcjol0y4,48,2,2.0,39.0,0.389,1.0,1.0
prolific,0kw0yjeyfmbqohivbcjol0y4,49,2,2.0,39.0,0.572,1.0,1.0
prolific,0kw0yjeyfmbqohivbcjol0y4,50,2,2.0,39.0,0.349,1.0,1.0
prolific,0kw0yjeyfmbqohivbcjol0y4,51,2,2.0,39.0,0.386,1.0,1.0
prolific,0kw0yjeyfmbqohivbcjol0y4,52,2,2.0,39.0,0.355,1.0,1.0
prolific,0kw0yjeyfmbqohivbcjol0y4,53,2,2.0,39.0,0.425,1.0,0.0
prolific,0kw0yjeyfmbqohivbcjol0y4,54,2,0.0,37.0,0.684,0.0,0.0
prolific,0kw0yjeyfmbqohivbcjol0y4,55,2,1.0,38.0,0.324,0.0,0.0
prolific,0kw0yjeyfmbqohivbcjol0y4,56,2,0.0,37.0,0.625,0.0,0.0
prolific,0kw0yjeyfmbqohivbcjol0y4,57,2,2.0,39.0,0.394,1.0,1.0
prolific,0kw0yjeyfmbqohivbcjol0y4,58,2,2.0,39.0,0.515,1.0,1.0
prolific,0kw0yjeyfmbqohivbcjol0y4,59,2,2.0,39.0,3.737,1.0,1.0
prolific,0kw0yjeyfmbqohivbcjol0y4,60,2,2.0,39.0,0.371,1.0,1.0
prolific,0kw0yjeyfmbqohivbcjol0y4,61,1,2.0,39.0,0.308,0.0,0.0
prolific,0kw0yjeyfmbqohivbcjol0y4,62,1,1.0,38.0,0.324,1.0,1.0
prolific,0kw0yjeyfmbqohivbcjol0y4,63,1,1.0,38.0,0.332,1.0,1.0
prolific,0kw0yjeyfmbqohivbcjol0y4,64,1,1.0,38.0,0.372,1.0,1.0
prolific,0kw0yjeyfmbqohivbcjol0y4,65,1,1.0,38.0,0.381,1.0,1.0
prolific,0kw0yjeyfmbqohivbcjol0y4,66,1,1.0,38.0,0.404,1.0,1.0
prolific,0kw0yjeyfmbqohivbcjol0y4,67,1,1.0,38.0,0.428,1.0,0.0
prolific,0kw0yjeyfmbqohivbcjol0y4,68,1,0.0,37.0,0.355,0.0,0.0
prolific,0kw0yjeyfmbqohivbcjol0y4,69,1,2.0,39.0,0.466,0.0,0.0
prolific,0kw0yjeyfmbqohivbcjol0y4,70,1,0.0,37.0,0.348,0.0,0.0
prolific,0kw0yjeyfmbqohivbcjol0y4,71,1,1.0,38.0,0.314,1.0,1.0
prolific,0kw0yjeyfmbqohivbcjol0y4,72,1,1.0,38.0,0.302,1.0,1.0
prolific,0kw0yjeyfmbqohivbcjol0y4,73,1,1.0,38.0,0.483,1.0,1.0
prolific,0kw0yjeyfmbqohivbcjol0y4,74,1,1.0,38.0,0.739,1.0,1.0
prolific,0kw0yjeyfmbqohivbcjol0y4,75,1,1.0,38.0,2.492,1.0,0.0
prolific,0kw0yjeyfmbqohivbcjol0y4,76,2,1.0,38.0,1.744,0.0,0.0
prolific,0kw0yjeyfmbqohivbcjol0y4,77,2,0.0,37.0,0.309,0.0,0.0
prolific,0kw0yjeyfmbqohivbcjol0y4,78,2,2.0,39.0,0.38,1.0,0.0
prolific,0kw0yjeyfmbqohivbcjol0y4,79,2,1.0,38.0,0.924,0.0,0.0
prolific,0kw0yjeyfmbqohivbcjol0y4,80,2,0.0,37.0,0.593,0.0,1.0
prolific,0kw0yjeyfmbqohivbcjol0y4,81,2,0.0,37.0,0.38,0.0,0.0
prolific,0kw0yjeyfmbqohivbcjol0y4,82,2,2.0,39.0,0.363,1.0,1.0
prolific,0kw0yjeyfmbqohivbcjol0y4,83,2,2.0,39.0,0.346,1.0,1.0
prolific,0kw0yjeyfmbqohivbcjol0y4,84,2,2.0,39.0,0.307,1.0,1.0
prolific,0kw0yjeyfmbqohivbcjol0y4,85,2,2.0,39.0,0.98,1.0,1.0
prolific,0kw0yjeyfmbqohivbcjol0y4,86,2,2.0,39.0,0.29,1.0,1.0
prolific,0kw0yjeyfmbqohivbcjol0y4,87,2,2.0,39.0,0.842,1.0,1.0
prolific,0kw0yjeyfmbqohivbcjol0y4,88,2,2.0,39.0,0.399,1.0,1.0
prolific,0kw0yjeyfmbqohivbcjol0y4,89,2,2.0,39.0,0.533,1.0,0.0
prolific,0kw0yjeyfmbqohivbcjol0y4,90,2,1.0,38.0,0.378,0.0,0.0
prolific,0vl2swi8jsl18qhae18l9lfn,1,1,0.0,37.0,3.759,0.0,0.0
prolific,0vl2swi8jsl18qhae18l9lfn,2,1,1.0,38.0,1.383,1.0,1.0
prolific,0vl2swi8jsl18qhae18l9lfn,3,1,1.0,38.0,1.809,1.0,1.0
prolific,0vl2swi8jsl18qhae18l9lfn,4,1,1.0,38.0,0.976,1.0,1.0
prolific,0vl2swi8jsl18qhae18l9lfn,5,1,1.0,38.0,0.721,1.0,0.0
prolific,0vl2swi8jsl18qhae18l9lfn,6,1,2.0,39.0,0.746,0.0,0.0
prolific,0vl2swi8jsl18qhae18l9lfn,7,1,1.0,38.0,1.959,1.0,1.0
prolific,0vl2swi8jsl18qhae18l9lfn,8,1,1.0,38.0,0.512,1.0,1.0
prolific,0vl2swi8jsl18qhae18l9lfn,9,1,1.0,38.0,0.516,1.0,1.0
prolific,0vl2swi8jsl18qhae18l9lfn,10,1,1.0,38.0,0.336,1.0,1.0
prolific,0vl2swi8jsl18qhae18l9lfn,11,1,1.0,38.0,0.392,1.0,1.0
prolific,0vl2swi8jsl18qhae18l9lfn,12,1,1.0,38.0,0.6,1.0,1.0
prolific,0vl2swi8jsl18qhae18l9lfn,13,1,1.0,38.0,0.375,1.0,1.0
prolific,0vl2swi8jsl18qhae18l9lfn,14,1,1.0,38.0,0.381,1.0,0.0
prolific,0vl2swi8jsl18qhae18l9lfn,15,1,0.0,37.0,1.025,0.0,0.0
prolific,0vl2swi8jsl18qhae18l9lfn,16,2,1.0,38.0,1.312,0.0,0.0
prolific,0vl2swi8jsl18qhae18l9lfn,17,2,2.0,39.0,0.346,1.0,1.0
prolific,0vl2swi8jsl18qhae18l9lfn,18,2,2.0,39.0,0.31,1.0,0.0
prolific,0vl2swi8jsl18qhae18l9lfn,19,2,1.0,38.0,0.889,0.0,1.0
prolific,0vl2swi8jsl18qhae18l9lfn,20,2,1.0,38.0,0.363,0.0,0.0
prolific,0vl2swi8jsl18qhae18l9lfn,21,2,1.0,38.0,0.492,0.0,0.0
prolific,0vl2swi8jsl18qhae18l9lfn,22,2,2.0,39.0,1.091,1.0,1.0
prolific,0vl2swi8jsl18qhae18l9lfn,23,2,2.0,39.0,0.359,1.0,1.0
prolific,0vl2swi8jsl18qhae18l9lfn,24,2,2.0,39.0,0.444,1.0,1.0
prolific,0vl2swi8jsl18qhae18l9lfn,25,2,2.0,39.0,0.494,1.0,0.0
prolific,0vl2swi8jsl18qhae18l9lfn,26,2,0.0,37.0,0.75,0.0,0.0
prolific,0vl2swi8jsl18qhae18l9lfn,27,2,1.0,38.0,0.477,0.0,1.0
prolific,0vl2swi8jsl18qhae18l9lfn,28,2,1.0,38.0,0.396,0.0,1.0
prolific,0vl2swi8jsl18qhae18l9lfn,29,2,1.0,38.0,0.388,0.0,0.0
prolific,0vl2swi8jsl18qhae18l9lfn,30,2,2.0,39.0,0.373,1.0,0.0
prolific,0vl2swi8jsl18qhae18l9lfn,31,1,0.0,37.0,0.688,0.0,0.0
prolific,0vl2swi8jsl18qhae18l9lfn,32,1,1.0,38.0,0.379,1.0,1.0
prolific,0vl2swi8jsl18qhae18l9lfn,33,1,1.0,38.0,0.428,1.0,1.0
prolific,0vl2swi8jsl18qhae18l9lfn,34,1,1.0,38.0,0.358,1.0,0.0
prolific,0vl2swi8jsl18qhae18l9lfn,35,1,1.0,38.0,0.403,1.0,1.0
prolific,0vl2swi8jsl18qhae18l9lfn,36,1,1.0,38.0,0.36,1.0,1.0
prolific,0vl2swi8jsl18qhae18l9lfn,37,1,1.0,38.0,0.366,1.0,1.0
prolific,0vl2swi8jsl18qhae18l9lfn,38,1,1.0,38.0,0.481,1.0,1.0
prolific,0vl2swi8jsl18qhae18l9lfn,39,1,1.0,38.0,0.457,1.0,1.0
prolific,0vl2swi8jsl18qhae18l9lfn,40,1,1.0,38.0,0.345,1.0,1.0
prolific,0vl2swi8jsl18qhae18l9lfn,41,1,1.0,38.0,0.366,1.0,1.0
prolific,0vl2swi8jsl18qhae18l9lfn,42,1,1.0,38.0,0.506,1.0,0.0
prolific,0vl2swi8jsl18qhae18l9lfn,43,1,1.0,38.0,0.73,1.0,0.0
prolific,0vl2swi8jsl18qhae18l9lfn,44,1,2.0,39.0,0.333,0.0,0.0
prolific,0vl2swi8jsl18qhae18l9lfn,45,1,0.0,37.0,0.489,0.0,0.0
prolific,0vl2swi8jsl18qhae18l9lfn,46,0,1.0,38.0,0.464,0.0,0.0
prolific,0vl2swi8jsl18qhae18l9lfn,47,0,1.0,38.0,0.333,0.0,0.0
prolific,0vl2swi8jsl18qhae18l9lfn,48,0,1.0,38.0,0.782,0.0,0.0
prolific,0vl2swi8jsl18qhae18l9lfn,49,0,2.0,39.0,0.382,0.0,0.0
prolific,0vl2swi8jsl18qhae18l9lfn,50,0,2.0,39.0,0.297,0.0,0.0
prolific,0vl2swi8jsl18qhae18l9lfn,51,0,0.0,37.0,0.293,1.0,1.0
prolific,0vl2swi8jsl18qhae18l9lfn,52,0,0.0,37.0,0.345,1.0,0.0
prolific,0vl2swi8jsl18qhae18l9lfn,53,0,0.0,37.0,0.307,1.0,1.0
prolific,0vl2swi8jsl18qhae18l9lfn,54,0,0.0,37.0,0.347,1.0,1.0
prolific,0vl2swi8jsl18qhae18l9lfn,55,0,0.0,37.0,0.406,1.0,0.0
prolific,0vl2swi8jsl18qhae18l9lfn,56,0,0.0,37.0,0.27,1.0,0.0
prolific,0vl2swi8jsl18qhae18l9lfn,57,0,1.0,38.0,0.108,0.0,0.0
prolific,0vl2swi8jsl18qhae18l9lfn,58,0,2.0,39.0,0.524,0.0,0.0
prolific,0vl2swi8jsl18qhae18l9lfn,59,0,0.0,37.0,0.073,1.0,1.0
prolific,0vl2swi8jsl18qhae18l9lfn,60,0,0.0,37.0,0.335,1.0,1.0
prolific,0vl2swi8jsl18qhae18l9lfn,61,1,0.0,37.0,0.284,0.0,0.0
prolific,0vl2swi8jsl18qhae18l9lfn,62,1,0.0,37.0,0.344,0.0,0.0
prolific,0vl2swi8jsl18qhae18l9lfn,63,1,1.0,38.0,0.113,1.0,0.0
prolific,0vl2swi8jsl18qhae18l9lfn,64,1,1.0,38.0,0.262,1.0,1.0
prolific,0vl2swi8jsl18qhae18l9lfn,65,1,1.0,38.0,0.375,1.0,1.0
prolific,0vl2swi8jsl18qhae18l9lfn,66,1,1.0,38.0,0.521,1.0,1.0
prolific,0vl2swi8jsl18qhae18l9lfn,67,1,1.0,38.0,0.38,1.0,1.0
prolific,0vl2swi8jsl18qhae18l9lfn,68,1,1.0,38.0,0.412,1.0,1.0
prolific,0vl2swi8jsl18qhae18l9lfn,69,1,1.0,38.0,0.392,1.0,1.0
prolific,0vl2swi8jsl18qhae18l9lfn,70,1,1.0,38.0,0.365,1.0,1.0
prolific,0vl2swi8jsl18qhae18l9lfn,71,1,1.0,38.0,0.411,1.0,1.0
prolific,0vl2swi8jsl18qhae18l9lfn,72,1,1.0,38.0,0.291,1.0,1.0
prolific,0vl2swi8jsl18qhae18l9lfn,73,1,1.0,38.0,0.41,1.0,1.0
prolific,0vl2swi8jsl18qhae18l9lfn,74,1,1.0,38.0,0.397,1.0,1.0
prolific,0vl2swi8jsl18qhae18l9lfn,75,1,1.0,38.0,0.571,1.0,0.0
prolific,0vl2swi8jsl18qhae18l9lfn,76,0,1.0,38.0,0.321,0.0,0.0
prolific,0vl2swi8jsl18qhae18l9lfn,77,0,0.0,37.0,0.636,1.0,1.0
prolific,0vl2swi8jsl18qhae18l9lfn,78,0,0.0,37.0,0.38,1.0,1.0
prolific,0vl2swi8jsl18qhae18l9lfn,79,0,0.0,37.0,0.405,1.0,1.0
prolific,0vl2swi8jsl18qhae18l9lfn,80,0,0.0,37.0,0.376,1.0,0.0
prolific,0vl2swi8jsl18qhae18l9lfn,81,0,0.0,37.0,0.341,1.0,1.0
prolific,0vl2swi8jsl18qhae18l9lfn,82,0,0.0,37.0,0.357,1.0,0.0
prolific,0vl2swi8jsl18qhae18l9lfn,83,0,0.0,37.0,0.374,1.0,1.0
prolific,0vl2swi8jsl18qhae18l9lfn,84,0,0.0,37.0,0.334,1.0,1.0
prolific,0vl2swi8jsl18qhae18l9lfn,85,0,0.0,37.0,0.333,1.0,1.0
prolific,0vl2swi8jsl18qhae18l9lfn,86,0,0.0,37.0,0.391,1.0,1.0
prolific,0vl2swi8jsl18qhae18l9lfn,87,0,0.0,37.0,0.385,1.0,1.0
prolific,0vl2swi8jsl18qhae18l9lfn,88,0,0.0,37.0,0.318,1.0,1.0
prolific,0vl2swi8jsl18qhae18l9lfn,89,0,0.0,37.0,0.253,1.0,0.0
prolific,0vl2swi8jsl18qhae18l9lfn,90,0,0.0,37.0,0.35,1.0,1.0
prolific,12c8bstpywx1b84b0gh2tof4,1,1,1.0,38.0,1.599,1.0,1.0
prolific,12c8bstpywx1b84b0gh2tof4,2,1,1.0,38.0,0.644,1.0,1.0
prolific,12c8bstpywx1b84b0gh2tof4,3,1,1.0,38.0,1.285,1.0,0.0
prolific,12c8bstpywx1b84b0gh2tof4,4,1,0.0,37.0,0.526,0.0,1.0
prolific,12c8bstpywx1b84b0gh2tof4,5,1,0.0,37.0,0.533,0.0,1.0
prolific,12c8bstpywx1b84b0gh2tof4,6,1,0.0,37.0,0.743,0.0,0.0
prolific,12c8bstpywx1b84b0gh2tof4,7,1,2.0,39.0,0.597,0.0,0.0
prolific,12c8bstpywx1b84b0gh2tof4,8,1,1.0,38.0,1.125,1.0,1.0
prolific,12c8bstpywx1b84b0gh2tof4,9,1,1.0,38.0,0.557,1.0,1.0
prolific,12c8bstpywx1b84b0gh2tof4,10,1,1.0,38.0,0.31,1.0,0.0
prolific,12c8bstpywx1b84b0gh2tof4,11,1,1.0,38.0,0.134,1.0,1.0
prolific,12c8bstpywx1b84b0gh2tof4,12,1,1.0,38.0,0.247,1.0,1.0
prolific,12c8bstpywx1b84b0gh2tof4,13,1,1.0,38.0,0.269,1.0,1.0
prolific,12c8bstpywx1b84b0gh2tof4,14,1,1.0,38.0,0.23,1.0,1.0
prolific,12c8bstpywx1b84b0gh2tof4,15,1,1.0,38.0,0.302,1.0,0.0
prolific,12c8bstpywx1b84b0gh2tof4,16,0,2.0,39.0,0.245,0.0,0.0
prolific,12c8bstpywx1b84b0gh2tof4,17,0,0.0,37.0,0.302,1.0,0.0
prolific,12c8bstpywx1b84b0gh2tof4,18,0,1.0,38.0,0.206,0.0,0.0
prolific,12c8bstpywx1b84b0gh2tof4,19,0,1.0,38.0,0.245,0.0,0.0
prolific,12c8bstpywx1b84b0gh2tof4,20,0,2.0,39.0,0.124,0.0,0.0
prolific,12c8bstpywx1b84b0gh2tof4,21,0,0.0,37.0,0.286,1.0,0.0
prolific,12c8bstpywx1b84b0gh2tof4,22,0,0.0,37.0,0.228,1.0,1.0
prolific,12c8bstpywx1b84b0gh2tof4,23,0,0.0,37.0,0.221,1.0,0.0
prolific,12c8bstpywx1b84b0gh2tof4,24,0,2.0,39.0,0.182,0.0,0.0
prolific,12c8bstpywx1b84b0gh2tof4,25,0,1.0,38.0,0.126,0.0,0.0
prolific,12c8bstpywx1b84b0gh2tof4,26,0,1.0,38.0,0.172,0.0,0.0
prolific,12c8bstpywx1b84b0gh2tof4,27,0,2.0,39.0,0.238,0.0,0.0
prolific,12c8bstpywx1b84b0gh2tof4,28,0,0.0,37.0,0.148,1.0,1.0
prolific,12c8bstpywx1b84b0gh2tof4,29,0,0.0,37.0,0.062,1.0,0.0
prolific,12c8bstpywx1b84b0gh2tof4,30,0,0.0,37.0,0.165,1.0,1.0
prolific,12c8bstpywx1b84b0gh2tof4,31,1,0.0,37.0,0.222,0.0,1.0
prolific,12c8bstpywx1b84b0gh2tof4,32,1,0.0,37.0,0.246,0.0,0.0
prolific,12c8bstpywx1b84b0gh2tof4,33,1,0.0,37.0,0.182,0.0,0.0
prolific,12c8bstpywx1b84b0gh2tof4,34,1,2.0,39.0,0.214,0.0,0.0
prolific,12c8bstpywx1b84b0gh2tof4,35,1,1.0,38.0,0.045,1.0,1.0
prolific,12c8bstpywx1b84b0gh2tof4,36,1,1.0,38.0,0.245,1.0,1.0
prolific,12c8bstpywx1b84b0gh2tof4,37,1,1.0,38.0,0.269,1.0,1.0
prolific,12c8bstpywx1b84b0gh2tof4,38,1,1.0,38.0,0.253,1.0,1.0
prolific,12c8bstpywx1b84b0gh2tof4,39,1,1.0,38.0,0.269,1.0,1.0
prolific,12c8bstpywx1b84b0gh2tof4,40,1,1.0,38.0,0.59,1.0,1.0
prolific,12c8bstpywx1b84b0gh2tof4,41,1,1.0,38.0,0.213,1.0,1.0
prolific,12c8bstpywx1b84b0gh2tof4,42,1,1.0,38.0,0.303,1.0,1.0
prolific,12c8bstpywx1b84b0gh2tof4,43,1,1.0,38.0,0.604,1.0,1.0
prolific,12c8bstpywx1b84b0gh2tof4,44,1,1.0,38.0,0.471,1.0,1.0
prolific,12c8bstpywx1b84b0gh2tof4,45,1,1.0,38.0,0.365,1.0,1.0
prolific,12c8bstpywx1b84b0gh2tof4,46,0,1.0,38.0,0.286,0.0,0.0
prolific,12c8bstpywx1b84b0gh2tof4,47,0,1.0,38.0,0.141,0.0,1.0
prolific,12c8bstpywx1b84b0gh2tof4,48,0,1.0,38.0,0.106,0.0,0.0
prolific,12c8bstpywx1b84b0gh2tof4,49,0,1.0,38.0,0.519,0.0,0.0
prolific,12c8bstpywx1b84b0gh2tof4,50,0,2.0,39.0,0.045,0.0,0.0
prolific,12c8bstpywx1b84b0gh2tof4,51,0,2.0,39.0,0.262,0.0,0.0
prolific,12c8bstpywx1b84b0gh2tof4,52,0,0.0,37.0,0.237,1.0,1.0
prolific,12c8bstpywx1b84b0gh2tof4,53,0,0.0,37.0,0.22,1.0,1.0
prolific,12c8bstpywx1b84b0gh2tof4,54,0,0.0,37.0,0.206,1.0,0.0
prolific,12c8bstpywx1b84b0gh2tof4,55,0,0.0,37.0,0.199,1.0,0.0
prolific,12c8bstpywx1b84b0gh2tof4,56,0,0.0,37.0,0.174,1.0,0.0
prolific,12c8bstpywx1b84b0gh2tof4,57,0,1.0,38.0,0.159,0.0,0.0
prolific,12c8bstpywx1b84b0gh2tof4,58,0,2.0,39.0,0.085,0.0,0.0
prolific,12c8bstpywx1b84b0gh2tof4,59,0,2.0,39.0,0.221,0.0,1.0
prolific,12c8bstpywx1b84b0gh2tof4,60,0,2.0,39.0,0.213,0.0,0.0
prolific,12c8bstpywx1b84b0gh2tof4,61,1,2.0,39.0,0.261,0.0,0.0
prolific,12c8bstpywx1b84b0gh2tof4,62,1,1.0,38.0,0.262,1.0,0.0
prolific,12c8bstpywx1b84b0gh2tof4,63,1,1.0,38.0,0.262,1.0,1.0
prolific,12c8bstpywx1b84b0gh2tof4,64,1,1.0,38.0,0.165,1.0,1.0
prolific,12c8bstpywx1b84b0gh2tof4,65,1,1.0,38.0,0.343,1.0,1.0
prolific,12c8bstpywx1b84b0gh2tof4,66,1,1.0,38.0,0.509,1.0,1.0
prolific,12c8bstpywx1b84b0gh2tof4,67,1,1.0,38.0,0.301,1.0,0.0
prolific,12c8bstpywx1b84b0gh2tof4,68,1,1.0,38.0,0.863,1.0,1.0
prolific,12c8bstpywx1b84b0gh2tof4,69,1,1.0,38.0,0.708,1.0,1.0
prolific,12c8bstpywx1b84b0gh2tof4,70,1,1.0,38.0,0.334,1.0,1.0
prolific,12c8bstpywx1b84b0gh2tof4,71,1,1.0,38.0,0.43,1.0,0.0
prolific,12c8bstpywx1b84b0gh2tof4,72,1,0.0,37.0,0.652,0.0,1.0
prolific,12c8bstpywx1b84b0gh2tof4,73,1,0.0,37.0,0.246,0.0,0.0
prolific,12c8bstpywx1b84b0gh2tof4,74,1,0.0,37.0,0.214,0.0,1.0
prolific,12c8bstpywx1b84b0gh2tof4,75,1,0.0,37.0,0.269,0.0,0.0
prolific,12c8bstpywx1b84b0gh2tof4,76,2,0.0,37.0,0.836,0.0,1.0
prolific,12c8bstpywx1b84b0gh2tof4,77,2,2.0,39.0,0.928,1.0,1.0
prolific,12c8bstpywx1b84b0gh2tof4,78,2,2.0,39.0,0.651,1.0,1.0
prolific,12c8bstpywx1b84b0gh2tof4,79,2,2.0,39.0,0.205,1.0,1.0
prolific,12c8bstpywx1b84b0gh2tof4,80,2,2.0,39.0,0.293,1.0,0.0
prolific,12c8bstpywx1b84b0gh2tof4,81,2,0.0,37.0,0.741,0.0,0.0
prolific,12c8bstpywx1b84b0gh2tof4,82,2,1.0,38.0,0.318,0.0,0.0
prolific,12c8bstpywx1b84b0gh2tof4,83,2,2.0,39.0,0.262,1.0,1.0
prolific,12c8bstpywx1b84b0gh2tof4,84,2,2.0,39.0,0.2,1.0,1.0
prolific,12c8bstpywx1b84b0gh2tof4,85,2,2.0,39.0,0.355,1.0,1.0
prolific,12c8bstpywx1b84b0gh2tof4,86,2,2.0,39.0,0.335,1.0,1.0
prolific,12c8bstpywx1b84b0gh2tof4,87,2,2.0,39.0,0.287,1.0,0.0
prolific,12c8bstpywx1b84b0gh2tof4,88,2,0.0,37.0,1.365,0.0,0.0
prolific,12c8bstpywx1b84b0gh2tof4,89,2,2.0,39.0,0.606,1.0,0.0
prolific,12c8bstpywx1b84b0gh2tof4,90,2,1.0,38.0,0.319,0.0,0.0
prolific,1sxr2nbpa4aj8f9ggyd14vjn,1,1,0.0,37.0,6.851,0.0,0.0
prolific,1sxr2nbpa4aj8f9ggyd14vjn,2,1,2.0,39.0,1.601,0.0,1.0
prolific,1sxr2nbpa4aj8f9ggyd14vjn,3,1,1.0,38.0,0.734,1.0,1.0
prolific,1sxr2nbpa4aj8f9ggyd14vjn,4,1,2.0,39.0,0.59,0.0,0.0
prolific,1sxr2nbpa4aj8f9ggyd14vjn,5,1,0.0,37.0,0.15,0.0,0.0
prolific,1sxr2nbpa4aj8f9ggyd14vjn,6,1,1.0,38.0,0.389,1.0,1.0
prolific,1sxr2nbpa4aj8f9ggyd14vjn,7,1,0.0,37.0,0.502,0.0,0.0
prolific,1sxr2nbpa4aj8f9ggyd14vjn,8,1,2.0,39.0,0.39,0.0,0.0
prolific,1sxr2nbpa4aj8f9ggyd14vjn,9,1,0.0,37.0,1.445,0.0,0.0
prolific,1sxr2nbpa4aj8f9ggyd14vjn,10,1,1.0,38.0,0.439,1.0,0.0
prolific,1sxr2nbpa4aj8f9ggyd14vjn,11,1,2.0,39.0,0.445,0.0,1.0
prolific,1sxr2nbpa4aj8f9ggyd14vjn,12,1,0.0,37.0,0.414,0.0,1.0
prolific,1sxr2nbpa4aj8f9ggyd14vjn,13,1,2.0,39.0,0.662,0.0,0.0
prolific,1sxr2nbpa4aj8f9ggyd14vjn,14,1,1.0,38.0,0.487,1.0,1.0
prolific,1sxr2nbpa4aj8f9ggyd14vjn,15,1,0.0,37.0,0.39,0.0,0.0
prolific,1sxr2nbpa4aj8f9ggyd14vjn,16,0,2.0,39.0,0.084,0.0,1.0
prolific,1sxr2nbpa4aj8f9ggyd14vjn,17,0,0.0,37.0,0.774,1.0,1.0
prolific,1sxr2nbpa4aj8f9ggyd14vjn,18,0,1.0,38.0,0.581,0.0,1.0
prolific,1sxr2nbpa4aj8f9ggyd14vjn,19,0,2.0,39.0,0.574,0.0,0.0
prolific,1sxr2nbpa4aj8f9ggyd14vjn,20,0,0.0,37.0,0.389,1.0,1.0
prolific,1sxr2nbpa4aj8f9ggyd14vjn,21,0,1.0,38.0,0.407,0.0,1.0
prolific,1sxr2nbpa4aj8f9ggyd14vjn,22,0,2.0,39.0,0.477,0.0,0.0
prolific,1sxr2nbpa4aj8f9ggyd14vjn,23,0,2.0,39.0,0.175,0.0,0.0
prolific,1sxr2nbpa4aj8f9ggyd14vjn,24,0,0.0,37.0,0.413,1.0,1.0
prolific,1sxr2nbpa4aj8f9ggyd14vjn,25,0,1.0,38.0,0.269,0.0,1.0
prolific,1sxr2nbpa4aj8f9ggyd14vjn,26,0,0.0,37.0,0.383,1.0,1.0
prolific,1sxr2nbpa4aj8f9ggyd14vjn,27,0,1.0,38.0,0.174,0.0,1.0
prolific,1sxr2nbpa4aj8f9ggyd14vjn,28,0,0.0,37.0,0.342,1.0,1.0
prolific,1sxr2nbpa4aj8f9ggyd14vjn,29,0,1.0,38.0,0.22,0.0,1.0
prolific,1sxr2nbpa4aj8f9ggyd14vjn,30,0,0.0,37.0,0.357,1.0,1.0
prolific,1sxr2nbpa4aj8f9ggyd14vjn,31,2,1.0,38.0,0.014,0.0,0.0
prolific,1sxr2nbpa4aj8f9ggyd14vjn,32,2,2.0,39.0,0.31,1.0,1.0
prolific,1sxr2nbpa4aj8f9ggyd14vjn,33,2,0.0,37.0,0.453,0.0,0.0
prolific,1sxr2nbpa4aj8f9ggyd14vjn,34,2,2.0,39.0,0.27,1.0,1.0
prolific,1sxr2nbpa4aj8f9ggyd14vjn,35,2,1.0,38.0,0.438,0.0,1.0
prolific,1sxr2nbpa4aj8f9ggyd14vjn,36,2,2.0,39.0,0.334,1.0,1.0
prolific,1sxr2nbpa4aj8f9ggyd14vjn,37,2,1.0,38.0,0.415,0.0,1.0
prolific,1sxr2nbpa4aj8f9ggyd14vjn,38,2,2.0,39.0,0.478,1.0,1.0
prolific,1sxr2nbpa4aj8f9ggyd14vjn,39,2,0.0,37.0,0.797,0.0,1.0
prolific,1sxr2nbpa4aj8f9ggyd14vjn,40,2,2.0,39.0,0.542,1.0,1.0
prolific,1sxr2nbpa4aj8f9ggyd14vjn,41,2,1.0,38.0,0.437,0.0,0.0
prolific,1sxr2nbpa4aj8f9ggyd14vjn,42,2,0.0,37.0,0.31,0.0,0.0
prolific,1sxr2nbpa4aj8f9ggyd14vjn,43,2,2.0,39.0,0.414,1.0,0.0
prolific,1sxr2nbpa4aj8f9ggyd14vjn,44,2,0.0,37.0,1.029,0.0,0.0
prolific,1sxr2nbpa4aj8f9ggyd14vjn,45,2,1.0,38.0,0.613,0.0,0.0
prolific,1sxr2nbpa4aj8f9ggyd14vjn,46,0,2.0,39.0,0.406,0.0,0.0
prolific,1sxr2nbpa4aj8f9ggyd14vjn,47,0,0.0,37.0,0.494,1.0,1.0
prolific,1sxr2nbpa4aj8f9ggyd14vjn,48,0,1.0,38.0,0.093,0.0,0.0
prolific,1sxr2nbpa4aj8f9ggyd14vjn,49,0,0.0,37.0,0.39,1.0,1.0
prolific,1sxr2nbpa4aj8f9ggyd14vjn,50,0,2.0,39.0,0.502,0.0,0.0
prolific,1sxr2nbpa4aj8f9ggyd14vjn,51,0,0.0,37.0,0.372,1.0,0.0
prolific,1sxr2nbpa4aj8f9ggyd14vjn,52,0,1.0,38.0,0.342,0.0,1.0
prolific,1sxr2nbpa4aj8f9ggyd14vjn,53,0,1.0,38.0,0.502,0.0,0.0
prolific,1sxr2nbpa4aj8f9ggyd14vjn,54,0,2.0,39.0,0.366,0.0,0.0
prolific,1sxr2nbpa4aj8f9ggyd14vjn,55,0,0.0,37.0,0.334,1.0,0.0
prolific,1sxr2nbpa4aj8f9ggyd14vjn,56,0,1.0,38.0,0.166,0.0,0.0
prolific,1sxr2nbpa4aj8f9ggyd14vjn,57,0,2.0,39.0,0.526,0.0,0.0
prolific,1sxr2nbpa4aj8f9ggyd14vjn,58,0,2.0,39.0,0.63,0.0,0.0
prolific,1sxr2nbpa4aj8f9ggyd14vjn,59,0,0.0,37.0,0.054,1.0,1.0
prolific,1sxr2nbpa4aj8f9ggyd14vjn,60,0,0.0,37.0,0.413,1.0,0.0
prolific,1sxr2nbpa4aj8f9ggyd14vjn,61,2,1.0,38.0,0.038,0.0,0.0
prolific,1sxr2nbpa4aj8f9ggyd14vjn,62,2,2.0,39.0,0.031,1.0,1.0
prolific,1sxr2nbpa4aj8f9ggyd14vjn,63,2,0.0,37.0,0.453,0.0,0.0
prolific,1sxr2nbpa4aj8f9ggyd14vjn,64,2,1.0,38.0,0.63,0.0,0.0
prolific,1sxr2nbpa4aj8f9ggyd14vjn,65,2,0.0,37.0,0.581,0.0,0.0
prolific,1sxr2nbpa4aj8f9ggyd14vjn,66,2,2.0,39.0,0.325,1.0,1.0
prolific,1sxr2nbpa4aj8f9ggyd14vjn,67,2,2.0,39.0,0.414,1.0,1.0
prolific,1sxr2nbpa4aj8f9ggyd14vjn,68,2,1.0,38.0,0.621,0.0,0.0
prolific,1sxr2nbpa4aj8f9ggyd14vjn,69,2,2.0,39.0,0.366,1.0,1.0
prolific,1sxr2nbpa4aj8f9ggyd14vjn,70,2,2.0,39.0,0.486,1.0,1.0
prolific,1sxr2nbpa4aj8f9ggyd14vjn,71,2,2.0,39.0,0.606,1.0,1.0
prolific,1sxr2nbpa4aj8f9ggyd14vjn,72,2,2.0,39.0,0.382,1.0,1.0
prolific,1sxr2nbpa4aj8f9ggyd14vjn,73,2,2.0,39.0,0.35,1.0,1.0
prolific,1sxr2nbpa4aj8f9ggyd14vjn,74,2,2.0,39.0,0.454,1.0,1.0
prolific,1sxr2nbpa4aj8f9ggyd14vjn,75,2,2.0,39.0,0.365,1.0,1.0
prolific,1sxr2nbpa4aj8f9ggyd14vjn,76,0,2.0,39.0,0.478,0.0,0.0
prolific,1sxr2nbpa4aj8f9ggyd14vjn,77,0,1.0,38.0,0.334,0.0,0.0
prolific,1sxr2nbpa4aj8f9ggyd14vjn,78,0,0.0,37.0,0.317,1.0,1.0
prolific,1sxr2nbpa4aj8f9ggyd14vjn,79,0,0.0,37.0,0.159,1.0,1.0
prolific,1sxr2nbpa4aj8f9ggyd14vjn,80,0,0.0,37.0,0.366,1.0,1.0
prolific,1sxr2nbpa4aj8f9ggyd14vjn,81,0,0.0,37.0,0.389,1.0,1.0
prolific,1sxr2nbpa4aj8f9ggyd14vjn,82,0,0.0,37.0,0.318,1.0,1.0
prolific,1sxr2nbpa4aj8f9ggyd14vjn,83,0,0.0,37.0,0.374,1.0,0.0
prolific,1sxr2nbpa4aj8f9ggyd14vjn,84,0,2.0,39.0,0.132,0.0,0.0
prolific,1sxr2nbpa4aj8f9ggyd14vjn,85,0,1.0,38.0,0.381,0.0,0.0
prolific,1sxr2nbpa4aj8f9ggyd14vjn,86,0,2.0,39.0,0.326,0.0,0.0
prolific,1sxr2nbpa4aj8f9ggyd14vjn,87,0,1.0,38.0,0.294,0.0,0.0
prolific,1sxr2nbpa4aj8f9ggyd14vjn,88,0,0.0,37.0,0.343,1.0,1.0
prolific,1sxr2nbpa4aj8f9ggyd14vjn,89,0,0.0,37.0,0.439,1.0,1.0
prolific,1sxr2nbpa4aj8f9ggyd14vjn,90,0,0.0,37.0,0.406,1.0,1.0
prolific,3qz20dlryiffihwsltdnk6cn,1,2,0.0,37.0,1.643,0.0,0.0
prolific,3qz20dlryiffihwsltdnk6cn,2,2,0.0,37.0,0.925,0.0,1.0
prolific,3qz20dlryiffihwsltdnk6cn,3,2,1.0,38.0,3.574,0.0,0.0
prolific,3qz20dlryiffihwsltdnk6cn,4,2,1.0,38.0,0.414,0.0,0.0
prolific,3qz20dlryiffihwsltdnk6cn,5,2,1.0,38.0,0.325,0.0,0.0
prolific,3qz20dlryiffihwsltdnk6cn,6,2,1.0,38.0,0.214,0.0,0.0
prolific,3qz20dlryiffihwsltdnk6cn,7,2,1.0,38.0,0.189,0.0,0.0
prolific,3qz20dlryiffihwsltdnk6cn,8,2,1.0,38.0,0.062,0.0,1.0
prolific,3qz20dlryiffihwsltdnk6cn,9,2,1.0,38.0,0.981,0.0,0.0
prolific,3qz20dlryiffihwsltdnk6cn,10,2,2.0,39.0,0.727,1.0,1.0
prolific,3qz20dlryiffihwsltdnk6cn,11,2,0.0,37.0,0.398,0.0,0.0
prolific,3qz20dlryiffihwsltdnk6cn,12,2,0.0,37.0,0.229,0.0,0.0
prolific,3qz20dlryiffihwsltdnk6cn,13,2,0.0,37.0,0.109,0.0,0.0
prolific,3qz20dlryiffihwsltdnk6cn,14,2,0.0,37.0,0.094,0.0,0.0
prolific,3qz20dlryiffihwsltdnk6cn,15,2,0.0,37.0,0.054,0.0,0.0
prolific,3qz20dlryiffihwsltdnk6cn,16,0,0.0,37.0,0.077,1.0,1.0
prolific,3qz20dlryiffihwsltdnk6cn,17,0,0.0,37.0,0.446,1.0,1.0
prolific,3qz20dlryiffihwsltdnk6cn,18,0,0.0,37.0,0.526,1.0,0.0
prolific,3qz20dlryiffihwsltdnk6cn,19,0,1.0,38.0,0.238,0.0,1.0
prolific,3qz20dlryiffihwsltdnk6cn,20,0,2.0,39.0,0.35,0.0,0.0
prolific,3qz20dlryiffihwsltdnk6cn,21,0,2.0,39.0,0.759,0.0,1.0
prolific,3qz20dlryiffihwsltdnk6cn,22,0,0.0,37.0,1.039,1.0,1.0
prolific,3qz20dlryiffihwsltdnk6cn,23,0,0.0,37.0,0.19,1.0,0.0
prolific,3qz20dlryiffihwsltdnk6cn,24,0,1.0,38.0,2.623,0.0,0.0
prolific,3qz20dlryiffihwsltdnk6cn,25,0,1.0,38.0,0.918,0.0,0.0
prolific,3qz20dlryiffihwsltdnk6cn,26,0,1.0,38.0,0.015,0.0,0.0
prolific,3qz20dlryiffihwsltdnk6cn,27,0,1.0,38.0,0.223,0.0,0.0
prolific,3qz20dlryiffihwsltdnk6cn,28,0,1.0,38.0,0.119,0.0,0.0
prolific,3qz20dlryiffihwsltdnk6cn,29,0,1.0,38.0,0.279,0.0,1.0
prolific,3qz20dlryiffihwsltdnk6cn,30,0,1.0,38.0,0.109,0.0,0.0
prolific,3qz20dlryiffihwsltdnk6cn,31,1,2.0,39.0,0.03,0.0,1.0
prolific,3qz20dlryiffihwsltdnk6cn,32,1,0.0,37.0,0.0,0.0,0.0
prolific,3qz20dlryiffihwsltdnk6cn,33,1,0.0,37.0,0.541,0.0,1.0
prolific,3qz20dlryiffihwsltdnk6cn,34,1,1.0,38.0,0.35,1.0,1.0
prolific,3qz20dlryiffihwsltdnk6cn,35,1,2.0,39.0,0.118,0.0,0.0
prolific,3qz20dlryiffihwsltdnk6cn,36,1,2.0,39.0,0.158,0.0,0.0
prolific,3qz20dlryiffihwsltdnk6cn,37,1,2.0,39.0,0.231,0.0,0.0
prolific,3qz20dlryiffihwsltdnk6cn,38,1,2.0,39.0,0.071,0.0,0.0
prolific,3qz20dlryiffihwsltdnk6cn,39,1,2.0,39.0,0.231,0.0,0.0
prolific,3qz20dlryiffihwsltdnk6cn,40,1,2.0,39.0,0.326,0.0,0.0
prolific,3qz20dlryiffihwsltdnk6cn,41,1,2.0,39.0,0.271,0.0,0.0
prolific,3qz20dlryiffihwsltdnk6cn,42,1,2.0,39.0,0.247,0.0,0.0
prolific,3qz20dlryiffihwsltdnk6cn,43,1,2.0,39.0,0.27,0.0,0.0
prolific,3qz20dlryiffihwsltdnk6cn,44,1,2.0,39.0,0.244,0.0,0.0
prolific,3qz20dlryiffihwsltdnk6cn,45,1,2.0,39.0,0.27,0.0,1.0
prolific,3qz20dlryiffihwsltdnk6cn,46,2,2.0,39.0,0.229,1.0,1.0
prolific,3qz20dlryiffihwsltdnk6cn,47,2,2.0,39.0,0.158,1.0,0.0
prolific,3qz20dlryiffihwsltdnk6cn,48,2,0.0,37.0,0.182,0.0,0.0
prolific,3qz20dlryiffihwsltdnk6cn,49,2,0.0,37.0,0.087,0.0,1.0
prolific,3qz20dlryiffihwsltdnk6cn,50,2,1.0,38.0,0.262,0.0,0.0
prolific,3qz20dlryiffihwsltdnk6cn,51,2,1.0,38.0,0.095,0.0,0.0
prolific,3qz20dlryiffihwsltdnk6cn,52,2,1.0,38.0,0.238,0.0,0.0
prolific,3qz20dlryiffihwsltdnk6cn,53,2,1.0,38.0,0.038,0.0,0.0
prolific,3qz20dlryiffihwsltdnk6cn,54,2,1.0,38.0,0.126,0.0,0.0
prolific,3qz20dlryiffihwsltdnk6cn,55,2,1.0,38.0,0.062,0.0,1.0
prolific,3qz20dlryiffihwsltdnk6cn,56,2,1.0,38.0,0.126,0.0,0.0
prolific,3qz20dlryiffihwsltdnk6cn,57,2,2.0,39.0,0.0,1.0,1.0
prolific,3qz20dlryiffihwsltdnk6cn,58,2,0.0,37.0,0.037,0.0,0.0
prolific,3qz20dlryiffihwsltdnk6cn,59,2,0.0,37.0,0.143,0.0,0.0
prolific,3qz20dlryiffihwsltdnk6cn,60,2,0.0,37.0,0.662,0.0,0.0
prolific,3qz20dlryiffihwsltdnk6cn,61,0,0.0,37.0,0.134,1.0,1.0
prolific,3qz20dlryiffihwsltdnk6cn,62,0,0.0,37.0,0.131,1.0,1.0
prolific,3qz20dlryiffihwsltdnk6cn,63,0,0.0,37.0,0.1,1.0,1.0
prolific,3qz20dlryiffihwsltdnk6cn,64,0,0.0,37.0,0.086,1.0,0.0
prolific,3qz20dlryiffihwsltdnk6cn,65,0,1.0,38.0,0.07,0.0,0.0
prolific,3qz20dlryiffihwsltdnk6cn,66,0,1.0,38.0,0.103,0.0,0.0
prolific,3qz20dlryiffihwsltdnk6cn,67,0,1.0,38.0,0.078,0.0,0.0
prolific,3qz20dlryiffihwsltdnk6cn,68,0,1.0,38.0,0.19,0.0,0.0
prolific,3qz20dlryiffihwsltdnk6cn,69,0,1.0,38.0,0.254,0.0,0.0
prolific,3qz20dlryiffihwsltdnk6cn,70,0,1.0,38.0,0.0,0.0,1.0
prolific,3qz20dlryiffihwsltdnk6cn,71,0,1.0,38.0,0.139,0.0,0.0
prolific,3qz20dlryiffihwsltdnk6cn,72,0,2.0,39.0,0.215,0.0,0.0
prolific,3qz20dlryiffihwsltdnk6cn,73,0,2.0,39.0,0.151,0.0,0.0
prolific,3qz20dlryiffihwsltdnk6cn,74,0,2.0,39.0,0.126,0.0,1.0
prolific,3qz20dlryiffihwsltdnk6cn,75,0,2.0,39.0,0.231,0.0,1.0
prolific,3qz20dlryiffihwsltdnk6cn,76,2,2.0,39.0,0.062,1.0,1.0
prolific,3qz20dlryiffihwsltdnk6cn,77,2,2.0,39.0,0.07,1.0,1.0
prolific,3qz20dlryiffihwsltdnk6cn,78,2,2.0,39.0,0.046,1.0,1.0
prolific,3qz20dlryiffihwsltdnk6cn,79,2,2.0,39.0,0.023,1.0,1.0
prolific,3qz20dlryiffihwsltdnk6cn,80,2,2.0,39.0,0.014,1.0,1.0
prolific,3qz20dlryiffihwsltdnk6cn,81,2,2.0,39.0,0.007,1.0,1.0
prolific,3qz20dlryiffihwsltdnk6cn,82,2,2.0,39.0,0.0,1.0,1.0
prolific,3qz20dlryiffihwsltdnk6cn,83,2,2.0,39.0,0.163,1.0,1.0
prolific,3qz20dlryiffihwsltdnk6cn,84,2,2.0,39.0,0.079,1.0,1.0
prolific,3qz20dlryiffihwsltdnk6cn,85,2,2.0,39.0,0.095,1.0,1.0
prolific,3qz20dlryiffihwsltdnk6cn,86,2,2.0,39.0,0.066,1.0,1.0
prolific,3qz20dlryiffihwsltdnk6cn,87,2,2.0,39.0,0.286,1.0,1.0
prolific,3qz20dlryiffihwsltdnk6cn,88,2,2.0,39.0,0.037,1.0,1.0
prolific,3qz20dlryiffihwsltdnk6cn,89,2,2.0,39.0,0.013,1.0,1.0
prolific,3qz20dlryiffihwsltdnk6cn,90,2,2.0,39.0,0.486,1.0,1.0
prolific,3yg7loing1p7y2bbmo5b777o,1,0,0.0,37.0,3.383,1.0,1.0
prolific,3yg7loing1p7y2bbmo5b777o,2,0,0.0,37.0,4.988,1.0,1.0
prolific,3yg7loing1p7y2bbmo5b777o,3,0,0.0,37.0,2.332,1.0,1.0
prolific,3yg7loing1p7y2bbmo5b777o,4,0,0.0,37.0,1.859,1.0,1.0
prolific,3yg7loing1p7y2bbmo5b777o,5,0,0.0,37.0,1.228,1.0,1.0
prolific,3yg7loing1p7y2bbmo5b777o,6,0,0.0,37.0,1.196,1.0,1.0
prolific,3yg7loing1p7y2bbmo5b777o,7,0,0.0,37.0,0.891,1.0,0.0
prolific,3yg7loing1p7y2bbmo5b777o,8,0,1.0,38.0,0.907,0.0,0.0
prolific,3yg7loing1p7y2bbmo5b777o,9,0,1.0,38.0,0.86,0.0,1.0
prolific,3yg7loing1p7y2bbmo5b777o,10,0,1.0,38.0,0.844,0.0,1.0
prolific,3yg7loing1p7y2bbmo5b777o,11,0,1.0,38.0,0.708,0.0,0.0
prolific,3yg7loing1p7y2bbmo5b777o,12,0,2.0,39.0,0.556,0.0,1.0
prolific,3yg7loing1p7y2bbmo5b777o,13,0,2.0,39.0,0.571,0.0,0.0
prolific,3yg7loing1p7y2bbmo5b777o,14,0,0.0,37.0,0.46,1.0,1.0
prolific,3yg7loing1p7y2bbmo5b777o,15,0,0.0,37.0,0.418,1.0,0.0
prolific,3yg7loing1p7y2bbmo5b777o,16,1,2.0,39.0,0.491,0.0,0.0
prolific,3yg7loing1p7y2bbmo5b777o,17,1,2.0,39.0,0.451,0.0,0.0
prolific,3yg7loing1p7y2bbmo5b777o,18,1,0.0,37.0,0.339,0.0,0.0
prolific,3yg7loing1p7y2bbmo5b777o,19,1,1.0,38.0,0.307,1.0,1.0
prolific,3yg7loing1p7y2bbmo5b777o,20,1,1.0,38.0,0.317,1.0,1.0
prolific,3yg7loing1p7y2bbmo5b777o,21,1,1.0,38.0,0.411,1.0,1.0
prolific,3yg7loing1p7y2bbmo5b777o,22,1,1.0,38.0,0.461,1.0,1.0
prolific,3yg7loing1p7y2bbmo5b777o,23,1,1.0,38.0,0.508,1.0,1.0
prolific,3yg7loing1p7y2bbmo5b777o,24,1,1.0,38.0,0.587,1.0,0.0
prolific,3yg7loing1p7y2bbmo5b777o,25,1,2.0,39.0,0.634,0.0,0.0
prolific,3yg7loing1p7y2bbmo5b777o,26,1,2.0,39.0,0.595,0.0,0.0
prolific,3yg7loing1p7y2bbmo5b777o,27,1,0.0,37.0,0.498,0.0,0.0
prolific,3yg7loing1p7y2bbmo5b777o,28,1,0.0,37.0,0.284,0.0,0.0
prolific,3yg7loing1p7y2bbmo5b777o,29,1,1.0,38.0,0.147,1.0,1.0
prolific,3yg7loing1p7y2bbmo5b777o,30,1,1.0,38.0,0.355,1.0,1.0
prolific,3yg7loing1p7y2bbmo5b777o,31,0,1.0,38.0,0.402,0.0,0.0
prolific,3yg7loing1p7y2bbmo5b777o,32,0,1.0,38.0,0.444,0.0,0.0
prolific,3yg7loing1p7y2bbmo5b777o,33,0,1.0,38.0,0.306,0.0,0.0
prolific,3yg7loing1p7y2bbmo5b777o,34,0,2.0,39.0,0.516,0.0,0.0
prolific,3yg7loing1p7y2bbmo5b777o,35,0,2.0,39.0,0.3,0.0,0.0
prolific,3yg7loing1p7y2bbmo5b777o,36,0,0.0,37.0,0.492,1.0,1.0
prolific,3yg7loing1p7y2bbmo5b777o,37,0,0.0,37.0,0.46,1.0,1.0
prolific,3yg7loing1p7y2bbmo5b777o,38,0,0.0,37.0,0.732,1.0,0.0
prolific,3yg7loing1p7y2bbmo5b777o,39,0,1.0,38.0,0.691,0.0,0.0
prolific,3yg7loing1p7y2bbmo5b777o,40,0,0.0,37.0,0.204,1.0,1.0
prolific,3yg7loing1p7y2bbmo5b777o,41,0,0.0,37.0,0.38,1.0,0.0
prolific,3yg7loing1p7y2bbmo5b777o,42,0,2.0,39.0,0.188,0.0,0.0
prolific,3yg7loing1p7y2bbmo5b777o,43,0,1.0,38.0,0.244,0.0,0.0
prolific,3yg7loing1p7y2bbmo5b777o,44,0,1.0,38.0,0.483,0.0,0.0
prolific,3yg7loing1p7y2bbmo5b777o,45,0,0.0,37.0,0.381,1.0,1.0
prolific,3yg7loing1p7y2bbmo5b777o,46,2,0.0,37.0,0.403,0.0,0.0
prolific,3yg7loing1p7y2bbmo5b777o,47,2,0.0,37.0,0.428,0.0,0.0
prolific,3yg7loing1p7y2bbmo5b777o,48,2,0.0,37.0,0.484,0.0,0.0
prolific,3yg7loing1p7y2bbmo5b777o,49,2,1.0,38.0,0.395,0.0,0.0
prolific,3yg7loing1p7y2bbmo5b777o,50,2,1.0,38.0,0.339,0.0,1.0
prolific,3yg7loing1p7y2bbmo5b777o,51,2,1.0,38.0,0.347,0.0,0.0
prolific,3yg7loing1p7y2bbmo5b777o,52,2,1.0,38.0,0.364,0.0,0.0
prolific,3yg7loing1p7y2bbmo5b777o,53,2,2.0,39.0,0.642,1.0,1.0
prolific,3yg7loing1p7y2bbmo5b777o,54,2,2.0,39.0,0.387,1.0,0.0
prolific,3yg7loing1p7y2bbmo5b777o,55,2,2.0,39.0,0.363,1.0,1.0
prolific,3yg7loing1p7y2bbmo5b777o,56,2,2.0,39.0,0.49,1.0,0.0
prolific,3yg7loing1p7y2bbmo5b777o,57,2,2.0,39.0,0.363,1.0,0.0
prolific,3yg7loing1p7y2bbmo5b777o,58,2,0.0,37.0,0.242,0.0,0.0
prolific,3yg7loing1p7y2bbmo5b777o,59,2,0.0,37.0,0.361,0.0,0.0
prolific,3yg7loing1p7y2bbmo5b777o,60,2,1.0,38.0,0.258,0.0,0.0
prolific,3yg7loing1p7y2bbmo5b777o,61,1,1.0,38.0,0.315,1.0,1.0
prolific,3yg7loing1p7y2bbmo5b777o,62,1,1.0,38.0,0.376,1.0,1.0
prolific,3yg7loing1p7y2bbmo5b777o,63,1,1.0,38.0,0.419,1.0,1.0
prolific,3yg7loing1p7y2bbmo5b777o,64,1,1.0,38.0,0.403,1.0,1.0
prolific,3yg7loing1p7y2bbmo5b777o,65,1,1.0,38.0,0.323,1.0,1.0
prolific,3yg7loing1p7y2bbmo5b777o,66,1,1.0,38.0,0.315,1.0,0.0
prolific,3yg7loing1p7y2bbmo5b777o,67,1,0.0,37.0,0.676,0.0,0.0
prolific,3yg7loing1p7y2bbmo5b777o,68,1,2.0,39.0,0.34,0.0,0.0
prolific,3yg7loing1p7y2bbmo5b777o,69,1,0.0,37.0,0.331,0.0,0.0
prolific,3yg7loing1p7y2bbmo5b777o,70,1,1.0,38.0,0.099,1.0,0.0
prolific,3yg7loing1p7y2bbmo5b777o,71,1,2.0,39.0,0.044,0.0,0.0
prolific,3yg7loing1p7y2bbmo5b777o,72,1,0.0,37.0,0.444,0.0,1.0
prolific,3yg7loing1p7y2bbmo5b777o,73,1,0.0,37.0,0.499,0.0,0.0
prolific,3yg7loing1p7y2bbmo5b777o,74,1,0.0,37.0,0.322,0.0,1.0
prolific,3yg7loing1p7y2bbmo5b777o,75,1,0.0,37.0,0.363,0.0,0.0
prolific,3yg7loing1p7y2bbmo5b777o,76,2,0.0,37.0,0.346,0.0,1.0
prolific,3yg7loing1p7y2bbmo5b777o,77,2,1.0,38.0,0.506,0.0,0.0
prolific,3yg7loing1p7y2bbmo5b777o,78,2,1.0,38.0,0.218,0.0,0.0
prolific,3yg7loing1p7y2bbmo5b777o,79,2,1.0,38.0,0.314,0.0,0.0
prolific,3yg7loing1p7y2bbmo5b777o,80,2,0.0,37.0,0.378,0.0,1.0
prolific,3yg7loing1p7y2bbmo5b777o,81,2,0.0,37.0,0.386,0.0,0.0
prolific,3yg7loing1p7y2bbmo5b777o,82,2,0.0,37.0,0.458,0.0,1.0
prolific,3yg7loing1p7y2bbmo5b777o,83,2,0.0,37.0,0.691,0.0,0.0
prolific,3yg7loing1p7y2bbmo5b777o,84,2,0.0,37.0,0.387,0.0,0.0
prolific,3yg7loing1p7y2bbmo5b777o,85,2,0.0,37.0,0.242,0.0,0.0
prolific,3yg7loing1p7y2bbmo5b777o,86,2,1.0,38.0,0.507,0.0,1.0
prolific,3yg7loing1p7y2bbmo5b777o,87,2,1.0,38.0,0.347,0.0,1.0
prolific,3yg7loing1p7y2bbmo5b777o,88,2,1.0,38.0,0.515,0.0,0.0
prolific,3yg7loing1p7y2bbmo5b777o,89,2,1.0,38.0,0.609,0.0,0.0
prolific,3yg7loing1p7y2bbmo5b777o,90,2,2.0,39.0,0.603,1.0,1.0
prolific,4kfljupnt4llnjgshhe5xho5,1,0,1.0,38.0,3.582,0.0,1.0
prolific,4kfljupnt4llnjgshhe5xho5,2,0,1.0,38.0,0.145,0.0,0.0
prolific,4kfljupnt4llnjgshhe5xho5,3,0,1.0,38.0,0.011,0.0,0.0
prolific,4kfljupnt4llnjgshhe5xho5,4,0,1.0,38.0,0.689,0.0,0.0
prolific,4kfljupnt4llnjgshhe5xho5,5,0,0.0,37.0,1.259,1.0,1.0
prolific,4kfljupnt4llnjgshhe5xho5,6,0,0.0,37.0,0.646,1.0,1.0
prolific,4kfljupnt4llnjgshhe5xho5,7,0,0.0,37.0,0.514,1.0,1.0
prolific,4kfljupnt4llnjgshhe5xho5,8,0,0.0,37.0,0.382,1.0,1.0
prolific,4kfljupnt4llnjgshhe5xho5,9,0,0.0,37.0,0.363,1.0,1.0
prolific,4kfljupnt4llnjgshhe5xho5,10,0,0.0,37.0,0.332,1.0,1.0
prolific,4kfljupnt4llnjgshhe5xho5,11,0,0.0,37.0,0.795,1.0,1.0
prolific,4kfljupnt4llnjgshhe5xho5,12,0,0.0,37.0,0.054,1.0,1.0
prolific,4kfljupnt4llnjgshhe5xho5,13,0,0.0,37.0,0.854,1.0,1.0
prolific,4kfljupnt4llnjgshhe5xho5,14,0,0.0,37.0,0.434,1.0,1.0
prolific,4kfljupnt4llnjgshhe5xho5,15,0,0.0,37.0,0.273,1.0,1.0
prolific,4kfljupnt4llnjgshhe5xho5,16,2,0.0,37.0,0.361,0.0,0.0
prolific,4kfljupnt4llnjgshhe5xho5,17,2,0.0,37.0,0.036,0.0,0.0
prolific,4kfljupnt4llnjgshhe5xho5,18,2,0.0,37.0,0.542,0.0,0.0
prolific,4kfljupnt4llnjgshhe5xho5,19,2,0.0,37.0,0.056,0.0,0.0
prolific,4kfljupnt4llnjgshhe5xho5,20,2,2.0,39.0,0.54,1.0,0.0
prolific,4kfljupnt4llnjgshhe5xho5,21,2,2.0,39.0,0.525,1.0,0.0
prolific,4kfljupnt4llnjgshhe5xho5,22,2,2.0,39.0,0.311,1.0,1.0
prolific,4kfljupnt4llnjgshhe5xho5,23,2,2.0,39.0,0.475,1.0,1.0
prolific,4kfljupnt4llnjgshhe5xho5,24,2,2.0,39.0,0.579,1.0,1.0
prolific,4kfljupnt4llnjgshhe5xho5,25,2,2.0,39.0,0.314,1.0,1.0
prolific,4kfljupnt4llnjgshhe5xho5,26,2,2.0,39.0,0.148,1.0,0.0
prolific,4kfljupnt4llnjgshhe5xho5,27,2,2.0,39.0,0.563,1.0,1.0
prolific,4kfljupnt4llnjgshhe5xho5,28,2,2.0,39.0,0.44,1.0,0.0
prolific,4kfljupnt4llnjgshhe5xho5,29,2,2.0,39.0,0.31,1.0,1.0
prolific,4kfljupnt4llnjgshhe5xho5,30,2,2.0,39.0,0.483,1.0,1.0
prolific,4kfljupnt4llnjgshhe5xho5,31,0,2.0,39.0,0.443,0.0,1.0
prolific,4kfljupnt4llnjgshhe5xho5,32,0,2.0,39.0,0.317,0.0,1.0
prolific,4kfljupnt4llnjgshhe5xho5,33,0,2.0,39.0,0.423,0.0,0.0
prolific,4kfljupnt4llnjgshhe5xho5,34,0,2.0,39.0,0.061,0.0,0.0
prolific,4kfljupnt4llnjgshhe5xho5,35,0,2.0,39.0,0.397,0.0,0.0
prolific,4kfljupnt4llnjgshhe5xho5,36,0,1.0,38.0,0.392,0.0,0.0
prolific,4kfljupnt4llnjgshhe5xho5,37,0,1.0,38.0,0.399,0.0,0.0
prolific,4kfljupnt4llnjgshhe5xho5,38,0,1.0,38.0,0.312,0.0,0.0
prolific,4kfljupnt4llnjgshhe5xho5,39,0,1.0,38.0,0.313,0.0,0.0
prolific,4kfljupnt4llnjgshhe5xho5,40,0,0.0,37.0,0.584,1.0,1.0
prolific,4kfljupnt4llnjgshhe5xho5,41,0,0.0,37.0,0.431,1.0,0.0
prolific,4kfljupnt4llnjgshhe5xho5,42,0,0.0,37.0,0.308,1.0,1.0
prolific,4kfljupnt4llnjgshhe5xho5,43,0,0.0,37.0,0.324,1.0,1.0
prolific,4kfljupnt4llnjgshhe5xho5,44,0,0.0,37.0,0.345,1.0,0.0
prolific,4kfljupnt4llnjgshhe5xho5,45,0,0.0,37.0,0.309,1.0,1.0
prolific,4kfljupnt4llnjgshhe5xho5,46,2,0.0,37.0,0.291,0.0,0.0
prolific,4kfljupnt4llnjgshhe5xho5,47,2,0.0,37.0,0.194,0.0,0.0
prolific,4kfljupnt4llnjgshhe5xho5,48,2,0.0,37.0,0.23,0.0,0.0
prolific,4kfljupnt4llnjgshhe5xho5,49,2,2.0,39.0,0.388,1.0,1.0
prolific,4kfljupnt4llnjgshhe5xho5,50,2,2.0,39.0,0.348,1.0,1.0
prolific,4kfljupnt4llnjgshhe5xho5,51,2,2.0,39.0,0.335,1.0,1.0
prolific,4kfljupnt4llnjgshhe5xho5,52,2,2.0,39.0,0.296,1.0,0.0
prolific,4kfljupnt4llnjgshhe5xho5,53,2,2.0,39.0,0.273,1.0,1.0
prolific,4kfljupnt4llnjgshhe5xho5,54,2,2.0,39.0,0.308,1.0,1.0
prolific,4kfljupnt4llnjgshhe5xho5,55,2,2.0,39.0,0.301,1.0,1.0
prolific,4kfljupnt4llnjgshhe5xho5,56,2,2.0,39.0,0.287,1.0,0.0
prolific,4kfljupnt4llnjgshhe5xho5,57,2,2.0,39.0,0.292,1.0,0.0
prolific,4kfljupnt4llnjgshhe5xho5,58,2,2.0,39.0,0.103,1.0,1.0
prolific,4kfljupnt4llnjgshhe5xho5,59,2,2.0,39.0,0.155,1.0,1.0
prolific,4kfljupnt4llnjgshhe5xho5,60,2,2.0,39.0,0.13,1.0,1.0
prolific,4kfljupnt4llnjgshhe5xho5,61,0,2.0,39.0,0.173,0.0,0.0
prolific,4kfljupnt4llnjgshhe5xho5,62,0,2.0,39.0,0.109,0.0,0.0
prolific,4kfljupnt4llnjgshhe5xho5,63,0,2.0,39.0,0.064,0.0,0.0
prolific,4kfljupnt4llnjgshhe5xho5,64,0,2.0,39.0,0.123,0.0,0.0
prolific,4kfljupnt4llnjgshhe5xho5,65,0,1.0,38.0,0.34,0.0,0.0
prolific,4kfljupnt4llnjgshhe5xho5,66,0,1.0,38.0,0.087,0.0,0.0
prolific,4kfljupnt4llnjgshhe5xho5,67,0,1.0,38.0,0.102,0.0,0.0
prolific,4kfljupnt4llnjgshhe5xho5,68,0,1.0,38.0,0.111,0.0,1.0
prolific,4kfljupnt4llnjgshhe5xho5,69,0,1.0,38.0,0.332,0.0,0.0
prolific,4kfljupnt4llnjgshhe5xho5,70,0,1.0,38.0,0.314,0.0,0.0
prolific,4kfljupnt4llnjgshhe5xho5,71,0,0.0,37.0,0.527,1.0,0.0
prolific,4kfljupnt4llnjgshhe5xho5,72,0,0.0,37.0,0.387,1.0,1.0
prolific,4kfljupnt4llnjgshhe5xho5,73,0,0.0,37.0,0.301,1.0,1.0
prolific,4kfljupnt4llnjgshhe5xho5,74,0,0.0,37.0,0.348,1.0,0.0
prolific,4kfljupnt4llnjgshhe5xho5,75,0,0.0,37.0,0.199,1.0,1.0
prolific,4kfljupnt4llnjgshhe5xho5,76,1,0.0,37.0,0.465,0.0,0.0
prolific,4kfljupnt4llnjgshhe5xho5,77,1,2.0,39.0,0.398,0.0,1.0
prolific,4kfljupnt4llnjgshhe5xho5,78,1,2.0,39.0,0.552,0.0,1.0
prolific,4kfljupnt4llnjgshhe5xho5,79,1,2.0,39.0,0.357,0.0,0.0
prolific,4kfljupnt4llnjgshhe5xho5,80,1,0.0,37.0,0.234,0.0,0.0
prolific,4kfljupnt4llnjgshhe5xho5,81,1,0.0,37.0,0.286,0.0,0.0
prolific,4kfljupnt4llnjgshhe5xho5,82,1,2.0,39.0,0.208,0.0,0.0
prolific,4kfljupnt4llnjgshhe5xho5,83,1,2.0,39.0,0.321,0.0,0.0
prolific,4kfljupnt4llnjgshhe5xho5,84,1,2.0,39.0,0.443,0.0,0.0
prolific,4kfljupnt4llnjgshhe5xho5,85,1,1.0,38.0,0.285,1.0,1.0
prolific,4kfljupnt4llnjgshhe5xho5,86,1,1.0,38.0,0.371,1.0,0.0
prolific,4kfljupnt4llnjgshhe5xho5,87,1,1.0,38.0,0.367,1.0,1.0
prolific,4kfljupnt4llnjgshhe5xho5,88,1,1.0,38.0,0.331,1.0,1.0
prolific,4kfljupnt4llnjgshhe5xho5,89,1,1.0,38.0,0.311,1.0,1.0
prolific,4kfljupnt4llnjgshhe5xho5,90,1,1.0,38.0,0.272,1.0,1.0
prolific,4szus5mziv7x6mwgfpa0oiq8,1,0,2.0,39.0,4.729,0.0,0.0
prolific,4szus5mziv7x6mwgfpa0oiq8,2,0,1.0,38.0,1.521,0.0,0.0
prolific,4szus5mziv7x6mwgfpa0oiq8,3,0,0.0,37.0,3.946,1.0,0.0
prolific,4szus5mziv7x6mwgfpa0oiq8,4,0,1.0,38.0,2.603,0.0,1.0
prolific,4szus5mziv7x6mwgfpa0oiq8,5,0,1.0,38.0,1.471,0.0,0.0
prolific,4szus5mziv7x6mwgfpa0oiq8,6,0,1.0,38.0,1.564,0.0,0.0
prolific,4szus5mziv7x6mwgfpa0oiq8,7,0,0.0,37.0,1.054,1.0,0.0
prolific,4szus5mziv7x6mwgfpa0oiq8,8,0,0.0,37.0,1.164,1.0,0.0
prolific,4szus5mziv7x6mwgfpa0oiq8,9,0,2.0,39.0,0.894,0.0,0.0
prolific,4szus5mziv7x6mwgfpa0oiq8,10,0,1.0,38.0,0.766,0.0,0.0
prolific,4szus5mziv7x6mwgfpa0oiq8,11,0,1.0,38.0,0.986,0.0,1.0
prolific,4szus5mziv7x6mwgfpa0oiq8,12,0,1.0,38.0,1.126,0.0,1.0
prolific,4szus5mziv7x6mwgfpa0oiq8,13,0,1.0,38.0,1.253,0.0,0.0
prolific,4szus5mziv7x6mwgfpa0oiq8,14,0,0.0,37.0,0.771,1.0,1.0
prolific,4szus5mziv7x6mwgfpa0oiq8,15,0,0.0,37.0,1.255,1.0,0.0
prolific,4szus5mziv7x6mwgfpa0oiq8,16,2,1.0,38.0,0.924,0.0,0.0
prolific,4szus5mziv7x6mwgfpa0oiq8,17,2,1.0,38.0,0.839,0.0,0.0
prolific,4szus5mziv7x6mwgfpa0oiq8,18,2,1.0,38.0,1.05,0.0,0.0
prolific,4szus5mziv7x6mwgfpa0oiq8,19,2,0.0,37.0,0.594,0.0,0.0
prolific,4szus5mziv7x6mwgfpa0oiq8,20,2,0.0,37.0,0.448,0.0,0.0
prolific,4szus5mziv7x6mwgfpa0oiq8,21,2,2.0,39.0,0.338,1.0,1.0
prolific,4szus5mziv7x6mwgfpa0oiq8,22,2,0.0,37.0,0.757,0.0,0.0
prolific,4szus5mziv7x6mwgfpa0oiq8,23,2,2.0,39.0,0.534,1.0,1.0
prolific,4szus5mziv7x6mwgfpa0oiq8,24,2,2.0,39.0,0.659,1.0,1.0
prolific,4szus5mziv7x6mwgfpa0oiq8,25,2,2.0,39.0,0.593,1.0,1.0
prolific,4szus5mziv7x6mwgfpa0oiq8,26,2,2.0,39.0,1.014,1.0,1.0
prolific,4szus5mziv7x6mwgfpa0oiq8,27,2,2.0,39.0,0.771,1.0,1.0
prolific,4szus5mziv7x6mwgfpa0oiq8,28,2,2.0,39.0,0.781,1.0,1.0
prolific,4szus5mziv7x6mwgfpa0oiq8,29,2,2.0,39.0,0.827,1.0,1.0
prolific,4szus5mziv7x6mwgfpa0oiq8,30,2,2.0,39.0,0.958,1.0,1.0
prolific,4szus5mziv7x6mwgfpa0oiq8,31,1,2.0,39.0,0.838,0.0,1.0
prolific,4szus5mziv7x6mwgfpa0oiq8,32,1,2.0,39.0,0.798,0.0,0.0
prolific,4szus5mziv7x6mwgfpa0oiq8,33,1,1.0,38.0,0.211,1.0,1.0
prolific,4szus5mziv7x6mwgfpa0oiq8,34,1,2.0,39.0,0.324,0.0,0.0
prolific,4szus5mziv7x6mwgfpa0oiq8,35,1,1.0,38.0,0.249,1.0,1.0
prolific,4szus5mziv7x6mwgfpa0oiq8,36,1,1.0,38.0,0.744,1.0,1.0
prolific,4szus5mziv7x6mwgfpa0oiq8,37,1,1.0,38.0,0.614,1.0,1.0
prolific,4szus5mziv7x6mwgfpa0oiq8,38,1,1.0,38.0,0.528,1.0,0.0
prolific,4szus5mziv7x6mwgfpa0oiq8,39,1,2.0,39.0,0.343,0.0,0.0
prolific,4szus5mziv7x6mwgfpa0oiq8,40,1,0.0,37.0,0.668,0.0,0.0
prolific,4szus5mziv7x6mwgfpa0oiq8,41,1,1.0,38.0,0.393,1.0,1.0
prolific,4szus5mziv7x6mwgfpa0oiq8,42,1,1.0,38.0,0.49,1.0,0.0
prolific,4szus5mziv7x6mwgfpa0oiq8,43,1,1.0,38.0,0.471,1.0,1.0
prolific,4szus5mziv7x6mwgfpa0oiq8,44,1,1.0,38.0,0.655,1.0,1.0
prolific,4szus5mziv7x6mwgfpa0oiq8,45,1,1.0,38.0,0.442,1.0,0.0
prolific,4szus5mziv7x6mwgfpa0oiq8,46,0,1.0,38.0,0.446,0.0,0.0
prolific,4szus5mziv7x6mwgfpa0oiq8,47,0,2.0,39.0,0.374,0.0,0.0
prolific,4szus5mziv7x6mwgfpa0oiq8,48,0,2.0,39.0,0.111,0.0,1.0
prolific,4szus5mziv7x6mwgfpa0oiq8,49,0,2.0,39.0,0.311,0.0,1.0
prolific,4szus5mziv7x6mwgfpa0oiq8,50,0,2.0,39.0,0.788,0.0,0.0
prolific,4szus5mziv7x6mwgfpa0oiq8,51,0,1.0,38.0,0.352,0.0,0.0
prolific,4szus5mziv7x6mwgfpa0oiq8,52,0,0.0,37.0,0.563,1.0,1.0
prolific,4szus5mziv7x6mwgfpa0oiq8,53,0,0.0,37.0,0.379,1.0,0.0
prolific,4szus5mziv7x6mwgfpa0oiq8,54,0,1.0,38.0,0.401,0.0,1.0
prolific,4szus5mziv7x6mwgfpa0oiq8,55,0,1.0,38.0,0.144,0.0,0.0
prolific,4szus5mziv7x6mwgfpa0oiq8,56,0,2.0,39.0,0.317,0.0,0.0
prolific,4szus5mziv7x6mwgfpa0oiq8,57,0,1.0,38.0,0.605,0.0,0.0
prolific,4szus5mziv7x6mwgfpa0oiq8,58,0,1.0,38.0,0.08,0.0,0.0
prolific,4szus5mziv7x6mwgfpa0oiq8,59,0,1.0,38.0,0.102,0.0,1.0
prolific,4szus5mziv7x6mwgfpa0oiq8,60,0,1.0,38.0,0.389,0.0,0.0
prolific,4szus5mziv7x6mwgfpa0oiq8,61,1,1.0,38.0,0.145,1.0,1.0
prolific,4szus5mziv7x6mwgfpa0oiq8,62,1,1.0,38.0,0.149,1.0,1.0
prolific,4szus5mziv7x6mwgfpa0oiq8,63,1,1.0,38.0,0.209,1.0,1.0
prolific,4szus5mziv7x6mwgfpa0oiq8,64,1,1.0,38.0,0.154,1.0,1.0
prolific,4szus5mziv7x6mwgfpa0oiq8,65,1,1.0,38.0,0.207,1.0,1.0
prolific,4szus5mziv7x6mwgfpa0oiq8,66,1,1.0,38.0,0.223,1.0,1.0
prolific,4szus5mziv7x6mwgfpa0oiq8,67,1,1.0,38.0,0.262,1.0,1.0
prolific,4szus5mziv7x6mwgfpa0oiq8,68,1,1.0,38.0,0.429,1.0,1.0
prolific,4szus5mziv7x6mwgfpa0oiq8,69,1,1.0,38.0,0.39,1.0,1.0
prolific,4szus5mziv7x6mwgfpa0oiq8,70,1,1.0,38.0,0.414,1.0,0.0
prolific,4szus5mziv7x6mwgfpa0oiq8,71,1,2.0,39.0,0.4,0.0,0.0
prolific,4szus5mziv7x6mwgfpa0oiq8,72,1,2.0,39.0,0.135,0.0,0.0
prolific,4szus5mziv7x6mwgfpa0oiq8,73,1,2.0,39.0,0.342,0.0,0.0
prolific,4szus5mziv7x6mwgfpa0oiq8,74,1,0.0,37.0,0.121,0.0,0.0
prolific,4szus5mziv7x6mwgfpa0oiq8,75,1,1.0,38.0,0.208,1.0,1.0
prolific,4szus5mziv7x6mwgfpa0oiq8,76,0,1.0,38.0,0.351,0.0,1.0
prolific,4szus5mziv7x6mwgfpa0oiq8,77,0,1.0,38.0,0.164,0.0,0.0
prolific,4szus5mziv7x6mwgfpa0oiq8,78,0,1.0,38.0,0.103,0.0,1.0
prolific,4szus5mziv7x6mwgfpa0oiq8,79,0,1.0,38.0,0.439,0.0,0.0
prolific,4szus5mziv7x6mwgfpa0oiq8,80,0,1.0,38.0,0.047,0.0,0.0
prolific,4szus5mziv7x6mwgfpa0oiq8,81,0,2.0,39.0,0.068,0.0,0.0
prolific,4szus5mziv7x6mwgfpa0oiq8,82,0,1.0,38.0,0.447,0.0,0.0
prolific,4szus5mziv7x6mwgfpa0oiq8,83,0,1.0,38.0,0.169,0.0,0.0
prolific,4szus5mziv7x6mwgfpa0oiq8,84,0,2.0,39.0,0.219,0.0,0.0
prolific,4szus5mziv7x6mwgfpa0oiq8,85,0,0.0,37.0,0.317,1.0,1.0
prolific,4szus5mziv7x6mwgfpa0oiq8,86,0,2.0,39.0,0.049,0.0,1.0
prolific,4szus5mziv7x6mwgfpa0oiq8,87,0,2.0,39.0,0.347,0.0,0.0
prolific,4szus5mziv7x6mwgfpa0oiq8,88,0,1.0,38.0,0.084,0.0,0.0
prolific,4szus5mziv7x6mwgfpa0oiq8,89,0,1.0,38.0,0.013,0.0,0.0
prolific,4szus5mziv7x6mwgfpa0oiq8,90,0,1.0,38.0,0.576,0.0,0.0
prolific,4vw992lb5egmeaykdxcetamb,1,0,0.0,37.0,2.554,1.0,0.0
prolific,4vw992lb5egmeaykdxcetamb,2,0,2.0,39.0,0.627,0.0,0.0
prolific,4vw992lb5egmeaykdxcetamb,3,0,1.0,38.0,0.516,0.0,0.0
prolific,4vw992lb5egmeaykdxcetamb,4,0,1.0,38.0,0.378,0.0,0.0
prolific,4vw992lb5egmeaykdxcetamb,5,0,1.0,38.0,0.304,0.0,0.0
prolific,4vw992lb5egmeaykdxcetamb,6,0,2.0,39.0,0.337,0.0,0.0
prolific,4vw992lb5egmeaykdxcetamb,7,0,2.0,39.0,0.358,0.0,0.0
prolific,4vw992lb5egmeaykdxcetamb,8,0,0.0,37.0,0.294,1.0,1.0
prolific,4vw992lb5egmeaykdxcetamb,9,0,0.0,37.0,0.303,1.0,1.0
prolific,4vw992lb5egmeaykdxcetamb,10,0,0.0,37.0,0.319,1.0,1.0
prolific,4vw992lb5egmeaykdxcetamb,11,0,0.0,37.0,0.329,1.0,1.0
prolific,4vw992lb5egmeaykdxcetamb,12,0,0.0,37.0,0.437,1.0,0.0
prolific,4vw992lb5egmeaykdxcetamb,13,0,1.0,38.0,0.035,0.0,1.0
prolific,4vw992lb5egmeaykdxcetamb,14,0,1.0,38.0,0.32,0.0,0.0
prolific,4vw992lb5egmeaykdxcetamb,15,0,1.0,38.0,0.252,0.0,0.0
prolific,4vw992lb5egmeaykdxcetamb,16,2,2.0,39.0,0.126,1.0,1.0
prolific,4vw992lb5egmeaykdxcetamb,17,2,2.0,39.0,0.298,1.0,1.0
prolific,4vw992lb5egmeaykdxcetamb,18,2,2.0,39.0,0.366,1.0,0.0
prolific,4vw992lb5egmeaykdxcetamb,19,2,0.0,37.0,0.113,0.0,1.0
prolific,4vw992lb5egmeaykdxcetamb,20,2,0.0,37.0,0.356,0.0,0.0
prolific,4vw992lb5egmeaykdxcetamb,21,2,1.0,38.0,0.082,0.0,1.0
prolific,4vw992lb5egmeaykdxcetamb,22,2,1.0,38.0,0.377,0.0,0.0
prolific,4vw992lb5egmeaykdxcetamb,23,2,2.0,39.0,0.266,1.0,1.0
prolific,4vw992lb5egmeaykdxcetamb,24,2,2.0,39.0,0.33,1.0,1.0
prolific,4vw992lb5egmeaykdxcetamb,25,2,2.0,39.0,0.63,1.0,1.0
prolific,4vw992lb5egmeaykdxcetamb,26,2,2.0,39.0,0.286,1.0,1.0
prolific,4vw992lb5egmeaykdxcetamb,27,2,2.0,39.0,0.347,1.0,1.0
prolific,4vw992lb5egmeaykdxcetamb,28,2,2.0,39.0,0.5,1.0,1.0
prolific,4vw992lb5egmeaykdxcetamb,29,2,2.0,39.0,0.34,1.0,1.0
prolific,4vw992lb5egmeaykdxcetamb,30,2,2.0,39.0,0.43,1.0,1.0
prolific,4vw992lb5egmeaykdxcetamb,31,0,2.0,39.0,0.315,0.0,1.0
prolific,4vw992lb5egmeaykdxcetamb,32,0,2.0,39.0,0.334,0.0,0.0
prolific,4vw992lb5egmeaykdxcetamb,33,0,1.0,38.0,0.085,0.0,0.0
prolific,4vw992lb5egmeaykdxcetamb,34,0,0.0,37.0,0.089,1.0,1.0
prolific,4vw992lb5egmeaykdxcetamb,35,0,0.0,37.0,0.274,1.0,1.0
prolific,4vw992lb5egmeaykdxcetamb,36,0,0.0,37.0,0.311,1.0,0.0
prolific,4vw992lb5egmeaykdxcetamb,37,0,1.0,38.0,0.02,0.0,0.0
prolific,4vw992lb5egmeaykdxcetamb,38,0,2.0,39.0,0.152,0.0,0.0
prolific,4vw992lb5egmeaykdxcetamb,39,0,0.0,37.0,0.104,1.0,1.0
prolific,4vw992lb5egmeaykdxcetamb,40,0,0.0,37.0,0.324,1.0,1.0
prolific,4vw992lb5egmeaykdxcetamb,41,0,0.0,37.0,0.31,1.0,1.0
prolific,4vw992lb5egmeaykdxcetamb,42,0,0.0,37.0,0.397,1.0,1.0
prolific,4vw992lb5egmeaykdxcetamb,43,0,0.0,37.0,0.365,1.0,1.0
prolific,4vw992lb5egmeaykdxcetamb,44,0,0.0,37.0,0.305,1.0,1.0
prolific,4vw992lb5egmeaykdxcetamb,45,0,0.0,37.0,0.314,1.0,1.0
prolific,4vw992lb5egmeaykdxcetamb,46,2,0.0,37.0,0.314,0.0,0.0
prolific,4vw992lb5egmeaykdxcetamb,47,2,2.0,39.0,0.246,1.0,1.0
prolific,4vw992lb5egmeaykdxcetamb,48,2,2.0,39.0,0.31,1.0,1.0
prolific,4vw992lb5egmeaykdxcetamb,49,2,2.0,39.0,0.347,1.0,0.0
prolific,4vw992lb5egmeaykdxcetamb,50,2,1.0,38.0,0.365,0.0,0.0
prolific,4vw992lb5egmeaykdxcetamb,51,2,0.0,37.0,0.087,0.0,0.0
prolific,4vw992lb5egmeaykdxcetamb,52,2,2.0,39.0,0.299,1.0,0.0
prolific,4vw992lb5egmeaykdxcetamb,53,2,1.0,38.0,0.073,0.0,0.0
prolific,4vw992lb5egmeaykdxcetamb,54,2,0.0,37.0,0.37,0.0,0.0
prolific,4vw992lb5egmeaykdxcetamb,55,2,2.0,39.0,0.018,1.0,0.0
prolific,4vw992lb5egmeaykdxcetamb,56,2,1.0,38.0,0.152,0.0,0.0
prolific,4vw992lb5egmeaykdxcetamb,57,2,0.0,37.0,0.0,0.0,1.0
prolific,4vw992lb5egmeaykdxcetamb,58,2,0.0,37.0,0.202,0.0,0.0
prolific,4vw992lb5egmeaykdxcetamb,59,2,1.0,38.0,0.246,0.0,0.0
prolific,4vw992lb5egmeaykdxcetamb,60,2,2.0,39.0,0.235,1.0,0.0
prolific,4vw992lb5egmeaykdxcetamb,61,0,2.0,39.0,0.068,0.0,0.0
prolific,4vw992lb5egmeaykdxcetamb,62,0,0.0,37.0,0.231,1.0,1.0
prolific,4vw992lb5egmeaykdxcetamb,63,0,0.0,37.0,0.362,1.0,1.0
prolific,4vw992lb5egmeaykdxcetamb,64,0,0.0,37.0,0.296,1.0,0.0
prolific,4vw992lb5egmeaykdxcetamb,65,0,1.0,38.0,0.236,0.0,0.0
prolific,4vw992lb5egmeaykdxcetamb,66,0,1.0,38.0,0.252,0.0,0.0
prolific,4vw992lb5egmeaykdxcetamb,67,0,2.0,39.0,0.238,0.0,0.0
prolific,4vw992lb5egmeaykdxcetamb,68,0,1.0,38.0,0.042,0.0,0.0
prolific,4vw992lb5egmeaykdxcetamb,69,0,0.0,37.0,0.087,1.0,1.0
prolific,4vw992lb5egmeaykdxcetamb,70,0,0.0,37.0,0.112,1.0,1.0
prolific,4vw992lb5egmeaykdxcetamb,71,0,0.0,37.0,0.28,1.0,0.0
prolific,4vw992lb5egmeaykdxcetamb,72,0,2.0,39.0,0.151,0.0,1.0
prolific,4vw992lb5egmeaykdxcetamb,73,0,2.0,39.0,0.295,0.0,1.0
prolific,4vw992lb5egmeaykdxcetamb,74,0,2.0,39.0,0.439,0.0,0.0
prolific,4vw992lb5egmeaykdxcetamb,75,0,1.0,38.0,0.019,0.0,0.0
prolific,4vw992lb5egmeaykdxcetamb,76,2,1.0,38.0,0.169,0.0,0.0
prolific,4vw992lb5egmeaykdxcetamb,77,2,2.0,39.0,0.061,1.0,0.0
prolific,4vw992lb5egmeaykdxcetamb,78,2,0.0,37.0,0.175,0.0,0.0
prolific,4vw992lb5egmeaykdxcetamb,79,2,1.0,38.0,0.001,0.0,0.0
prolific,4vw992lb5egmeaykdxcetamb,80,2,0.0,37.0,0.048,0.0,0.0
prolific,4vw992lb5egmeaykdxcetamb,81,2,2.0,39.0,0.02,1.0,0.0
prolific,4vw992lb5egmeaykdxcetamb,82,2,1.0,38.0,0.466,0.0,0.0
prolific,4vw992lb5egmeaykdxcetamb,83,2,1.0,38.0,0.001,0.0,0.0
prolific,4vw992lb5egmeaykdxcetamb,84,2,0.0,37.0,0.247,0.0,0.0
prolific,4vw992lb5egmeaykdxcetamb,85,2,2.0,39.0,0.189,1.0,1.0
prolific,4vw992lb5egmeaykdxcetamb,86,2,2.0,39.0,0.292,1.0,0.0
prolific,4vw992lb5egmeaykdxcetamb,87,2,1.0,38.0,0.172,0.0,1.0
prolific,4vw992lb5egmeaykdxcetamb,88,2,1.0,38.0,0.152,0.0,0.0
prolific,4vw992lb5egmeaykdxcetamb,89,2,0.0,37.0,0.264,0.0,0.0
prolific,4vw992lb5egmeaykdxcetamb,90,2,2.0,39.0,0.127,1.0,1.0
prolific,5vlapy2kltynt6q6usdmw53x,1,1,1.0,38.0,2.957,1.0,1.0
prolific,5vlapy2kltynt6q6usdmw53x,2,1,1.0,38.0,2.118,1.0,1.0
prolific,5vlapy2kltynt6q6usdmw53x,3,1,0.0,37.0,2.557,0.0,1.0
prolific,5vlapy2kltynt6q6usdmw53x,4,1,1.0,38.0,1.089,1.0,1.0
prolific,5vlapy2kltynt6q6usdmw53x,5,1,2.0,39.0,0.607,0.0,1.0
prolific,5vlapy2kltynt6q6usdmw53x,6,1,0.0,37.0,0.958,0.0,0.0
prolific,5vlapy2kltynt6q6usdmw53x,7,1,0.0,37.0,0.625,0.0,1.0
prolific,5vlapy2kltynt6q6usdmw53x,8,1,0.0,37.0,0.988,0.0,0.0
prolific,5vlapy2kltynt6q6usdmw53x,9,1,1.0,38.0,0.527,1.0,0.0
prolific,5vlapy2kltynt6q6usdmw53x,10,1,1.0,38.0,0.346,1.0,1.0
prolific,5vlapy2kltynt6q6usdmw53x,11,1,0.0,37.0,0.769,0.0,0.0
prolific,5vlapy2kltynt6q6usdmw53x,12,1,2.0,39.0,0.443,0.0,0.0
prolific,5vlapy2kltynt6q6usdmw53x,13,1,2.0,39.0,0.444,0.0,0.0
prolific,5vlapy2kltynt6q6usdmw53x,14,1,0.0,37.0,0.177,0.0,0.0
prolific,5vlapy2kltynt6q6usdmw53x,15,1,1.0,38.0,0.412,1.0,1.0
prolific,5vlapy2kltynt6q6usdmw53x,16,2,1.0,38.0,0.38,0.0,0.0
prolific,5vlapy2kltynt6q6usdmw53x,17,2,0.0,37.0,0.379,0.0,1.0
prolific,5vlapy2kltynt6q6usdmw53x,18,2,0.0,37.0,0.651,0.0,0.0
prolific,5vlapy2kltynt6q6usdmw53x,19,2,0.0,37.0,0.481,0.0,0.0
prolific,5vlapy2kltynt6q6usdmw53x,20,2,0.0,37.0,0.385,0.0,0.0
prolific,5vlapy2kltynt6q6usdmw53x,21,2,2.0,39.0,0.111,1.0,0.0
prolific,5vlapy2kltynt6q6usdmw53x,22,2,2.0,39.0,0.155,1.0,1.0
prolific,5vlapy2kltynt6q6usdmw53x,23,2,2.0,39.0,0.554,1.0,1.0
prolific,5vlapy2kltynt6q6usdmw53x,24,2,1.0,38.0,0.402,0.0,0.0
prolific,5vlapy2kltynt6q6usdmw53x,25,2,1.0,38.0,0.367,0.0,0.0
prolific,5vlapy2kltynt6q6usdmw53x,26,2,0.0,37.0,0.368,0.0,0.0
prolific,5vlapy2kltynt6q6usdmw53x,27,2,0.0,37.0,0.661,0.0,0.0
prolific,5vlapy2kltynt6q6usdmw53x,28,2,0.0,37.0,0.309,0.0,0.0
prolific,5vlapy2kltynt6q6usdmw53x,29,2,0.0,37.0,0.381,0.0,0.0
prolific,5vlapy2kltynt6q6usdmw53x,30,2,2.0,39.0,0.354,1.0,1.0
prolific,5vlapy2kltynt6q6usdmw53x,31,1,2.0,39.0,0.83,0.0,0.0
prolific,5vlapy2kltynt6q6usdmw53x,32,1,0.0,37.0,0.31,0.0,1.0
prolific,5vlapy2kltynt6q6usdmw53x,33,1,2.0,39.0,0.433,0.0,0.0
prolific,5vlapy2kltynt6q6usdmw53x,34,1,0.0,37.0,0.311,0.0,0.0
prolific,5vlapy2kltynt6q6usdmw53x,35,1,1.0,38.0,0.525,1.0,1.0
prolific,5vlapy2kltynt6q6usdmw53x,36,1,1.0,38.0,0.805,1.0,1.0
prolific,5vlapy2kltynt6q6usdmw53x,37,1,1.0,38.0,0.789,1.0,1.0
prolific,5vlapy2kltynt6q6usdmw53x,38,1,1.0,38.0,0.529,1.0,0.0
prolific,5vlapy2kltynt6q6usdmw53x,39,1,0.0,37.0,0.285,0.0,1.0
prolific,5vlapy2kltynt6q6usdmw53x,40,1,0.0,37.0,0.568,0.0,1.0
prolific,5vlapy2kltynt6q6usdmw53x,41,1,0.0,37.0,1.059,0.0,0.0
prolific,5vlapy2kltynt6q6usdmw53x,42,1,2.0,39.0,0.286,0.0,1.0
prolific,5vlapy2kltynt6q6usdmw53x,43,1,2.0,39.0,0.392,0.0,1.0
prolific,5vlapy2kltynt6q6usdmw53x,44,1,2.0,39.0,0.625,0.0,0.0
prolific,5vlapy2kltynt6q6usdmw53x,45,1,0.0,37.0,0.356,0.0,1.0
prolific,5vlapy2kltynt6q6usdmw53x,46,0,0.0,37.0,0.407,1.0,0.0
prolific,5vlapy2kltynt6q6usdmw53x,47,0,1.0,38.0,0.08,0.0,0.0
prolific,5vlapy2kltynt6q6usdmw53x,48,0,1.0,38.0,0.228,0.0,0.0
prolific,5vlapy2kltynt6q6usdmw53x,49,0,1.0,38.0,0.444,0.0,1.0
prolific,5vlapy2kltynt6q6usdmw53x,50,0,0.0,37.0,0.593,1.0,1.0
prolific,5vlapy2kltynt6q6usdmw53x,51,0,1.0,38.0,0.368,0.0,0.0
prolific,5vlapy2kltynt6q6usdmw53x,52,0,0.0,37.0,0.201,1.0,1.0
prolific,5vlapy2kltynt6q6usdmw53x,53,0,0.0,37.0,0.361,1.0,1.0
prolific,5vlapy2kltynt6q6usdmw53x,54,0,0.0,37.0,0.408,1.0,1.0
prolific,5vlapy2kltynt6q6usdmw53x,55,0,0.0,37.0,0.362,1.0,1.0
prolific,5vlapy2kltynt6q6usdmw53x,56,0,0.0,37.0,0.329,1.0,1.0
prolific,5vlapy2kltynt6q6usdmw53x,57,0,0.0,37.0,0.331,1.0,1.0
prolific,5vlapy2kltynt6q6usdmw53x,58,0,0.0,37.0,0.341,1.0,1.0
prolific,5vlapy2kltynt6q6usdmw53x,59,0,0.0,37.0,0.338,1.0,1.0
prolific,5vlapy2kltynt6q6usdmw53x,60,0,0.0,37.0,0.323,1.0,1.0
prolific,5vlapy2kltynt6q6usdmw53x,61,2,0.0,37.0,0.356,0.0,0.0
prolific,5vlapy2kltynt6q6usdmw53x,62,2,2.0,39.0,0.248,1.0,1.0
prolific,5vlapy2kltynt6q6usdmw53x,63,2,2.0,39.0,0.35,1.0,1.0
prolific,5vlapy2kltynt6q6usdmw53x,64,2,2.0,39.0,0.414,1.0,1.0
prolific,5vlapy2kltynt6q6usdmw53x,65,2,2.0,39.0,0.335,1.0,1.0
prolific,5vlapy2kltynt6q6usdmw53x,66,2,2.0,39.0,0.321,1.0,0.0
prolific,5vlapy2kltynt6q6usdmw53x,67,2,0.0,37.0,0.258,0.0,0.0
prolific,5vlapy2kltynt6q6usdmw53x,68,2,1.0,38.0,0.187,0.0,0.0
prolific,5vlapy2kltynt6q6usdmw53x,69,2,0.0,37.0,0.618,0.0,0.0
prolific,5vlapy2kltynt6q6usdmw53x,70,2,2.0,39.0,0.045,1.0,1.0
prolific,5vlapy2kltynt6q6usdmw53x,71,2,2.0,39.0,0.054,1.0,1.0
prolific,5vlapy2kltynt6q6usdmw53x,72,2,2.0,39.0,0.372,1.0,0.0
prolific,5vlapy2kltynt6q6usdmw53x,73,2,1.0,38.0,0.229,0.0,1.0
prolific,5vlapy2kltynt6q6usdmw53x,74,2,1.0,38.0,0.293,0.0,0.0
prolific,5vlapy2kltynt6q6usdmw53x,75,2,0.0,37.0,0.259,0.0,0.0
prolific,5vlapy2kltynt6q6usdmw53x,76,1,2.0,39.0,0.135,0.0,1.0
prolific,5vlapy2kltynt6q6usdmw53x,77,1,0.0,37.0,0.408,0.0,0.0
prolific,5vlapy2kltynt6q6usdmw53x,78,1,2.0,39.0,0.148,0.0,1.0
prolific,5vlapy2kltynt6q6usdmw53x,79,1,2.0,39.0,0.346,0.0,0.0
prolific,5vlapy2kltynt6q6usdmw53x,80,1,1.0,38.0,0.061,1.0,1.0
prolific,5vlapy2kltynt6q6usdmw53x,81,1,0.0,37.0,0.168,0.0,1.0
prolific,5vlapy2kltynt6q6usdmw53x,82,1,0.0,37.0,0.143,0.0,0.0
prolific,5vlapy2kltynt6q6usdmw53x,83,1,1.0,38.0,0.182,1.0,1.0
prolific,5vlapy2kltynt6q6usdmw53x,84,1,1.0,38.0,0.314,1.0,0.0
prolific,5vlapy2kltynt6q6usdmw53x,85,1,2.0,39.0,0.266,0.0,0.0
prolific,5vlapy2kltynt6q6usdmw53x,86,1,0.0,37.0,0.121,0.0,0.0
prolific,5vlapy2kltynt6q6usdmw53x,87,1,2.0,39.0,0.314,0.0,0.0
prolific,5vlapy2kltynt6q6usdmw53x,88,1,1.0,38.0,0.603,1.0,1.0
prolific,5vlapy2kltynt6q6usdmw53x,89,1,1.0,38.0,0.767,1.0,0.0
prolific,5vlapy2kltynt6q6usdmw53x,90,1,2.0,39.0,0.309,0.0,1.0
prolific,7onu45df12zkrxfc750nn4sa,1,0,1.0,38.0,2.515,0.0,0.0
prolific,7onu45df12zkrxfc750nn4sa,2,0,0.0,37.0,1.307,1.0,1.0
prolific,7onu45df12zkrxfc750nn4sa,3,0,0.0,37.0,1.216,1.0,0.0
prolific,7onu45df12zkrxfc750nn4sa,4,0,2.0,39.0,0.944,0.0,0.0
prolific,7onu45df12zkrxfc750nn4sa,5,0,1.0,38.0,1.38,0.0,0.0
prolific,7onu45df12zkrxfc750nn4sa,6,0,0.0,37.0,1.306,1.0,1.0
prolific,7onu45df12zkrxfc750nn4sa,7,0,0.0,37.0,1.121,1.0,0.0
prolific,7onu45df12zkrxfc750nn4sa,8,0,2.0,39.0,0.615,0.0,1.0
prolific,7onu45df12zkrxfc750nn4sa,9,0,2.0,39.0,1.512,0.0,0.0
prolific,7onu45df12zkrxfc750nn4sa,10,0,0.0,37.0,0.529,1.0,1.0
prolific,7onu45df12zkrxfc750nn4sa,11,0,0.0,37.0,1.857,1.0,1.0
prolific,7onu45df12zkrxfc750nn4sa,12,0,0.0,37.0,0.772,1.0,1.0
prolific,7onu45df12zkrxfc750nn4sa,13,0,0.0,37.0,0.884,1.0,0.0
prolific,7onu45df12zkrxfc750nn4sa,14,0,1.0,38.0,0.382,0.0,0.0
prolific,7onu45df12zkrxfc750nn4sa,15,0,2.0,39.0,0.897,0.0,0.0
prolific,7onu45df12zkrxfc750nn4sa,16,2,0.0,37.0,0.416,0.0,0.0
prolific,7onu45df12zkrxfc750nn4sa,17,2,0.0,37.0,0.549,0.0,1.0
prolific,7onu45df12zkrxfc750nn4sa,18,2,0.0,37.0,0.628,0.0,0.0
prolific,7onu45df12zkrxfc750nn4sa,19,2,0.0,37.0,0.534,0.0,1.0
prolific,7onu45df12zkrxfc750nn4sa,20,2,2.0,39.0,0.432,1.0,0.0
prolific,7onu45df12zkrxfc750nn4sa,21,2,0.0,37.0,0.394,0.0,0.0
prolific,7onu45df12zkrxfc750nn4sa,22,2,1.0,38.0,0.31,0.0,0.0
prolific,7onu45df12zkrxfc750nn4sa,23,2,0.0,37.0,0.4,0.0,1.0
prolific,7onu45df12zkrxfc750nn4sa,24,2,0.0,37.0,0.729,0.0,0.0
prolific,7onu45df12zkrxfc750nn4sa,25,2,2.0,39.0,0.477,1.0,1.0
prolific,7onu45df12zkrxfc750nn4sa,26,2,0.0,37.0,0.782,0.0,0.0
prolific,7onu45df12zkrxfc750nn4sa,27,2,2.0,39.0,1.124,1.0,1.0
prolific,7onu45df12zkrxfc750nn4sa,28,2,2.0,39.0,0.651,1.0,1.0
prolific,7onu45df12zkrxfc750nn4sa,29,2,2.0,39.0,0.761,1.0,1.0
prolific,7onu45df12zkrxfc750nn4sa,30,2,2.0,39.0,0.748,1.0,1.0
prolific,7onu45df12zkrxfc750nn4sa,31,1,2.0,39.0,0.678,0.0,0.0
prolific,7onu45df12zkrxfc750nn4sa,32,1,0.0,37.0,1.054,0.0,1.0
prolific,7onu45df12zkrxfc750nn4sa,33,1,0.0,37.0,0.688,0.0,0.0
prolific,7onu45df12zkrxfc750nn4sa,34,1,2.0,39.0,0.343,0.0,0.0
prolific,7onu45df12zkrxfc750nn4sa,35,1,0.0,37.0,0.443,0.0,0.0
prolific,7onu45df12zkrxfc750nn4sa,36,1,0.0,37.0,0.404,0.0,0.0
prolific,7onu45df12zkrxfc750nn4sa,37,1,2.0,39.0,0.191,0.0,0.0
prolific,7onu45df12zkrxfc750nn4sa,38,1,2.0,39.0,0.333,0.0,0.0
prolific,7onu45df12zkrxfc750nn4sa,39,1,1.0,38.0,0.37,1.0,1.0
prolific,7onu45df12zkrxfc750nn4sa,40,1,1.0,38.0,0.788,1.0,1.0
prolific,7onu45df12zkrxfc750nn4sa,41,1,1.0,38.0,0.58,1.0,1.0
prolific,7onu45df12zkrxfc750nn4sa,42,1,1.0,38.0,0.611,1.0,1.0
prolific,7onu45df12zkrxfc750nn4sa,43,1,1.0,38.0,0.438,1.0,1.0
prolific,7onu45df12zkrxfc750nn4sa,44,1,1.0,38.0,0.513,1.0,1.0
prolific,7onu45df12zkrxfc750nn4sa,45,1,1.0,38.0,0.452,1.0,0.0
prolific,7onu45df12zkrxfc750nn4sa,46,0,0.0,37.0,0.383,1.0,1.0
prolific,7onu45df12zkrxfc750nn4sa,47,0,0.0,37.0,0.58,1.0,1.0
prolific,7onu45df12zkrxfc750nn4sa,48,0,0.0,37.0,0.564,1.0,1.0
prolific,7onu45df12zkrxfc750nn4sa,49,0,0.0,37.0,0.536,1.0,1.0
prolific,7onu45df12zkrxfc750nn4sa,50,0,0.0,37.0,0.42,1.0,1.0
prolific,7onu45df12zkrxfc750nn4sa,51,0,0.0,37.0,0.403,1.0,1.0
prolific,7onu45df12zkrxfc750nn4sa,52,0,0.0,37.0,0.44,1.0,1.0
prolific,7onu45df12zkrxfc750nn4sa,53,0,0.0,37.0,0.412,1.0,1.0
prolific,7onu45df12zkrxfc750nn4sa,54,0,0.0,37.0,0.385,1.0,1.0
prolific,7onu45df12zkrxfc750nn4sa,55,0,0.0,37.0,0.378,1.0,1.0
prolific,7onu45df12zkrxfc750nn4sa,56,0,0.0,37.0,0.359,1.0,0.0
prolific,7onu45df12zkrxfc750nn4sa,57,0,0.0,37.0,0.535,1.0,1.0
prolific,7onu45df12zkrxfc750nn4sa,58,0,0.0,37.0,0.408,1.0,0.0
prolific,7onu45df12zkrxfc750nn4sa,59,0,2.0,39.0,0.04,0.0,1.0
prolific,7onu45df12zkrxfc750nn4sa,60,0,2.0,39.0,0.349,0.0,1.0
prolific,7onu45df12zkrxfc750nn4sa,61,2,2.0,39.0,0.478,1.0,1.0
prolific,7onu45df12zkrxfc750nn4sa,62,2,2.0,39.0,0.431,1.0,0.0
prolific,7onu45df12zkrxfc750nn4sa,63,2,1.0,38.0,0.802,0.0,1.0
prolific,7onu45df12zkrxfc750nn4sa,64,2,1.0,38.0,0.631,0.0,0.0
prolific,7onu45df12zkrxfc750nn4sa,65,2,0.0,37.0,0.344,0.0,0.0
prolific,7onu45df12zkrxfc750nn4sa,66,2,2.0,39.0,0.203,1.0,1.0
prolific,7onu45df12zkrxfc750nn4sa,67,2,2.0,39.0,1.258,1.0,0.0
prolific,7onu45df12zkrxfc750nn4sa,68,2,0.0,37.0,0.194,0.0,0.0
prolific,7onu45df12zkrxfc750nn4sa,69,2,0.0,37.0,0.619,0.0,0.0
prolific,7onu45df12zkrxfc750nn4sa,70,2,1.0,38.0,0.282,0.0,1.0
prolific,7onu45df12zkrxfc750nn4sa,71,2,1.0,38.0,0.473,0.0,0.0
prolific,7onu45df12zkrxfc750nn4sa,72,2,1.0,38.0,0.482,0.0,0.0
prolific,7onu45df12zkrxfc750nn4sa,73,2,2.0,39.0,0.422,1.0,1.0
prolific,7onu45df12zkrxfc750nn4sa,74,2,2.0,39.0,0.82,1.0,1.0
prolific,7onu45df12zkrxfc750nn4sa,75,2,2.0,39.0,0.652,1.0,1.0
prolific,7onu45df12zkrxfc750nn4sa,76,1,2.0,39.0,0.511,0.0,0.0
prolific,7onu45df12zkrxfc750nn4sa,77,1,2.0,39.0,0.718,0.0,1.0
prolific,7onu45df12zkrxfc750nn4sa,78,1,2.0,39.0,0.651,0.0,0.0
prolific,7onu45df12zkrxfc750nn4sa,79,1,0.0,37.0,0.317,0.0,0.0
prolific,7onu45df12zkrxfc750nn4sa,80,1,2.0,39.0,0.377,0.0,0.0
prolific,7onu45df12zkrxfc750nn4sa,81,1,1.0,38.0,0.24,1.0,1.0
prolific,7onu45df12zkrxfc750nn4sa,82,1,1.0,38.0,0.383,1.0,1.0
prolific,7onu45df12zkrxfc750nn4sa,83,1,1.0,38.0,0.378,1.0,1.0
prolific,7onu45df12zkrxfc750nn4sa,84,1,1.0,38.0,0.389,1.0,0.0
prolific,7onu45df12zkrxfc750nn4sa,85,1,1.0,38.0,0.364,1.0,1.0
prolific,7onu45df12zkrxfc750nn4sa,86,1,1.0,38.0,0.379,1.0,1.0
prolific,7onu45df12zkrxfc750nn4sa,87,1,1.0,38.0,0.466,1.0,1.0
prolific,7onu45df12zkrxfc750nn4sa,88,1,1.0,38.0,0.395,1.0,1.0
prolific,7onu45df12zkrxfc750nn4sa,89,1,1.0,38.0,0.366,1.0,0.0
prolific,7onu45df12zkrxfc750nn4sa,90,1,1.0,38.0,0.347,1.0,1.0
prolific,7sw6swyfiqm06ookrrxv1ejk,1,2,1.0,38.0,3.095,0.0,0.0
prolific,7sw6swyfiqm06ookrrxv1ejk,2,2,1.0,38.0,3.583,0.0,1.0
prolific,7sw6swyfiqm06ookrrxv1ejk,3,2,1.0,38.0,2.181,0.0,1.0
prolific,7sw6swyfiqm06ookrrxv1ejk,4,2,1.0,38.0,1.738,0.0,0.0
prolific,7sw6swyfiqm06ookrrxv1ejk,5,2,1.0,38.0,1.876,0.0,0.0
prolific,7sw6swyfiqm06ookrrxv1ejk,6,2,1.0,38.0,1.894,0.0,0.0
prolific,7sw6swyfiqm06ookrrxv1ejk,7,2,0.0,37.0,3.93,0.0,0.0
prolific,7sw6swyfiqm06ookrrxv1ejk,8,2,1.0,38.0,1.236,0.0,0.0
prolific,7sw6swyfiqm06ookrrxv1ejk,9,2,2.0,39.0,0.485,1.0,1.0
prolific,7sw6swyfiqm06ookrrxv1ejk,10,2,0.0,37.0,1.525,0.0,0.0
prolific,7sw6swyfiqm06ookrrxv1ejk,11,2,2.0,39.0,1.718,1.0,1.0
prolific,7sw6swyfiqm06ookrrxv1ejk,12,2,0.0,37.0,1.236,0.0,1.0
prolific,7sw6swyfiqm06ookrrxv1ejk,13,2,0.0,37.0,0.932,0.0,0.0
prolific,7sw6swyfiqm06ookrrxv1ejk,14,2,1.0,38.0,1.452,0.0,0.0
prolific,7sw6swyfiqm06ookrrxv1ejk,15,2,1.0,38.0,1.298,0.0,0.0
prolific,7sw6swyfiqm06ookrrxv1ejk,16,1,1.0,38.0,3.358,1.0,0.0
prolific,7sw6swyfiqm06ookrrxv1ejk,17,1,2.0,39.0,3.226,0.0,0.0
prolific,7sw6swyfiqm06ookrrxv1ejk,18,1,0.0,37.0,2.481,0.0,0.0
prolific,7sw6swyfiqm06ookrrxv1ejk,19,1,1.0,38.0,3.098,1.0,0.0
prolific,7sw6swyfiqm06ookrrxv1ejk,20,1,1.0,38.0,1.888,1.0,1.0
prolific,7sw6swyfiqm06ookrrxv1ejk,21,1,0.0,37.0,2.875,0.0,0.0
prolific,7sw6swyfiqm06ookrrxv1ejk,22,1,1.0,38.0,0.341,1.0,0.0
prolific,7sw6swyfiqm06ookrrxv1ejk,23,1,0.0,37.0,0.508,0.0,0.0
prolific,7sw6swyfiqm06ookrrxv1ejk,24,1,2.0,39.0,0.275,0.0,0.0
prolific,7sw6swyfiqm06ookrrxv1ejk,25,1,2.0,39.0,2.36,0.0,0.0
prolific,7sw6swyfiqm06ookrrxv1ejk,26,1,1.0,38.0,5.423,1.0,1.0
prolific,7sw6swyfiqm06ookrrxv1ejk,27,1,0.0,37.0,4.573,0.0,0.0
prolific,7sw6swyfiqm06ookrrxv1ejk,28,1,1.0,38.0,6.068,1.0,0.0
prolific,7sw6swyfiqm06ookrrxv1ejk,29,1,0.0,37.0,6.406,0.0,0.0
prolific,7sw6swyfiqm06ookrrxv1ejk,30,1,1.0,38.0,3.987,1.0,1.0
prolific,7sw6swyfiqm06ookrrxv1ejk,31,0,1.0,38.0,3.299,0.0,0.0
prolific,7sw6swyfiqm06ookrrxv1ejk,32,0,2.0,39.0,2.257,0.0,0.0
prolific,7sw6swyfiqm06ookrrxv1ejk,33,0,2.0,39.0,2.193,0.0,1.0
prolific,7sw6swyfiqm06ookrrxv1ejk,34,0,0.0,37.0,2.015,1.0,0.0
prolific,7sw6swyfiqm06ookrrxv1ejk,35,0,0.0,37.0,1.997,1.0,1.0
prolific,7sw6swyfiqm06ookrrxv1ejk,36,0,1.0,38.0,2.841,0.0,0.0
prolific,7sw6swyfiqm06ookrrxv1ejk,37,0,1.0,38.0,1.691,0.0,0.0
prolific,7sw6swyfiqm06ookrrxv1ejk,38,0,2.0,39.0,1.933,0.0,0.0
prolific,7sw6swyfiqm06ookrrxv1ejk,39,0,1.0,38.0,1.769,0.0,1.0
prolific,7sw6swyfiqm06ookrrxv1ejk,40,0,2.0,39.0,2.152,0.0,0.0
prolific,7sw6swyfiqm06ookrrxv1ejk,41,0,2.0,39.0,1.491,0.0,0.0
prolific,7sw6swyfiqm06ookrrxv1ejk,42,0,2.0,39.0,2.181,0.0,0.0
prolific,7sw6swyfiqm06ookrrxv1ejk,43,0,1.0,38.0,1.679,0.0,0.0
prolific,7sw6swyfiqm06ookrrxv1ejk,44,0,2.0,39.0,2.486,0.0,0.0
prolific,7sw6swyfiqm06ookrrxv1ejk,45,0,0.0,37.0,3.304,1.0,0.0
prolific,7sw6swyfiqm06ookrrxv1ejk,46,2,1.0,38.0,3.588,0.0,0.0
prolific,7sw6swyfiqm06ookrrxv1ejk,47,2,1.0,38.0,2.965,0.0,0.0
prolific,7sw6swyfiqm06ookrrxv1ejk,48,2,1.0,38.0,2.955,0.0,0.0
prolific,7sw6swyfiqm06ookrrxv1ejk,49,2,2.0,39.0,4.548,1.0,1.0
prolific,7sw6swyfiqm06ookrrxv1ejk,50,2,2.0,39.0,1.995,1.0,1.0
prolific,7sw6swyfiqm06ookrrxv1ejk,51,2,0.0,37.0,2.289,0.0,0.0
prolific,7sw6swyfiqm06ookrrxv1ejk,52,2,2.0,39.0,1.384,1.0,1.0
prolific,7sw6swyfiqm06ookrrxv1ejk,53,2,2.0,39.0,2.126,1.0,1.0
prolific,7sw6swyfiqm06ookrrxv1ejk,54,2,2.0,39.0,2.16,1.0,1.0
prolific,7sw6swyfiqm06ookrrxv1ejk,55,2,2.0,39.0,2.141,1.0,1.0
prolific,7sw6swyfiqm06ookrrxv1ejk,56,2,2.0,39.0,2.026,1.0,1.0
prolific,7sw6swyfiqm06ookrrxv1ejk,57,2,2.0,39.0,2.282,1.0,0.0
prolific,7sw6swyfiqm06ookrrxv1ejk,58,2,0.0,37.0,1.654,0.0,0.0
prolific,7sw6swyfiqm06ookrrxv1ejk,59,2,1.0,38.0,1.831,0.0,0.0
prolific,7sw6swyfiqm06ookrrxv1ejk,60,2,0.0,37.0,1.859,0.0,0.0
prolific,7sw6swyfiqm06ookrrxv1ejk,61,1,2.0,39.0,1.483,0.0,0.0
prolific,7sw6swyfiqm06ookrrxv1ejk,62,1,2.0,39.0,1.393,0.0,0.0
prolific,7sw6swyfiqm06ookrrxv1ejk,63,1,1.0,38.0,1.674,1.0,1.0
prolific,7sw6swyfiqm06ookrrxv1ejk,64,1,1.0,38.0,1.541,1.0,1.0
prolific,7sw6swyfiqm06ookrrxv1ejk,65,1,1.0,38.0,1.704,1.0,1.0
prolific,7sw6swyfiqm06ookrrxv1ejk,66,1,1.0,38.0,1.453,1.0,1.0
prolific,7sw6swyfiqm06ookrrxv1ejk,67,1,1.0,38.0,1.714,1.0,0.0
prolific,7sw6swyfiqm06ookrrxv1ejk,68,1,0.0,37.0,0.987,0.0,0.0
prolific,7sw6swyfiqm06ookrrxv1ejk,69,1,0.0,37.0,0.902,0.0,0.0
prolific,7sw6swyfiqm06ookrrxv1ejk,70,1,2.0,39.0,0.869,0.0,1.0
prolific,7sw6swyfiqm06ookrrxv1ejk,71,1,2.0,39.0,0.709,0.0,0.0
prolific,7sw6swyfiqm06ookrrxv1ejk,72,1,0.0,37.0,0.821,0.0,0.0
prolific,7sw6swyfiqm06ookrrxv1ejk,73,1,1.0,38.0,0.712,1.0,1.0
prolific,7sw6swyfiqm06ookrrxv1ejk,74,1,1.0,38.0,0.804,1.0,1.0
prolific,7sw6swyfiqm06ookrrxv1ejk,75,1,2.0,39.0,0.674,0.0,1.0
prolific,7sw6swyfiqm06ookrrxv1ejk,76,0,1.0,38.0,1.462,0.0,0.0
prolific,7sw6swyfiqm06ookrrxv1ejk,77,0,2.0,39.0,0.794,0.0,0.0
prolific,7sw6swyfiqm06ookrrxv1ejk,78,0,2.0,39.0,1.664,0.0,0.0
prolific,7sw6swyfiqm06ookrrxv1ejk,79,0,2.0,39.0,1.574,0.0,1.0
prolific,7sw6swyfiqm06ookrrxv1ejk,80,0,2.0,39.0,1.113,0.0,0.0
prolific,7sw6swyfiqm06ookrrxv1ejk,81,0,1.0,38.0,0.382,0.0,0.0
prolific,7sw6swyfiqm06ookrrxv1ejk,82,0,0.0,37.0,1.252,1.0,1.0
prolific,7sw6swyfiqm06ookrrxv1ejk,83,0,0.0,37.0,0.748,1.0,0.0
prolific,7sw6swyfiqm06ookrrxv1ejk,84,0,1.0,38.0,0.601,0.0,1.0
prolific,7sw6swyfiqm06ookrrxv1ejk,85,0,1.0,38.0,0.792,0.0,0.0
prolific,7sw6swyfiqm06ookrrxv1ejk,86,0,2.0,39.0,2.205,0.0,0.0
prolific,7sw6swyfiqm06ookrrxv1ejk,87,0,1.0,38.0,1.991,0.0,0.0
prolific,7sw6swyfiqm06ookrrxv1ejk,88,0,2.0,39.0,2.299,0.0,1.0
prolific,7sw6swyfiqm06ookrrxv1ejk,89,0,2.0,39.0,1.062,0.0,0.0
prolific,7sw6swyfiqm06ookrrxv1ejk,90,0,1.0,38.0,0.369,0.0,0.0
prolific,8lfe345vgkvurp8du9sfe3cu,1,2,2.0,39.0,3.987,1.0,1.0
prolific,8lfe345vgkvurp8du9sfe3cu,2,2,2.0,39.0,0.009,1.0,1.0
prolific,8lfe345vgkvurp8du9sfe3cu,3,2,1.0,38.0,1.643,0.0,0.0
prolific,8lfe345vgkvurp8du9sfe3cu,4,2,2.0,39.0,0.914,1.0,1.0
prolific,8lfe345vgkvurp8du9sfe3cu,5,2,2.0,39.0,1.279,1.0,1.0
prolific,8lfe345vgkvurp8du9sfe3cu,6,2,2.0,39.0,1.135,1.0,1.0
prolific,8lfe345vgkvurp8du9sfe3cu,7,2,2.0,39.0,0.947,1.0,1.0
prolific,8lfe345vgkvurp8du9sfe3cu,8,2,2.0,39.0,0.77,1.0,0.0
prolific,8lfe345vgkvurp8du9sfe3cu,9,2,0.0,37.0,0.642,0.0,0.0
prolific,8lfe345vgkvurp8du9sfe3cu,10,2,2.0,39.0,0.889,1.0,1.0
prolific,8lfe345vgkvurp8du9sfe3cu,11,2,2.0,39.0,1.238,1.0,0.0
prolific,8lfe345vgkvurp8du9sfe3cu,12,2,1.0,38.0,1.07,0.0,0.0
prolific,8lfe345vgkvurp8du9sfe3cu,13,2,0.0,37.0,0.7,0.0,0.0
prolific,8lfe345vgkvurp8du9sfe3cu,14,2,2.0,39.0,0.551,1.0,1.0
prolific,8lfe345vgkvurp8du9sfe3cu,15,2,2.0,39.0,0.787,1.0,0.0
prolific,8lfe345vgkvurp8du9sfe3cu,16,1,2.0,39.0,2.357,0.0,0.0
prolific,8lfe345vgkvurp8du9sfe3cu,17,1,1.0,38.0,0.759,1.0,1.0
prolific,8lfe345vgkvurp8du9sfe3cu,18,1,1.0,38.0,0.587,1.0,1.0
prolific,8lfe345vgkvurp8du9sfe3cu,19,1,1.0,38.0,0.948,1.0,1.0
prolific,8lfe345vgkvurp8du9sfe3cu,20,1,1.0,38.0,0.605,1.0,1.0
prolific,8lfe345vgkvurp8du9sfe3cu,21,1,1.0,38.0,1.138,1.0,1.0
prolific,8lfe345vgkvurp8du9sfe3cu,22,1,1.0,38.0,0.826,1.0,0.0
prolific,8lfe345vgkvurp8du9sfe3cu,23,1,0.0,37.0,0.836,0.0,0.0
prolific,8lfe345vgkvurp8du9sfe3cu,24,1,2.0,39.0,0.79,0.0,0.0
prolific,8lfe345vgkvurp8du9sfe3cu,25,1,1.0,38.0,0.536,1.0,1.0
prolific,8lfe345vgkvurp8du9sfe3cu,26,1,1.0,38.0,0.66,1.0,1.0
prolific,8lfe345vgkvurp8du9sfe3cu,27,1,1.0,38.0,0.697,1.0,1.0
prolific,8lfe345vgkvurp8du9sfe3cu,28,1,1.0,38.0,0.637,1.0,1.0
prolific,8lfe345vgkvurp8du9sfe3cu,29,1,1.0,38.0,0.56,1.0,1.0
prolific,8lfe345vgkvurp8du9sfe3cu,30,1,1.0,38.0,0.698,1.0,0.0
prolific,8lfe345vgkvurp8du9sfe3cu,31,0,1.0,38.0,0.608,0.0,0.0
prolific,8lfe345vgkvurp8du9sfe3cu,32,0,0.0,37.0,0.475,1.0,1.0
prolific,8lfe345vgkvurp8du9sfe3cu,33,0,0.0,37.0,0.516,1.0,1.0
prolific,8lfe345vgkvurp8du9sfe3cu,34,0,0.0,37.0,0.614,1.0,1.0
prolific,8lfe345vgkvurp8du9sfe3cu,35,0,0.0,37.0,0.643,1.0,1.0
prolific,8lfe345vgkvurp8du9sfe3cu,36,0,0.0,37.0,0.662,1.0,0.0
prolific,8lfe345vgkvurp8du9sfe3cu,37,0,0.0,37.0,0.651,1.0,1.0
prolific,8lfe345vgkvurp8du9sfe3cu,38,0,0.0,37.0,0.575,1.0,0.0
prolific,8lfe345vgkvurp8du9sfe3cu,39,0,0.0,37.0,0.58,1.0,1.0
prolific,8lfe345vgkvurp8du9sfe3cu,40,0,0.0,37.0,0.736,1.0,1.0
prolific,8lfe345vgkvurp8du9sfe3cu,41,0,0.0,37.0,0.56,1.0,1.0
prolific,8lfe345vgkvurp8du9sfe3cu,42,0,0.0,37.0,0.714,1.0,1.0
prolific,8lfe345vgkvurp8du9sfe3cu,43,0,0.0,37.0,0.639,1.0,1.0
prolific,8lfe345vgkvurp8du9sfe3cu,44,0,0.0,37.0,0.547,1.0,1.0
prolific,8lfe345vgkvurp8du9sfe3cu,45,0,0.0,37.0,0.84,1.0,1.0
prolific,8lfe345vgkvurp8du9sfe3cu,46,1,0.0,37.0,0.614,0.0,0.0
prolific,8lfe345vgkvurp8du9sfe3cu,47,1,0.0,37.0,0.488,0.0,0.0
prolific,8lfe345vgkvurp8du9sfe3cu,48,1,2.0,39.0,0.431,0.0,0.0
prolific,8lfe345vgkvurp8du9sfe3cu,49,1,1.0,38.0,0.502,1.0,0.0
prolific,8lfe345vgkvurp8du9sfe3cu,50,1,2.0,39.0,0.471,0.0,0.0
prolific,8lfe345vgkvurp8du9sfe3cu,51,1,1.0,38.0,0.404,1.0,1.0
prolific,8lfe345vgkvurp8du9sfe3cu,52,1,1.0,38.0,0.453,1.0,1.0
prolific,8lfe345vgkvurp8du9sfe3cu,53,1,1.0,38.0,0.441,1.0,0.0
prolific,8lfe345vgkvurp8du9sfe3cu,54,1,1.0,38.0,0.481,1.0,1.0
prolific,8lfe345vgkvurp8du9sfe3cu,55,1,1.0,38.0,0.528,1.0,1.0
prolific,8lfe345vgkvurp8du9sfe3cu,56,1,1.0,38.0,0.59,1.0,1.0
prolific,8lfe345vgkvurp8du9sfe3cu,57,1,1.0,38.0,0.424,1.0,1.0
prolific,8lfe345vgkvurp8du9sfe3cu,58,1,1.0,38.0,0.416,1.0,0.0
prolific,8lfe345vgkvurp8du9sfe3cu,59,1,1.0,38.0,0.649,1.0,1.0
prolific,8lfe345vgkvurp8du9sfe3cu,60,1,1.0,38.0,0.548,1.0,1.0
prolific,8lfe345vgkvurp8du9sfe3cu,61,2,1.0,38.0,0.522,0.0,0.0
prolific,8lfe345vgkvurp8du9sfe3cu,62,2,1.0,38.0,0.472,0.0,0.0
prolific,8lfe345vgkvurp8du9sfe3cu,63,2,0.0,37.0,0.393,0.0,0.0
prolific,8lfe345vgkvurp8du9sfe3cu,64,2,0.0,37.0,0.451,0.0,0.0
prolific,8lfe345vgkvurp8du9sfe3cu,65,2,2.0,39.0,0.473,1.0,1.0
prolific,8lfe345vgkvurp8du9sfe3cu,66,2,2.0,39.0,0.49,1.0,1.0
prolific,8lfe345vgkvurp8du9sfe3cu,67,2,2.0,39.0,0.864,1.0,1.0
prolific,8lfe345vgkvurp8du9sfe3cu,68,2,2.0,39.0,0.67,1.0,1.0
prolific,8lfe345vgkvurp8du9sfe3cu,69,2,2.0,39.0,0.645,1.0,1.0
prolific,8lfe345vgkvurp8du9sfe3cu,70,2,2.0,39.0,0.61,1.0,1.0
prolific,8lfe345vgkvurp8du9sfe3cu,71,2,2.0,39.0,0.798,1.0,1.0
prolific,8lfe345vgkvurp8du9sfe3cu,72,2,2.0,39.0,0.748,1.0,1.0
prolific,8lfe345vgkvurp8du9sfe3cu,73,2,2.0,39.0,0.599,1.0,0.0
prolific,8lfe345vgkvurp8du9sfe3cu,74,2,2.0,39.0,0.506,1.0,0.0
prolific,8lfe345vgkvurp8du9sfe3cu,75,2,1.0,38.0,0.401,0.0,0.0
prolific,8lfe345vgkvurp8du9sfe3cu,76,0,1.0,38.0,0.623,0.0,1.0
prolific,8lfe345vgkvurp8du9sfe3cu,77,0,1.0,38.0,0.562,0.0,0.0
prolific,8lfe345vgkvurp8du9sfe3cu,78,0,0.0,37.0,0.49,1.0,1.0
prolific,8lfe345vgkvurp8du9sfe3cu,79,0,0.0,37.0,0.515,1.0,1.0
prolific,8lfe345vgkvurp8du9sfe3cu,80,0,0.0,37.0,0.441,1.0,0.0
prolific,8lfe345vgkvurp8du9sfe3cu,81,0,0.0,37.0,0.447,1.0,1.0
prolific,8lfe345vgkvurp8du9sfe3cu,82,0,0.0,37.0,0.504,1.0,1.0
prolific,8lfe345vgkvurp8du9sfe3cu,83,0,0.0,37.0,0.442,1.0,1.0
prolific,8lfe345vgkvurp8du9sfe3cu,84,0,0.0,37.0,0.419,1.0,1.0
prolific,8lfe345vgkvurp8du9sfe3cu,85,0,0.0,37.0,0.453,1.0,1.0
prolific,8lfe345vgkvurp8du9sfe3cu,86,0,0.0,37.0,0.597,1.0,1.0
prolific,8lfe345vgkvurp8du9sfe3cu,87,0,0.0,37.0,0.538,1.0,0.0
prolific,8lfe345vgkvurp8du9sfe3cu,88,0,0.0,37.0,0.457,1.0,1.0
prolific,8lfe345vgkvurp8du9sfe3cu,89,0,0.0,37.0,0.572,1.0,0.0
prolific,8lfe345vgkvurp8du9sfe3cu,90,0,0.0,37.0,0.547,1.0,0.0
prolific,9kzs2lfi4bmyk5xz03ck58ne,1,1,0.0,37.0,0.707,0.0,1.0
prolific,9kzs2lfi4bmyk5xz03ck58ne,2,1,1.0,38.0,0.037,1.0,1.0
prolific,9kzs2lfi4bmyk5xz03ck58ne,3,1,2.0,39.0,0.54,0.0,1.0
prolific,9kzs2lfi4bmyk5xz03ck58ne,4,1,1.0,38.0,0.381,1.0,1.0
prolific,9kzs2lfi4bmyk5xz03ck58ne,5,1,0.0,37.0,0.282,0.0,0.0
prolific,9kzs2lfi4bmyk5xz03ck58ne,6,1,1.0,38.0,0.27,1.0,1.0
prolific,9kzs2lfi4bmyk5xz03ck58ne,7,1,2.0,39.0,0.221,0.0,1.0
prolific,9kzs2lfi4bmyk5xz03ck58ne,8,1,1.0,38.0,0.046,1.0,1.0
prolific,9kzs2lfi4bmyk5xz03ck58ne,9,1,2.0,39.0,0.2,0.0,0.0
prolific,9kzs2lfi4bmyk5xz03ck58ne,10,1,1.0,38.0,0.049,1.0,1.0
prolific,9kzs2lfi4bmyk5xz03ck58ne,11,1,1.0,38.0,0.376,1.0,1.0
prolific,9kzs2lfi4bmyk5xz03ck58ne,12,1,1.0,38.0,0.2,1.0,0.0
prolific,9kzs2lfi4bmyk5xz03ck58ne,13,1,0.0,37.0,0.208,0.0,0.0
prolific,9kzs2lfi4bmyk5xz03ck58ne,14,1,2.0,39.0,0.19,0.0,0.0
prolific,9kzs2lfi4bmyk5xz03ck58ne,15,1,1.0,38.0,0.208,1.0,1.0
prolific,9kzs2lfi4bmyk5xz03ck58ne,16,2,1.0,38.0,0.254,0.0,0.0
prolific,9kzs2lfi4bmyk5xz03ck58ne,17,2,2.0,39.0,1.277,1.0,1.0
prolific,9kzs2lfi4bmyk5xz03ck58ne,18,2,0.0,37.0,0.095,0.0,0.0
prolific,9kzs2lfi4bmyk5xz03ck58ne,19,2,2.0,39.0,0.142,1.0,1.0
prolific,9kzs2lfi4bmyk5xz03ck58ne,20,2,2.0,39.0,0.142,1.0,1.0
prolific,9kzs2lfi4bmyk5xz03ck58ne,21,2,2.0,39.0,0.051,1.0,1.0
prolific,9kzs2lfi4bmyk5xz03ck58ne,22,2,2.0,39.0,0.395,1.0,1.0
prolific,9kzs2lfi4bmyk5xz03ck58ne,23,2,2.0,39.0,0.123,1.0,1.0
prolific,9kzs2lfi4bmyk5xz03ck58ne,24,2,2.0,39.0,0.221,1.0,1.0
prolific,9kzs2lfi4bmyk5xz03ck58ne,25,2,2.0,39.0,0.224,1.0,1.0
prolific,9kzs2lfi4bmyk5xz03ck58ne,26,2,2.0,39.0,0.213,1.0,1.0
prolific,9kzs2lfi4bmyk5xz03ck58ne,27,2,2.0,39.0,0.128,1.0,0.0
prolific,9kzs2lfi4bmyk5xz03ck58ne,28,2,0.0,37.0,0.089,0.0,1.0
prolific,9kzs2lfi4bmyk5xz03ck58ne,29,2,1.0,38.0,0.077,0.0,0.0
prolific,9kzs2lfi4bmyk5xz03ck58ne,30,2,0.0,37.0,0.26,0.0,1.0
prolific,9kzs2lfi4bmyk5xz03ck58ne,31,1,0.0,37.0,0.107,0.0,0.0
prolific,9kzs2lfi4bmyk5xz03ck58ne,32,1,1.0,38.0,0.24,1.0,1.0
prolific,9kzs2lfi4bmyk5xz03ck58ne,33,1,1.0,38.0,0.016,1.0,1.0
prolific,9kzs2lfi4bmyk5xz03ck58ne,34,1,1.0,38.0,0.012,1.0,1.0
prolific,9kzs2lfi4bmyk5xz03ck58ne,35,1,1.0,38.0,0.1,1.0,1.0
prolific,9kzs2lfi4bmyk5xz03ck58ne,36,1,1.0,38.0,0.01,1.0,1.0
prolific,9kzs2lfi4bmyk5xz03ck58ne,37,1,1.0,38.0,0.156,1.0,1.0
prolific,9kzs2lfi4bmyk5xz03ck58ne,38,1,1.0,38.0,0.164,1.0,1.0
prolific,9kzs2lfi4bmyk5xz03ck58ne,39,1,1.0,38.0,0.094,1.0,1.0
prolific,9kzs2lfi4bmyk5xz03ck58ne,40,1,1.0,38.0,0.0,1.0,1.0
prolific,9kzs2lfi4bmyk5xz03ck58ne,41,1,1.0,38.0,0.012,1.0,0.0
prolific,9kzs2lfi4bmyk5xz03ck58ne,42,1,0.0,37.0,0.274,0.0,0.0
prolific,9kzs2lfi4bmyk5xz03ck58ne,43,1,2.0,39.0,0.13,0.0,0.0
prolific,9kzs2lfi4bmyk5xz03ck58ne,44,1,2.0,39.0,0.219,0.0,0.0
prolific,9kzs2lfi4bmyk5xz03ck58ne,45,1,1.0,38.0,0.055,1.0,1.0
prolific,9kzs2lfi4bmyk5xz03ck58ne,46,2,1.0,38.0,0.043,0.0,1.0
prolific,9kzs2lfi4bmyk5xz03ck58ne,47,2,1.0,38.0,0.131,0.0,0.0
prolific,9kzs2lfi4bmyk5xz03ck58ne,48,2,0.0,37.0,0.209,0.0,0.0
prolific,9kzs2lfi4bmyk5xz03ck58ne,49,2,1.0,38.0,0.005,0.0,0.0
prolific,9kzs2lfi4bmyk5xz03ck58ne,50,2,2.0,39.0,0.081,1.0,1.0
prolific,9kzs2lfi4bmyk5xz03ck58ne,51,2,2.0,39.0,0.098,1.0,1.0
prolific,9kzs2lfi4bmyk5xz03ck58ne,52,2,2.0,39.0,0.079,1.0,1.0
prolific,9kzs2lfi4bmyk5xz03ck58ne,53,2,2.0,39.0,0.1,1.0,1.0
prolific,9kzs2lfi4bmyk5xz03ck58ne,54,2,2.0,39.0,0.105,1.0,1.0
prolific,9kzs2lfi4bmyk5xz03ck58ne,55,2,2.0,39.0,0.048,1.0,0.0
prolific,9kzs2lfi4bmyk5xz03ck58ne,56,2,1.0,38.0,0.023,0.0,0.0
prolific,9kzs2lfi4bmyk5xz03ck58ne,57,2,0.0,37.0,0.194,0.0,0.0
prolific,9kzs2lfi4bmyk5xz03ck58ne,58,2,2.0,39.0,0.076,1.0,1.0
prolific,9kzs2lfi4bmyk5xz03ck58ne,59,2,2.0,39.0,0.169,1.0,1.0
prolific,9kzs2lfi4bmyk5xz03ck58ne,60,2,2.0,39.0,0.194,1.0,0.0
prolific,9kzs2lfi4bmyk5xz03ck58ne,61,0,1.0,38.0,0.217,0.0,0.0
prolific,9kzs2lfi4bmyk5xz03ck58ne,62,0,2.0,39.0,0.153,0.0,0.0
prolific,9kzs2lfi4bmyk5xz03ck58ne,63,0,0.0,37.0,0.176,1.0,0.0
prolific,9kzs2lfi4bmyk5xz03ck58ne,64,0,2.0,39.0,0.073,0.0,0.0
prolific,9kzs2lfi4bmyk5xz03ck58ne,65,0,1.0,38.0,0.113,0.0,1.0
prolific,9kzs2lfi4bmyk5xz03ck58ne,66,0,1.0,38.0,0.027,0.0,0.0
prolific,9kzs2lfi4bmyk5xz03ck58ne,67,0,0.0,37.0,0.145,1.0,1.0
prolific,9kzs2lfi4bmyk5xz03ck58ne,68,0,0.0,37.0,0.041,1.0,1.0
prolific,9kzs2lfi4bmyk5xz03ck58ne,69,0,0.0,37.0,0.092,1.0,1.0
prolific,9kzs2lfi4bmyk5xz03ck58ne,70,0,0.0,37.0,0.144,1.0,1.0
prolific,9kzs2lfi4bmyk5xz03ck58ne,71,0,0.0,37.0,0.108,1.0,1.0
prolific,9kzs2lfi4bmyk5xz03ck58ne,72,0,0.0,37.0,0.067,1.0,1.0
prolific,9kzs2lfi4bmyk5xz03ck58ne,73,0,0.0,37.0,0.083,1.0,1.0
prolific,9kzs2lfi4bmyk5xz03ck58ne,74,0,0.0,37.0,0.149,1.0,1.0
prolific,9kzs2lfi4bmyk5xz03ck58ne,75,0,0.0,37.0,0.255,1.0,1.0
prolific,9kzs2lfi4bmyk5xz03ck58ne,76,1,0.0,37.0,0.174,0.0,0.0
prolific,9kzs2lfi4bmyk5xz03ck58ne,77,1,2.0,39.0,0.121,0.0,0.0
prolific,9kzs2lfi4bmyk5xz03ck58ne,78,1,0.0,37.0,0.148,0.0,0.0
prolific,9kzs2lfi4bmyk5xz03ck58ne,79,1,1.0,38.0,0.02,1.0,1.0
prolific,9kzs2lfi4bmyk5xz03ck58ne,80,1,1.0,38.0,0.155,1.0,1.0
prolific,9kzs2lfi4bmyk5xz03ck58ne,81,1,1.0,38.0,0.071,1.0,1.0
prolific,9kzs2lfi4bmyk5xz03ck58ne,82,1,1.0,38.0,0.151,1.0,0.0
prolific,9kzs2lfi4bmyk5xz03ck58ne,83,1,2.0,39.0,0.138,0.0,1.0
prolific,9kzs2lfi4bmyk5xz03ck58ne,84,1,2.0,39.0,0.188,0.0,0.0
prolific,9kzs2lfi4bmyk5xz03ck58ne,85,1,0.0,37.0,0.378,0.0,0.0
prolific,9kzs2lfi4bmyk5xz03ck58ne,86,1,1.0,38.0,0.302,1.0,0.0
prolific,9kzs2lfi4bmyk5xz03ck58ne,87,1,2.0,39.0,0.172,0.0,0.0
prolific,9kzs2lfi4bmyk5xz03ck58ne,88,1,1.0,38.0,0.18,1.0,1.0
prolific,9kzs2lfi4bmyk5xz03ck58ne,89,1,1.0,38.0,0.034,1.0,1.0
prolific,9kzs2lfi4bmyk5xz03ck58ne,90,1,1.0,38.0,0.019,1.0,0.0
prolific,9s73oel30gm6y0mvrbrhg5sl,1,1,2.0,39.0,3.231,0.0,0.0
prolific,9s73oel30gm6y0mvrbrhg5sl,2,1,2.0,39.0,0.744,0.0,0.0
prolific,9s73oel30gm6y0mvrbrhg5sl,3,1,2.0,39.0,0.412,0.0,0.0
prolific,9s73oel30gm6y0mvrbrhg5sl,4,1,2.0,39.0,0.572,0.0,0.0
prolific,9s73oel30gm6y0mvrbrhg5sl,5,1,0.0,37.0,0.299,0.0,0.0
prolific,9s73oel30gm6y0mvrbrhg5sl,6,1,0.0,37.0,0.331,0.0,0.0
prolific,9s73oel30gm6y0mvrbrhg5sl,7,1,1.0,38.0,0.284,1.0,1.0
prolific,9s73oel30gm6y0mvrbrhg5sl,8,1,1.0,38.0,0.299,1.0,1.0
prolific,9s73oel30gm6y0mvrbrhg5sl,9,1,1.0,38.0,0.3,1.0,1.0
prolific,9s73oel30gm6y0mvrbrhg5sl,10,1,1.0,38.0,0.331,1.0,1.0
prolific,9s73oel30gm6y0mvrbrhg5sl,11,1,1.0,38.0,0.364,1.0,1.0
prolific,9s73oel30gm6y0mvrbrhg5sl,12,1,1.0,38.0,0.348,1.0,1.0
prolific,9s73oel30gm6y0mvrbrhg5sl,13,1,1.0,38.0,0.315,1.0,0.0
prolific,9s73oel30gm6y0mvrbrhg5sl,14,1,0.0,37.0,1.226,0.0,0.0
prolific,9s73oel30gm6y0mvrbrhg5sl,15,1,2.0,39.0,0.3,0.0,0.0
prolific,9s73oel30gm6y0mvrbrhg5sl,16,2,1.0,38.0,0.203,0.0,1.0
prolific,9s73oel30gm6y0mvrbrhg5sl,17,2,2.0,39.0,6.992,1.0,1.0
prolific,9s73oel30gm6y0mvrbrhg5sl,18,2,2.0,39.0,0.332,1.0,1.0
prolific,9s73oel30gm6y0mvrbrhg5sl,19,2,2.0,39.0,0.154,1.0,1.0
prolific,9s73oel30gm6y0mvrbrhg5sl,20,2,2.0,39.0,0.332,1.0,1.0
prolific,9s73oel30gm6y0mvrbrhg5sl,21,2,2.0,39.0,0.364,1.0,1.0
prolific,9s73oel30gm6y0mvrbrhg5sl,22,2,2.0,39.0,0.347,1.0,1.0
prolific,9s73oel30gm6y0mvrbrhg5sl,23,2,2.0,39.0,0.363,1.0,0.0
prolific,9s73oel30gm6y0mvrbrhg5sl,24,2,1.0,38.0,0.268,0.0,0.0
prolific,9s73oel30gm6y0mvrbrhg5sl,25,2,0.0,37.0,0.266,0.0,0.0
prolific,9s73oel30gm6y0mvrbrhg5sl,26,2,2.0,39.0,0.41,1.0,1.0
prolific,9s73oel30gm6y0mvrbrhg5sl,27,2,2.0,39.0,0.315,1.0,0.0
prolific,9s73oel30gm6y0mvrbrhg5sl,28,2,1.0,38.0,0.298,0.0,0.0
prolific,9s73oel30gm6y0mvrbrhg5sl,29,2,2.0,39.0,1.474,1.0,0.0
prolific,9s73oel30gm6y0mvrbrhg5sl,30,2,1.0,38.0,0.363,0.0,0.0
prolific,9s73oel30gm6y0mvrbrhg5sl,31,0,0.0,37.0,0.333,1.0,1.0
prolific,9s73oel30gm6y0mvrbrhg5sl,32,0,0.0,37.0,0.268,1.0,1.0
prolific,9s73oel30gm6y0mvrbrhg5sl,33,0,0.0,37.0,0.315,1.0,1.0
prolific,9s73oel30gm6y0mvrbrhg5sl,34,0,0.0,37.0,0.331,1.0,1.0
prolific,9s73oel30gm6y0mvrbrhg5sl,35,0,0.0,37.0,0.316,1.0,1.0
prolific,9s73oel30gm6y0mvrbrhg5sl,36,0,0.0,37.0,0.315,1.0,1.0
prolific,9s73oel30gm6y0mvrbrhg5sl,37,0,0.0,37.0,0.298,1.0,1.0
prolific,9s73oel30gm6y0mvrbrhg5sl,38,0,0.0,37.0,0.299,1.0,1.0
prolific,9s73oel30gm6y0mvrbrhg5sl,39,0,0.0,37.0,0.316,1.0,1.0
prolific,9s73oel30gm6y0mvrbrhg5sl,40,0,0.0,37.0,0.283,1.0,1.0
prolific,9s73oel30gm6y0mvrbrhg5sl,41,0,0.0,37.0,0.62,1.0,1.0
prolific,9s73oel30gm6y0mvrbrhg5sl,42,0,0.0,37.0,0.331,1.0,1.0
prolific,9s73oel30gm6y0mvrbrhg5sl,43,0,0.0,37.0,0.283,1.0,1.0
prolific,9s73oel30gm6y0mvrbrhg5sl,44,0,0.0,37.0,0.171,1.0,1.0
prolific,9s73oel30gm6y0mvrbrhg5sl,45,0,0.0,37.0,0.298,1.0,1.0
prolific,9s73oel30gm6y0mvrbrhg5sl,46,2,0.0,37.0,0.284,0.0,0.0
prolific,9s73oel30gm6y0mvrbrhg5sl,47,2,0.0,37.0,0.252,0.0,0.0
prolific,9s73oel30gm6y0mvrbrhg5sl,48,2,1.0,38.0,0.282,0.0,0.0
prolific,9s73oel30gm6y0mvrbrhg5sl,49,2,1.0,38.0,0.284,0.0,0.0
prolific,9s73oel30gm6y0mvrbrhg5sl,50,2,2.0,39.0,0.285,1.0,1.0
prolific,9s73oel30gm6y0mvrbrhg5sl,51,2,2.0,39.0,0.3,1.0,1.0
prolific,9s73oel30gm6y0mvrbrhg5sl,52,2,2.0,39.0,0.314,1.0,1.0
prolific,9s73oel30gm6y0mvrbrhg5sl,53,2,2.0,39.0,0.281,1.0,1.0
prolific,9s73oel30gm6y0mvrbrhg5sl,54,2,2.0,39.0,0.269,1.0,1.0
prolific,9s73oel30gm6y0mvrbrhg5sl,55,2,2.0,39.0,0.281,1.0,1.0
prolific,9s73oel30gm6y0mvrbrhg5sl,56,2,2.0,39.0,0.267,1.0,1.0
prolific,9s73oel30gm6y0mvrbrhg5sl,57,2,2.0,39.0,0.268,1.0,0.0
prolific,9s73oel30gm6y0mvrbrhg5sl,58,2,2.0,39.0,0.219,1.0,1.0
prolific,9s73oel30gm6y0mvrbrhg5sl,59,2,2.0,39.0,0.3,1.0,1.0
prolific,9s73oel30gm6y0mvrbrhg5sl,60,2,2.0,39.0,0.311,1.0,1.0
prolific,9s73oel30gm6y0mvrbrhg5sl,61,1,2.0,39.0,0.299,0.0,1.0
prolific,9s73oel30gm6y0mvrbrhg5sl,62,1,2.0,39.0,0.298,0.0,0.0
prolific,9s73oel30gm6y0mvrbrhg5sl,63,1,2.0,39.0,0.018,0.0,0.0
prolific,9s73oel30gm6y0mvrbrhg5sl,64,1,0.0,37.0,0.566,0.0,1.0
prolific,9s73oel30gm6y0mvrbrhg5sl,65,1,0.0,37.0,0.443,0.0,1.0
prolific,9s73oel30gm6y0mvrbrhg5sl,66,1,0.0,37.0,0.364,0.0,0.0
prolific,9s73oel30gm6y0mvrbrhg5sl,67,1,0.0,37.0,0.268,0.0,0.0
prolific,9s73oel30gm6y0mvrbrhg5sl,68,1,1.0,38.0,0.283,1.0,1.0
prolific,9s73oel30gm6y0mvrbrhg5sl,69,1,1.0,38.0,0.298,1.0,1.0
prolific,9s73oel30gm6y0mvrbrhg5sl,70,1,1.0,38.0,0.3,1.0,1.0
prolific,9s73oel30gm6y0mvrbrhg5sl,71,1,1.0,38.0,0.33,1.0,0.0
prolific,9s73oel30gm6y0mvrbrhg5sl,72,1,1.0,38.0,0.315,1.0,1.0
prolific,9s73oel30gm6y0mvrbrhg5sl,73,1,1.0,38.0,0.315,1.0,1.0
prolific,9s73oel30gm6y0mvrbrhg5sl,74,1,1.0,38.0,0.251,1.0,1.0
prolific,9s73oel30gm6y0mvrbrhg5sl,75,1,1.0,38.0,0.286,1.0,0.0
prolific,9s73oel30gm6y0mvrbrhg5sl,76,0,1.0,38.0,0.251,0.0,0.0
prolific,9s73oel30gm6y0mvrbrhg5sl,77,0,2.0,39.0,0.267,0.0,0.0
prolific,9s73oel30gm6y0mvrbrhg5sl,78,0,2.0,39.0,0.28,0.0,0.0
prolific,9s73oel30gm6y0mvrbrhg5sl,79,0,0.0,37.0,0.251,1.0,1.0
prolific,9s73oel30gm6y0mvrbrhg5sl,80,0,0.0,37.0,0.332,1.0,1.0
prolific,9s73oel30gm6y0mvrbrhg5sl,81,0,0.0,37.0,0.428,1.0,1.0
prolific,9s73oel30gm6y0mvrbrhg5sl,82,0,0.0,37.0,0.347,1.0,0.0
prolific,9s73oel30gm6y0mvrbrhg5sl,83,0,0.0,37.0,0.253,1.0,1.0
prolific,9s73oel30gm6y0mvrbrhg5sl,84,0,0.0,37.0,0.301,1.0,1.0
prolific,9s73oel30gm6y0mvrbrhg5sl,85,0,0.0,37.0,0.268,1.0,0.0
prolific,9s73oel30gm6y0mvrbrhg5sl,86,0,0.0,37.0,0.268,1.0,0.0
prolific,9s73oel30gm6y0mvrbrhg5sl,87,0,1.0,38.0,0.38,0.0,0.0
prolific,9s73oel30gm6y0mvrbrhg5sl,88,0,1.0,38.0,0.218,0.0,0.0
prolific,9s73oel30gm6y0mvrbrhg5sl,89,0,2.0,39.0,0.204,0.0,0.0
prolific,9s73oel30gm6y0mvrbrhg5sl,90,0,2.0,39.0,0.17,0.0,1.0
prolific,a2v38wfhjdt19iwmixx5ubbn,1,2,0.0,37.0,3.361,0.0,1.0
prolific,a2v38wfhjdt19iwmixx5ubbn,2,2,1.0,38.0,3.685,0.0,1.0
prolific,a2v38wfhjdt19iwmixx5ubbn,3,2,0.0,37.0,1.376,0.0,1.0
prolific,a2v38wfhjdt19iwmixx5ubbn,4,2,0.0,37.0,2.213,0.0,0.0
prolific,a2v38wfhjdt19iwmixx5ubbn,5,2,2.0,39.0,3.26,1.0,1.0
prolific,a2v38wfhjdt19iwmixx5ubbn,6,2,0.0,37.0,1.581,0.0,1.0
prolific,a2v38wfhjdt19iwmixx5ubbn,7,2,0.0,37.0,2.084,0.0,0.0
prolific,a2v38wfhjdt19iwmixx5ubbn,8,2,0.0,37.0,1.363,0.0,0.0
prolific,a2v38wfhjdt19iwmixx5ubbn,9,2,0.0,37.0,1.001,0.0,1.0
prolific,a2v38wfhjdt19iwmixx5ubbn,10,2,2.0,39.0,1.2,1.0,1.0
prolific,a2v38wfhjdt19iwmixx5ubbn,11,2,2.0,39.0,4.15,1.0,1.0
prolific,a2v38wfhjdt19iwmixx5ubbn,12,2,2.0,39.0,6.284,1.0,1.0
prolific,a2v38wfhjdt19iwmixx5ubbn,13,2,2.0,39.0,1.887,1.0,1.0
prolific,a2v38wfhjdt19iwmixx5ubbn,14,2,2.0,39.0,1.631,1.0,1.0
prolific,a2v38wfhjdt19iwmixx5ubbn,15,2,2.0,39.0,1.155,1.0,1.0
prolific,a2v38wfhjdt19iwmixx5ubbn,16,0,0.0,37.0,1.05,1.0,1.0
prolific,a2v38wfhjdt19iwmixx5ubbn,17,0,1.0,38.0,2.016,0.0,1.0
prolific,a2v38wfhjdt19iwmixx5ubbn,18,0,0.0,37.0,1.191,1.0,0.0
prolific,a2v38wfhjdt19iwmixx5ubbn,19,0,0.0,37.0,0.821,1.0,1.0
prolific,a2v38wfhjdt19iwmixx5ubbn,20,0,0.0,37.0,0.982,1.0,1.0
prolific,a2v38wfhjdt19iwmixx5ubbn,21,0,0.0,37.0,1.552,1.0,1.0
prolific,a2v38wfhjdt19iwmixx5ubbn,22,0,0.0,37.0,1.275,1.0,1.0
prolific,a2v38wfhjdt19iwmixx5ubbn,23,0,0.0,37.0,1.124,1.0,0.0
prolific,a2v38wfhjdt19iwmixx5ubbn,24,0,0.0,37.0,1.011,1.0,1.0
prolific,a2v38wfhjdt19iwmixx5ubbn,25,0,0.0,37.0,0.859,1.0,1.0
prolific,a2v38wfhjdt19iwmixx5ubbn,26,0,0.0,37.0,0.889,1.0,1.0
prolific,a2v38wfhjdt19iwmixx5ubbn,27,0,0.0,37.0,1.025,1.0,1.0
prolific,a2v38wfhjdt19iwmixx5ubbn,28,0,0.0,37.0,0.982,1.0,1.0
prolific,a2v38wfhjdt19iwmixx5ubbn,29,0,0.0,37.0,0.867,1.0,1.0
prolific,a2v38wfhjdt19iwmixx5ubbn,30,0,0.0,37.0,0.754,1.0,1.0
prolific,a2v38wfhjdt19iwmixx5ubbn,31,1,1.0,38.0,1.148,1.0,1.0
prolific,a2v38wfhjdt19iwmixx5ubbn,32,1,1.0,38.0,1.499,1.0,1.0
prolific,a2v38wfhjdt19iwmixx5ubbn,33,1,2.0,39.0,1.034,0.0,1.0
prolific,a2v38wfhjdt19iwmixx5ubbn,34,1,1.0,38.0,0.99,1.0,1.0
prolific,a2v38wfhjdt19iwmixx5ubbn,35,1,2.0,39.0,1.255,0.0,1.0
prolific,a2v38wfhjdt19iwmixx5ubbn,36,1,0.0,37.0,0.816,0.0,1.0
prolific,a2v38wfhjdt19iwmixx5ubbn,37,1,1.0,38.0,0.977,1.0,1.0
prolific,a2v38wfhjdt19iwmixx5ubbn,38,1,0.0,37.0,1.143,0.0,0.0
prolific,a2v38wfhjdt19iwmixx5ubbn,39,1,0.0,37.0,0.854,0.0,0.0
prolific,a2v38wfhjdt19iwmixx5ubbn,40,1,1.0,38.0,1.095,1.0,1.0
prolific,a2v38wfhjdt19iwmixx5ubbn,41,1,0.0,37.0,0.986,0.0,1.0
prolific,a2v38wfhjdt19iwmixx5ubbn,42,1,1.0,38.0,1.0,1.0,1.0
prolific,a2v38wfhjdt19iwmixx5ubbn,43,1,1.0,38.0,1.07,1.0,1.0
prolific,a2v38wfhjdt19iwmixx5ubbn,44,1,0.0,37.0,0.841,0.0,1.0
prolific,a2v38wfhjdt19iwmixx5ubbn,45,1,1.0,38.0,0.901,1.0,1.0
prolific,a2v38wfhjdt19iwmixx5ubbn,46,0,0.0,37.0,0.766,1.0,1.0
prolific,a2v38wfhjdt19iwmixx5ubbn,47,0,0.0,37.0,0.924,1.0,1.0
prolific,a2v38wfhjdt19iwmixx5ubbn,48,0,0.0,37.0,0.951,1.0,0.0
prolific,a2v38wfhjdt19iwmixx5ubbn,49,0,0.0,37.0,0.727,1.0,1.0
prolific,a2v38wfhjdt19iwmixx5ubbn,50,0,0.0,37.0,0.906,1.0,1.0
prolific,a2v38wfhjdt19iwmixx5ubbn,51,0,0.0,37.0,1.093,1.0,0.0
prolific,a2v38wfhjdt19iwmixx5ubbn,52,0,0.0,37.0,0.946,1.0,0.0
prolific,a2v38wfhjdt19iwmixx5ubbn,53,0,0.0,37.0,0.92,1.0,1.0
prolific,a2v38wfhjdt19iwmixx5ubbn,54,0,0.0,37.0,0.867,1.0,1.0
prolific,a2v38wfhjdt19iwmixx5ubbn,55,0,0.0,37.0,0.819,1.0,1.0
prolific,a2v38wfhjdt19iwmixx5ubbn,56,0,0.0,37.0,0.907,1.0,1.0
prolific,a2v38wfhjdt19iwmixx5ubbn,57,0,0.0,37.0,0.9,1.0,1.0
prolific,a2v38wfhjdt19iwmixx5ubbn,58,0,0.0,37.0,0.929,1.0,1.0
prolific,a2v38wfhjdt19iwmixx5ubbn,59,0,0.0,37.0,0.841,1.0,0.0
prolific,a2v38wfhjdt19iwmixx5ubbn,60,0,0.0,37.0,0.791,1.0,1.0
prolific,a2v38wfhjdt19iwmixx5ubbn,61,1,1.0,38.0,1.038,1.0,1.0
prolific,a2v38wfhjdt19iwmixx5ubbn,62,1,0.0,37.0,0.854,0.0,1.0
prolific,a2v38wfhjdt19iwmixx5ubbn,63,1,0.0,37.0,0.842,0.0,1.0
prolific,a2v38wfhjdt19iwmixx5ubbn,64,1,0.0,37.0,0.788,0.0,1.0
prolific,a2v38wfhjdt19iwmixx5ubbn,65,1,1.0,38.0,1.181,1.0,1.0
prolific,a2v38wfhjdt19iwmixx5ubbn,66,1,1.0,38.0,0.967,1.0,1.0
prolific,a2v38wfhjdt19iwmixx5ubbn,67,1,0.0,37.0,0.794,0.0,1.0
prolific,a2v38wfhjdt19iwmixx5ubbn,68,1,2.0,39.0,1.137,0.0,1.0
prolific,a2v38wfhjdt19iwmixx5ubbn,69,1,0.0,37.0,1.027,0.0,0.0
prolific,a2v38wfhjdt19iwmixx5ubbn,70,1,2.0,39.0,0.989,0.0,1.0
prolific,a2v38wfhjdt19iwmixx5ubbn,71,1,1.0,38.0,1.116,1.0,1.0
prolific,a2v38wfhjdt19iwmixx5ubbn,72,1,1.0,38.0,0.959,1.0,1.0
prolific,a2v38wfhjdt19iwmixx5ubbn,73,1,1.0,38.0,0.883,1.0,1.0
prolific,a2v38wfhjdt19iwmixx5ubbn,74,1,1.0,38.0,0.847,1.0,1.0
prolific,a2v38wfhjdt19iwmixx5ubbn,75,1,2.0,39.0,1.02,0.0,1.0
prolific,a2v38wfhjdt19iwmixx5ubbn,76,0,0.0,37.0,0.866,1.0,1.0
prolific,a2v38wfhjdt19iwmixx5ubbn,77,0,0.0,37.0,0.875,1.0,1.0
prolific,a2v38wfhjdt19iwmixx5ubbn,78,0,0.0,37.0,0.963,1.0,1.0
prolific,a2v38wfhjdt19iwmixx5ubbn,79,0,0.0,37.0,0.874,1.0,1.0
prolific,a2v38wfhjdt19iwmixx5ubbn,80,0,0.0,37.0,0.97,1.0,1.0
prolific,a2v38wfhjdt19iwmixx5ubbn,81,0,0.0,37.0,0.962,1.0,1.0
prolific,a2v38wfhjdt19iwmixx5ubbn,82,0,0.0,37.0,0.99,1.0,1.0
prolific,a2v38wfhjdt19iwmixx5ubbn,83,0,0.0,37.0,0.944,1.0,1.0
prolific,a2v38wfhjdt19iwmixx5ubbn,84,0,0.0,37.0,1.092,1.0,1.0
prolific,a2v38wfhjdt19iwmixx5ubbn,85,0,0.0,37.0,1.053,1.0,1.0
prolific,a2v38wfhjdt19iwmixx5ubbn,86,0,0.0,37.0,1.093,1.0,1.0
prolific,a2v38wfhjdt19iwmixx5ubbn,87,0,0.0,37.0,1.054,1.0,1.0
