[{"responses":{"Q12":"2","Q04":"1","Q01":"2","Q03":"1","Q13":"3","Q11":"3","Q06":"2","Q05":"2","Q09":"1","Q10":"1","Q08":"2","Q07":"2","Q02":"3"},"rt":185138.6549999006,"survey":"bisbas","trial_type":"survey-template","trial_index":0,"time_elapsed":185170,"internal_node_id":"0.0-0.0","task_version":"screening-mturk"},{"responses":{"Q07":"2","Q05":"1","Q04":"1","Q06":"2","Q02":"2","Q03":"3","Q08":"2","Q01":"2"},"rt":7584.384999936447,"survey":"gad7","trial_type":"survey-template","trial_index":1,"time_elapsed":192759,"internal_node_id":"0.0-1.0","task_version":"screening-mturk"},{"responses":{"Q02":"2","Q01":"2","Q03":"3"},"rt":6264.995000092313,"survey":"pswq","trial_type":"survey-template","trial_index":2,"time_elapsed":199027,"internal_node_id":"0.0-2.0","task_version":"screening-mturk"},{"responses":{"Q03":"2","Q15":"1","Q09":"2","Q05":"3","Q01":"2","Q11":"2","Q13":"1","Q06":"2","Q12":"2","Q14":"1","Q10":"1","Q07":"2","Q04":"2","Q02":"1","Q08":"2"},"rt":26336.579999886453,"survey":"7up7down","trial_type":"survey-template","trial_index":3,"time_elapsed":225368,"internal_node_id":"0.0-3.0","task_version":"screening-mturk"},{"responses":{"Q14":"2","Q10":"3","Q11":"3","Q06":"3","Q09":"3","Q04":"2","Q15":"3","Q08":"3","Q12":"2","Q01":"2","Q03":"3","Q13":"3","Q07":"2","Q02":"2","Q05":"3"},"rt":27165.074999909848,"survey":"shaps","trial_type":"survey-template","trial_index":4,"time_elapsed":252542,"internal_node_id":"0.0-4.0","task_version":"screening-mturk"},{"view_history":"[{\"page_index\":0,\"viewing_time\":14727.7250001207},{\"page_index\":1,\"viewing_time\":2491.0450000315905},{\"page_index\":2,\"viewing_time\":18737.939999904484},{\"page_index\":3,\"viewing_time\":6479.850000003353},{\"page_index\":4,\"viewing_time\":3359.9099998828024},{\"page_index\":5,\"viewing_time\":2431.2100000679493},{\"page_index\":6,\"viewing_time\":2048.5050000716},{\"page_index\":7,\"viewing_time\":9399.569999892265}]","rt":59676.5749999322,"trial_type":"instructions","trial_index":5,"time_elapsed":312226,"internal_node_id":"0.0-5.0-0.0","task_version":"screening-mturk"},{"responses":["True","False","True","True","False"],"num_errors":4,"rt":20406.900000059977,"trial_type":"three-arm-comprehension","trial_index":6,"time_elapsed":332640,"internal_node_id":"0.0-5.0-1.0","task_version":"screening-mturk"},{"view_history":"[{\"page_index\":0,\"viewing_time\":3744.1700000781566},{\"page_index\":1,\"viewing_time\":13744.014999829233},{\"page_index\":2,\"viewing_time\":5594.760000007227},{\"page_index\":3,\"viewing_time\":5883.275000145659},{\"page_index\":4,\"viewing_time\":6771.249999990687},{\"page_index\":5,\"viewing_time\":7934.589999960735},{\"page_index\":6,\"viewing_time\":9599.385000066832},{\"page_index\":7,\"viewing_time\":1959.9399999715388}]","rt":55231.91500012763,"trial_type":"instructions","trial_index":7,"time_elapsed":387876,"internal_node_id":"0.0-5.1-0.1","task_version":"screening-mturk"},{"responses":["True","True","True","False","True"],"num_errors":1,"rt":93058.80499980412,"trial_type":"three-arm-comprehension","trial_index":8,"time_elapsed":480946,"internal_node_id":"0.0-5.1-1.1","task_version":"screening-mturk"},{"view_history":"[{\"page_index\":0,\"viewing_time\":3400.609999895096},{\"page_index\":1,\"viewing_time\":2460.020000115037},{\"page_index\":2,\"viewing_time\":1649.860000004992},{\"page_index\":3,\"viewing_time\":1450.419999891892},{\"page_index\":4,\"viewing_time\":824.7199999168515},{\"page_index\":5,\"viewing_time\":645.3150000888854},{\"page_index\":6,\"viewing_time\":749.9100000131875},{\"page_index\":7,\"viewing_time\":1169.7750000748783}]","rt":12351.169999921694,"trial_type":"instructions","trial_index":9,"time_elapsed":493300,"internal_node_id":"0.0-5.2-0.2","task_version":"screening-mturk"},{"responses":["True","True","True","True","True"],"num_errors":2,"rt":13970.734999980778,"trial_type":"three-arm-comprehension","trial_index":10,"time_elapsed":507273,"internal_node_id":"0.0-5.2-1.2","task_version":"screening-mturk"},{"view_history":"[{\"page_index\":0,\"viewing_time\":2611.409999895841},{\"page_index\":1,\"viewing_time\":730.2399999462068},{\"page_index\":2,\"viewing_time\":639.7200000938028},{\"page_index\":3,\"viewing_time\":317.8699999116361},{\"page_index\":4,\"viewing_time\":262.73000007495284},{\"page_index\":5,\"viewing_time\":534.8849999718368},{\"page_index\":6,\"viewing_time\":784.6350001636893},{\"page_index\":7,\"viewing_time\":859.859999967739}]","rt":6741.889999946579,"trial_type":"instructions","trial_index":11,"time_elapsed":514018,"internal_node_id":"0.0-5.3-0.3","task_version":"screening-mturk"},{"responses":["True","True","False","False","True"],"num_errors":0,"rt":80054.77000004612,"trial_type":"three-arm-comprehension","trial_index":12,"time_elapsed":594083,"internal_node_id":"0.0-5.3-1.3","task_version":"screening-mturk"},{"view_history":"[{\"page_index\":0,\"viewing_time\":8784.484999952838}]","rt":8784.994999878109,"trial_type":"instructions","trial_index":13,"time_elapsed":602871,"internal_node_id":"0.0-6.0","task_version":"screening-mturk"},{"contexts":["red","blue","green"],"outcomes":[0,1,0],"key":37,"choice":0,"rt":3117.395000066608,"outcome":0,"trial":1,"correct":1,"trial_type":"three-arm-trial","trial_index":14,"time_elapsed":607198,"internal_node_id":"0.0-7.0-0.0","task_version":"screening-mturk","missing":false,"accuracy":0},{"contexts":["red","blue","green"],"outcomes":[0,1,0],"key":39,"choice":2,"rt":150.45999991707504,"outcome":0,"trial":2,"correct":1,"trial_type":"three-arm-trial","trial_index":15,"time_elapsed":608634,"internal_node_id":"0.0-8.0-0.0","task_version":"screening-mturk","missing":false,"accuracy":0},{"contexts":["red","blue","green"],"outcomes":[0,1,0],"key":37,"choice":0,"rt":1641.8749999720603,"outcome":0,"trial":3,"correct":1,"trial_type":"three-arm-trial","trial_index":16,"time_elapsed":611486,"internal_node_id":"0.0-9.0-0.0","task_version":"screening-mturk","missing":false,"accuracy":0},{"contexts":["red","blue","green"],"outcomes":[0,1,0],"key":38,"choice":1,"rt":442.16999993659556,"outcome":1,"trial":4,"correct":1,"trial_type":"three-arm-trial","trial_index":17,"time_elapsed":613132,"internal_node_id":"0.0-10.0-0.0","task_version":"screening-mturk","missing":false,"accuracy":1},{"contexts":["red","blue","green"],"outcomes":[1,1,0],"key":38,"choice":1,"rt":457.97500014305115,"outcome":1,"trial":5,"correct":1,"trial_type":"three-arm-trial","trial_index":18,"time_elapsed":614794,"internal_node_id":"0.0-11.0-0.0","task_version":"screening-mturk","missing":false,"accuracy":1},{"contexts":["red","blue","green"],"outcomes":[0,1,1],"key":38,"choice":1,"rt":157.3799999896437,"outcome":1,"trial":6,"correct":1,"trial_type":"three-arm-trial","trial_index":19,"time_elapsed":616155,"internal_node_id":"0.0-12.0-0.0","task_version":"screening-mturk","missing":false,"accuracy":1},{"contexts":["red","blue","green"],"outcomes":[0,1,0],"key":38,"choice":1,"rt":664.0100001823157,"outcome":1,"trial":7,"correct":1,"trial_type":"three-arm-trial","trial_index":20,"time_elapsed":618026,"internal_node_id":"0.0-13.0-0.0","task_version":"screening-mturk","missing":false,"accuracy":1},{"contexts":["red","blue","green"],"outcomes":[1,1,1],"key":38,"choice":1,"rt":202.72499998100102,"outcome":1,"trial":8,"correct":1,"trial_type":"three-arm-trial","trial_index":21,"time_elapsed":619433,"internal_node_id":"0.0-14.0-0.0","task_version":"screening-mturk","missing":false,"accuracy":1},{"contexts":["red","blue","green"],"outcomes":[0,1,1],"key":38,"choice":1,"rt":819.8500000871718,"outcome":1,"trial":9,"correct":1,"trial_type":"three-arm-trial","trial_index":22,"time_elapsed":621456,"internal_node_id":"0.0-15.0-0.0","task_version":"screening-mturk","missing":false,"accuracy":1},{"contexts":["red","blue","green"],"outcomes":[0,1,0],"key":38,"choice":1,"rt":126.42999994568527,"outcome":1,"trial":10,"correct":1,"trial_type":"three-arm-trial","trial_index":23,"time_elapsed":622787,"internal_node_id":"0.0-16.0-0.0","task_version":"screening-mturk","missing":false,"accuracy":1},{"contexts":["red","blue","green"],"outcomes":[0,1,0],"key":38,"choice":1,"rt":226.30500001832843,"outcome":1,"trial":11,"correct":1,"trial_type":"three-arm-trial","trial_index":24,"time_elapsed":624216,"internal_node_id":"0.0-17.0-0.0","task_version":"screening-mturk","missing":false,"accuracy":1},{"contexts":["red","blue","green"],"outcomes":[0,1,0],"key":38,"choice":1,"rt":206.94499998353422,"outcome":1,"trial":12,"correct":1,"trial_type":"three-arm-trial","trial_index":25,"time_elapsed":625628,"internal_node_id":"0.0-18.0-0.0","task_version":"screening-mturk","missing":false,"accuracy":1},{"contexts":["red","blue","green"],"outcomes":[0,1,0],"key":38,"choice":1,"rt":343.48500007763505,"outcome":1,"trial":13,"correct":1,"trial_type":"three-arm-trial","trial_index":26,"time_elapsed":627174,"internal_node_id":"0.0-19.0-0.0","task_version":"screening-mturk","missing":false,"accuracy":1},{"contexts":["red","blue","green"],"outcomes":[0,1,0],"key":38,"choice":1,"rt":290.99499993026257,"outcome":1,"trial":14,"correct":1,"trial_type":"three-arm-trial","trial_index":27,"time_elapsed":628678,"internal_node_id":"0.0-20.0-0.0","task_version":"screening-mturk","missing":false,"accuracy":1},{"contexts":["red","blue","green"],"outcomes":[1,1,0],"key":38,"choice":1,"rt":149.8600000049919,"outcome":1,"trial":15,"correct":1,"trial_type":"three-arm-trial","trial_index":28,"time_elapsed":630031,"internal_node_id":"0.0-21.0-0.0","task_version":"screening-mturk","missing":false,"accuracy":1},{"contexts":["red","blue","green"],"outcomes":[1,1,1],"key":38,"choice":1,"rt":121.81499996222556,"outcome":1,"trial":16,"correct":2,"trial_type":"three-arm-trial","trial_index":29,"time_elapsed":631356,"internal_node_id":"0.0-22.0-0.0","task_version":"screening-mturk","missing":false,"accuracy":0},{"contexts":["red","blue","green"],"outcomes":[0,0,1],"key":38,"choice":1,"rt":201.3499999884516,"outcome":0,"trial":17,"correct":2,"trial_type":"three-arm-trial","trial_index":30,"time_elapsed":632762,"internal_node_id":"0.0-23.0-0.0","task_version":"screening-mturk","missing":false,"accuracy":0},{"contexts":["red","blue","green"],"outcomes":[0,0,1],"key":38,"choice":1,"rt":110.68500019609928,"outcome":0,"trial":18,"correct":2,"trial_type":"three-arm-trial","trial_index":31,"time_elapsed":634076,"internal_node_id":"0.0-24.0-0.0","task_version":"screening-mturk","missing":false,"accuracy":0},{"contexts":["red","blue","green"],"outcomes":[0,0,1],"key":39,"choice":2,"rt":167.81000001356006,"outcome":1,"trial":19,"correct":2,"trial_type":"three-arm-trial","trial_index":32,"time_elapsed":635455,"internal_node_id":"0.0-25.0-0.0","task_version":"screening-mturk","missing":false,"accuracy":1},{"contexts":["red","blue","green"],"outcomes":[1,0,1],"key":39,"choice":2,"rt":252.63500004075468,"outcome":1,"trial":20,"correct":2,"trial_type":"three-arm-trial","trial_index":33,"time_elapsed":636910,"internal_node_id":"0.0-26.0-0.0","task_version":"screening-mturk","missing":false,"accuracy":1},{"contexts":["red","blue","green"],"outcomes":[0,0,1],"key":39,"choice":2,"rt":347.7049998473376,"outcome":1,"trial":21,"correct":2,"trial_type":"three-arm-trial","trial_index":34,"time_elapsed":638461,"internal_node_id":"0.0-27.0-0.0","task_version":"screening-mturk","missing":false,"accuracy":1},{"contexts":["red","blue","green"],"outcomes":[0,0,1],"key":39,"choice":2,"rt":99.04500003904104,"outcome":1,"trial":22,"correct":2,"trial_type":"three-arm-trial","trial_index":35,"time_elapsed":639765,"internal_node_id":"0.0-28.0-0.0","task_version":"screening-mturk","missing":false,"accuracy":1},{"contexts":["red","blue","green"],"outcomes":[1,0,0],"key":39,"choice":2,"rt":722.6499998942018,"outcome":0,"trial":23,"correct":2,"trial_type":"three-arm-trial","trial_index":36,"time_elapsed":641691,"internal_node_id":"0.0-29.0-0.0","task_version":"screening-mturk","missing":false,"accuracy":1},{"contexts":["red","blue","green"],"outcomes":[0,0,1],"key":37,"choice":0,"rt":76.10499998554587,"outcome":0,"trial":24,"correct":2,"trial_type":"three-arm-trial","trial_index":37,"time_elapsed":642982,"internal_node_id":"0.0-30.0-0.0","task_version":"screening-mturk","missing":false,"accuracy":0},{"contexts":["red","blue","green"],"outcomes":[0,1,1],"key":38,"choice":1,"rt":19.884999841451645,"outcome":1,"trial":25,"correct":2,"trial_type":"three-arm-trial","trial_index":38,"time_elapsed":644205,"internal_node_id":"0.0-31.0-0.0","task_version":"screening-mturk","missing":false,"accuracy":0},{"contexts":["red","blue","green"],"outcomes":[0,0,1],"key":38,"choice":1,"rt":406.47499985061586,"outcome":0,"trial":26,"correct":2,"trial_type":"three-arm-trial","trial_index":39,"time_elapsed":645826,"internal_node_id":"0.0-32.0-0.0","task_version":"screening-mturk","missing":false,"accuracy":0},{"contexts":["red","blue","green"],"outcomes":[0,0,1],"key":39,"choice":2,"rt":244.59500005468726,"outcome":1,"trial":27,"correct":2,"trial_type":"three-arm-trial","trial_index":40,"time_elapsed":647275,"internal_node_id":"0.0-33.0-0.0","task_version":"screening-mturk","missing":false,"accuracy":1},{"contexts":["red","blue","green"],"outcomes":[0,1,1],"key":37,"choice":0,"rt":54.93500013835728,"outcome":0,"trial":28,"correct":2,"trial_type":"three-arm-trial","trial_index":41,"time_elapsed":648533,"internal_node_id":"0.0-34.0-0.0","task_version":"screening-mturk","missing":false,"accuracy":0},{"contexts":["red","blue","green"],"outcomes":[0,0,1],"key":37,"choice":0,"rt":169.23499992117286,"outcome":0,"trial":29,"correct":2,"trial_type":"three-arm-trial","trial_index":42,"time_elapsed":649905,"internal_node_id":"0.0-35.0-0.0","task_version":"screening-mturk","missing":false,"accuracy":0},{"contexts":["red","blue","green"],"outcomes":[1,0,0],"key":38,"choice":1,"rt":30.780000146478415,"outcome":0,"trial":30,"correct":2,"trial_type":"three-arm-trial","trial_index":43,"time_elapsed":651139,"internal_node_id":"0.0-36.0-0.0","task_version":"screening-mturk","missing":false,"accuracy":0},{"contexts":["red","blue","green"],"outcomes":[1,0,0],"key":39,"choice":2,"rt":493.504999903962,"outcome":0,"trial":31,"correct":0,"trial_type":"three-arm-trial","trial_index":44,"time_elapsed":652835,"internal_node_id":"0.0-37.0-0.0","task_version":"screening-mturk","missing":false,"accuracy":0},{"contexts":["red","blue","green"],"outcomes":[1,0,1],"key":38,"choice":1,"rt":461.98500017635524,"outcome":0,"trial":32,"correct":0,"trial_type":"three-arm-trial","trial_index":45,"time_elapsed":654504,"internal_node_id":"0.0-38.0-0.0","task_version":"screening-mturk","missing":false,"accuracy":0},{"contexts":["red","blue","green"],"outcomes":[1,0,0],"key":39,"choice":2,"rt":412.1199999935925,"outcome":0,"trial":33,"correct":0,"trial_type":"three-arm-trial","trial_index":46,"time_elapsed":656119,"internal_node_id":"0.0-39.0-0.0","task_version":"screening-mturk","missing":false,"accuracy":0},{"contexts":["red","blue","green"],"outcomes":[1,1,0],"key":37,"choice":0,"rt":1330.5200000759214,"outcome":1,"trial":34,"correct":0,"trial_type":"three-arm-trial","trial_index":47,"time_elapsed":658660,"internal_node_id":"0.0-40.0-0.0","task_version":"screening-mturk","missing":false,"accuracy":1},{"contexts":["red","blue","green"],"outcomes":[1,0,0],"key":37,"choice":0,"rt":285.35999986343086,"outcome":1,"trial":35,"correct":0,"trial_type":"three-arm-trial","trial_index":48,"time_elapsed":660150,"internal_node_id":"0.0-41.0-0.0","task_version":"screening-mturk","missing":false,"accuracy":1},{"contexts":["red","blue","green"],"outcomes":[1,0,0],"key":37,"choice":0,"rt":355.23499990813434,"outcome":1,"trial":36,"correct":0,"trial_type":"three-arm-trial","trial_index":49,"time_elapsed":661817,"internal_node_id":"0.0-42.0-0.0","task_version":"screening-mturk","missing":false,"accuracy":1},{"contexts":["red","blue","green"],"outcomes":[1,0,0],"key":37,"choice":0,"rt":9.344999911263585,"outcome":1,"trial":37,"correct":0,"trial_type":"three-arm-trial","trial_index":50,"time_elapsed":663032,"internal_node_id":"0.0-43.0-0.0","task_version":"screening-mturk","missing":false,"accuracy":1},{"contexts":["red","blue","green"],"outcomes":[1,0,0],"key":37,"choice":0,"rt":7494.4350000005215,"outcome":1,"trial":38,"correct":0,"trial_type":"three-arm-trial","trial_index":51,"time_elapsed":671832,"internal_node_id":"0.0-44.0-0.0","task_version":"screening-mturk","missing":false,"accuracy":1},{"contexts":["red","blue","green"],"outcomes":[1,0,0],"key":37,"choice":0,"rt":693.4800001326948,"outcome":1,"trial":39,"correct":0,"trial_type":"three-arm-trial","trial_index":52,"time_elapsed":673728,"internal_node_id":"0.0-45.0-0.0","task_version":"screening-mturk","missing":false,"accuracy":1},{"contexts":["red","blue","green"],"outcomes":[0,1,0],"key":37,"choice":0,"rt":115.10500009171665,"outcome":0,"trial":40,"correct":0,"trial_type":"three-arm-trial","trial_index":53,"time_elapsed":675047,"internal_node_id":"0.0-46.0-0.0","task_version":"screening-mturk","missing":false,"accuracy":1},{"contexts":["red","blue","green"],"outcomes":[1,0,0],"key":37,"choice":0,"rt":672.6799998432398,"outcome":1,"trial":41,"correct":0,"trial_type":"three-arm-trial","trial_index":54,"time_elapsed":676923,"internal_node_id":"0.0-47.0-0.0","task_version":"screening-mturk","missing":false,"accuracy":1},{"contexts":["red","blue","green"],"outcomes":[1,0,0],"key":37,"choice":0,"rt":446.8549999874085,"outcome":1,"trial":42,"correct":0,"trial_type":"three-arm-trial","trial_index":55,"time_elapsed":678581,"internal_node_id":"0.0-48.0-0.0","task_version":"screening-mturk","missing":false,"accuracy":1},{"contexts":["red","blue","green"],"outcomes":[1,1,0],"key":37,"choice":0,"rt":267.5600000657141,"outcome":1,"trial":43,"correct":0,"trial_type":"three-arm-trial","trial_index":56,"time_elapsed":680051,"internal_node_id":"0.0-49.0-0.0","task_version":"screening-mturk","missing":false,"accuracy":1},{"contexts":["red","blue","green"],"outcomes":[0,0,0],"key":37,"choice":0,"rt":363.8200000859797,"outcome":0,"trial":44,"correct":0,"trial_type":"three-arm-trial","trial_index":57,"time_elapsed":681625,"internal_node_id":"0.0-50.0-0.0","task_version":"screening-mturk","missing":false,"accuracy":1},{"contexts":["red","blue","green"],"outcomes":[1,0,0],"key":39,"choice":2,"rt":199.67000000178814,"outcome":0,"trial":45,"correct":0,"trial_type":"three-arm-trial","trial_index":58,"time_elapsed":683027,"internal_node_id":"0.0-51.0-0.0","task_version":"screening-mturk","missing":false,"accuracy":0},{"contexts":["red","blue","green"],"outcomes":[0,0,1],"key":38,"choice":1,"rt":1296.125000109896,"outcome":0,"trial":46,"correct":2,"trial_type":"three-arm-trial","trial_index":59,"time_elapsed":685526,"internal_node_id":"0.0-52.0-0.0","task_version":"screening-mturk","missing":false,"accuracy":0},{"contexts":["red","blue","green"],"outcomes":[0,1,0],"key":39,"choice":2,"rt":28.50999985821545,"outcome":0,"trial":47,"correct":2,"trial_type":"three-arm-trial","trial_index":60,"time_elapsed":686758,"internal_node_id":"0.0-53.0-0.0","task_version":"screening-mturk","missing":false,"accuracy":1},{"contexts":["red","blue","green"],"outcomes":[0,0,1],"key":37,"choice":0,"rt":851.8199999816716,"outcome":0,"trial":48,"correct":2,"trial_type":"three-arm-trial","trial_index":61,"time_elapsed":688821,"internal_node_id":"0.0-54.0-0.0","task_version":"screening-mturk","missing":false,"accuracy":0},{"contexts":["red","blue","green"],"outcomes":[0,1,1],"key":38,"choice":1,"rt":3.1399999279528856,"outcome":1,"trial":49,"correct":2,"trial_type":"three-arm-trial","trial_index":62,"time_elapsed":690026,"internal_node_id":"0.0-55.0-0.0","task_version":"screening-mturk","missing":false,"accuracy":0},{"contexts":["red","blue","green"],"outcomes":[0,1,1],"key":38,"choice":1,"rt":313.0200000014156,"outcome":1,"trial":50,"correct":2,"trial_type":"three-arm-trial","trial_index":63,"time_elapsed":691554,"internal_node_id":"0.0-56.0-0.0","task_version":"screening-mturk","missing":false,"accuracy":0},{"contexts":["red","blue","green"],"outcomes":[1,0,0],"key":38,"choice":1,"rt":119.81000006198883,"outcome":0,"trial":51,"correct":2,"trial_type":"three-arm-trial","trial_index":64,"time_elapsed":692878,"internal_node_id":"0.0-57.0-0.0","task_version":"screening-mturk","missing":false,"accuracy":0},{"contexts":["red","blue","green"],"outcomes":[0,0,1],"key":39,"choice":2,"rt":484.51000009663403,"outcome":1,"trial":52,"correct":2,"trial_type":"three-arm-trial","trial_index":65,"time_elapsed":694566,"internal_node_id":"0.0-58.0-0.0","task_version":"screening-mturk","missing":false,"accuracy":1},{"contexts":["red","blue","green"],"outcomes":[1,0,1],"key":39,"choice":2,"rt":33.389999996870756,"outcome":1,"trial":53,"correct":2,"trial_type":"three-arm-trial","trial_index":66,"time_elapsed":695802,"internal_node_id":"0.0-59.0-0.0","task_version":"screening-mturk","missing":false,"accuracy":1},{"contexts":["red","blue","green"],"outcomes":[0,0,1],"key":39,"choice":2,"rt":258.2399998791516,"outcome":1,"trial":54,"correct":2,"trial_type":"three-arm-trial","trial_index":67,"time_elapsed":697276,"internal_node_id":"0.0-60.0-0.0","task_version":"screening-mturk","missing":false,"accuracy":1},{"contexts":["red","blue","green"],"outcomes":[0,0,1],"key":39,"choice":2,"rt":238.04500000551343,"outcome":1,"trial":55,"correct":2,"trial_type":"three-arm-trial","trial_index":68,"time_elapsed":698728,"internal_node_id":"0.0-61.0-0.0","task_version":"screening-mturk","missing":false,"accuracy":1},{"contexts":["red","blue","green"],"outcomes":[1,0,1],"key":39,"choice":2,"rt":233.0599999986589,"outcome":1,"trial":56,"correct":2,"trial_type":"three-arm-trial","trial_index":69,"time_elapsed":700174,"internal_node_id":"0.0-62.0-0.0","task_version":"screening-mturk","missing":false,"accuracy":1},{"contexts":["red","blue","green"],"outcomes":[0,1,1],"key":39,"choice":2,"rt":70.03499986603856,"outcome":1,"trial":57,"correct":2,"trial_type":"three-arm-trial","trial_index":70,"time_elapsed":701448,"internal_node_id":"0.0-63.0-0.0","task_version":"screening-mturk","missing":false,"accuracy":1},{"contexts":["red","blue","green"],"outcomes":[1,0,1],"key":39,"choice":2,"rt":2740.734999999404,"outcome":1,"trial":58,"correct":2,"trial_type":"three-arm-trial","trial_index":71,"time_elapsed":705393,"internal_node_id":"0.0-64.0-0.0","task_version":"screening-mturk","missing":false,"accuracy":1},{"contexts":["red","blue","green"],"outcomes":[1,0,1],"key":39,"choice":2,"rt":367.0850000344217,"outcome":1,"trial":59,"correct":2,"trial_type":"three-arm-trial","trial_index":72,"time_elapsed":706972,"internal_node_id":"0.0-65.0-0.0","task_version":"screening-mturk","missing":false,"accuracy":1},{"contexts":["red","blue","green"],"outcomes":[0,1,1],"key":39,"choice":2,"rt":285.54499987512827,"outcome":1,"trial":60,"correct":2,"trial_type":"three-arm-trial","trial_index":73,"time_elapsed":708461,"internal_node_id":"0.0-66.0-0.0","task_version":"screening-mturk","missing":false,"accuracy":1},{"contexts":["red","blue","green"],"outcomes":[1,0,1],"key":39,"choice":2,"rt":39.79999991133809,"outcome":1,"trial":61,"correct":0,"trial_type":"three-arm-trial","trial_index":74,"time_elapsed":709703,"internal_node_id":"0.0-67.0-0.0","task_version":"screening-mturk","missing":false,"accuracy":0},{"contexts":["red","blue","green"],"outcomes":[1,1,0],"key":39,"choice":2,"rt":85.05000011064112,"outcome":0,"trial":62,"correct":0,"trial_type":"three-arm-trial","trial_index":75,"time_elapsed":710991,"internal_node_id":"0.0-68.0-0.0","task_version":"screening-mturk","missing":false,"accuracy":0},{"contexts":["red","blue","green"],"outcomes":[1,1,0],"key":37,"choice":0,"rt":67.78000015765429,"outcome":1,"trial":63,"correct":0,"trial_type":"three-arm-trial","trial_index":76,"time_elapsed":712261,"internal_node_id":"0.0-69.0-0.0","task_version":"screening-mturk","missing":false,"accuracy":1},{"contexts":["red","blue","green"],"outcomes":[1,1,1],"key":37,"choice":0,"rt":507.65500008128583,"outcome":1,"trial":64,"correct":0,"trial_type":"three-arm-trial","trial_index":77,"time_elapsed":713971,"internal_node_id":"0.0-70.0-0.0","task_version":"screening-mturk","missing":false,"accuracy":1},{"contexts":["red","blue","green"],"outcomes":[1,0,0],"key":37,"choice":0,"rt":246.93999998271465,"outcome":1,"trial":65,"correct":0,"trial_type":"three-arm-trial","trial_index":78,"time_elapsed":715426,"internal_node_id":"0.0-71.0-0.0","task_version":"screening-mturk","missing":false,"accuracy":1},{"contexts":["red","blue","green"],"outcomes":[1,0,0],"key":37,"choice":0,"rt":174.75000000558794,"outcome":1,"trial":66,"correct":0,"trial_type":"three-arm-trial","trial_index":79,"time_elapsed":716807,"internal_node_id":"0.0-72.0-0.0","task_version":"screening-mturk","missing":false,"accuracy":1},{"contexts":["red","blue","green"],"outcomes":[1,1,0],"key":37,"choice":0,"rt":60.15000003390014,"outcome":1,"trial":67,"correct":0,"trial_type":"three-arm-trial","trial_index":80,"time_elapsed":718071,"internal_node_id":"0.0-73.0-0.0","task_version":"screening-mturk","missing":false,"accuracy":1},{"contexts":["red","blue","green"],"outcomes":[1,0,1],"key":37,"choice":0,"rt":6345.585000002757,"outcome":1,"trial":68,"correct":0,"trial_type":"three-arm-trial","trial_index":81,"time_elapsed":725703,"internal_node_id":"0.0-74.0-0.0","task_version":"screening-mturk","missing":false,"accuracy":1},{"contexts":["red","blue","green"],"outcomes":[1,0,0],"key":37,"choice":0,"rt":351.35000012815,"outcome":1,"trial":69,"correct":0,"trial_type":"three-arm-trial","trial_index":82,"time_elapsed":727257,"internal_node_id":"0.0-75.0-0.0","task_version":"screening-mturk","missing":false,"accuracy":1},{"contexts":["red","blue","green"],"outcomes":[1,0,0],"key":37,"choice":0,"rt":1429.8700001090765,"outcome":1,"trial":70,"correct":0,"trial_type":"three-arm-trial","trial_index":83,"time_elapsed":729891,"internal_node_id":"0.0-76.0-0.0","task_version":"screening-mturk","missing":false,"accuracy":1},{"contexts":["red","blue","green"],"outcomes":[1,1,0],"key":37,"choice":0,"rt":250.9049999061972,"outcome":1,"trial":71,"correct":0,"trial_type":"three-arm-trial","trial_index":84,"time_elapsed":731351,"internal_node_id":"0.0-77.0-0.0","task_version":"screening-mturk","missing":false,"accuracy":1},{"contexts":["red","blue","green"],"outcomes":[1,0,0],"key":37,"choice":0,"rt":121.18999985978007,"outcome":1,"trial":72,"correct":0,"trial_type":"three-arm-trial","trial_index":85,"time_elapsed":732714,"internal_node_id":"0.0-78.0-0.0","task_version":"screening-mturk","missing":false,"accuracy":1},{"contexts":["red","blue","green"],"outcomes":[1,0,0],"key":37,"choice":0,"rt":490.25999987497926,"outcome":1,"trial":73,"correct":0,"trial_type":"three-arm-trial","trial_index":86,"time_elapsed":734408,"internal_node_id":"0.0-79.0-0.0","task_version":"screening-mturk","missing":false,"accuracy":1},{"contexts":["red","blue","green"],"outcomes":[1,1,0],"key":37,"choice":0,"rt":171.339999884367,"outcome":1,"trial":74,"correct":0,"trial_type":"three-arm-trial","trial_index":87,"time_elapsed":735911,"internal_node_id":"0.0-80.0-0.0","task_version":"screening-mturk","missing":false,"accuracy":1},{"contexts":["red","blue","green"],"outcomes":[1,1,0],"key":37,"choice":0,"rt":110.28999998234212,"outcome":1,"trial":75,"correct":0,"trial_type":"three-arm-trial","trial_index":88,"time_elapsed":737225,"internal_node_id":"0.0-81.0-0.0","task_version":"screening-mturk","missing":false,"accuracy":1},{"contexts":["red","blue","green"],"outcomes":[0,0,1],"key":37,"choice":0,"rt":270.3249999321997,"outcome":0,"trial":76,"correct":2,"trial_type":"three-arm-trial","trial_index":89,"time_elapsed":738699,"internal_node_id":"0.0-82.0-0.0","task_version":"screening-mturk","missing":false,"accuracy":0},{"contexts":["red","blue","green"],"outcomes":[0,1,1],"key":39,"choice":2,"rt":182.82500002533197,"outcome":1,"trial":77,"correct":2,"trial_type":"three-arm-trial","trial_index":90,"time_elapsed":740085,"internal_node_id":"0.0-83.0-0.0","task_version":"screening-mturk","missing":false,"accuracy":1},{"contexts":["red","blue","green"],"outcomes":[0,0,1],"key":39,"choice":2,"rt":57.225000113248825,"outcome":1,"trial":78,"correct":2,"trial_type":"three-arm-trial","trial_index":91,"time_elapsed":741349,"internal_node_id":"0.0-84.0-0.0","task_version":"screening-mturk","missing":false,"accuracy":1},{"contexts":["red","blue","green"],"outcomes":[1,0,0],"key":39,"choice":2,"rt":78.87499989010394,"outcome":0,"trial":79,"correct":2,"trial_type":"three-arm-trial","trial_index":92,"time_elapsed":742658,"internal_node_id":"0.0-85.0-0.0","task_version":"screening-mturk","missing":false,"accuracy":1},{"contexts":["red","blue","green"],"outcomes":[1,0,0],"key":39,"choice":2,"rt":211.59500000067055,"outcome":0,"trial":80,"correct":2,"trial_type":"three-arm-trial","trial_index":93,"time_elapsed":744073,"internal_node_id":"0.0-86.0-0.0","task_version":"screening-mturk","missing":false,"accuracy":1},{"contexts":["red","blue","green"],"outcomes":[0,0,1],"key":37,"choice":0,"rt":1791.17999994196,"outcome":0,"trial":81,"correct":2,"trial_type":"three-arm-trial","trial_index":94,"time_elapsed":747067,"internal_node_id":"0.0-87.0-0.0","task_version":"screening-mturk","missing":false,"accuracy":0},{"contexts":["red","blue","green"],"outcomes":[1,0,1],"key":38,"choice":1,"rt":159.55500002019107,"outcome":0,"trial":82,"correct":2,"trial_type":"three-arm-trial","trial_index":95,"time_elapsed":748429,"internal_node_id":"0.0-88.0-0.0","task_version":"screening-mturk","missing":false,"accuracy":0},{"contexts":["red","blue","green"],"outcomes":[1,0,0],"key":39,"choice":2,"rt":1269.9299999512732,"outcome":0,"trial":83,"correct":2,"trial_type":"three-arm-trial","trial_index":96,"time_elapsed":750902,"internal_node_id":"0.0-89.0-0.0","task_version":"screening-mturk","missing":false,"accuracy":1},{"contexts":["red","blue","green"],"outcomes":[1,0,1],"key":37,"choice":0,"rt":1485.8750000130385,"outcome":1,"trial":84,"correct":2,"trial_type":"three-arm-trial","trial_index":97,"time_elapsed":753591,"internal_node_id":"0.0-90.0-0.0","task_version":"screening-mturk","missing":false,"accuracy":0},{"contexts":["red","blue","green"],"outcomes":[0,0,0],"key":37,"choice":0,"rt":455.65999997779727,"outcome":0,"trial":85,"correct":2,"trial_type":"three-arm-trial","trial_index":98,"time_elapsed":755471,"internal_node_id":"0.0-91.0-0.0","task_version":"screening-mturk","missing":false,"accuracy":0},{"contexts":["red","blue","green"],"outcomes":[0,1,1],"key":38,"choice":1,"rt":321.70500000938773,"outcome":1,"trial":86,"correct":2,"trial_type":"three-arm-trial","trial_index":99,"time_elapsed":756995,"internal_node_id":"0.0-92.0-0.0","task_version":"screening-mturk","missing":false,"accuracy":0},{"contexts":["red","blue","green"],"outcomes":[0,0,0],"key":38,"choice":1,"rt":120.72000000625849,"outcome":0,"trial":87,"correct":2,"trial_type":"three-arm-trial","trial_index":100,"time_elapsed":758420,"internal_node_id":"0.0-93.0-0.0","task_version":"screening-mturk","missing":false,"accuracy":0},{"contexts":["red","blue","green"],"outcomes":[0,0,1],"key":38,"choice":1,"rt":125.85499999113381,"outcome":0,"trial":88,"correct":2,"trial_type":"three-arm-trial","trial_index":101,"time_elapsed":759749,"internal_node_id":"0.0-94.0-0.0","task_version":"screening-mturk","missing":false,"accuracy":0},{"contexts":["red","blue","green"],"outcomes":[0,1,1],"key":39,"choice":2,"rt":269.22000013291836,"outcome":1,"trial":89,"correct":2,"trial_type":"three-arm-trial","trial_index":102,"time_elapsed":761221,"internal_node_id":"0.0-95.0-0.0","task_version":"screening-mturk","missing":false,"accuracy":1},{"contexts":["red","blue","green"],"outcomes":[1,1,1],"key":39,"choice":2,"rt":145.31999989412725,"outcome":1,"trial":90,"correct":2,"trial_type":"three-arm-trial","trial_index":103,"time_elapsed":762709,"internal_node_id":"0.0-96.0-0.0","task_version":"screening-mturk","missing":false,"accuracy":1},{"rt":35386.52499997988,"responses":{"age":"27","gender-categorical":"Male","gender-free-response":"","ethnicity":"Not Hispanic or Latino","race":["White"],"language":"Yes","fluency":"Very well","prolific":"Yes","prolific-this-study":"No"},"survey":"demographics","trial_type":"survey-demo","trial_index":104,"time_elapsed":798104,"internal_node_id":"0.0-97.0","task_version":"screening-mturk","interactions":"[{\"event\":\"blur\",\"trial\":0,\"time\":3717},{\"event\":\"focus\",\"trial\":0,\"time\":139498},{\"event\":\"blur\",\"trial\":0,\"time\":158260},{\"event\":\"focus\",\"trial\":0,\"time\":158419},{\"event\":\"blur\",\"trial\":51,\"time\":669762},{\"event\":\"focus\",\"trial\":51,\"time\":669762}]"}]