[{"responses":{"Q01":"1","Q02":"1","Q03":"0"},"rt":36722.89499966428,"survey":"pswq","trial_type":"survey-template","trial_index":0,"time_elapsed":36738,"internal_node_id":"0.0-0.0","task_version":"screening-mturk"},{"responses":{"Q03":"2","Q05":"2","Q04":"2","Q13":"2","Q15":"3","Q11":"2","Q02":"3","Q08":"2","Q14":"3","Q09":"2","Q07":"3","Q06":"2","Q01":"2","Q10":"3","Q12":"3"},"rt":74948.2150003314,"survey":"shaps","trial_type":"survey-template","trial_index":1,"time_elapsed":111694,"internal_node_id":"0.0-1.0","task_version":"screening-mturk"},{"responses":{"Q02":"2","Q08":"0","Q04":"1","Q06":"1","Q03":"1","Q05":"1","Q01":"2","Q07":"2"},"rt":71311.87500013039,"survey":"gad7","trial_type":"survey-template","trial_index":2,"time_elapsed":183010,"internal_node_id":"0.0-2.0","task_version":"screening-mturk"},{"responses":{"Q08":"2","Q10":"2","Q09":"1","Q01":"0","Q11":"2","Q07":"2","Q04":"1","Q02":"2","Q03":"1","Q15":"1","Q14":"1","Q06":"2","Q12":"1","Q05":"2","Q13":"2"},"rt":80897.4350001663,"survey":"7up7down","trial_type":"survey-template","trial_index":3,"time_elapsed":263913,"internal_node_id":"0.0-3.0","task_version":"screening-mturk"},{"responses":{"Q04":"2","Q02":"2","Q13":"2","Q03":"1","Q10":"1","Q09":"2","Q12":"2","Q07":"1","Q06":"2","Q08":"2","Q05":"1","Q11":"2","Q01":"3"},"rt":49529.37000012025,"survey":"bisbas","trial_type":"survey-template","trial_index":4,"time_elapsed":313447,"internal_node_id":"0.0-4.0","task_version":"screening-mturk"},{"view_history":"[{\"page_index\":0,\"viewing_time\":45323.539999779314},{\"page_index\":1,\"viewing_time\":19374.32000041008},{\"page_index\":2,\"viewing_time\":26345.229999627918},{\"page_index\":3,\"viewing_time\":15510.220000054687},{\"page_index\":4,\"viewing_time\":12321.450000163168},{\"page_index\":5,\"viewing_time\":8990.879999939352},{\"page_index\":6,\"viewing_time\":8719.640000257641},{\"page_index\":7,\"viewing_time\":9530.219999607652}]","rt":146117.20500001684,"trial_type":"instructions","trial_index":5,"time_elapsed":459567,"internal_node_id":"0.0-5.0-0.0","task_version":"screening-mturk"},{"responses":["True","True","False","False","True"],"num_errors":0,"rt":51129.25000023097,"trial_type":"three-arm-comprehension","trial_index":6,"time_elapsed":510702,"internal_node_id":"0.0-5.0-1.0","task_version":"screening-mturk"},{"view_history":"[{\"page_index\":0,\"viewing_time\":6347.335000056773}]","rt":6347.820000257343,"trial_type":"instructions","trial_index":7,"time_elapsed":517059,"internal_node_id":"0.0-6.0","task_version":"screening-mturk"},{"contexts":["blue","green","red"],"outcomes":[1,0,1],"key":null,"rt":null,"trial":1,"correct":0,"trial_type":"three-arm-trial","trial_index":8,"time_elapsed":532073,"internal_node_id":"0.0-7.0-0.0","task_version":"screening-mturk","missing":true},{"contexts":["blue","green","red"],"outcomes":[1,0,1],"key":38,"choice":1,"rt":5225.379999727011,"outcome":0,"trial":1,"correct":0,"trial_type":"three-arm-trial","trial_index":9,"time_elapsed":538511,"internal_node_id":"0.0-7.1-0.1","task_version":"screening-mturk","missing":false,"accuracy":0},{"contexts":["blue","green","red"],"outcomes":[0,0,0],"key":39,"choice":2,"rt":2469.2099997773767,"outcome":0,"trial":2,"correct":0,"trial_type":"three-arm-trial","trial_index":10,"time_elapsed":542186,"internal_node_id":"0.0-8.0-0.0","task_version":"screening-mturk","missing":false,"accuracy":0},{"contexts":["blue","green","red"],"outcomes":[1,0,0],"key":39,"choice":2,"rt":3529.145000036806,"outcome":0,"trial":3,"correct":0,"trial_type":"three-arm-trial","trial_index":11,"time_elapsed":546920,"internal_node_id":"0.0-9.0-0.0","task_version":"screening-mturk","missing":false,"accuracy":0},{"contexts":["blue","green","red"],"outcomes":[1,0,0],"key":39,"choice":2,"rt":1035.8049999922514,"outcome":0,"trial":4,"correct":0,"trial_type":"three-arm-trial","trial_index":12,"time_elapsed":549160,"internal_node_id":"0.0-10.0-0.0","task_version":"screening-mturk","missing":false,"accuracy":0},{"contexts":["blue","green","red"],"outcomes":[0,0,0],"key":37,"choice":0,"rt":2312.24500015378,"outcome":0,"trial":5,"correct":0,"trial_type":"three-arm-trial","trial_index":13,"time_elapsed":552675,"internal_node_id":"0.0-11.0-0.0","task_version":"screening-mturk","missing":false,"accuracy":1},{"contexts":["blue","green","red"],"outcomes":[1,0,0],"key":38,"choice":1,"rt":149.75999994203448,"outcome":0,"trial":6,"correct":0,"trial_type":"three-arm-trial","trial_index":14,"time_elapsed":554035,"internal_node_id":"0.0-12.0-0.0","task_version":"screening-mturk","missing":false,"accuracy":0},{"contexts":["blue","green","red"],"outcomes":[1,0,0],"key":39,"choice":2,"rt":330.76999988406897,"outcome":0,"trial":7,"correct":0,"trial_type":"three-arm-trial","trial_index":15,"time_elapsed":555569,"internal_node_id":"0.0-13.0-0.0","task_version":"screening-mturk","missing":false,"accuracy":0},{"contexts":["blue","green","red"],"outcomes":[1,0,0],"key":37,"choice":0,"rt":376.3700001873076,"outcome":1,"trial":8,"correct":0,"trial_type":"three-arm-trial","trial_index":16,"time_elapsed":557155,"internal_node_id":"0.0-14.0-0.0","task_version":"screening-mturk","missing":false,"accuracy":1},{"contexts":["blue","green","red"],"outcomes":[1,0,0],"key":37,"choice":0,"rt":1303.1850000843406,"outcome":1,"trial":9,"correct":0,"trial_type":"three-arm-trial","trial_index":17,"time_elapsed":559661,"internal_node_id":"0.0-15.0-0.0","task_version":"screening-mturk","missing":false,"accuracy":1},{"contexts":["blue","green","red"],"outcomes":[1,0,1],"key":37,"choice":0,"rt":1980.8749998919666,"outcome":1,"trial":10,"correct":0,"trial_type":"three-arm-trial","trial_index":18,"time_elapsed":562853,"internal_node_id":"0.0-16.0-0.0","task_version":"screening-mturk","missing":false,"accuracy":1},{"contexts":["blue","green","red"],"outcomes":[1,0,1],"key":37,"choice":0,"rt":2919.404999818653,"outcome":1,"trial":11,"correct":0,"trial_type":"three-arm-trial","trial_index":19,"time_elapsed":566988,"internal_node_id":"0.0-17.0-0.0","task_version":"screening-mturk","missing":false,"accuracy":1},{"contexts":["blue","green","red"],"outcomes":[1,0,1],"key":37,"choice":0,"rt":422.1199997700751,"outcome":1,"trial":12,"correct":0,"trial_type":"three-arm-trial","trial_index":20,"time_elapsed":568614,"internal_node_id":"0.0-18.0-0.0","task_version":"screening-mturk","missing":false,"accuracy":1},{"contexts":["blue","green","red"],"outcomes":[1,0,0],"key":37,"choice":0,"rt":6.435000337660313,"outcome":1,"trial":13,"correct":0,"trial_type":"three-arm-trial","trial_index":21,"time_elapsed":569823,"internal_node_id":"0.0-19.0-0.0","task_version":"screening-mturk","missing":false,"accuracy":1},{"contexts":["blue","green","red"],"outcomes":[0,0,0],"key":37,"choice":0,"rt":3278.805000241846,"outcome":0,"trial":14,"correct":0,"trial_type":"three-arm-trial","trial_index":22,"time_elapsed":574307,"internal_node_id":"0.0-20.0-0.0","task_version":"screening-mturk","missing":false,"accuracy":1},{"contexts":["blue","green","red"],"outcomes":[1,0,0],"key":39,"choice":2,"rt":571.6749997809529,"outcome":0,"trial":15,"correct":0,"trial_type":"three-arm-trial","trial_index":23,"time_elapsed":576082,"internal_node_id":"0.0-21.0-0.0","task_version":"screening-mturk","missing":false,"accuracy":0},{"contexts":["blue","green","red"],"outcomes":[0,1,1],"key":38,"choice":1,"rt":595.3599996864796,"outcome":1,"trial":16,"correct":1,"trial_type":"three-arm-trial","trial_index":24,"time_elapsed":577881,"internal_node_id":"0.0-22.0-0.0","task_version":"screening-mturk","missing":false,"accuracy":1},{"contexts":["blue","green","red"],"outcomes":[0,1,0],"key":38,"choice":1,"rt":264.41500009968877,"outcome":1,"trial":17,"correct":1,"trial_type":"three-arm-trial","trial_index":25,"time_elapsed":579354,"internal_node_id":"0.0-23.0-0.0","task_version":"screening-mturk","missing":false,"accuracy":1},{"contexts":["blue","green","red"],"outcomes":[0,1,0],"key":38,"choice":1,"rt":104.38999999314547,"outcome":1,"trial":18,"correct":1,"trial_type":"three-arm-trial","trial_index":26,"time_elapsed":580661,"internal_node_id":"0.0-24.0-0.0","task_version":"screening-mturk","missing":false,"accuracy":1},{"contexts":["blue","green","red"],"outcomes":[0,0,0],"key":38,"choice":1,"rt":486.37499986216426,"outcome":0,"trial":19,"correct":1,"trial_type":"three-arm-trial","trial_index":27,"time_elapsed":582357,"internal_node_id":"0.0-25.0-0.0","task_version":"screening-mturk","missing":false,"accuracy":1},{"contexts":["blue","green","red"],"outcomes":[0,1,0],"key":37,"choice":0,"rt":957.8149998560548,"outcome":0,"trial":20,"correct":1,"trial_type":"three-arm-trial","trial_index":28,"time_elapsed":584537,"internal_node_id":"0.0-26.0-0.0","task_version":"screening-mturk","missing":false,"accuracy":0},{"contexts":["blue","green","red"],"outcomes":[1,1,0],"key":39,"choice":2,"rt":903.1349997967482,"outcome":0,"trial":21,"correct":1,"trial_type":"three-arm-trial","trial_index":29,"time_elapsed":586644,"internal_node_id":"0.0-27.0-0.0","task_version":"screening-mturk","missing":false,"accuracy":0},{"contexts":["blue","green","red"],"outcomes":[1,1,1],"key":38,"choice":1,"rt":1599.919999949634,"outcome":1,"trial":22,"correct":1,"trial_type":"three-arm-trial","trial_index":30,"time_elapsed":589450,"internal_node_id":"0.0-28.0-0.0","task_version":"screening-mturk","missing":false,"accuracy":1},{"contexts":["blue","green","red"],"outcomes":[0,1,1],"key":38,"choice":1,"rt":255.87499979883432,"outcome":1,"trial":23,"correct":1,"trial_type":"three-arm-trial","trial_index":31,"time_elapsed":590909,"internal_node_id":"0.0-29.0-0.0","task_version":"screening-mturk","missing":false,"accuracy":1},{"contexts":["blue","green","red"],"outcomes":[0,1,1],"key":38,"choice":1,"rt":116.85500014573336,"outcome":1,"trial":24,"correct":1,"trial_type":"three-arm-trial","trial_index":32,"time_elapsed":592229,"internal_node_id":"0.0-30.0-0.0","task_version":"screening-mturk","missing":false,"accuracy":1},{"contexts":["blue","green","red"],"outcomes":[0,1,0],"key":38,"choice":1,"rt":55.85499992594123,"outcome":1,"trial":25,"correct":1,"trial_type":"three-arm-trial","trial_index":33,"time_elapsed":593492,"internal_node_id":"0.0-31.0-0.0","task_version":"screening-mturk","missing":false,"accuracy":1},{"contexts":["blue","green","red"],"outcomes":[1,1,1],"key":38,"choice":1,"rt":1164.3199999816716,"outcome":1,"trial":26,"correct":1,"trial_type":"three-arm-trial","trial_index":34,"time_elapsed":595863,"internal_node_id":"0.0-32.0-0.0","task_version":"screening-mturk","missing":false,"accuracy":1},{"contexts":["blue","green","red"],"outcomes":[1,1,0],"key":38,"choice":1,"rt":36.675000097602606,"outcome":1,"trial":27,"correct":1,"trial_type":"three-arm-trial","trial_index":35,"time_elapsed":597102,"internal_node_id":"0.0-33.0-0.0","task_version":"screening-mturk","missing":false,"accuracy":1},{"contexts":["blue","green","red"],"outcomes":[0,1,0],"key":38,"choice":1,"rt":66.29499979317188,"outcome":1,"trial":28,"correct":1,"trial_type":"three-arm-trial","trial_index":36,"time_elapsed":598382,"internal_node_id":"0.0-34.0-0.0","task_version":"screening-mturk","missing":false,"accuracy":1},{"contexts":["blue","green","red"],"outcomes":[0,1,1],"key":38,"choice":1,"rt":704.6949998475611,"outcome":1,"trial":29,"correct":1,"trial_type":"three-arm-trial","trial_index":37,"time_elapsed":600290,"internal_node_id":"0.0-35.0-0.0","task_version":"screening-mturk","missing":false,"accuracy":1},{"contexts":["blue","green","red"],"outcomes":[0,1,0],"key":38,"choice":1,"rt":307.2500000707805,"outcome":1,"trial":30,"correct":1,"trial_type":"three-arm-trial","trial_index":38,"time_elapsed":601805,"internal_node_id":"0.0-36.0-0.0","task_version":"screening-mturk","missing":false,"accuracy":1},{"contexts":["blue","green","red"],"outcomes":[1,0,0],"key":38,"choice":1,"rt":129.1400003246963,"outcome":0,"trial":31,"correct":0,"trial_type":"three-arm-trial","trial_index":39,"time_elapsed":603137,"internal_node_id":"0.0-37.0-0.0","task_version":"screening-mturk","missing":false,"accuracy":0},{"contexts":["blue","green","red"],"outcomes":[1,0,0],"key":37,"choice":0,"rt":1966.5549998171628,"outcome":1,"trial":32,"correct":0,"trial_type":"three-arm-trial","trial_index":40,"time_elapsed":606306,"internal_node_id":"0.0-38.0-0.0","task_version":"screening-mturk","missing":false,"accuracy":1},{"contexts":["blue","green","red"],"outcomes":[0,0,0],"key":37,"choice":0,"rt":2189.4000000320375,"outcome":0,"trial":33,"correct":0,"trial_type":"three-arm-trial","trial_index":41,"time_elapsed":609708,"internal_node_id":"0.0-39.0-0.0","task_version":"screening-mturk","missing":false,"accuracy":1},{"contexts":["blue","green","red"],"outcomes":[1,0,0],"key":39,"choice":2,"rt":192.3400000669062,"outcome":0,"trial":34,"correct":0,"trial_type":"three-arm-trial","trial_index":42,"time_elapsed":611104,"internal_node_id":"0.0-40.0-0.0","task_version":"screening-mturk","missing":false,"accuracy":0},{"contexts":["blue","green","red"],"outcomes":[1,0,1],"key":38,"choice":1,"rt":203.32999993115664,"outcome":0,"trial":35,"correct":0,"trial_type":"three-arm-trial","trial_index":43,"time_elapsed":612515,"internal_node_id":"0.0-41.0-0.0","task_version":"screening-mturk","missing":false,"accuracy":0},{"contexts":["blue","green","red"],"outcomes":[1,0,0],"key":37,"choice":0,"rt":2464.2049996182323,"outcome":1,"trial":36,"correct":0,"trial_type":"three-arm-trial","trial_index":44,"time_elapsed":616190,"internal_node_id":"0.0-42.0-0.0","task_version":"screening-mturk","missing":false,"accuracy":1},{"contexts":["blue","green","red"],"outcomes":[0,0,0],"key":37,"choice":0,"rt":3559.950000140816,"outcome":0,"trial":37,"correct":0,"trial_type":"three-arm-trial","trial_index":45,"time_elapsed":620957,"internal_node_id":"0.0-43.0-0.0","task_version":"screening-mturk","missing":false,"accuracy":1},{"contexts":["blue","green","red"],"outcomes":[1,0,1],"key":39,"choice":2,"rt":169.28499983623624,"outcome":1,"trial":38,"correct":0,"trial_type":"three-arm-trial","trial_index":46,"time_elapsed":622332,"internal_node_id":"0.0-44.0-0.0","task_version":"screening-mturk","missing":false,"accuracy":0},{"contexts":["blue","green","red"],"outcomes":[1,0,0],"key":39,"choice":2,"rt":62.25499976426363,"outcome":0,"trial":39,"correct":0,"trial_type":"three-arm-trial","trial_index":47,"time_elapsed":623599,"internal_node_id":"0.0-45.0-0.0","task_version":"screening-mturk","missing":false,"accuracy":0},{"contexts":["blue","green","red"],"outcomes":[1,1,1],"key":38,"choice":1,"rt":508.59500002115965,"outcome":1,"trial":40,"correct":0,"trial_type":"three-arm-trial","trial_index":48,"time_elapsed":625313,"internal_node_id":"0.0-46.0-0.0","task_version":"screening-mturk","missing":false,"accuracy":0},{"contexts":["blue","green","red"],"outcomes":[1,0,0],"key":38,"choice":1,"rt":37.450000178068876,"outcome":0,"trial":41,"correct":0,"trial_type":"three-arm-trial","trial_index":49,"time_elapsed":626564,"internal_node_id":"0.0-47.0-0.0","task_version":"screening-mturk","missing":false,"accuracy":0},{"contexts":["blue","green","red"],"outcomes":[1,1,0],"key":37,"choice":0,"rt":584.1049998998642,"outcome":1,"trial":42,"correct":0,"trial_type":"three-arm-trial","trial_index":50,"time_elapsed":628356,"internal_node_id":"0.0-48.0-0.0","task_version":"screening-mturk","missing":false,"accuracy":1},{"contexts":["blue","green","red"],"outcomes":[1,0,0],"key":37,"choice":0,"rt":678.5450000315905,"outcome":1,"trial":43,"correct":0,"trial_type":"three-arm-trial","trial_index":51,"time_elapsed":630238,"internal_node_id":"0.0-49.0-0.0","task_version":"screening-mturk","missing":false,"accuracy":1},{"contexts":["blue","green","red"],"outcomes":[0,0,0],"key":37,"choice":0,"rt":3529.2549999430776,"outcome":0,"trial":44,"correct":0,"trial_type":"three-arm-trial","trial_index":52,"time_elapsed":634973,"internal_node_id":"0.0-50.0-0.0","task_version":"screening-mturk","missing":false,"accuracy":1},{"contexts":["blue","green","red"],"outcomes":[0,0,0],"key":39,"choice":2,"rt":359.2150001786649,"outcome":0,"trial":45,"correct":0,"trial_type":"three-arm-trial","trial_index":53,"time_elapsed":636535,"internal_node_id":"0.0-51.0-0.0","task_version":"screening-mturk","missing":false,"accuracy":0},{"contexts":["blue","green","red"],"outcomes":[0,1,0],"key":38,"choice":1,"rt":248.0949996970594,"outcome":1,"trial":46,"correct":1,"trial_type":"three-arm-trial","trial_index":54,"time_elapsed":637991,"internal_node_id":"0.0-52.0-0.0","task_version":"screening-mturk","missing":false,"accuracy":1},{"contexts":["blue","green","red"],"outcomes":[0,1,0],"key":38,"choice":1,"rt":195.9450002759695,"outcome":1,"trial":47,"correct":1,"trial_type":"three-arm-trial","trial_index":55,"time_elapsed":639391,"internal_node_id":"0.0-53.0-0.0","task_version":"screening-mturk","missing":false,"accuracy":1},{"contexts":["blue","green","red"],"outcomes":[0,0,1],"key":38,"choice":1,"rt":90.58000007644296,"outcome":0,"trial":48,"correct":1,"trial_type":"three-arm-trial","trial_index":56,"time_elapsed":640691,"internal_node_id":"0.0-54.0-0.0","task_version":"screening-mturk","missing":false,"accuracy":1},{"contexts":["blue","green","red"],"outcomes":[0,1,0],"key":37,"choice":0,"rt":211.6749999113381,"outcome":0,"trial":49,"correct":1,"trial_type":"three-arm-trial","trial_index":57,"time_elapsed":642105,"internal_node_id":"0.0-55.0-0.0","task_version":"screening-mturk","missing":false,"accuracy":0},{"contexts":["blue","green","red"],"outcomes":[1,1,0],"key":39,"choice":2,"rt":2113.7349996715784,"outcome":0,"trial":50,"correct":1,"trial_type":"three-arm-trial","trial_index":58,"time_elapsed":645436,"internal_node_id":"0.0-56.0-0.0","task_version":"screening-mturk","missing":false,"accuracy":0},{"contexts":["blue","green","red"],"outcomes":[0,1,0],"key":39,"choice":2,"rt":57.95500008389354,"outcome":0,"trial":51,"correct":1,"trial_type":"three-arm-trial","trial_index":59,"time_elapsed":646705,"internal_node_id":"0.0-57.0-0.0","task_version":"screening-mturk","missing":false,"accuracy":0},{"contexts":["blue","green","red"],"outcomes":[0,1,0],"key":38,"choice":1,"rt":505.21499989554286,"outcome":1,"trial":52,"correct":1,"trial_type":"three-arm-trial","trial_index":60,"time_elapsed":648414,"internal_node_id":"0.0-58.0-0.0","task_version":"screening-mturk","missing":false,"accuracy":1},{"contexts":["blue","green","red"],"outcomes":[0,1,0],"key":38,"choice":1,"rt":39.545000065118074,"outcome":1,"trial":53,"correct":1,"trial_type":"three-arm-trial","trial_index":61,"time_elapsed":649656,"internal_node_id":"0.0-59.0-0.0","task_version":"screening-mturk","missing":false,"accuracy":1},{"contexts":["blue","green","red"],"outcomes":[0,1,1],"key":38,"choice":1,"rt":76.23999984934926,"outcome":1,"trial":54,"correct":1,"trial_type":"three-arm-trial","trial_index":62,"time_elapsed":650940,"internal_node_id":"0.0-60.0-0.0","task_version":"screening-mturk","missing":false,"accuracy":1},{"contexts":["blue","green","red"],"outcomes":[0,1,0],"key":38,"choice":1,"rt":113.26500028371811,"outcome":1,"trial":55,"correct":1,"trial_type":"three-arm-trial","trial_index":63,"time_elapsed":652256,"internal_node_id":"0.0-61.0-0.0","task_version":"screening-mturk","missing":false,"accuracy":1},{"contexts":["blue","green","red"],"outcomes":[0,1,0],"key":38,"choice":1,"rt":218.92499970272183,"outcome":1,"trial":56,"correct":1,"trial_type":"three-arm-trial","trial_index":64,"time_elapsed":653686,"internal_node_id":"0.0-62.0-0.0","task_version":"screening-mturk","missing":false,"accuracy":1},{"contexts":["blue","green","red"],"outcomes":[0,1,0],"key":38,"choice":1,"rt":136.19499979540706,"outcome":1,"trial":57,"correct":1,"trial_type":"three-arm-trial","trial_index":65,"time_elapsed":655024,"internal_node_id":"0.0-63.0-0.0","task_version":"screening-mturk","missing":false,"accuracy":1},{"contexts":["blue","green","red"],"outcomes":[0,1,0],"key":38,"choice":1,"rt":62.09000013768673,"outcome":1,"trial":58,"correct":1,"trial_type":"three-arm-trial","trial_index":66,"time_elapsed":656298,"internal_node_id":"0.0-64.0-0.0","task_version":"screening-mturk","missing":false,"accuracy":1},{"contexts":["blue","green","red"],"outcomes":[1,1,0],"key":38,"choice":1,"rt":174.24000008031726,"outcome":1,"trial":59,"correct":1,"trial_type":"three-arm-trial","trial_index":67,"time_elapsed":657675,"internal_node_id":"0.0-65.0-0.0","task_version":"screening-mturk","missing":false,"accuracy":1},{"contexts":["blue","green","red"],"outcomes":[0,1,0],"key":38,"choice":1,"rt":96.42999991774559,"outcome":1,"trial":60,"correct":1,"trial_type":"three-arm-trial","trial_index":68,"time_elapsed":658983,"internal_node_id":"0.0-66.0-0.0","task_version":"screening-mturk","missing":false,"accuracy":1},{"contexts":["blue","green","red"],"outcomes":[0,0,1],"key":38,"choice":1,"rt":86.45000029355288,"outcome":0,"trial":61,"correct":2,"trial_type":"three-arm-trial","trial_index":69,"time_elapsed":660275,"internal_node_id":"0.0-67.0-0.0","task_version":"screening-mturk","missing":false,"accuracy":0},{"contexts":["blue","green","red"],"outcomes":[0,0,0],"key":37,"choice":0,"rt":176.29999993368983,"outcome":0,"trial":62,"correct":2,"trial_type":"three-arm-trial","trial_index":70,"time_elapsed":661659,"internal_node_id":"0.0-68.0-0.0","task_version":"screening-mturk","missing":false,"accuracy":0},{"contexts":["blue","green","red"],"outcomes":[1,1,1],"key":37,"choice":0,"rt":27.619999833405018,"outcome":1,"trial":63,"correct":2,"trial_type":"three-arm-trial","trial_index":71,"time_elapsed":662889,"internal_node_id":"0.0-69.0-0.0","task_version":"screening-mturk","missing":false,"accuracy":0},{"contexts":["blue","green","red"],"outcomes":[0,0,0],"key":37,"choice":0,"rt":2080.670000053942,"outcome":0,"trial":64,"correct":2,"trial_type":"three-arm-trial","trial_index":72,"time_elapsed":666186,"internal_node_id":"0.0-70.0-0.0","task_version":"screening-mturk","missing":false,"accuracy":0},{"contexts":["blue","green","red"],"outcomes":[0,0,1],"key":37,"choice":0,"rt":1464.1149998642504,"outcome":0,"trial":65,"correct":2,"trial_type":"three-arm-trial","trial_index":73,"time_elapsed":668853,"internal_node_id":"0.0-71.0-0.0","task_version":"screening-mturk","missing":false,"accuracy":0},{"contexts":["blue","green","red"],"outcomes":[0,0,0],"key":39,"choice":2,"rt":1598.1499999761581,"outcome":0,"trial":66,"correct":2,"trial_type":"three-arm-trial","trial_index":74,"time_elapsed":671653,"internal_node_id":"0.0-72.0-0.0","task_version":"screening-mturk","missing":false,"accuracy":1},{"contexts":["blue","green","red"],"outcomes":[0,0,1],"key":39,"choice":2,"rt":50.74500013142824,"outcome":1,"trial":67,"correct":2,"trial_type":"three-arm-trial","trial_index":75,"time_elapsed":672908,"internal_node_id":"0.0-73.0-0.0","task_version":"screening-mturk","missing":false,"accuracy":1},{"contexts":["blue","green","red"],"outcomes":[0,0,1],"key":39,"choice":2,"rt":171.27999989315867,"outcome":1,"trial":68,"correct":2,"trial_type":"three-arm-trial","trial_index":76,"time_elapsed":674283,"internal_node_id":"0.0-74.0-0.0","task_version":"screening-mturk","missing":false,"accuracy":1},{"contexts":["blue","green","red"],"outcomes":[0,0,1],"key":39,"choice":2,"rt":154.4049996882677,"outcome":1,"trial":69,"correct":2,"trial_type":"three-arm-trial","trial_index":77,"time_elapsed":675640,"internal_node_id":"0.0-75.0-0.0","task_version":"screening-mturk","missing":false,"accuracy":1},{"contexts":["blue","green","red"],"outcomes":[0,1,1],"key":39,"choice":2,"rt":34.17500015348196,"outcome":1,"trial":70,"correct":2,"trial_type":"three-arm-trial","trial_index":78,"time_elapsed":676877,"internal_node_id":"0.0-76.0-0.0","task_version":"screening-mturk","missing":false,"accuracy":1},{"contexts":["blue","green","red"],"outcomes":[0,1,1],"key":39,"choice":2,"rt":162.24500024691224,"outcome":1,"trial":71,"correct":2,"trial_type":"three-arm-trial","trial_index":79,"time_elapsed":678252,"internal_node_id":"0.0-77.0-0.0","task_version":"screening-mturk","missing":false,"accuracy":1},{"contexts":["blue","green","red"],"outcomes":[1,0,1],"key":39,"choice":2,"rt":66.34999997913837,"outcome":1,"trial":72,"correct":2,"trial_type":"three-arm-trial","trial_index":80,"time_elapsed":679520,"internal_node_id":"0.0-78.0-0.0","task_version":"screening-mturk","missing":false,"accuracy":1},{"contexts":["blue","green","red"],"outcomes":[0,1,1],"key":39,"choice":2,"rt":106.88999993726611,"outcome":1,"trial":73,"correct":2,"trial_type":"three-arm-trial","trial_index":81,"time_elapsed":680836,"internal_node_id":"0.0-79.0-0.0","task_version":"screening-mturk","missing":false,"accuracy":1},{"contexts":["blue","green","red"],"outcomes":[0,0,0],"key":39,"choice":2,"rt":30.439999885857105,"outcome":0,"trial":74,"correct":2,"trial_type":"three-arm-trial","trial_index":82,"time_elapsed":682070,"internal_node_id":"0.0-80.0-0.0","task_version":"screening-mturk","missing":false,"accuracy":1},{"contexts":["blue","green","red"],"outcomes":[0,0,1],"key":38,"choice":1,"rt":3220.414999872446,"outcome":0,"trial":75,"correct":2,"trial_type":"three-arm-trial","trial_index":83,"time_elapsed":686499,"internal_node_id":"0.0-81.0-0.0","task_version":"screening-mturk","missing":false,"accuracy":0},{"contexts":["blue","green","red"],"outcomes":[0,1,0],"key":38,"choice":1,"rt":26.424999814480543,"outcome":1,"trial":76,"correct":0,"trial_type":"three-arm-trial","trial_index":84,"time_elapsed":687728,"internal_node_id":"0.0-82.0-0.0","task_version":"screening-mturk","missing":false,"accuracy":0},{"contexts":["blue","green","red"],"outcomes":[0,0,0],"key":38,"choice":1,"rt":107.27499984204769,"outcome":0,"trial":77,"correct":0,"trial_type":"three-arm-trial","trial_index":85,"time_elapsed":689039,"internal_node_id":"0.0-83.0-0.0","task_version":"screening-mturk","missing":false,"accuracy":0},{"contexts":["blue","green","red"],"outcomes":[1,0,0],"key":37,"choice":0,"rt":667.4349997192621,"outcome":1,"trial":78,"correct":0,"trial_type":"three-arm-trial","trial_index":86,"time_elapsed":690910,"internal_node_id":"0.0-84.0-0.0","task_version":"screening-mturk","missing":false,"accuracy":1},{"contexts":["blue","green","red"],"outcomes":[1,1,0],"key":39,"choice":2,"rt":1548.369999974966,"outcome":0,"trial":79,"correct":0,"trial_type":"three-arm-trial","trial_index":87,"time_elapsed":693669,"internal_node_id":"0.0-85.0-0.0","task_version":"screening-mturk","missing":false,"accuracy":0},{"contexts":["blue","green","red"],"outcomes":[1,0,0],"key":39,"choice":2,"rt":72.07999983802438,"outcome":0,"trial":80,"correct":0,"trial_type":"three-arm-trial","trial_index":88,"time_elapsed":694946,"internal_node_id":"0.0-86.0-0.0","task_version":"screening-mturk","missing":false,"accuracy":0},{"contexts":["blue","green","red"],"outcomes":[1,0,1],"key":38,"choice":1,"rt":345.7700000144541,"outcome":0,"trial":81,"correct":0,"trial_type":"three-arm-trial","trial_index":89,"time_elapsed":696504,"internal_node_id":"0.0-87.0-0.0","task_version":"screening-mturk","missing":false,"accuracy":0},{"contexts":["blue","green","red"],"outcomes":[1,0,0],"key":37,"choice":0,"rt":134.55000007525086,"outcome":1,"trial":82,"correct":0,"trial_type":"three-arm-trial","trial_index":90,"time_elapsed":697842,"internal_node_id":"0.0-88.0-0.0","task_version":"screening-mturk","missing":false,"accuracy":1},{"contexts":["blue","green","red"],"outcomes":[1,0,0],"key":37,"choice":0,"rt":129.7800000756979,"outcome":1,"trial":83,"correct":0,"trial_type":"three-arm-trial","trial_index":91,"time_elapsed":699183,"internal_node_id":"0.0-89.0-0.0","task_version":"screening-mturk","missing":false,"accuracy":1},{"contexts":["blue","green","red"],"outcomes":[1,1,0],"key":37,"choice":0,"rt":2031.7299999296665,"outcome":1,"trial":84,"correct":0,"trial_type":"three-arm-trial","trial_index":92,"time_elapsed":702420,"internal_node_id":"0.0-90.0-0.0","task_version":"screening-mturk","missing":false,"accuracy":1},{"contexts":["blue","green","red"],"outcomes":[1,0,1],"key":39,"choice":2,"rt":3018.445000052452,"outcome":1,"trial":85,"correct":0,"trial_type":"three-arm-trial","trial_index":93,"time_elapsed":706642,"internal_node_id":"0.0-91.0-0.0","task_version":"screening-mturk","missing":false,"accuracy":0},{"contexts":["blue","green","red"],"outcomes":[0,0,0],"key":39,"choice":2,"rt":103.54000004008412,"outcome":0,"trial":86,"correct":0,"trial_type":"three-arm-trial","trial_index":94,"time_elapsed":707950,"internal_node_id":"0.0-92.0-0.0","task_version":"screening-mturk","missing":false,"accuracy":0},{"contexts":["blue","green","red"],"outcomes":[1,0,0],"key":38,"choice":1,"rt":482.5249998830259,"outcome":0,"trial":87,"correct":0,"trial_type":"three-arm-trial","trial_index":95,"time_elapsed":709636,"internal_node_id":"0.0-93.0-0.0","task_version":"screening-mturk","missing":false,"accuracy":0},{"contexts":["blue","green","red"],"outcomes":[0,0,0],"key":38,"choice":1,"rt":4.94999997317791,"outcome":0,"trial":88,"correct":0,"trial_type":"three-arm-trial","trial_index":96,"time_elapsed":710845,"internal_node_id":"0.0-94.0-0.0","task_version":"screening-mturk","missing":false,"accuracy":0},{"contexts":["blue","green","red"],"outcomes":[1,0,0],"key":37,"choice":0,"rt":196.99000008404255,"outcome":1,"trial":89,"correct":0,"trial_type":"three-arm-trial","trial_index":97,"time_elapsed":712248,"internal_node_id":"0.0-95.0-0.0","task_version":"screening-mturk","missing":false,"accuracy":1},{"contexts":["blue","green","red"],"outcomes":[1,0,0],"key":37,"choice":0,"rt":211.0350001603365,"outcome":1,"trial":90,"correct":0,"trial_type":"three-arm-trial","trial_index":98,"time_elapsed":713665,"internal_node_id":"0.0-96.0-0.0","task_version":"screening-mturk","missing":false,"accuracy":1},{"rt":57625.06499979645,"responses":{"age":"30","gender-categorical":"Male","gender-free-response":"","ethnicity":"Not Hispanic or Latino","race":["White"],"language":"Yes","fluency":"Very well","prolific":"Yes","prolific-this-study":"No"},"survey":"demographics","trial_type":"survey-demo","trial_index":99,"time_elapsed":771305,"internal_node_id":"0.0-97.0","task_version":"screening-mturk","interactions":"[]"}]