[{"responses":{"Q15":"2","Q10":"2","Q13":"2","Q14":"1","Q12":"2","Q05":"2","Q04":"2","Q02":"2","Q03":"2","Q11":"1","Q09":"2","Q01":"2","Q07":"2","Q06":"1","Q08":"2"},"rt":31251.185000000078,"survey":"shaps","trial_type":"survey-template","trial_index":0,"time_elapsed":31300,"internal_node_id":"0.0-0.0","task_version":"screening-mturk"},{"responses":{"Q13":"2","Q03":"2","Q06":"1","Q01":"2","Q09":"2","Q12":"1","Q05":"2","Q07":"2","Q10":"2","Q02":"2","Q11":"2","Q08":"2","Q04":"1","Q14":"1","Q15":"2"},"rt":26290.48999999941,"survey":"7up7down","trial_type":"survey-template","trial_index":1,"time_elapsed":57610,"internal_node_id":"0.0-1.0","task_version":"screening-mturk"},{"responses":{"Q13":"2","Q09":"2","Q08":"1","Q03":"2","Q06":"2","Q04":"2","Q10":"2","Q02":"2","Q11":"2","Q12":"2","Q07":"2","Q05":"2","Q01":"2"},"rt":14274.859999999528,"survey":"bisbas","trial_type":"survey-template","trial_index":2,"time_elapsed":71896,"internal_node_id":"0.0-2.0","task_version":"screening-mturk"},{"responses":{"Q03":"2","Q01":"2","Q02":"2"},"rt":4385.634999999631,"survey":"pswq","trial_type":"survey-template","trial_index":3,"time_elapsed":76290,"internal_node_id":"0.0-3.0","task_version":"screening-mturk"},{"responses":{"Q01":"2","Q02":"2","Q06":"2","Q05":"2","Q07":"2","Q04":"2","Q08":"2","Q03":"2"},"rt":32381.43000000037,"survey":"gad7","trial_type":"survey-template","trial_index":4,"time_elapsed":108683,"internal_node_id":"0.0-4.0","task_version":"screening-mturk"},{"view_history":"[{\"page_index\":0,\"viewing_time\":10601.604999999836},{\"page_index\":1,\"viewing_time\":4278.119999999937},{\"page_index\":2,\"viewing_time\":2007.720000000525},{\"page_index\":3,\"viewing_time\":5240.514999999519},{\"page_index\":4,\"viewing_time\":2384.270000000455},{\"page_index\":5,\"viewing_time\":735.2549999995972},{\"page_index\":6,\"viewing_time\":847.7099999999919},{\"page_index\":7,\"viewing_time\":711.8300000001909}]","rt":26809.970000000234,"trial_type":"instructions","trial_index":5,"time_elapsed":135497,"internal_node_id":"0.0-5.0-0.0","task_version":"screening-mturk"},{"responses":["True","True","True","True","True"],"num_errors":2,"rt":20400.58500000034,"trial_type":"three-arm-comprehension","trial_index":6,"time_elapsed":155909,"internal_node_id":"0.0-5.0-1.0","task_version":"screening-mturk"},{"view_history":"[{\"page_index\":0,\"viewing_time\":1667.2199999993318},{\"page_index\":1,\"viewing_time\":2920.5850000007777},{\"page_index\":2,\"viewing_time\":1543.6499999996158},{\"page_index\":3,\"viewing_time\":1896.2050000000163},{\"page_index\":4,\"viewing_time\":1487.509999999922},{\"page_index\":5,\"viewing_time\":959.9649999999965},{\"page_index\":6,\"viewing_time\":760.1199999999371},{\"page_index\":7,\"viewing_time\":759.8250000000698}]","rt":11995.844999999448,"trial_type":"instructions","trial_index":7,"time_elapsed":167920,"internal_node_id":"0.0-5.1-0.1","task_version":"screening-mturk"},{"responses":["True","True","True","True","True"],"num_errors":2,"rt":6932.539999999775,"trial_type":"three-arm-comprehension","trial_index":8,"time_elapsed":174860,"internal_node_id":"0.0-5.1-1.1","task_version":"screening-mturk"},{"view_history":"[{\"page_index\":0,\"viewing_time\":1504.5700000000652},{\"page_index\":1,\"viewing_time\":1376.1000000003842},{\"page_index\":2,\"viewing_time\":920.3600000001024},{\"page_index\":3,\"viewing_time\":1119.539999999688},{\"page_index\":4,\"viewing_time\":945.9049999995623},{\"page_index\":5,\"viewing_time\":894.0450000000128},{\"page_index\":6,\"viewing_time\":871.9250000003667},{\"page_index\":7,\"viewing_time\":568.1599999997998}]","rt":8201.275000000343,"trial_type":"instructions","trial_index":9,"time_elapsed":183071,"internal_node_id":"0.0-5.2-0.2","task_version":"screening-mturk"},{"responses":["True","True","True","True","True"],"num_errors":2,"rt":5556.75000000064,"trial_type":"three-arm-comprehension","trial_index":10,"time_elapsed":188635,"internal_node_id":"0.0-5.2-1.2","task_version":"screening-mturk"},{"view_history":"[{\"page_index\":0,\"viewing_time\":1419.3400000003749},{\"page_index\":1,\"viewing_time\":1103.355000000185},{\"page_index\":2,\"viewing_time\":913.5149999992864},{\"page_index\":3,\"viewing_time\":862.485000000539},{\"page_index\":4,\"viewing_time\":720.8549999995739},{\"page_index\":5,\"viewing_time\":599.5300000004354},{\"page_index\":6,\"viewing_time\":528.0599999996484},{\"page_index\":7,\"viewing_time\":567.5899999996473}]","rt":6715.484999999724,"trial_type":"instructions","trial_index":11,"time_elapsed":195359,"internal_node_id":"0.0-5.3-0.3","task_version":"screening-mturk"},{"responses":["True","True","True","True","True"],"num_errors":2,"rt":7652.670000000391,"trial_type":"three-arm-comprehension","trial_index":12,"time_elapsed":203019,"internal_node_id":"0.0-5.3-1.3","task_version":"screening-mturk"},{"view_history":"[{\"page_index\":0,\"viewing_time\":2443.3500000004424},{\"page_index\":1,\"viewing_time\":2535.88499999934},{\"page_index\":2,\"viewing_time\":3848.630000000412},{\"page_index\":3,\"viewing_time\":4255.965000000288},{\"page_index\":4,\"viewing_time\":1352.4649999999383},{\"page_index\":5,\"viewing_time\":1847.269999999291},{\"page_index\":6,\"viewing_time\":1759.9700000000885},{\"page_index\":7,\"viewing_time\":791.7200000001467}]","rt":18835.990000000485,"trial_type":"instructions","trial_index":13,"time_elapsed":221864,"internal_node_id":"0.0-5.4-0.4","task_version":"screening-mturk"},{"responses":["True","True","True","True","True"],"num_errors":2,"rt":5468.065000000031,"trial_type":"three-arm-comprehension","trial_index":14,"time_elapsed":227339,"internal_node_id":"0.0-5.4-1.4","task_version":"screening-mturk"},{"view_history":"[{\"page_index\":0,\"viewing_time\":2187.8049999995856},{\"page_index\":1,\"viewing_time\":607.8800000004703},{\"page_index\":2,\"viewing_time\":568.4799999998941},{\"page_index\":3,\"viewing_time\":823.4099999999744},{\"page_index\":4,\"viewing_time\":576.109999999986},{\"page_index\":5,\"viewing_time\":640.2449999995879},{\"page_index\":6,\"viewing_time\":1336.2150000002584},{\"page_index\":7,\"viewing_time\":655.8800000002666}]","rt":7396.829999999696,"trial_type":"instructions","trial_index":15,"time_elapsed":234744,"internal_node_id":"0.0-5.5-0.5","task_version":"screening-mturk"},{"responses":["True","True","True","True","True"],"num_errors":2,"rt":5412.130000000587,"trial_type":"three-arm-comprehension","trial_index":16,"time_elapsed":240163,"internal_node_id":"0.0-5.5-1.5","task_version":"screening-mturk"},{"view_history":"[{\"page_index\":0,\"viewing_time\":1683.625000000582},{\"page_index\":1,\"viewing_time\":647.3049999994982},{\"page_index\":2,\"viewing_time\":751.4250000003958},{\"page_index\":3,\"viewing_time\":744.6849999996484},{\"page_index\":4,\"viewing_time\":615.615000000631},{\"page_index\":5,\"viewing_time\":575.820000000007},{\"page_index\":6,\"viewing_time\":2143.8149999994494},{\"page_index\":7,\"viewing_time\":656.5099999998056}]","rt":7819.790000000474,"trial_type":"instructions","trial_index":17,"time_elapsed":247992,"internal_node_id":"0.0-5.6-0.6","task_version":"screening-mturk"},{"responses":["True","True","True","True","True"],"num_errors":2,"rt":4699.515000000247,"trial_type":"three-arm-comprehension","trial_index":18,"time_elapsed":252698,"internal_node_id":"0.0-5.6-1.6","task_version":"screening-mturk"},{"view_history":"[{\"page_index\":0,\"viewing_time\":1082.5500000001048},{\"page_index\":1,\"viewing_time\":1272.2649999996065},{\"page_index\":2,\"viewing_time\":599.7999999999593},{\"page_index\":3,\"viewing_time\":1440.095000000816},{\"page_index\":4,\"viewing_time\":687.6299999994808},{\"page_index\":5,\"viewing_time\":720.339999999851},{\"page_index\":6,\"viewing_time\":584.125000000291},{\"page_index\":7,\"viewing_time\":544.50499999983}]","rt":6932.249999999825,"trial_type":"instructions","trial_index":19,"time_elapsed":259640,"internal_node_id":"0.0-5.7-0.7","task_version":"screening-mturk"},{"responses":["True","True","True","True","True"],"num_errors":2,"rt":5645.7049999999,"trial_type":"three-arm-comprehension","trial_index":20,"time_elapsed":265296,"internal_node_id":"0.0-5.7-1.7","task_version":"screening-mturk"},{"view_history":"[{\"page_index\":0,\"viewing_time\":1198.5999999996857},{\"page_index\":1,\"viewing_time\":695.8199999998906},{\"page_index\":2,\"viewing_time\":696.2750000002561},{\"page_index\":3,\"viewing_time\":823.7300000000978},{\"page_index\":4,\"viewing_time\":615.9549999992596},{\"page_index\":5,\"viewing_time\":616.4400000007008},{\"page_index\":6,\"viewing_time\":583.5550000001676},{\"page_index\":7,\"viewing_time\":608.2299999998068}]","rt":5839.294999999751,"trial_type":"instructions","trial_index":21,"time_elapsed":271143,"internal_node_id":"0.0-5.8-0.8","task_version":"screening-mturk"},{"responses":["True","True","True","True","True"],"num_errors":2,"rt":8204.36999999953,"trial_type":"three-arm-comprehension","trial_index":22,"time_elapsed":279355,"internal_node_id":"0.0-5.8-1.8","task_version":"screening-mturk"},{"view_history":"[{\"page_index\":0,\"viewing_time\":1307.6300000002375},{\"page_index\":1,\"viewing_time\":856.1149999995832},{\"page_index\":2,\"viewing_time\":1247.890000000596},{\"page_index\":3,\"viewing_time\":856.8999999997322},{\"page_index\":4,\"viewing_time\":695.0500000002794},{\"page_index\":5,\"viewing_time\":640.1249999998836},{\"page_index\":6,\"viewing_time\":1879.8749999996508},{\"page_index\":7,\"viewing_time\":632.5649999998859}]","rt":8116.979999999807,"trial_type":"instructions","trial_index":23,"time_elapsed":287480,"internal_node_id":"0.0-5.9-0.9","task_version":"screening-mturk"},{"responses":["True","True","True","True","True"],"num_errors":2,"rt":10412.204999999609,"trial_type":"three-arm-comprehension","trial_index":24,"time_elapsed":297899,"internal_node_id":"0.0-5.9-1.9","task_version":"screening-mturk"},{"view_history":"[{\"page_index\":0,\"viewing_time\":1658.5899999999674},{\"page_index\":1,\"viewing_time\":2279.994999999879},{\"page_index\":2,\"viewing_time\":1256.085000000021},{\"page_index\":3,\"viewing_time\":2024.269999999844},{\"page_index\":4,\"viewing_time\":2415.5250000003725},{\"page_index\":5,\"viewing_time\":1488.094999999681},{\"page_index\":6,\"viewing_time\":1527.7550000000629},{\"page_index\":7,\"viewing_time\":679.9700000001467}]","rt":13330.930000000051,"trial_type":"instructions","trial_index":25,"time_elapsed":311239,"internal_node_id":"0.0-5.10-0.10","task_version":"screening-mturk"},{"responses":["True","True","False","True","True"],"num_errors":1,"rt":6781.465000000026,"trial_type":"three-arm-comprehension","trial_index":26,"time_elapsed":318027,"internal_node_id":"0.0-5.10-1.10","task_version":"screening-mturk"},{"view_history":"[{\"page_index\":0,\"viewing_time\":1401.2900000007357},{\"page_index\":1,\"viewing_time\":608.479999999865},{\"page_index\":2,\"viewing_time\":719.8849999995437},{\"page_index\":3,\"viewing_time\":799.5200000004843},{\"page_index\":4,\"viewing_time\":663.934999999532},{\"page_index\":5,\"viewing_time\":728.4200000003912},{\"page_index\":6,\"viewing_time\":807.4749999996275},{\"page_index\":7,\"viewing_time\":799.9850000005681}]","rt":6529.860000000568,"trial_type":"instructions","trial_index":27,"time_elapsed":324567,"internal_node_id":"0.0-5.11-0.11","task_version":"screening-mturk"},{"responses":["True","True","True","True","True"],"num_errors":2,"rt":6488.64000000048,"trial_type":"three-arm-comprehension","trial_index":28,"time_elapsed":331063,"internal_node_id":"0.0-5.11-1.11","task_version":"screening-mturk"},{"view_history":"[{\"page_index\":0,\"viewing_time\":1180.2449999995297},{\"page_index\":1,\"viewing_time\":1695.690000000468},{\"page_index\":2,\"viewing_time\":3016.2199999995064},{\"page_index\":3,\"viewing_time\":1872.5000000004075},{\"page_index\":4,\"viewing_time\":1423.1399999998976},{\"page_index\":5,\"viewing_time\":1057.490000000107},{\"page_index\":6,\"viewing_time\":1038.704999999958},{\"page_index\":7,\"viewing_time\":680.3700000000536}]","rt":11964.989999999467,"trial_type":"instructions","trial_index":29,"time_elapsed":343040,"internal_node_id":"0.0-5.12-0.12","task_version":"screening-mturk"},{"responses":["True","True","True","True","True"],"num_errors":2,"rt":5231.740000000165,"trial_type":"three-arm-comprehension","trial_index":30,"time_elapsed":348281,"internal_node_id":"0.0-5.12-1.12","task_version":"screening-mturk"},{"view_history":"[{\"page_index\":0,\"viewing_time\":5857.24500000017},{\"page_index\":1,\"viewing_time\":624.5200000003097},{\"page_index\":2,\"viewing_time\":543.6350000000093},{\"page_index\":3,\"viewing_time\":1136.2049999997835},{\"page_index\":4,\"viewing_time\":960.085000000603},{\"page_index\":5,\"viewing_time\":1151.4250000000466},{\"page_index\":6,\"viewing_time\":639.9999999994179},{\"page_index\":7,\"viewing_time\":616.3850000002421}]","rt":11530.185000000522,"trial_type":"instructions","trial_index":31,"time_elapsed":359824,"internal_node_id":"0.0-5.13-0.13","task_version":"screening-mturk"},{"responses":["True","True","True","True","True"],"num_errors":2,"rt":6564.495000000519,"trial_type":"three-arm-comprehension","trial_index":32,"time_elapsed":366397,"internal_node_id":"0.0-5.13-1.13","task_version":"screening-mturk"},{"view_history":"[{\"page_index\":0,\"viewing_time\":1182.9500000003027},{\"page_index\":1,\"viewing_time\":600.039999999397},{\"page_index\":2,\"viewing_time\":608.3350000007777},{\"page_index\":3,\"viewing_time\":1440.4599999997881},{\"page_index\":4,\"viewing_time\":559.1549999990384},{\"page_index\":5,\"viewing_time\":581.4750000008498},{\"page_index\":6,\"viewing_time\":618.9899999990594},{\"page_index\":7,\"viewing_time\":671.5299999996205}]","rt":6263.525000000256,"trial_type":"instructions","trial_index":33,"time_elapsed":372671,"internal_node_id":"0.0-5.14-0.14","task_version":"screening-mturk"},{"responses":["True","True","True","True","True"],"num_errors":2,"rt":5309.049999999872,"trial_type":"three-arm-comprehension","trial_index":34,"time_elapsed":377986,"internal_node_id":"0.0-5.14-1.14","task_version":"screening-mturk"},{"view_history":"[{\"page_index\":0,\"viewing_time\":1098.8899999992573},{\"page_index\":1,\"viewing_time\":568.7250000010245},{\"page_index\":2,\"viewing_time\":635.4649999993853},{\"page_index\":3,\"viewing_time\":1155.9400000005262},{\"page_index\":4,\"viewing_time\":1311.9999999999418},{\"page_index\":5,\"viewing_time\":1080.4950000001118},{\"page_index\":6,\"viewing_time\":527.7000000005937},{\"page_index\":7,\"viewing_time\":584.1349999991362}]","rt":6964.0600000002305,"trial_type":"instructions","trial_index":35,"time_elapsed":384959,"internal_node_id":"0.0-5.15-0.15","task_version":"screening-mturk"},{"responses":["True","True","True","True","True"],"num_errors":2,"rt":6676.635000001581,"trial_type":"three-arm-comprehension","trial_index":36,"time_elapsed":391643,"internal_node_id":"0.0-5.15-1.15","task_version":"screening-mturk"},{"view_history":"[{\"page_index\":0,\"viewing_time\":1577.5950000006706},{\"page_index\":1,\"viewing_time\":2327.7550000002375},{\"page_index\":2,\"viewing_time\":824.0800000003073},{\"page_index\":3,\"viewing_time\":672.0649999988382},{\"page_index\":4,\"viewing_time\":695.9850000003353},{\"page_index\":5,\"viewing_time\":608.5349999993923},{\"page_index\":6,\"viewing_time\":639.6899999999441},{\"page_index\":7,\"viewing_time\":591.9650000014226}]","rt":7938.509999999951,"trial_type":"instructions","trial_index":37,"time_elapsed":399591,"internal_node_id":"0.0-5.16-0.16","task_version":"screening-mturk"},{"responses":["True","True","True","True","True"],"num_errors":2,"rt":5073.534999999567,"trial_type":"three-arm-comprehension","trial_index":38,"time_elapsed":404675,"internal_node_id":"0.0-5.16-1.16","task_version":"screening-mturk"},{"view_history":"[{\"page_index\":0,\"viewing_time\":1554.6199999989476},{\"page_index\":1,\"viewing_time\":952.0300000003772},{\"page_index\":2,\"viewing_time\":568.3600000011502},{\"page_index\":3,\"viewing_time\":631.5349999986356},{\"page_index\":4,\"viewing_time\":592.3050000001094},{\"page_index\":5,\"viewing_time\":559.8250000002445},{\"page_index\":6,\"viewing_time\":511.9150000009686},{\"page_index\":7,\"viewing_time\":512.9049999996205}]","rt":5884.425000000163,"trial_type":"instructions","trial_index":39,"time_elapsed":410568,"internal_node_id":"0.0-5.17-0.17","task_version":"screening-mturk"},{"responses":["True","True","True","True","True"],"num_errors":2,"rt":5475.335000000952,"trial_type":"three-arm-comprehension","trial_index":40,"time_elapsed":416058,"internal_node_id":"0.0-5.17-1.17","task_version":"screening-mturk"},{"view_history":"[{\"page_index\":0,\"viewing_time\":1173.1999999993131},{\"page_index\":1,\"viewing_time\":687.1250000003492},{\"page_index\":2,\"viewing_time\":631.7450000005774},{\"page_index\":3,\"viewing_time\":655.4550000000745},{\"page_index\":4,\"viewing_time\":1224.1999999987893},{\"page_index\":5,\"viewing_time\":511.84000000101514},{\"page_index\":6,\"viewing_time\":471.90000000043074},{\"page_index\":7,\"viewing_time\":511.9699999995646}]","rt":5868.0549999990035,"trial_type":"instructions","trial_index":41,"time_elapsed":421934,"internal_node_id":"0.0-5.18-0.18","task_version":"screening-mturk"},{"responses":["True","True","True","True","True"],"num_errors":2,"rt":5533.365000001155,"trial_type":"three-arm-comprehension","trial_index":42,"time_elapsed":427474,"internal_node_id":"0.0-5.18-1.18","task_version":"screening-mturk"},{"view_history":"[{\"page_index\":0,\"viewing_time\":1043.7250000013737},{\"page_index\":1,\"viewing_time\":544.5349999990431},{\"page_index\":2,\"viewing_time\":591.800000000163},{\"page_index\":3,\"viewing_time\":591.6350000007078},{\"page_index\":4,\"viewing_time\":560.1800000004005},{\"page_index\":5,\"viewing_time\":575.7499999999418},{\"page_index\":6,\"viewing_time\":536.0149999996647},{\"page_index\":7,\"viewing_time\":560.4800000000978}]","rt":5004.895000000019,"trial_type":"instructions","trial_index":43,"time_elapsed":432487,"internal_node_id":"0.0-5.19-0.19","task_version":"screening-mturk"},{"responses":["True","True","True","True","True"],"num_errors":2,"rt":5411.39500000095,"trial_type":"three-arm-comprehension","trial_index":44,"time_elapsed":437905,"internal_node_id":"0.0-5.19-1.19","task_version":"screening-mturk"},{"view_history":"[{\"page_index\":0,\"viewing_time\":1179.3049999996438},{\"page_index\":1,\"viewing_time\":1432.310000000114},{\"page_index\":2,\"viewing_time\":871.5900000006659},{\"page_index\":3,\"viewing_time\":728.2250000007334},{\"page_index\":4,\"viewing_time\":704.4649999989197},{\"page_index\":5,\"viewing_time\":775.6950000002398},{\"page_index\":6,\"viewing_time\":681.3700000002864},{\"page_index\":7,\"viewing_time\":590.3249999991967}]","rt":6963.880000001111,"trial_type":"instructions","trial_index":45,"time_elapsed":444878,"internal_node_id":"0.0-5.20-0.20","task_version":"screening-mturk"},{"responses":["True","True","True","True","True"],"num_errors":2,"rt":6292.724999999336,"trial_type":"three-arm-comprehension","trial_index":46,"time_elapsed":451177,"internal_node_id":"0.0-5.20-1.20","task_version":"screening-mturk"},{"view_history":"[{\"page_index\":0,\"viewing_time\":1779.9749999994528},{\"page_index\":1,\"viewing_time\":640.0450000001001},{\"page_index\":2,\"viewing_time\":1560.2299999991665},{\"page_index\":3,\"viewing_time\":791.6999999997788},{\"page_index\":4,\"viewing_time\":943.9750000000931},{\"page_index\":5,\"viewing_time\":568.1150000000489},{\"page_index\":6,\"viewing_time\":1343.8000000005704},{\"page_index\":7,\"viewing_time\":744.6199999994715}]","rt":8373.124999998254,"trial_type":"instructions","trial_index":47,"time_elapsed":459560,"internal_node_id":"0.0-5.21-0.21","task_version":"screening-mturk"},{"responses":["True","True","True","True","True"],"num_errors":2,"rt":6603.23500000051,"trial_type":"three-arm-comprehension","trial_index":48,"time_elapsed":466171,"internal_node_id":"0.0-5.21-1.21","task_version":"screening-mturk"},{"view_history":"[{\"page_index\":0,\"viewing_time\":2187.930000000051},{\"page_index\":1,\"viewing_time\":5328.099999998813},{\"page_index\":2,\"viewing_time\":759.4500000013504},{\"page_index\":3,\"viewing_time\":1624.3249999989057},{\"page_index\":4,\"viewing_time\":1983.4600000012433},{\"page_index\":5,\"viewing_time\":1097.1649999992223},{\"page_index\":6,\"viewing_time\":6926.675000000629},{\"page_index\":7,\"viewing_time\":959.9749999997439}]","rt":20867.70500000054,"trial_type":"instructions","trial_index":49,"time_elapsed":487047,"internal_node_id":"0.0-5.22-0.22","task_version":"screening-mturk"},{"responses":["True","True","True","True","True"],"num_errors":2,"rt":6308.959999998508,"trial_type":"three-arm-comprehension","trial_index":50,"time_elapsed":493363,"internal_node_id":"0.0-5.22-1.22","task_version":"screening-mturk"},{"view_history":"[{\"page_index\":0,\"viewing_time\":1330.9649999992107},{\"page_index\":1,\"viewing_time\":1688.2249999998603},{\"page_index\":2,\"viewing_time\":615.5150000013527},{\"page_index\":3,\"viewing_time\":576.0499999996391},{\"page_index\":4,\"viewing_time\":608.0249999995576},{\"page_index\":5,\"viewing_time\":600.1950000008801},{\"page_index\":6,\"viewing_time\":616.2249999997439},{\"page_index\":7,\"viewing_time\":575.5250000001979}]","rt":6611.535000000033,"trial_type":"instructions","trial_index":51,"time_elapsed":499983,"internal_node_id":"0.0-5.23-0.23","task_version":"screening-mturk"},{"responses":["True","True","True","True","True"],"num_errors":2,"rt":6540.704999999434,"trial_type":"three-arm-comprehension","trial_index":52,"time_elapsed":506530,"internal_node_id":"0.0-5.23-1.23","task_version":"screening-mturk"},{"view_history":"[{\"page_index\":0,\"viewing_time\":1196.6550000015413},{\"page_index\":1,\"viewing_time\":583.9899999991758},{\"page_index\":2,\"viewing_time\":527.8899999994319},{\"page_index\":3,\"viewing_time\":1248.0750000012922},{\"page_index\":4,\"viewing_time\":6160.144999999844},{\"page_index\":5,\"viewing_time\":727.7049999993178},{\"page_index\":6,\"viewing_time\":688.5600000005215},{\"page_index\":7,\"viewing_time\":631.9899999998743}]","rt":11765.705000001646,"trial_type":"instructions","trial_index":53,"time_elapsed":518304,"internal_node_id":"0.0-5.24-0.24","task_version":"screening-mturk"},{"responses":["True","True","True","True","True"],"num_errors":2,"rt":5083.2150000005495,"trial_type":"three-arm-comprehension","trial_index":54,"time_elapsed":523395,"internal_node_id":"0.0-5.24-1.24","task_version":"screening-mturk"},{"view_history":"[{\"page_index\":0,\"viewing_time\":1267.5350000008475},{\"page_index\":1,\"viewing_time\":599.7499999994179},{\"page_index\":2,\"viewing_time\":631.7450000005774},{\"page_index\":3,\"viewing_time\":3879.869999998831},{\"page_index\":4,\"viewing_time\":888.2150000008987},{\"page_index\":5,\"viewing_time\":992.0549999987707},{\"page_index\":6,\"viewing_time\":847.885000001057},{\"page_index\":7,\"viewing_time\":552.0300000007264}]","rt":9659.695000000298,"trial_type":"instructions","trial_index":55,"time_elapsed":533064,"internal_node_id":"0.0-5.25-0.25","task_version":"screening-mturk"},{"responses":["True","True","True","True","True"],"num_errors":2,"rt":5948.550000000978,"trial_type":"three-arm-comprehension","trial_index":56,"time_elapsed":539018,"internal_node_id":"0.0-5.25-1.25","task_version":"screening-mturk"},{"view_history":"[{\"page_index\":0,\"viewing_time\":1149.609999998589},{\"page_index\":1,\"viewing_time\":672.7600000012899},{\"page_index\":2,\"viewing_time\":600.3449999989243},{\"page_index\":3,\"viewing_time\":585.6800000000512},{\"page_index\":4,\"viewing_time\":623.2049999999581},{\"page_index\":5,\"viewing_time\":518.4150000003865},{\"page_index\":6,\"viewing_time\":503.4550000000745},{\"page_index\":7,\"viewing_time\":560.2899999994552}]","rt":5214.369999999646,"trial_type":"instructions","trial_index":57,"time_elapsed":544239,"internal_node_id":"0.0-5.26-0.26","task_version":"screening-mturk"},{"responses":["True","True","True","True","True"],"num_errors":2,"rt":5332.555000000866,"trial_type":"three-arm-comprehension","trial_index":58,"time_elapsed":549578,"internal_node_id":"0.0-5.26-1.26","task_version":"screening-mturk"},{"view_history":"[{\"page_index\":0,\"viewing_time\":30358.05999999866},{\"page_index\":1,\"viewing_time\":751.8500000005588},{\"page_index\":2,\"viewing_time\":719.629999999539},{\"page_index\":3,\"viewing_time\":696.140000000014},{\"page_index\":4,\"viewing_time\":680.0700000004144},{\"page_index\":5,\"viewing_time\":871.554999999702},{\"page_index\":6,\"viewing_time\":696.1499999997905},{\"page_index\":7,\"viewing_time\":616.2899999999208}]","rt":35390.47999999998,"trial_type":"instructions","trial_index":59,"time_elapsed":584976,"internal_node_id":"0.0-5.27-0.27","task_version":"screening-mturk"},{"responses":["True","True","True","True","True"],"num_errors":2,"rt":5708.6249999993015,"trial_type":"three-arm-comprehension","trial_index":60,"time_elapsed":590690,"internal_node_id":"0.0-5.27-1.27","task_version":"screening-mturk"},{"view_history":"[{\"page_index\":0,\"viewing_time\":1508.1549999995623},{\"page_index\":1,\"viewing_time\":592.8750000002328},{\"page_index\":2,\"viewing_time\":575.2649999995483},{\"page_index\":3,\"viewing_time\":567.8349999997299},{\"page_index\":4,\"viewing_time\":584.5350000000326},{\"page_index\":5,\"viewing_time\":599.5500000007451},{\"page_index\":6,\"viewing_time\":568.294999999227},{\"page_index\":7,\"viewing_time\":567.6849999999395}]","rt":5564.814999999711,"trial_type":"instructions","trial_index":61,"time_elapsed":596263,"internal_node_id":"0.0-5.28-0.28","task_version":"screening-mturk"},{"responses":["True","True","True","True","True"],"num_errors":2,"rt":4773.310000000405,"trial_type":"three-arm-comprehension","trial_index":62,"time_elapsed":601043,"internal_node_id":"0.0-5.28-1.28","task_version":"screening-mturk"},{"view_history":"[{\"page_index\":0,\"viewing_time\":1331.239999999525},{\"page_index\":1,\"viewing_time\":1088.0600000000559},{\"page_index\":2,\"viewing_time\":615.7899999998044},{\"page_index\":3,\"viewing_time\":712.6499999994412},{\"page_index\":4,\"viewing_time\":679.6750000012107},{\"page_index\":5,\"viewing_time\":591.5900000000838},{\"page_index\":6,\"viewing_time\":528.4899999987101},{\"page_index\":7,\"viewing_time\":559.9700000003213}]","rt":6108.054999998771,"trial_type":"instructions","trial_index":63,"time_elapsed":607159,"internal_node_id":"0.0-5.29-0.29","task_version":"screening-mturk"},{"responses":["True","True","True","True","True"],"num_errors":2,"rt":5940.119999999297,"trial_type":"three-arm-comprehension","trial_index":64,"time_elapsed":613106,"internal_node_id":"0.0-5.29-1.29","task_version":"screening-mturk"},{"view_history":"[{\"page_index\":0,\"viewing_time\":1299.6249999996508},{\"page_index\":1,\"viewing_time\":1223.9599999993807},{\"page_index\":2,\"viewing_time\":1280.3949999996694},{\"page_index\":3,\"viewing_time\":1335.5650000012247},{\"page_index\":4,\"viewing_time\":1081.0750000000698},{\"page_index\":5,\"viewing_time\":847.0699999998324},{\"page_index\":6,\"viewing_time\":695.7899999998044},{\"page_index\":7,\"viewing_time\":696.0799999997253}]","rt":8460.175000000163,"trial_type":"instructions","trial_index":65,"time_elapsed":621575,"internal_node_id":"0.0-5.30-0.30","task_version":"screening-mturk"},{"responses":["True","True","True","True","True"],"num_errors":2,"rt":6412.700000000768,"trial_type":"three-arm-comprehension","trial_index":66,"time_elapsed":627994,"internal_node_id":"0.0-5.30-1.30","task_version":"screening-mturk"},{"view_history":"[{\"page_index\":0,\"viewing_time\":1203.9399999994785},{\"page_index\":1,\"viewing_time\":985.0000000005821},{\"page_index\":2,\"viewing_time\":574.6749999998137},{\"page_index\":3,\"viewing_time\":655.9749999996275},{\"page_index\":4,\"viewing_time\":712.2450000006938},{\"page_index\":5,\"viewing_time\":1080.169999999227},{\"page_index\":6,\"viewing_time\":519.920000000624},{\"page_index\":7,\"viewing_time\":535.565000000177}]","rt":6268.079999999842,"trial_type":"instructions","trial_index":67,"time_elapsed":634270,"internal_node_id":"0.0-5.31-0.31","task_version":"screening-mturk"},{"responses":["True","True","True","True","True"],"num_errors":2,"rt":7284.789999999688,"trial_type":"three-arm-comprehension","trial_index":68,"time_elapsed":641562,"internal_node_id":"0.0-5.31-1.31","task_version":"screening-mturk"},{"view_history":"[{\"page_index\":0,\"viewing_time\":1756.4000000001397},{\"page_index\":1,\"viewing_time\":2952.854999999632},{\"page_index\":2,\"viewing_time\":1174.4900000011548},{\"page_index\":3,\"viewing_time\":767.925000000163},{\"page_index\":4,\"viewing_time\":1520.0399999994552},{\"page_index\":5,\"viewing_time\":744.539999999688},{\"page_index\":6,\"viewing_time\":759.3749999995343},{\"page_index\":7,\"viewing_time\":584.0200000002515}]","rt":10260.255000001052,"trial_type":"instructions","trial_index":69,"time_elapsed":651831,"internal_node_id":"0.0-5.32-0.32","task_version":"screening-mturk"},{"responses":["True","True","True","True","True"],"num_errors":2,"rt":5004.890000000247,"trial_type":"three-arm-comprehension","trial_index":70,"time_elapsed":656842,"internal_node_id":"0.0-5.32-1.32","task_version":"screening-mturk"},{"view_history":"[{\"page_index\":0,\"viewing_time\":2754.904999999795},{\"page_index\":1,\"viewing_time\":1360.4350000005215},{\"page_index\":2,\"viewing_time\":1223.99000000034},{\"page_index\":3,\"viewing_time\":1039.124999999418},{\"page_index\":4,\"viewing_time\":848.954999999376},{\"page_index\":5,\"viewing_time\":1255.6050000003306},{\"page_index\":6,\"viewing_time\":30591.480000000913},{\"page_index\":7,\"viewing_time\":2318.1999999997206},{\"page_index\":6,\"viewing_time\":2059.569999999483},{\"page_index\":5,\"viewing_time\":1407.1850000000559},{\"page_index\":4,\"viewing_time\":1160.5500000005122},{\"page_index\":3,\"viewing_time\":1775.724999999511},{\"page_index\":2,\"viewing_time\":996.2250000007916},{\"page_index\":1,\"viewing_time\":1158.3649999992922},{\"page_index\":0,\"viewing_time\":7255.789999999222},{\"page_index\":1,\"viewing_time\":9805.865000000224},{\"page_index\":2,\"viewing_time\":12587.385000000824},{\"page_index\":3,\"viewing_time\":8205.659999999567},{\"page_index\":4,\"viewing_time\":14727.500000000931},{\"page_index\":5,\"viewing_time\":5134.04999999865},{\"page_index\":6,\"viewing_time\":4879.745000000228},{\"page_index\":7,\"viewing_time\":3205.340000000433}]","rt":115752.39499999955,"trial_type":"instructions","trial_index":71,"time_elapsed":772606,"internal_node_id":"0.0-5.33-0.33","task_version":"screening-mturk"},{"responses":["True","True","False","False","True"],"num_errors":0,"rt":31634.625000000582,"trial_type":"three-arm-comprehension","trial_index":72,"time_elapsed":804248,"internal_node_id":"0.0-5.33-1.33","task_version":"screening-mturk"},{"view_history":"[{\"page_index\":0,\"viewing_time\":3542.61500000034}]","rt":3543.405000000377,"trial_type":"instructions","trial_index":73,"time_elapsed":807801,"internal_node_id":"0.0-6.0","task_version":"screening-mturk"},{"contexts":["red","blue","green"],"outcomes":[0,1,0],"key":38,"choice":1,"rt":8418.750000000698,"outcome":1,"trial":1,"correct":1,"trial_type":"three-arm-trial","trial_index":74,"time_elapsed":817444,"internal_node_id":"0.0-7.0-0.0","task_version":"screening-mturk","missing":false,"accuracy":1},{"contexts":["red","blue","green"],"outcomes":[1,0,0],"key":37,"choice":0,"rt":2562.5500000005122,"outcome":1,"trial":2,"correct":1,"trial_type":"three-arm-trial","trial_index":75,"time_elapsed":821217,"internal_node_id":"0.0-8.0-0.0","task_version":"screening-mturk","missing":false,"accuracy":0},{"contexts":["red","blue","green"],"outcomes":[0,1,0],"key":39,"choice":2,"rt":2045.7249999999767,"outcome":0,"trial":3,"correct":1,"trial_type":"three-arm-trial","trial_index":76,"time_elapsed":824476,"internal_node_id":"0.0-9.0-0.0","task_version":"screening-mturk","missing":false,"accuracy":0},{"contexts":["red","blue","green"],"outcomes":[0,1,0],"key":39,"choice":2,"rt":1343.8850000002421,"outcome":0,"trial":4,"correct":1,"trial_type":"three-arm-trial","trial_index":77,"time_elapsed":827040,"internal_node_id":"0.0-10.0-0.0","task_version":"screening-mturk","missing":false,"accuracy":0},{"contexts":["red","blue","green"],"outcomes":[0,1,1],"key":37,"choice":0,"rt":1482.0999999992782,"outcome":0,"trial":5,"correct":1,"trial_type":"three-arm-trial","trial_index":78,"time_elapsed":829728,"internal_node_id":"0.0-11.0-0.0","task_version":"screening-mturk","missing":false,"accuracy":0},{"contexts":["red","blue","green"],"outcomes":[1,1,0],"key":38,"choice":1,"rt":888.1799999998184,"outcome":1,"trial":6,"correct":1,"trial_type":"three-arm-trial","trial_index":79,"time_elapsed":831821,"internal_node_id":"0.0-12.0-0.0","task_version":"screening-mturk","missing":false,"accuracy":1},{"contexts":["red","blue","green"],"outcomes":[0,1,0],"key":38,"choice":1,"rt":892.9200000001583,"outcome":1,"trial":7,"correct":1,"trial_type":"three-arm-trial","trial_index":80,"time_elapsed":833922,"internal_node_id":"0.0-13.0-0.0","task_version":"screening-mturk","missing":false,"accuracy":1},{"contexts":["red","blue","green"],"outcomes":[0,1,0],"key":38,"choice":1,"rt":999.5699999999488,"outcome":1,"trial":8,"correct":1,"trial_type":"three-arm-trial","trial_index":81,"time_elapsed":836132,"internal_node_id":"0.0-14.0-0.0","task_version":"screening-mturk","missing":false,"accuracy":1},{"contexts":["red","blue","green"],"outcomes":[0,1,0],"key":38,"choice":1,"rt":1282.3150000004098,"outcome":1,"trial":9,"correct":1,"trial_type":"three-arm-trial","trial_index":82,"time_elapsed":838620,"internal_node_id":"0.0-15.0-0.0","task_version":"screening-mturk","missing":false,"accuracy":1},{"contexts":["red","blue","green"],"outcomes":[0,1,0],"key":38,"choice":1,"rt":277.90500000084285,"outcome":1,"trial":10,"correct":1,"trial_type":"three-arm-trial","trial_index":83,"time_elapsed":840110,"internal_node_id":"0.0-16.0-0.0","task_version":"screening-mturk","missing":false,"accuracy":1},{"contexts":["red","blue","green"],"outcomes":[0,1,0],"key":38,"choice":1,"rt":6008.130000000121,"outcome":1,"trial":11,"correct":1,"trial_type":"three-arm-trial","trial_index":84,"time_elapsed":847324,"internal_node_id":"0.0-17.0-0.0","task_version":"screening-mturk","missing":false,"accuracy":1},{"contexts":["red","blue","green"],"outcomes":[0,1,0],"key":38,"choice":1,"rt":928.9050000007264,"outcome":1,"trial":12,"correct":1,"trial_type":"three-arm-trial","trial_index":85,"time_elapsed":849460,"internal_node_id":"0.0-18.0-0.0","task_version":"screening-mturk","missing":false,"accuracy":1},{"contexts":["red","blue","green"],"outcomes":[0,1,0],"key":38,"choice":1,"rt":900.4700000005541,"outcome":1,"trial":13,"correct":1,"trial_type":"three-arm-trial","trial_index":86,"time_elapsed":851581,"internal_node_id":"0.0-19.0-0.0","task_version":"screening-mturk","missing":false,"accuracy":1},{"contexts":["red","blue","green"],"outcomes":[1,1,0],"key":38,"choice":1,"rt":8514.149999999092,"outcome":1,"trial":14,"correct":1,"trial_type":"three-arm-trial","trial_index":87,"time_elapsed":861300,"internal_node_id":"0.0-20.0-0.0","task_version":"screening-mturk","missing":false,"accuracy":1},{"contexts":["red","blue","green"],"outcomes":[0,1,1],"key":38,"choice":1,"rt":5108.765000000829,"outcome":1,"trial":15,"correct":1,"trial_type":"three-arm-trial","trial_index":88,"time_elapsed":867624,"internal_node_id":"0.0-21.0-0.0","task_version":"screening-mturk","missing":false,"accuracy":1},{"contexts":["red","blue","green"],"outcomes":[0,0,0],"key":38,"choice":1,"rt":356.25500000058673,"outcome":0,"trial":16,"correct":2,"trial_type":"three-arm-trial","trial_index":89,"time_elapsed":869196,"internal_node_id":"0.0-22.0-0.0","task_version":"screening-mturk","missing":false,"accuracy":0},{"contexts":["red","blue","green"],"outcomes":[0,1,1],"key":37,"choice":0,"rt":3770.95000000007,"outcome":0,"trial":17,"correct":2,"trial_type":"three-arm-trial","trial_index":90,"time_elapsed":874174,"internal_node_id":"0.0-23.0-0.0","task_version":"screening-mturk","missing":false,"accuracy":0},{"contexts":["red","blue","green"],"outcomes":[1,0,1],"key":39,"choice":2,"rt":113.8399999999674,"outcome":1,"trial":18,"correct":2,"trial_type":"three-arm-trial","trial_index":91,"time_elapsed":875499,"internal_node_id":"0.0-24.0-0.0","task_version":"screening-mturk","missing":false,"accuracy":1},{"contexts":["red","blue","green"],"outcomes":[0,0,1],"key":38,"choice":1,"rt":547.7499999996508,"outcome":0,"trial":19,"correct":2,"trial_type":"three-arm-trial","trial_index":92,"time_elapsed":877276,"internal_node_id":"0.0-25.0-0.0","task_version":"screening-mturk","missing":false,"accuracy":0},{"contexts":["red","blue","green"],"outcomes":[0,0,1],"key":39,"choice":2,"rt":900.1700000007404,"outcome":1,"trial":20,"correct":2,"trial_type":"three-arm-trial","trial_index":93,"time_elapsed":879418,"internal_node_id":"0.0-26.0-0.0","task_version":"screening-mturk","missing":false,"accuracy":1},{"contexts":["red","blue","green"],"outcomes":[0,0,1],"key":37,"choice":0,"rt":2024.3449999997392,"outcome":0,"trial":21,"correct":2,"trial_type":"three-arm-trial","trial_index":94,"time_elapsed":882661,"internal_node_id":"0.0-27.0-0.0","task_version":"screening-mturk","missing":false,"accuracy":0},{"contexts":["red","blue","green"],"outcomes":[0,0,1],"key":37,"choice":0,"rt":914.730000000447,"outcome":0,"trial":22,"correct":2,"trial_type":"three-arm-trial","trial_index":95,"time_elapsed":884783,"internal_node_id":"0.0-28.0-0.0","task_version":"screening-mturk","missing":false,"accuracy":0},{"contexts":["red","blue","green"],"outcomes":[1,0,1],"key":38,"choice":1,"rt":313.70500000054017,"outcome":0,"trial":23,"correct":2,"trial_type":"three-arm-trial","trial_index":96,"time_elapsed":886301,"internal_node_id":"0.0-29.0-0.0","task_version":"screening-mturk","missing":false,"accuracy":0},{"contexts":["red","blue","green"],"outcomes":[0,0,1],"key":39,"choice":2,"rt":83.62499999930151,"outcome":1,"trial":24,"correct":2,"trial_type":"three-arm-trial","trial_index":97,"time_elapsed":887597,"internal_node_id":"0.0-30.0-0.0","task_version":"screening-mturk","missing":false,"accuracy":1},{"contexts":["red","blue","green"],"outcomes":[1,0,1],"key":38,"choice":1,"rt":208.085000000312,"outcome":0,"trial":25,"correct":2,"trial_type":"three-arm-trial","trial_index":98,"time_elapsed":889014,"internal_node_id":"0.0-31.0-0.0","task_version":"screening-mturk","missing":false,"accuracy":0},{"contexts":["red","blue","green"],"outcomes":[1,1,1],"key":37,"choice":0,"rt":201.94500000076368,"outcome":1,"trial":26,"correct":2,"trial_type":"three-arm-trial","trial_index":99,"time_elapsed":890421,"internal_node_id":"0.0-32.0-0.0","task_version":"screening-mturk","missing":false,"accuracy":0},{"contexts":["red","blue","green"],"outcomes":[0,0,1],"key":38,"choice":1,"rt":242.7800000004936,"outcome":0,"trial":27,"correct":2,"trial_type":"three-arm-trial","trial_index":100,"time_elapsed":891875,"internal_node_id":"0.0-33.0-0.0","task_version":"screening-mturk","missing":false,"accuracy":0},{"contexts":["red","blue","green"],"outcomes":[0,0,1],"key":39,"choice":2,"rt":15.705000001587905,"outcome":1,"trial":28,"correct":2,"trial_type":"three-arm-trial","trial_index":101,"time_elapsed":893108,"internal_node_id":"0.0-34.0-0.0","task_version":"screening-mturk","missing":false,"accuracy":1},{"contexts":["red","blue","green"],"outcomes":[0,1,1],"key":38,"choice":1,"rt":108.71000000042841,"outcome":1,"trial":29,"correct":2,"trial_type":"three-arm-trial","trial_index":102,"time_elapsed":894422,"internal_node_id":"0.0-35.0-0.0","task_version":"screening-mturk","missing":false,"accuracy":0},{"contexts":["red","blue","green"],"outcomes":[0,0,1],"key":38,"choice":1,"rt":9.205000000307336,"outcome":0,"trial":30,"correct":2,"trial_type":"three-arm-trial","trial_index":103,"time_elapsed":895640,"internal_node_id":"0.0-36.0-0.0","task_version":"screening-mturk","missing":false,"accuracy":0},{"contexts":["red","blue","green"],"outcomes":[0,1,0],"key":37,"choice":0,"rt":103.0350000000326,"outcome":0,"trial":31,"correct":1,"trial_type":"three-arm-trial","trial_index":104,"time_elapsed":896948,"internal_node_id":"0.0-37.0-0.0","task_version":"screening-mturk","missing":false,"accuracy":0},{"contexts":["red","blue","green"],"outcomes":[0,1,1],"key":39,"choice":2,"rt":268.92000000039116,"outcome":1,"trial":32,"correct":1,"trial_type":"three-arm-trial","trial_index":105,"time_elapsed":898425,"internal_node_id":"0.0-38.0-0.0","task_version":"screening-mturk","missing":false,"accuracy":0},{"contexts":["red","blue","green"],"outcomes":[1,1,0],"key":39,"choice":2,"rt":274.21999999939,"outcome":0,"trial":33,"correct":1,"trial_type":"three-arm-trial","trial_index":106,"time_elapsed":899903,"internal_node_id":"0.0-39.0-0.0","task_version":"screening-mturk","missing":false,"accuracy":0},{"contexts":["red","blue","green"],"outcomes":[0,1,0],"key":38,"choice":1,"rt":57.934999998891726,"outcome":1,"trial":34,"correct":1,"trial_type":"three-arm-trial","trial_index":107,"time_elapsed":901173,"internal_node_id":"0.0-40.0-0.0","task_version":"screening-mturk","missing":false,"accuracy":1},{"contexts":["red","blue","green"],"outcomes":[0,1,0],"key":38,"choice":1,"rt":98.22499999962747,"outcome":1,"trial":35,"correct":1,"trial_type":"three-arm-trial","trial_index":108,"time_elapsed":902476,"internal_node_id":"0.0-41.0-0.0","task_version":"screening-mturk","missing":false,"accuracy":1},{"contexts":["red","blue","green"],"outcomes":[0,0,0],"key":38,"choice":1,"rt":316.11999999941327,"outcome":0,"trial":36,"correct":1,"trial_type":"three-arm-trial","trial_index":109,"time_elapsed":904000,"internal_node_id":"0.0-42.0-0.0","task_version":"screening-mturk","missing":false,"accuracy":1},{"contexts":["red","blue","green"],"outcomes":[1,1,0],"key":37,"choice":0,"rt":358.3699999998789,"outcome":1,"trial":37,"correct":1,"trial_type":"three-arm-trial","trial_index":110,"time_elapsed":905564,"internal_node_id":"0.0-43.0-0.0","task_version":"screening-mturk","missing":false,"accuracy":0},{"contexts":["red","blue","green"],"outcomes":[0,1,0],"key":37,"choice":0,"rt":187.88000000128523,"outcome":0,"trial":38,"correct":1,"trial_type":"three-arm-trial","trial_index":111,"time_elapsed":906959,"internal_node_id":"0.0-44.0-0.0","task_version":"screening-mturk","missing":false,"accuracy":0},{"contexts":["red","blue","green"],"outcomes":[1,1,0],"key":37,"choice":0,"rt":140.92499999969732,"outcome":1,"trial":39,"correct":1,"trial_type":"three-arm-trial","trial_index":112,"time_elapsed":908317,"internal_node_id":"0.0-45.0-0.0","task_version":"screening-mturk","missing":false,"accuracy":0},{"contexts":["red","blue","green"],"outcomes":[0,1,1],"key":37,"choice":0,"rt":201.01999999862164,"outcome":0,"trial":40,"correct":1,"trial_type":"three-arm-trial","trial_index":113,"time_elapsed":909732,"internal_node_id":"0.0-46.0-0.0","task_version":"screening-mturk","missing":false,"accuracy":0},{"contexts":["red","blue","green"],"outcomes":[1,1,0],"key":39,"choice":2,"rt":117.82499999937136,"outcome":0,"trial":41,"correct":1,"trial_type":"three-arm-trial","trial_index":114,"time_elapsed":911055,"internal_node_id":"0.0-47.0-0.0","task_version":"screening-mturk","missing":false,"accuracy":0},{"contexts":["red","blue","green"],"outcomes":[0,1,0],"key":39,"choice":2,"rt":56.26999999920372,"outcome":0,"trial":42,"correct":1,"trial_type":"three-arm-trial","trial_index":115,"time_elapsed":912316,"internal_node_id":"0.0-48.0-0.0","task_version":"screening-mturk","missing":false,"accuracy":0},{"contexts":["red","blue","green"],"outcomes":[0,1,0],"key":38,"choice":1,"rt":260.5550000007497,"outcome":1,"trial":43,"correct":1,"trial_type":"three-arm-trial","trial_index":116,"time_elapsed":913785,"internal_node_id":"0.0-49.0-0.0","task_version":"screening-mturk","missing":false,"accuracy":1},{"contexts":["red","blue","green"],"outcomes":[0,1,0],"key":38,"choice":1,"rt":253.59999999997672,"outcome":1,"trial":44,"correct":1,"trial_type":"three-arm-trial","trial_index":117,"time_elapsed":915244,"internal_node_id":"0.0-50.0-0.0","task_version":"screening-mturk","missing":false,"accuracy":1},{"contexts":["red","blue","green"],"outcomes":[0,1,0],"key":38,"choice":1,"rt":46.30499999981839,"outcome":1,"trial":45,"correct":1,"trial_type":"three-arm-trial","trial_index":118,"time_elapsed":916494,"internal_node_id":"0.0-51.0-0.0","task_version":"screening-mturk","missing":false,"accuracy":1},{"contexts":["red","blue","green"],"outcomes":[1,0,0],"key":38,"choice":1,"rt":28.969999999389984,"outcome":0,"trial":46,"correct":0,"trial_type":"three-arm-trial","trial_index":119,"time_elapsed":917734,"internal_node_id":"0.0-52.0-0.0","task_version":"screening-mturk","missing":false,"accuracy":0},{"contexts":["red","blue","green"],"outcomes":[0,0,1],"key":38,"choice":1,"rt":62.70500000030734,"outcome":0,"trial":47,"correct":0,"trial_type":"three-arm-trial","trial_index":120,"time_elapsed":919007,"internal_node_id":"0.0-53.0-0.0","task_version":"screening-mturk","missing":false,"accuracy":0},{"contexts":["red","blue","green"],"outcomes":[0,0,0],"key":37,"choice":0,"rt":1716.155000000028,"outcome":0,"trial":48,"correct":0,"trial_type":"three-arm-trial","trial_index":121,"time_elapsed":921928,"internal_node_id":"0.0-54.0-0.0","task_version":"screening-mturk","missing":false,"accuracy":1},{"contexts":["red","blue","green"],"outcomes":[1,1,1],"key":37,"choice":0,"rt":1075.1399999989662,"outcome":1,"trial":49,"correct":0,"trial_type":"three-arm-trial","trial_index":122,"time_elapsed":924211,"internal_node_id":"0.0-55.0-0.0","task_version":"screening-mturk","missing":false,"accuracy":1},{"contexts":["red","blue","green"],"outcomes":[1,0,0],"key":37,"choice":0,"rt":1517.6900000006426,"outcome":1,"trial":50,"correct":0,"trial_type":"three-arm-trial","trial_index":123,"time_elapsed":926934,"internal_node_id":"0.0-56.0-0.0","task_version":"screening-mturk","missing":false,"accuracy":1},{"contexts":["red","blue","green"],"outcomes":[1,0,0],"key":39,"choice":2,"rt":1473.3550000000978,"outcome":0,"trial":51,"correct":0,"trial_type":"three-arm-trial","trial_index":124,"time_elapsed":929612,"internal_node_id":"0.0-57.0-0.0","task_version":"screening-mturk","missing":false,"accuracy":0},{"contexts":["red","blue","green"],"outcomes":[1,0,0],"key":39,"choice":2,"rt":1635.170000001439,"outcome":0,"trial":52,"correct":0,"trial_type":"three-arm-trial","trial_index":125,"time_elapsed":932452,"internal_node_id":"0.0-58.0-0.0","task_version":"screening-mturk","missing":false,"accuracy":0},{"contexts":["red","blue","green"],"outcomes":[1,0,1],"key":39,"choice":2,"rt":203.92499999969732,"outcome":1,"trial":53,"correct":0,"trial_type":"three-arm-trial","trial_index":126,"time_elapsed":933860,"internal_node_id":"0.0-59.0-0.0","task_version":"screening-mturk","missing":false,"accuracy":0},{"contexts":["red","blue","green"],"outcomes":[1,0,0],"key":38,"choice":1,"rt":205.22500000149012,"outcome":0,"trial":54,"correct":0,"trial_type":"three-arm-trial","trial_index":127,"time_elapsed":935274,"internal_node_id":"0.0-60.0-0.0","task_version":"screening-mturk","missing":false,"accuracy":0},{"contexts":["red","blue","green"],"outcomes":[1,0,0],"key":38,"choice":1,"rt":6372.074999999255,"outcome":0,"trial":55,"correct":0,"trial_type":"three-arm-trial","trial_index":128,"time_elapsed":942852,"internal_node_id":"0.0-61.0-0.0","task_version":"screening-mturk","missing":false,"accuracy":0},{"contexts":["red","blue","green"],"outcomes":[0,0,0],"key":38,"choice":1,"rt":2177.265000000363,"outcome":0,"trial":56,"correct":0,"trial_type":"three-arm-trial","trial_index":129,"time_elapsed":946236,"internal_node_id":"0.0-62.0-0.0","task_version":"screening-mturk","missing":false,"accuracy":0},{"contexts":["red","blue","green"],"outcomes":[1,0,0],"key":37,"choice":0,"rt":252.12500000093132,"outcome":1,"trial":57,"correct":0,"trial_type":"three-arm-trial","trial_index":130,"time_elapsed":947694,"internal_node_id":"0.0-63.0-0.0","task_version":"screening-mturk","missing":false,"accuracy":1},{"contexts":["red","blue","green"],"outcomes":[0,1,0],"key":39,"choice":2,"rt":258.7999999995809,"outcome":0,"trial":58,"correct":0,"trial_type":"three-arm-trial","trial_index":131,"time_elapsed":949156,"internal_node_id":"0.0-64.0-0.0","task_version":"screening-mturk","missing":false,"accuracy":0},{"contexts":["red","blue","green"],"outcomes":[1,0,1],"key":39,"choice":2,"rt":161.84500000055414,"outcome":1,"trial":59,"correct":0,"trial_type":"three-arm-trial","trial_index":132,"time_elapsed":950525,"internal_node_id":"0.0-65.0-0.0","task_version":"screening-mturk","missing":false,"accuracy":0},{"contexts":["red","blue","green"],"outcomes":[1,0,0],"key":39,"choice":2,"rt":306.7300000002142,"outcome":0,"trial":60,"correct":0,"trial_type":"three-arm-trial","trial_index":133,"time_elapsed":952036,"internal_node_id":"0.0-66.0-0.0","task_version":"screening-mturk","missing":false,"accuracy":0},{"contexts":["red","blue","green"],"outcomes":[0,1,0],"key":38,"choice":1,"rt":250.81999999925029,"outcome":1,"trial":61,"correct":1,"trial_type":"three-arm-trial","trial_index":134,"time_elapsed":953493,"internal_node_id":"0.0-67.0-0.0","task_version":"screening-mturk","missing":false,"accuracy":1},{"contexts":["red","blue","green"],"outcomes":[0,0,0],"key":38,"choice":1,"rt":96.5649999998277,"outcome":0,"trial":62,"correct":1,"trial_type":"three-arm-trial","trial_index":135,"time_elapsed":954814,"internal_node_id":"0.0-68.0-0.0","task_version":"screening-mturk","missing":false,"accuracy":1},{"contexts":["red","blue","green"],"outcomes":[0,0,0],"key":38,"choice":1,"rt":165.72999999881722,"outcome":0,"trial":63,"correct":1,"trial_type":"three-arm-trial","trial_index":136,"time_elapsed":956193,"internal_node_id":"0.0-69.0-0.0","task_version":"screening-mturk","missing":false,"accuracy":1},{"contexts":["red","blue","green"],"outcomes":[0,1,0],"key":38,"choice":1,"rt":20.510000000242144,"outcome":1,"trial":64,"correct":1,"trial_type":"three-arm-trial","trial_index":137,"time_elapsed":957440,"internal_node_id":"0.0-70.0-0.0","task_version":"screening-mturk","missing":false,"accuracy":1},{"contexts":["red","blue","green"],"outcomes":[0,1,1],"key":38,"choice":1,"rt":183.64499999920372,"outcome":1,"trial":65,"correct":1,"trial_type":"three-arm-trial","trial_index":138,"time_elapsed":958829,"internal_node_id":"0.0-71.0-0.0","task_version":"screening-mturk","missing":false,"accuracy":1},{"contexts":["red","blue","green"],"outcomes":[0,1,0],"key":38,"choice":1,"rt":72.83499999903142,"outcome":1,"trial":66,"correct":1,"trial_type":"three-arm-trial","trial_index":139,"time_elapsed":960111,"internal_node_id":"0.0-72.0-0.0","task_version":"screening-mturk","missing":false,"accuracy":1},{"contexts":["red","blue","green"],"outcomes":[0,0,1],"key":37,"choice":0,"rt":232.4649999991525,"outcome":0,"trial":67,"correct":1,"trial_type":"three-arm-trial","trial_index":140,"time_elapsed":961548,"internal_node_id":"0.0-73.0-0.0","task_version":"screening-mturk","missing":false,"accuracy":0},{"contexts":["red","blue","green"],"outcomes":[0,1,0],"key":37,"choice":0,"rt":930.3749999998836,"outcome":0,"trial":68,"correct":1,"trial_type":"three-arm-trial","trial_index":141,"time_elapsed":963685,"internal_node_id":"0.0-74.0-0.0","task_version":"screening-mturk","missing":false,"accuracy":0},{"contexts":["red","blue","green"],"outcomes":[0,1,0],"key":39,"choice":2,"rt":5466.655000000261,"outcome":0,"trial":69,"correct":1,"trial_type":"three-arm-trial","trial_index":142,"time_elapsed":970356,"internal_node_id":"0.0-75.0-0.0","task_version":"screening-mturk","missing":false,"accuracy":0},{"contexts":["red","blue","green"],"outcomes":[0,1,0],"key":39,"choice":2,"rt":458.49999999883585,"outcome":0,"trial":70,"correct":1,"trial_type":"three-arm-trial","trial_index":143,"time_elapsed":972019,"internal_node_id":"0.0-76.0-0.0","task_version":"screening-mturk","missing":false,"accuracy":0},{"contexts":["red","blue","green"],"outcomes":[0,0,0],"key":39,"choice":2,"rt":34.49999999976717,"outcome":0,"trial":71,"correct":1,"trial_type":"three-arm-trial","trial_index":144,"time_elapsed":973259,"internal_node_id":"0.0-77.0-0.0","task_version":"screening-mturk","missing":false,"accuracy":0},{"contexts":["red","blue","green"],"outcomes":[0,1,0],"key":38,"choice":1,"rt":149.83000000030734,"outcome":1,"trial":72,"correct":1,"trial_type":"three-arm-trial","trial_index":145,"time_elapsed":974614,"internal_node_id":"0.0-78.0-0.0","task_version":"screening-mturk","missing":false,"accuracy":1},{"contexts":["red","blue","green"],"outcomes":[0,1,0],"key":38,"choice":1,"rt":241.34000000043306,"outcome":1,"trial":73,"correct":1,"trial_type":"three-arm-trial","trial_index":146,"time_elapsed":976067,"internal_node_id":"0.0-79.0-0.0","task_version":"screening-mturk","missing":false,"accuracy":1},{"contexts":["red","blue","green"],"outcomes":[0,1,0],"key":38,"choice":1,"rt":51.380000000819564,"outcome":1,"trial":74,"correct":1,"trial_type":"three-arm-trial","trial_index":147,"time_elapsed":977327,"internal_node_id":"0.0-80.0-0.0","task_version":"screening-mturk","missing":false,"accuracy":1},{"contexts":["red","blue","green"],"outcomes":[1,1,0],"key":38,"choice":1,"rt":229.5150000009453,"outcome":1,"trial":75,"correct":1,"trial_type":"three-arm-trial","trial_index":148,"time_elapsed":978771,"internal_node_id":"0.0-81.0-0.0","task_version":"screening-mturk","missing":false,"accuracy":1},{"contexts":["red","blue","green"],"outcomes":[0,1,1],"key":38,"choice":1,"rt":174.2700000014156,"outcome":1,"trial":76,"correct":2,"trial_type":"three-arm-trial","trial_index":149,"time_elapsed":980153,"internal_node_id":"0.0-82.0-0.0","task_version":"screening-mturk","missing":false,"accuracy":0},{"contexts":["red","blue","green"],"outcomes":[0,1,1],"key":38,"choice":1,"rt":622.1150000001071,"outcome":1,"trial":77,"correct":2,"trial_type":"three-arm-trial","trial_index":150,"time_elapsed":981981,"internal_node_id":"0.0-83.0-0.0","task_version":"screening-mturk","missing":false,"accuracy":0},{"contexts":["red","blue","green"],"outcomes":[0,0,0],"key":38,"choice":1,"rt":155.09000000020023,"outcome":0,"trial":78,"correct":2,"trial_type":"three-arm-trial","trial_index":151,"time_elapsed":983350,"internal_node_id":"0.0-84.0-0.0","task_version":"screening-mturk","missing":false,"accuracy":0},{"contexts":["red","blue","green"],"outcomes":[0,0,1],"key":38,"choice":1,"rt":90.42000000039116,"outcome":0,"trial":79,"correct":2,"trial_type":"three-arm-trial","trial_index":152,"time_elapsed":984648,"internal_node_id":"0.0-85.0-0.0","task_version":"screening-mturk","missing":false,"accuracy":0},{"contexts":["red","blue","green"],"outcomes":[1,1,1],"key":37,"choice":0,"rt":1164.6550000004936,"outcome":1,"trial":80,"correct":2,"trial_type":"three-arm-trial","trial_index":153,"time_elapsed":987024,"internal_node_id":"0.0-86.0-0.0","task_version":"screening-mturk","missing":false,"accuracy":0},{"contexts":["red","blue","green"],"outcomes":[0,0,1],"key":37,"choice":0,"rt":910.8049999995856,"outcome":0,"trial":81,"correct":2,"trial_type":"three-arm-trial","trial_index":154,"time_elapsed":989139,"internal_node_id":"0.0-87.0-0.0","task_version":"screening-mturk","missing":false,"accuracy":0},{"contexts":["red","blue","green"],"outcomes":[0,0,0],"key":39,"choice":2,"rt":215.13500000035856,"outcome":0,"trial":82,"correct":2,"trial_type":"three-arm-trial","trial_index":155,"time_elapsed":990560,"internal_node_id":"0.0-88.0-0.0","task_version":"screening-mturk","missing":false,"accuracy":1},{"contexts":["red","blue","green"],"outcomes":[0,1,1],"key":39,"choice":2,"rt":918.9600000008941,"outcome":1,"trial":83,"correct":2,"trial_type":"three-arm-trial","trial_index":156,"time_elapsed":992688,"internal_node_id":"0.0-89.0-0.0","task_version":"screening-mturk","missing":false,"accuracy":1},{"contexts":["red","blue","green"],"outcomes":[0,0,1],"key":38,"choice":1,"rt":199.4249999988824,"outcome":0,"trial":84,"correct":2,"trial_type":"three-arm-trial","trial_index":157,"time_elapsed":994092,"internal_node_id":"0.0-90.0-0.0","task_version":"screening-mturk","missing":false,"accuracy":0},{"contexts":["red","blue","green"],"outcomes":[0,0,1],"key":null,"rt":null,"trial":85,"correct":2,"trial_type":"three-arm-trial","trial_index":158,"time_elapsed":1009099,"internal_node_id":"0.0-91.0-0.0","task_version":"screening-mturk","missing":true},{"contexts":["red","blue","green"],"outcomes":[0,0,1],"key":38,"choice":1,"rt":2644.9649999995017,"outcome":0,"trial":85,"correct":2,"trial_type":"three-arm-trial","trial_index":159,"time_elapsed":1012957,"internal_node_id":"0.0-91.1-0.1","task_version":"screening-mturk","missing":false,"accuracy":0},{"contexts":["red","blue","green"],"outcomes":[0,0,1],"key":37,"choice":0,"rt":40.08499999868218,"outcome":0,"trial":86,"correct":2,"trial_type":"three-arm-trial","trial_index":160,"time_elapsed":1014212,"internal_node_id":"0.0-92.0-0.0","task_version":"screening-mturk","missing":false,"accuracy":0},{"contexts":["red","blue","green"],"outcomes":[0,0,0],"key":39,"choice":2,"rt":499.0500000003958,"outcome":0,"trial":87,"correct":2,"trial_type":"three-arm-trial","trial_index":161,"time_elapsed":1015917,"internal_node_id":"0.0-93.0-0.0","task_version":"screening-mturk","missing":false,"accuracy":1},{"contexts":["red","blue","green"],"outcomes":[0,0,1],"key":38,"choice":1,"rt":67.14500000094995,"outcome":0,"trial":88,"correct":2,"trial_type":"three-arm-trial","trial_index":162,"time_elapsed":1017188,"internal_node_id":"0.0-94.0-0.0","task_version":"screening-mturk","missing":false,"accuracy":0},{"contexts":["red","blue","green"],"outcomes":[0,0,1],"key":37,"choice":0,"rt":214.5700000001816,"outcome":0,"trial":89,"correct":2,"trial_type":"three-arm-trial","trial_index":163,"time_elapsed":1018613,"internal_node_id":"0.0-95.0-0.0","task_version":"screening-mturk","missing":false,"accuracy":0},{"contexts":["red","blue","green"],"outcomes":[1,0,1],"key":39,"choice":2,"rt":1080.6350000002421,"outcome":1,"trial":90,"correct":2,"trial_type":"three-arm-trial","trial_index":164,"time_elapsed":1020899,"internal_node_id":"0.0-96.0-0.0","task_version":"screening-mturk","missing":false,"accuracy":1},{"rt":19673.255000001518,"responses":{"age":"45","gender-categorical":"Female","gender-free-response":"","ethnicity":"Hispanic or Latino","race":["White"],"language":"Yes","fluency":"Very well","prolific":"Yes","prolific-this-study":"Yes"},"survey":"demographics","trial_type":"survey-demo","trial_index":165,"time_elapsed":1040587,"internal_node_id":"0.0-97.0","task_version":"screening-mturk","interactions":"[{\"event\":\"blur\",\"trial\":31,\"time\":349427},{\"event\":\"focus\",\"trial\":31,\"time\":352806},{\"event\":\"blur\",\"trial\":53,\"time\":511228},{\"event\":\"focus\",\"trial\":53,\"time\":514998},{\"event\":\"blur\",\"trial\":59,\"time\":550768},{\"event\":\"focus\",\"trial\":59,\"time\":578821},{\"event\":\"blur\",\"trial\":71,\"time\":666751},{\"event\":\"focus\",\"trial\":71,\"time\":687558},{\"event\":\"blur\",\"trial\":128,\"time\":936849},{\"event\":\"focus\",\"trial\":128,\"time\":940638}]"}]