[{"responses":{"Q08":"3","Q02":"3","Q01":"3","Q06":"3","Q03":"3","Q04":"3","Q14":"3","Q12":"3","Q10":"3","Q09":"2","Q13":"3","Q15":"3","Q07":"3","Q11":"3","Q05":"3"},"rt":50205.72000002721,"survey":"shaps","trial_type":"survey-template","trial_index":0,"time_elapsed":50244,"internal_node_id":"0.0-0.0","task_version":"screening-mturk"},{"responses":{"Q02":"0","Q05":"0","Q07":"0","Q03":"0","Q01":"0","Q06":"0","Q08":"0","Q04":"0"},"rt":14136.064999969676,"survey":"gad7","trial_type":"survey-template","trial_index":1,"time_elapsed":64435,"internal_node_id":"0.0-1.0","task_version":"screening-mturk"},{"responses":{"Q03":"0","Q01":"0","Q02":"0"},"rt":4432.7850000117905,"survey":"pswq","trial_type":"survey-template","trial_index":2,"time_elapsed":68903,"internal_node_id":"0.0-2.0","task_version":"screening-mturk"},{"responses":{"Q15":"0","Q11":"0","Q10":"0","Q13":"0","Q07":"0","Q05":"0","Q02":"0","Q06":"0","Q08":"0","Q14":"0","Q01":"0","Q04":"0","Q12":"0","Q09":"0","Q03":"0"},"rt":48265.6100000022,"survey":"7up7down","trial_type":"survey-template","trial_index":3,"time_elapsed":117214,"internal_node_id":"0.0-3.0","task_version":"screening-mturk"},{"responses":{"Q08":"2","Q05":"3","Q13":"2","Q12":"2","Q09":"2","Q11":"3","Q01":"2","Q02":"0","Q07":"3","Q03":"0","Q06":"3","Q10":"3","Q04":"1"},"rt":39522.49999996275,"survey":"bisbas","trial_type":"survey-template","trial_index":4,"time_elapsed":156789,"internal_node_id":"0.0-4.0","task_version":"screening-mturk"},{"view_history":"[{\"page_index\":0,\"viewing_time\":7590.634999971371},{\"page_index\":1,\"viewing_time\":11267.350000038277},{\"page_index\":2,\"viewing_time\":9403.619999997318},{\"page_index\":3,\"viewing_time\":35932.10500001442},{\"page_index\":4,\"viewing_time\":22360.8499999973},{\"page_index\":5,\"viewing_time\":109390.0549999671},{\"page_index\":6,\"viewing_time\":7387.095000012778},{\"page_index\":7,\"viewing_time\":7453.205000027083}]","rt":210805.01999997068,"trial_type":"instructions","trial_index":5,"time_elapsed":367635,"internal_node_id":"0.0-5.0-0.0","task_version":"screening-mturk"},{"responses":["True","True","False","False","True"],"num_errors":0,"rt":35444.45499998983,"trial_type":"three-arm-comprehension","trial_index":6,"time_elapsed":403102,"internal_node_id":"0.0-5.0-1.0","task_version":"screening-mturk"},{"view_history":"[{\"page_index\":0,\"viewing_time\":29058.845000050496}]","rt":29062.010000052396,"trial_type":"instructions","trial_index":7,"time_elapsed":432252,"internal_node_id":"0.0-6.0","task_version":"screening-mturk"},{"contexts":["green","red","blue"],"outcomes":[1,0,0],"key":null,"rt":null,"trial":1,"correct":0,"trial_type":"three-arm-trial","trial_index":8,"time_elapsed":447263,"internal_node_id":"0.0-7.0-0.0","task_version":"screening-mturk","missing":true},{"contexts":["green","red","blue"],"outcomes":[1,0,0],"key":null,"rt":null,"trial":1,"correct":0,"trial_type":"three-arm-trial","trial_index":9,"time_elapsed":462272,"internal_node_id":"0.0-7.1-0.1","task_version":"screening-mturk","missing":true},{"contexts":["green","red","blue"],"outcomes":[1,0,0],"key":37,"choice":0,"rt":3847.2750000073574,"outcome":1,"trial":1,"correct":0,"trial_type":"three-arm-trial","trial_index":10,"time_elapsed":467324,"internal_node_id":"0.0-7.2-0.2","task_version":"screening-mturk","missing":false,"accuracy":1},{"contexts":["green","red","blue"],"outcomes":[1,0,0],"key":37,"choice":0,"rt":1508.7749999947846,"outcome":1,"trial":2,"correct":0,"trial_type":"three-arm-trial","trial_index":11,"time_elapsed":470077,"internal_node_id":"0.0-8.0-0.0","task_version":"screening-mturk","missing":false,"accuracy":1},{"contexts":["green","red","blue"],"outcomes":[1,1,1],"key":37,"choice":0,"rt":441.43000000622123,"outcome":1,"trial":3,"correct":0,"trial_type":"three-arm-trial","trial_index":12,"time_elapsed":471761,"internal_node_id":"0.0-9.0-0.0","task_version":"screening-mturk","missing":false,"accuracy":1},{"contexts":["green","red","blue"],"outcomes":[1,0,0],"key":37,"choice":0,"rt":282.8000000445172,"outcome":1,"trial":4,"correct":0,"trial_type":"three-arm-trial","trial_index":13,"time_elapsed":473284,"internal_node_id":"0.0-10.0-0.0","task_version":"screening-mturk","missing":false,"accuracy":1},{"contexts":["green","red","blue"],"outcomes":[1,0,0],"key":37,"choice":0,"rt":59.56500000320375,"outcome":1,"trial":5,"correct":0,"trial_type":"three-arm-trial","trial_index":14,"time_elapsed":474590,"internal_node_id":"0.0-11.0-0.0","task_version":"screening-mturk","missing":false,"accuracy":1},{"contexts":["green","red","blue"],"outcomes":[1,0,0],"key":37,"choice":0,"rt":0.5649999948218465,"outcome":1,"trial":6,"correct":0,"trial_type":"three-arm-trial","trial_index":15,"time_elapsed":475845,"internal_node_id":"0.0-12.0-0.0","task_version":"screening-mturk","missing":false,"accuracy":1},{"contexts":["green","red","blue"],"outcomes":[1,0,0],"key":37,"choice":0,"rt":446.6000000247732,"outcome":1,"trial":7,"correct":0,"trial_type":"three-arm-trial","trial_index":16,"time_elapsed":477547,"internal_node_id":"0.0-13.0-0.0","task_version":"screening-mturk","missing":false,"accuracy":1},{"contexts":["green","red","blue"],"outcomes":[0,0,0],"key":37,"choice":0,"rt":135.93499996932223,"outcome":0,"trial":8,"correct":0,"trial_type":"three-arm-trial","trial_index":17,"time_elapsed":478971,"internal_node_id":"0.0-14.0-0.0","task_version":"screening-mturk","missing":false,"accuracy":1},{"contexts":["green","red","blue"],"outcomes":[1,0,0],"key":37,"choice":0,"rt":849.8350000008941,"outcome":1,"trial":9,"correct":0,"trial_type":"three-arm-trial","trial_index":18,"time_elapsed":481142,"internal_node_id":"0.0-15.0-0.0","task_version":"screening-mturk","missing":false,"accuracy":1},{"contexts":["green","red","blue"],"outcomes":[1,1,0],"key":37,"choice":0,"rt":63.88500001048669,"outcome":1,"trial":10,"correct":0,"trial_type":"three-arm-trial","trial_index":19,"time_elapsed":482447,"internal_node_id":"0.0-16.0-0.0","task_version":"screening-mturk","missing":false,"accuracy":1},{"contexts":["green","red","blue"],"outcomes":[1,1,0],"key":37,"choice":0,"rt":186.4449999993667,"outcome":1,"trial":11,"correct":0,"trial_type":"three-arm-trial","trial_index":20,"time_elapsed":483880,"internal_node_id":"0.0-17.0-0.0","task_version":"screening-mturk","missing":false,"accuracy":1},{"contexts":["green","red","blue"],"outcomes":[1,0,0],"key":37,"choice":0,"rt":11.225000023841858,"outcome":1,"trial":12,"correct":0,"trial_type":"three-arm-trial","trial_index":21,"time_elapsed":485139,"internal_node_id":"0.0-18.0-0.0","task_version":"screening-mturk","missing":false,"accuracy":1},{"contexts":["green","red","blue"],"outcomes":[1,0,0],"key":37,"choice":0,"rt":134.470000048168,"outcome":1,"trial":13,"correct":0,"trial_type":"three-arm-trial","trial_index":22,"time_elapsed":486536,"internal_node_id":"0.0-19.0-0.0","task_version":"screening-mturk","missing":false,"accuracy":1},{"contexts":["green","red","blue"],"outcomes":[0,0,0],"key":37,"choice":0,"rt":75.60999999986961,"outcome":0,"trial":14,"correct":0,"trial_type":"three-arm-trial","trial_index":23,"time_elapsed":487859,"internal_node_id":"0.0-20.0-0.0","task_version":"screening-mturk","missing":false,"accuracy":1},{"contexts":["green","red","blue"],"outcomes":[1,0,0],"key":37,"choice":0,"rt":96.89500002423301,"outcome":1,"trial":15,"correct":0,"trial_type":"three-arm-trial","trial_index":24,"time_elapsed":489199,"internal_node_id":"0.0-21.0-0.0","task_version":"screening-mturk","missing":false,"accuracy":1},{"contexts":["green","red","blue"],"outcomes":[0,1,0],"key":37,"choice":0,"rt":44.01499999221414,"outcome":0,"trial":16,"correct":2,"trial_type":"three-arm-trial","trial_index":25,"time_elapsed":490491,"internal_node_id":"0.0-22.0-0.0","task_version":"screening-mturk","missing":false,"accuracy":0},{"contexts":["green","red","blue"],"outcomes":[0,1,0],"key":39,"choice":2,"rt":171.7400000197813,"outcome":0,"trial":17,"correct":2,"trial_type":"three-arm-trial","trial_index":26,"time_elapsed":491900,"internal_node_id":"0.0-23.0-0.0","task_version":"screening-mturk","missing":false,"accuracy":1},{"contexts":["green","red","blue"],"outcomes":[1,0,1],"key":38,"choice":1,"rt":10.919999971520156,"outcome":0,"trial":18,"correct":2,"trial_type":"three-arm-trial","trial_index":27,"time_elapsed":493147,"internal_node_id":"0.0-24.0-0.0","task_version":"screening-mturk","missing":false,"accuracy":0},{"contexts":["green","red","blue"],"outcomes":[0,0,1],"key":37,"choice":0,"rt":210.5849999934435,"outcome":0,"trial":19,"correct":2,"trial_type":"three-arm-trial","trial_index":28,"time_elapsed":494605,"internal_node_id":"0.0-25.0-0.0","task_version":"screening-mturk","missing":false,"accuracy":0},{"contexts":["green","red","blue"],"outcomes":[0,0,0],"key":38,"choice":1,"rt":0.5549999768845737,"outcome":0,"trial":20,"correct":2,"trial_type":"three-arm-trial","trial_index":29,"time_elapsed":495855,"internal_node_id":"0.0-26.0-0.0","task_version":"screening-mturk","missing":false,"accuracy":0},{"contexts":["green","red","blue"],"outcomes":[0,0,1],"key":38,"choice":1,"rt":1940.4750000103377,"outcome":0,"trial":21,"correct":2,"trial_type":"three-arm-trial","trial_index":30,"time_elapsed":499036,"internal_node_id":"0.0-27.0-0.0","task_version":"screening-mturk","missing":false,"accuracy":0},{"contexts":["green","red","blue"],"outcomes":[0,1,0],"key":39,"choice":2,"rt":85.300000035204,"outcome":0,"trial":22,"correct":2,"trial_type":"three-arm-trial","trial_index":31,"time_elapsed":500353,"internal_node_id":"0.0-28.0-0.0","task_version":"screening-mturk","missing":false,"accuracy":1},{"contexts":["green","red","blue"],"outcomes":[0,0,0],"key":39,"choice":2,"rt":129.19999996665865,"outcome":0,"trial":23,"correct":2,"trial_type":"three-arm-trial","trial_index":32,"time_elapsed":501722,"internal_node_id":"0.0-29.0-0.0","task_version":"screening-mturk","missing":false,"accuracy":1},{"contexts":["green","red","blue"],"outcomes":[0,0,1],"key":39,"choice":2,"rt":14.779999968595803,"outcome":1,"trial":24,"correct":2,"trial_type":"three-arm-trial","trial_index":33,"time_elapsed":502968,"internal_node_id":"0.0-30.0-0.0","task_version":"screening-mturk","missing":false,"accuracy":1},{"contexts":["green","red","blue"],"outcomes":[1,0,1],"key":39,"choice":2,"rt":1.4199999859556556,"outcome":1,"trial":25,"correct":2,"trial_type":"three-arm-trial","trial_index":34,"time_elapsed":504251,"internal_node_id":"0.0-31.0-0.0","task_version":"screening-mturk","missing":false,"accuracy":1},{"contexts":["green","red","blue"],"outcomes":[0,1,1],"key":39,"choice":2,"rt":68.21999995736405,"outcome":1,"trial":26,"correct":2,"trial_type":"three-arm-trial","trial_index":35,"time_elapsed":505576,"internal_node_id":"0.0-32.0-0.0","task_version":"screening-mturk","missing":false,"accuracy":1},{"contexts":["green","red","blue"],"outcomes":[1,0,1],"key":39,"choice":2,"rt":178.76999999862164,"outcome":1,"trial":27,"correct":2,"trial_type":"three-arm-trial","trial_index":36,"time_elapsed":506988,"internal_node_id":"0.0-33.0-0.0","task_version":"screening-mturk","missing":false,"accuracy":1},{"contexts":["green","red","blue"],"outcomes":[1,1,0],"key":39,"choice":2,"rt":0.6050000083632767,"outcome":0,"trial":28,"correct":2,"trial_type":"three-arm-trial","trial_index":37,"time_elapsed":508238,"internal_node_id":"0.0-34.0-0.0","task_version":"screening-mturk","missing":false,"accuracy":1},{"contexts":["green","red","blue"],"outcomes":[0,1,1],"key":37,"choice":0,"rt":29.150000016670674,"outcome":0,"trial":29,"correct":2,"trial_type":"three-arm-trial","trial_index":38,"time_elapsed":509509,"internal_node_id":"0.0-35.0-0.0","task_version":"screening-mturk","missing":false,"accuracy":0},{"contexts":["green","red","blue"],"outcomes":[0,0,1],"key":37,"choice":0,"rt":25.599999993573874,"outcome":0,"trial":30,"correct":2,"trial_type":"three-arm-trial","trial_index":39,"time_elapsed":510778,"internal_node_id":"0.0-36.0-0.0","task_version":"screening-mturk","missing":false,"accuracy":0},{"contexts":["green","red","blue"],"outcomes":[1,0,0],"key":37,"choice":0,"rt":712.2000000090338,"outcome":1,"trial":31,"correct":0,"trial_type":"three-arm-trial","trial_index":40,"time_elapsed":512735,"internal_node_id":"0.0-37.0-0.0","task_version":"screening-mturk","missing":false,"accuracy":1},{"contexts":["green","red","blue"],"outcomes":[0,0,1],"key":37,"choice":0,"rt":55.22000003838912,"outcome":0,"trial":32,"correct":0,"trial_type":"three-arm-trial","trial_index":41,"time_elapsed":514031,"internal_node_id":"0.0-38.0-0.0","task_version":"screening-mturk","missing":false,"accuracy":1},{"contexts":["green","red","blue"],"outcomes":[1,0,0],"key":39,"choice":2,"rt":598.5850000288337,"outcome":0,"trial":33,"correct":0,"trial_type":"three-arm-trial","trial_index":42,"time_elapsed":515859,"internal_node_id":"0.0-39.0-0.0","task_version":"screening-mturk","missing":false,"accuracy":0},{"contexts":["green","red","blue"],"outcomes":[0,0,0],"key":39,"choice":2,"rt":72.11499998811632,"outcome":0,"trial":34,"correct":0,"trial_type":"three-arm-trial","trial_index":43,"time_elapsed":517173,"internal_node_id":"0.0-40.0-0.0","task_version":"screening-mturk","missing":false,"accuracy":0},{"contexts":["green","red","blue"],"outcomes":[1,0,0],"key":37,"choice":0,"rt":46.95500002708286,"outcome":1,"trial":35,"correct":0,"trial_type":"three-arm-trial","trial_index":44,"time_elapsed":518466,"internal_node_id":"0.0-41.0-0.0","task_version":"screening-mturk","missing":false,"accuracy":1},{"contexts":["green","red","blue"],"outcomes":[0,0,1],"key":37,"choice":0,"rt":1.0149999870918691,"outcome":0,"trial":36,"correct":0,"trial_type":"three-arm-trial","trial_index":45,"time_elapsed":519730,"internal_node_id":"0.0-42.0-0.0","task_version":"screening-mturk","missing":false,"accuracy":1},{"contexts":["green","red","blue"],"outcomes":[1,0,1],"key":37,"choice":0,"rt":128.89000005088747,"outcome":1,"trial":37,"correct":0,"trial_type":"three-arm-trial","trial_index":46,"time_elapsed":521104,"internal_node_id":"0.0-43.0-0.0","task_version":"screening-mturk","missing":false,"accuracy":1},{"contexts":["green","red","blue"],"outcomes":[0,0,0],"key":37,"choice":0,"rt":102.11999999592081,"outcome":0,"trial":38,"correct":0,"trial_type":"three-arm-trial","trial_index":47,"time_elapsed":522443,"internal_node_id":"0.0-44.0-0.0","task_version":"screening-mturk","missing":false,"accuracy":1},{"contexts":["green","red","blue"],"outcomes":[1,0,0],"key":37,"choice":0,"rt":159.92000000551343,"outcome":1,"trial":39,"correct":0,"trial_type":"three-arm-trial","trial_index":48,"time_elapsed":523843,"internal_node_id":"0.0-45.0-0.0","task_version":"screening-mturk","missing":false,"accuracy":1},{"contexts":["green","red","blue"],"outcomes":[1,0,0],"key":37,"choice":0,"rt":152.99500001128763,"outcome":1,"trial":40,"correct":0,"trial_type":"three-arm-trial","trial_index":49,"time_elapsed":525249,"internal_node_id":"0.0-46.0-0.0","task_version":"screening-mturk","missing":false,"accuracy":1},{"contexts":["green","red","blue"],"outcomes":[1,0,0],"key":37,"choice":0,"rt":49.294999975245446,"outcome":1,"trial":41,"correct":0,"trial_type":"three-arm-trial","trial_index":50,"time_elapsed":526544,"internal_node_id":"0.0-47.0-0.0","task_version":"screening-mturk","missing":false,"accuracy":1},{"contexts":["green","red","blue"],"outcomes":[1,0,0],"key":37,"choice":0,"rt":150.28499998152256,"outcome":1,"trial":42,"correct":0,"trial_type":"three-arm-trial","trial_index":51,"time_elapsed":527937,"internal_node_id":"0.0-48.0-0.0","task_version":"screening-mturk","missing":false,"accuracy":1},{"contexts":["green","red","blue"],"outcomes":[1,0,1],"key":37,"choice":0,"rt":153.04500004276633,"outcome":1,"trial":43,"correct":0,"trial_type":"three-arm-trial","trial_index":52,"time_elapsed":529338,"internal_node_id":"0.0-49.0-0.0","task_version":"screening-mturk","missing":false,"accuracy":1},{"contexts":["green","red","blue"],"outcomes":[1,0,0],"key":37,"choice":0,"rt":720.0900000170805,"outcome":1,"trial":44,"correct":0,"trial_type":"three-arm-trial","trial_index":53,"time_elapsed":531308,"internal_node_id":"0.0-50.0-0.0","task_version":"screening-mturk","missing":false,"accuracy":1},{"contexts":["green","red","blue"],"outcomes":[1,0,0],"key":37,"choice":0,"rt":1697.0800000126474,"outcome":1,"trial":45,"correct":0,"trial_type":"three-arm-trial","trial_index":54,"time_elapsed":534250,"internal_node_id":"0.0-51.0-0.0","task_version":"screening-mturk","missing":false,"accuracy":1},{"contexts":["green","red","blue"],"outcomes":[0,1,0],"key":37,"choice":0,"rt":0.5249999812804163,"outcome":0,"trial":46,"correct":1,"trial_type":"three-arm-trial","trial_index":55,"time_elapsed":535492,"internal_node_id":"0.0-52.0-0.0","task_version":"screening-mturk","missing":false,"accuracy":0},{"contexts":["green","red","blue"],"outcomes":[0,1,0],"key":37,"choice":0,"rt":738.6650000116788,"outcome":0,"trial":47,"correct":1,"trial_type":"three-arm-trial","trial_index":56,"time_elapsed":537483,"internal_node_id":"0.0-53.0-0.0","task_version":"screening-mturk","missing":false,"accuracy":0},{"contexts":["green","red","blue"],"outcomes":[0,1,0],"key":37,"choice":0,"rt":440.69999997736886,"outcome":0,"trial":48,"correct":1,"trial_type":"three-arm-trial","trial_index":57,"time_elapsed":539167,"internal_node_id":"0.0-54.0-0.0","task_version":"screening-mturk","missing":false,"accuracy":0},{"contexts":["green","red","blue"],"outcomes":[1,1,0],"key":37,"choice":0,"rt":204.66499996837229,"outcome":1,"trial":49,"correct":1,"trial_type":"three-arm-trial","trial_index":58,"time_elapsed":540618,"internal_node_id":"0.0-55.0-0.0","task_version":"screening-mturk","missing":false,"accuracy":0},{"contexts":["green","red","blue"],"outcomes":[0,0,0],"key":37,"choice":0,"rt":0.6000000284984708,"outcome":0,"trial":50,"correct":1,"trial_type":"three-arm-trial","trial_index":59,"time_elapsed":541860,"internal_node_id":"0.0-56.0-0.0","task_version":"screening-mturk","missing":false,"accuracy":0},{"contexts":["green","red","blue"],"outcomes":[0,1,0],"key":37,"choice":0,"rt":483.6500000092201,"outcome":0,"trial":51,"correct":1,"trial_type":"three-arm-trial","trial_index":60,"time_elapsed":543586,"internal_node_id":"0.0-57.0-0.0","task_version":"screening-mturk","missing":false,"accuracy":0},{"contexts":["green","red","blue"],"outcomes":[0,1,0],"key":37,"choice":0,"rt":217.44000003673136,"outcome":0,"trial":52,"correct":1,"trial_type":"three-arm-trial","trial_index":61,"time_elapsed":545049,"internal_node_id":"0.0-58.0-0.0","task_version":"screening-mturk","missing":false,"accuracy":0},{"contexts":["green","red","blue"],"outcomes":[0,1,0],"key":37,"choice":0,"rt":284.5550000201911,"outcome":0,"trial":53,"correct":1,"trial_type":"three-arm-trial","trial_index":62,"time_elapsed":546575,"internal_node_id":"0.0-59.0-0.0","task_version":"screening-mturk","missing":false,"accuracy":0},{"contexts":["green","red","blue"],"outcomes":[0,0,0],"key":37,"choice":0,"rt":33.4900000016205,"outcome":0,"trial":54,"correct":1,"trial_type":"three-arm-trial","trial_index":63,"time_elapsed":547873,"internal_node_id":"0.0-60.0-0.0","task_version":"screening-mturk","missing":false,"accuracy":0},{"contexts":["green","red","blue"],"outcomes":[0,1,0],"key":39,"choice":2,"rt":934.0599999995902,"outcome":0,"trial":55,"correct":1,"trial_type":"three-arm-trial","trial_index":64,"time_elapsed":550112,"internal_node_id":"0.0-61.0-0.0","task_version":"screening-mturk","missing":false,"accuracy":0},{"contexts":["green","red","blue"],"outcomes":[0,1,0],"key":38,"choice":1,"rt":75.81499998923391,"outcome":1,"trial":56,"correct":1,"trial_type":"three-arm-trial","trial_index":65,"time_elapsed":551420,"internal_node_id":"0.0-62.0-0.0","task_version":"screening-mturk","missing":false,"accuracy":1},{"contexts":["green","red","blue"],"outcomes":[1,1,0],"key":38,"choice":1,"rt":896.5249999891967,"outcome":1,"trial":57,"correct":1,"trial_type":"three-arm-trial","trial_index":66,"time_elapsed":553563,"internal_node_id":"0.0-63.0-0.0","task_version":"screening-mturk","missing":false,"accuracy":1},{"contexts":["green","red","blue"],"outcomes":[0,1,1],"key":38,"choice":1,"rt":274.3950000149198,"outcome":1,"trial":58,"correct":1,"trial_type":"three-arm-trial","trial_index":67,"time_elapsed":555068,"internal_node_id":"0.0-64.0-0.0","task_version":"screening-mturk","missing":false,"accuracy":1},{"contexts":["green","red","blue"],"outcomes":[0,1,0],"key":38,"choice":1,"rt":118.82500001229346,"outcome":1,"trial":59,"correct":1,"trial_type":"three-arm-trial","trial_index":68,"time_elapsed":556417,"internal_node_id":"0.0-65.0-0.0","task_version":"screening-mturk","missing":false,"accuracy":1},{"contexts":["green","red","blue"],"outcomes":[0,1,0],"key":38,"choice":1,"rt":18.964999995660037,"outcome":1,"trial":60,"correct":1,"trial_type":"three-arm-trial","trial_index":69,"time_elapsed":557679,"internal_node_id":"0.0-66.0-0.0","task_version":"screening-mturk","missing":false,"accuracy":1},{"contexts":["green","red","blue"],"outcomes":[0,0,1],"key":38,"choice":1,"rt":0.29499997617676854,"outcome":0,"trial":61,"correct":2,"trial_type":"three-arm-trial","trial_index":70,"time_elapsed":558917,"internal_node_id":"0.0-67.0-0.0","task_version":"screening-mturk","missing":false,"accuracy":0},{"contexts":["green","red","blue"],"outcomes":[0,0,1],"key":37,"choice":0,"rt":258.78000003285706,"outcome":0,"trial":62,"correct":2,"trial_type":"three-arm-trial","trial_index":71,"time_elapsed":560429,"internal_node_id":"0.0-68.0-0.0","task_version":"screening-mturk","missing":false,"accuracy":0},{"contexts":["green","red","blue"],"outcomes":[0,0,0],"key":38,"choice":1,"rt":429.82000001939014,"outcome":0,"trial":63,"correct":2,"trial_type":"three-arm-trial","trial_index":72,"time_elapsed":562155,"internal_node_id":"0.0-69.0-0.0","task_version":"screening-mturk","missing":false,"accuracy":0},{"contexts":["green","red","blue"],"outcomes":[0,0,0],"key":38,"choice":1,"rt":3.7399999564513564,"outcome":0,"trial":64,"correct":2,"trial_type":"three-arm-trial","trial_index":73,"time_elapsed":563429,"internal_node_id":"0.0-70.0-0.0","task_version":"screening-mturk","missing":false,"accuracy":0},{"contexts":["green","red","blue"],"outcomes":[0,0,1],"key":38,"choice":1,"rt":76.69000001624227,"outcome":0,"trial":65,"correct":2,"trial_type":"three-arm-trial","trial_index":74,"time_elapsed":564746,"internal_node_id":"0.0-71.0-0.0","task_version":"screening-mturk","missing":false,"accuracy":0},{"contexts":["green","red","blue"],"outcomes":[0,0,1],"key":37,"choice":0,"rt":50.21000001579523,"outcome":0,"trial":66,"correct":2,"trial_type":"three-arm-trial","trial_index":75,"time_elapsed":566043,"internal_node_id":"0.0-72.0-0.0","task_version":"screening-mturk","missing":false,"accuracy":0},{"contexts":["green","red","blue"],"outcomes":[0,0,1],"key":37,"choice":0,"rt":24.08499998273328,"outcome":0,"trial":67,"correct":2,"trial_type":"three-arm-trial","trial_index":76,"time_elapsed":567318,"internal_node_id":"0.0-73.0-0.0","task_version":"screening-mturk","missing":false,"accuracy":0},{"contexts":["green","red","blue"],"outcomes":[0,0,0],"key":37,"choice":0,"rt":105.05000001285225,"outcome":0,"trial":68,"correct":2,"trial_type":"three-arm-trial","trial_index":77,"time_elapsed":568661,"internal_node_id":"0.0-74.0-0.0","task_version":"screening-mturk","missing":false,"accuracy":0},{"contexts":["green","red","blue"],"outcomes":[1,0,1],"key":37,"choice":0,"rt":0.5050000036135316,"outcome":1,"trial":69,"correct":2,"trial_type":"three-arm-trial","trial_index":78,"time_elapsed":569899,"internal_node_id":"0.0-75.0-0.0","task_version":"screening-mturk","missing":false,"accuracy":0},{"contexts":["green","red","blue"],"outcomes":[0,0,1],"key":37,"choice":0,"rt":72.65500002540648,"outcome":0,"trial":70,"correct":2,"trial_type":"three-arm-trial","trial_index":79,"time_elapsed":571204,"internal_node_id":"0.0-76.0-0.0","task_version":"screening-mturk","missing":false,"accuracy":0},{"contexts":["green","red","blue"],"outcomes":[0,0,1],"key":37,"choice":0,"rt":204.9849999602884,"outcome":0,"trial":71,"correct":2,"trial_type":"three-arm-trial","trial_index":80,"time_elapsed":572652,"internal_node_id":"0.0-77.0-0.0","task_version":"screening-mturk","missing":false,"accuracy":0},{"contexts":["green","red","blue"],"outcomes":[1,1,1],"key":37,"choice":0,"rt":155.5549999466166,"outcome":1,"trial":72,"correct":2,"trial_type":"three-arm-trial","trial_index":81,"time_elapsed":574054,"internal_node_id":"0.0-78.0-0.0","task_version":"screening-mturk","missing":false,"accuracy":0},{"contexts":["green","red","blue"],"outcomes":[0,1,0],"key":37,"choice":0,"rt":3.6850000033155084,"outcome":0,"trial":73,"correct":2,"trial_type":"three-arm-trial","trial_index":82,"time_elapsed":575286,"internal_node_id":"0.0-79.0-0.0","task_version":"screening-mturk","missing":false,"accuracy":0},{"contexts":["green","red","blue"],"outcomes":[0,0,1],"key":37,"choice":0,"rt":10.669999988749623,"outcome":0,"trial":74,"correct":2,"trial_type":"three-arm-trial","trial_index":83,"time_elapsed":576543,"internal_node_id":"0.0-80.0-0.0","task_version":"screening-mturk","missing":false,"accuracy":0},{"contexts":["green","red","blue"],"outcomes":[0,0,1],"key":37,"choice":0,"rt":0.5600000149570405,"outcome":0,"trial":75,"correct":2,"trial_type":"three-arm-trial","trial_index":84,"time_elapsed":577786,"internal_node_id":"0.0-81.0-0.0","task_version":"screening-mturk","missing":false,"accuracy":0},{"contexts":["green","red","blue"],"outcomes":[1,1,0],"key":37,"choice":0,"rt":0.4600000102072954,"outcome":1,"trial":76,"correct":1,"trial_type":"three-arm-trial","trial_index":85,"time_elapsed":579028,"internal_node_id":"0.0-82.0-0.0","task_version":"screening-mturk","missing":false,"accuracy":0},{"contexts":["green","red","blue"],"outcomes":[0,1,0],"key":37,"choice":0,"rt":324.4050000212155,"outcome":0,"trial":77,"correct":1,"trial_type":"three-arm-trial","trial_index":86,"time_elapsed":580608,"internal_node_id":"0.0-83.0-0.0","task_version":"screening-mturk","missing":false,"accuracy":0},{"contexts":["green","red","blue"],"outcomes":[0,1,0],"key":37,"choice":0,"rt":0.5200000014156103,"outcome":0,"trial":78,"correct":1,"trial_type":"three-arm-trial","trial_index":87,"time_elapsed":581950,"internal_node_id":"0.0-84.0-0.0","task_version":"screening-mturk","missing":false,"accuracy":0},{"contexts":["green","red","blue"],"outcomes":[0,0,0],"key":38,"choice":1,"rt":326.37999998405576,"outcome":0,"trial":79,"correct":1,"trial_type":"three-arm-trial","trial_index":88,"time_elapsed":583513,"internal_node_id":"0.0-85.0-0.0","task_version":"screening-mturk","missing":false,"accuracy":1},{"contexts":["green","red","blue"],"outcomes":[0,0,0],"key":39,"choice":2,"rt":257.61500000953674,"outcome":0,"trial":80,"correct":1,"trial_type":"three-arm-trial","trial_index":89,"time_elapsed":585009,"internal_node_id":"0.0-86.0-0.0","task_version":"screening-mturk","missing":false,"accuracy":0},{"contexts":["green","red","blue"],"outcomes":[0,1,0],"key":37,"choice":0,"rt":508.8450000039302,"outcome":0,"trial":81,"correct":1,"trial_type":"three-arm-trial","trial_index":90,"time_elapsed":586774,"internal_node_id":"0.0-87.0-0.0","task_version":"screening-mturk","missing":false,"accuracy":0},{"contexts":["green","red","blue"],"outcomes":[0,1,0],"key":38,"choice":1,"rt":260.51499997265637,"outcome":1,"trial":82,"correct":1,"trial_type":"three-arm-trial","trial_index":91,"time_elapsed":588276,"internal_node_id":"0.0-88.0-0.0","task_version":"screening-mturk","missing":false,"accuracy":1},{"contexts":["green","red","blue"],"outcomes":[0,0,0],"key":38,"choice":1,"rt":51.1450000340119,"outcome":0,"trial":83,"correct":1,"trial_type":"three-arm-trial","trial_index":92,"time_elapsed":589565,"internal_node_id":"0.0-89.0-0.0","task_version":"screening-mturk","missing":false,"accuracy":1},{"contexts":["green","red","blue"],"outcomes":[0,1,0],"key":37,"choice":0,"rt":621.7499999911524,"outcome":0,"trial":84,"correct":1,"trial_type":"three-arm-trial","trial_index":93,"time_elapsed":591422,"internal_node_id":"0.0-90.0-0.0","task_version":"screening-mturk","missing":false,"accuracy":0},{"contexts":["green","red","blue"],"outcomes":[1,1,0],"key":37,"choice":0,"rt":1.125000009778887,"outcome":1,"trial":85,"correct":1,"trial_type":"three-arm-trial","trial_index":94,"time_elapsed":592682,"internal_node_id":"0.0-91.0-0.0","task_version":"screening-mturk","missing":false,"accuracy":0},{"contexts":["green","red","blue"],"outcomes":[0,1,0],"key":37,"choice":0,"rt":581.0399999609217,"outcome":0,"trial":86,"correct":1,"trial_type":"three-arm-trial","trial_index":95,"time_elapsed":594510,"internal_node_id":"0.0-92.0-0.0","task_version":"screening-mturk","missing":false,"accuracy":0},{"contexts":["green","red","blue"],"outcomes":[0,1,0],"key":37,"choice":0,"rt":221.23000002466142,"outcome":0,"trial":87,"correct":1,"trial_type":"three-arm-trial","trial_index":96,"time_elapsed":595981,"internal_node_id":"0.0-93.0-0.0","task_version":"screening-mturk","missing":false,"accuracy":0},{"contexts":["green","red","blue"],"outcomes":[0,0,1],"key":37,"choice":0,"rt":76.28500001737848,"outcome":0,"trial":88,"correct":1,"trial_type":"three-arm-trial","trial_index":97,"time_elapsed":597299,"internal_node_id":"0.0-94.0-0.0","task_version":"screening-mturk","missing":false,"accuracy":0},{"contexts":["green","red","blue"],"outcomes":[0,1,0],"key":37,"choice":0,"rt":635.4100000462495,"outcome":0,"trial":89,"correct":1,"trial_type":"three-arm-trial","trial_index":98,"time_elapsed":599177,"internal_node_id":"0.0-95.0-0.0","task_version":"screening-mturk","missing":false,"accuracy":0},{"contexts":["green","red","blue"],"outcomes":[0,1,0],"key":38,"choice":1,"rt":405.42999998433515,"outcome":1,"trial":90,"correct":1,"trial_type":"three-arm-trial","trial_index":99,"time_elapsed":600807,"internal_node_id":"0.0-96.0-0.0","task_version":"screening-mturk","missing":false,"accuracy":1},{"rt":57650.88500001002,"responses":{"age":"33","gender-categorical":"Female","gender-free-response":"","ethnicity":"Not Hispanic or Latino","race":["White"],"language":"Yes","fluency":"Very well","prolific":"No","prolific-this-study":"No"},"survey":"demographics","trial_type":"survey-demo","trial_index":100,"time_elapsed":658780,"internal_node_id":"0.0-97.0","task_version":"screening-mturk","interactions":"[{\"event\":\"blur\",\"trial\":100,\"time\":626953},{\"event\":\"focus\",\"trial\":100,\"time\":656451}]"}]