[{"responses":{"Q12":"1","Q14":"0","Q15":"0","Q08":"2","Q06":"1","Q01":"0","Q09":"0","Q04":"0","Q07":"1","Q03":"1","Q02":"0","Q10":"1","Q13":"0","Q05":"1","Q11":"1"},"rt":343813.8999999792,"survey":"7up7down","trial_type":"survey-template","trial_index":0,"time_elapsed":343832,"internal_node_id":"0.0-0.0","task_version":"screening-mturk"},{"responses":{"Q03":"0","Q01":"1","Q02":"1"},"rt":13088.510000001406,"survey":"pswq","trial_type":"survey-template","trial_index":1,"time_elapsed":356929,"internal_node_id":"0.0-1.0","task_version":"screening-mturk"},{"responses":{"Q03":"1","Q08":"0","Q07":"0","Q06":"1","Q05":"0","Q04":"1","Q01":"0","Q02":"0"},"rt":41963.85500000906,"survey":"gad7","trial_type":"survey-template","trial_index":2,"time_elapsed":398901,"internal_node_id":"0.0-2.0","task_version":"screening-mturk"},{"responses":{"Q11":"2","Q09":"2","Q04":"3","Q12":"2","Q05":"2","Q10":"3","Q15":"2","Q14":"1","Q02":"2","Q03":"3","Q06":"2","Q01":"2","Q13":"2","Q07":"3","Q08":"2"},"rt":161998.04000000586,"survey":"shaps","trial_type":"survey-template","trial_index":3,"time_elapsed":560908,"internal_node_id":"0.0-3.0","task_version":"screening-mturk"},{"responses":{"Q12":"3","Q01":"2","Q02":"1","Q10":"2","Q03":"1","Q06":"3","Q09":"3","Q08":"2","Q05":"2","Q07":"3","Q04":"2","Q11":"2","Q13":"0"},"rt":77807.92500000098,"survey":"bisbas","trial_type":"survey-template","trial_index":4,"time_elapsed":638723,"internal_node_id":"0.0-4.0","task_version":"screening-mturk"},{"view_history":"[{\"page_index\":0,\"viewing_time\":69023.39999997639},{\"page_index\":1,\"viewing_time\":16015.540000022156},{\"page_index\":2,\"viewing_time\":20608.204999996815},{\"page_index\":3,\"viewing_time\":241279.45999999065},{\"page_index\":4,\"viewing_time\":11768.14000000013},{\"page_index\":5,\"viewing_time\":6839.9849999987055},{\"page_index\":6,\"viewing_time\":6695.860000007087},{\"page_index\":7,\"viewing_time\":6400.170000008075}]","rt":378631.939999992,"trial_type":"instructions","trial_index":5,"time_elapsed":1017360,"internal_node_id":"0.0-5.0-0.0","task_version":"screening-mturk"},{"responses":["True","True","True","False","True"],"num_errors":1,"rt":46092.754999990575,"trial_type":"three-arm-comprehension","trial_index":6,"time_elapsed":1063458,"internal_node_id":"0.0-5.0-1.0","task_version":"screening-mturk"},{"view_history":"[{\"page_index\":0,\"viewing_time\":4045.650000014575},{\"page_index\":1,\"viewing_time\":1328.1999999890104},{\"page_index\":2,\"viewing_time\":904.8100000072736},{\"page_index\":3,\"viewing_time\":1023.3099999895785},{\"page_index\":4,\"viewing_time\":767.7900000126101},{\"page_index\":5,\"viewing_time\":840.1249999878928},{\"page_index\":6,\"viewing_time\":3711.9600000150967},{\"page_index\":7,\"viewing_time\":3192.095000005793}]","rt":15814.365000027465,"trial_type":"instructions","trial_index":7,"time_elapsed":1079279,"internal_node_id":"0.0-5.1-0.1","task_version":"screening-mturk"},{"responses":["True","True","False","False","True"],"num_errors":0,"rt":29374.669999990147,"trial_type":"three-arm-comprehension","trial_index":8,"time_elapsed":1108657,"internal_node_id":"0.0-5.1-1.1","task_version":"screening-mturk"},{"view_history":"[{\"page_index\":0,\"viewing_time\":109936.40000000596}]","rt":109936.80500000482,"trial_type":"instructions","trial_index":9,"time_elapsed":1218599,"internal_node_id":"0.0-6.0","task_version":"screening-mturk"},{"contexts":["red","blue","green"],"outcomes":[1,1,0],"key":38,"choice":1,"rt":1233.9149999897927,"outcome":1,"trial":1,"correct":1,"trial_type":"three-arm-trial","trial_index":10,"time_elapsed":1221039,"internal_node_id":"0.0-7.0-0.0","task_version":"screening-mturk","missing":false,"accuracy":1},{"contexts":["red","blue","green"],"outcomes":[1,1,1],"key":37,"choice":0,"rt":1379.7450000129174,"outcome":1,"trial":2,"correct":1,"trial_type":"three-arm-trial","trial_index":11,"time_elapsed":1223629,"internal_node_id":"0.0-8.0-0.0","task_version":"screening-mturk","missing":false,"accuracy":0},{"contexts":["red","blue","green"],"outcomes":[0,1,0],"key":37,"choice":0,"rt":545.0049999926705,"outcome":0,"trial":3,"correct":1,"trial_type":"three-arm-trial","trial_index":12,"time_elapsed":1225381,"internal_node_id":"0.0-9.0-0.0","task_version":"screening-mturk","missing":false,"accuracy":0},{"contexts":["red","blue","green"],"outcomes":[0,1,0],"key":39,"choice":2,"rt":1023.3600000210572,"outcome":0,"trial":4,"correct":1,"trial_type":"three-arm-trial","trial_index":13,"time_elapsed":1227614,"internal_node_id":"0.0-10.0-0.0","task_version":"screening-mturk","missing":false,"accuracy":0},{"contexts":["red","blue","green"],"outcomes":[0,1,1],"key":38,"choice":1,"rt":569.5850000192877,"outcome":1,"trial":5,"correct":1,"trial_type":"three-arm-trial","trial_index":14,"time_elapsed":1229389,"internal_node_id":"0.0-11.0-0.0","task_version":"screening-mturk","missing":false,"accuracy":1},{"contexts":["red","blue","green"],"outcomes":[1,1,0],"key":38,"choice":1,"rt":673.9950000192039,"outcome":1,"trial":6,"correct":1,"trial_type":"three-arm-trial","trial_index":15,"time_elapsed":1231272,"internal_node_id":"0.0-12.0-0.0","task_version":"screening-mturk","missing":false,"accuracy":1},{"contexts":["red","blue","green"],"outcomes":[0,0,0],"key":37,"choice":0,"rt":349.35000000405125,"outcome":0,"trial":7,"correct":1,"trial_type":"three-arm-trial","trial_index":16,"time_elapsed":1232828,"internal_node_id":"0.0-13.0-0.0","task_version":"screening-mturk","missing":false,"accuracy":0},{"contexts":["red","blue","green"],"outcomes":[0,1,0],"key":38,"choice":1,"rt":818.3750000025611,"outcome":1,"trial":8,"correct":1,"trial_type":"three-arm-trial","trial_index":17,"time_elapsed":1234854,"internal_node_id":"0.0-14.0-0.0","task_version":"screening-mturk","missing":false,"accuracy":1},{"contexts":["red","blue","green"],"outcomes":[0,1,0],"key":38,"choice":1,"rt":456.4900000113994,"outcome":1,"trial":9,"correct":1,"trial_type":"three-arm-trial","trial_index":18,"time_elapsed":1236518,"internal_node_id":"0.0-15.0-0.0","task_version":"screening-mturk","missing":false,"accuracy":1},{"contexts":["red","blue","green"],"outcomes":[0,1,0],"key":38,"choice":1,"rt":364.69499999657273,"outcome":1,"trial":10,"correct":1,"trial_type":"three-arm-trial","trial_index":19,"time_elapsed":1238093,"internal_node_id":"0.0-16.0-0.0","task_version":"screening-mturk","missing":false,"accuracy":1},{"contexts":["red","blue","green"],"outcomes":[0,1,1],"key":38,"choice":1,"rt":673.5399999888614,"outcome":1,"trial":11,"correct":1,"trial_type":"three-arm-trial","trial_index":20,"time_elapsed":1239971,"internal_node_id":"0.0-17.0-0.0","task_version":"screening-mturk","missing":false,"accuracy":1},{"contexts":["red","blue","green"],"outcomes":[0,1,1],"key":38,"choice":1,"rt":627.7549999940675,"outcome":1,"trial":12,"correct":1,"trial_type":"three-arm-trial","trial_index":21,"time_elapsed":1241805,"internal_node_id":"0.0-18.0-0.0","task_version":"screening-mturk","missing":false,"accuracy":1},{"contexts":["red","blue","green"],"outcomes":[1,1,0],"key":38,"choice":1,"rt":474.58999999798834,"outcome":1,"trial":13,"correct":1,"trial_type":"three-arm-trial","trial_index":22,"time_elapsed":1243485,"internal_node_id":"0.0-19.0-0.0","task_version":"screening-mturk","missing":false,"accuracy":1},{"contexts":["red","blue","green"],"outcomes":[0,0,1],"key":38,"choice":1,"rt":473.8450000004377,"outcome":0,"trial":14,"correct":1,"trial_type":"three-arm-trial","trial_index":23,"time_elapsed":1245165,"internal_node_id":"0.0-20.0-0.0","task_version":"screening-mturk","missing":false,"accuracy":1},{"contexts":["red","blue","green"],"outcomes":[1,1,1],"key":39,"choice":2,"rt":280.83500001230277,"outcome":1,"trial":15,"correct":1,"trial_type":"three-arm-trial","trial_index":24,"time_elapsed":1246654,"internal_node_id":"0.0-21.0-0.0","task_version":"screening-mturk","missing":false,"accuracy":0},{"contexts":["red","blue","green"],"outcomes":[1,1,1],"key":39,"choice":2,"rt":655.7700000121258,"outcome":1,"trial":16,"correct":2,"trial_type":"three-arm-trial","trial_index":25,"time_elapsed":1248517,"internal_node_id":"0.0-22.0-0.0","task_version":"screening-mturk","missing":false,"accuracy":1},{"contexts":["red","blue","green"],"outcomes":[0,0,1],"key":39,"choice":2,"rt":352.5849999859929,"outcome":1,"trial":17,"correct":2,"trial_type":"three-arm-trial","trial_index":26,"time_elapsed":1250076,"internal_node_id":"0.0-23.0-0.0","task_version":"screening-mturk","missing":false,"accuracy":1},{"contexts":["red","blue","green"],"outcomes":[0,0,0],"key":39,"choice":2,"rt":514.8100000224076,"outcome":0,"trial":18,"correct":2,"trial_type":"three-arm-trial","trial_index":27,"time_elapsed":1251797,"internal_node_id":"0.0-24.0-0.0","task_version":"screening-mturk","missing":false,"accuracy":1},{"contexts":["red","blue","green"],"outcomes":[1,0,0],"key":37,"choice":0,"rt":750.1749999937601,"outcome":1,"trial":19,"correct":2,"trial_type":"three-arm-trial","trial_index":28,"time_elapsed":1253753,"internal_node_id":"0.0-25.0-0.0","task_version":"screening-mturk","missing":false,"accuracy":0},{"contexts":["red","blue","green"],"outcomes":[0,0,1],"key":37,"choice":0,"rt":317.9599999857601,"outcome":0,"trial":20,"correct":2,"trial_type":"three-arm-trial","trial_index":29,"time_elapsed":1255276,"internal_node_id":"0.0-26.0-0.0","task_version":"screening-mturk","missing":false,"accuracy":0},{"contexts":["red","blue","green"],"outcomes":[0,1,1],"key":38,"choice":1,"rt":787.5650000059977,"outcome":1,"trial":21,"correct":2,"trial_type":"three-arm-trial","trial_index":30,"time_elapsed":1257270,"internal_node_id":"0.0-27.0-0.0","task_version":"screening-mturk","missing":false,"accuracy":0},{"contexts":["red","blue","green"],"outcomes":[0,0,1],"key":38,"choice":1,"rt":333.4800000011455,"outcome":0,"trial":22,"correct":2,"trial_type":"three-arm-trial","trial_index":31,"time_elapsed":1258820,"internal_node_id":"0.0-28.0-0.0","task_version":"screening-mturk","missing":false,"accuracy":0},{"contexts":["red","blue","green"],"outcomes":[0,1,1],"key":39,"choice":2,"rt":275.3450000018347,"outcome":1,"trial":23,"correct":2,"trial_type":"three-arm-trial","trial_index":32,"time_elapsed":1260301,"internal_node_id":"0.0-29.0-0.0","task_version":"screening-mturk","missing":false,"accuracy":1},{"contexts":["red","blue","green"],"outcomes":[0,0,1],"key":39,"choice":2,"rt":306.56500000623055,"outcome":1,"trial":24,"correct":2,"trial_type":"three-arm-trial","trial_index":33,"time_elapsed":1261812,"internal_node_id":"0.0-30.0-0.0","task_version":"screening-mturk","missing":false,"accuracy":1},{"contexts":["red","blue","green"],"outcomes":[1,0,0],"key":39,"choice":2,"rt":624.855000001844,"outcome":0,"trial":25,"correct":2,"trial_type":"three-arm-trial","trial_index":34,"time_elapsed":1263644,"internal_node_id":"0.0-31.0-0.0","task_version":"screening-mturk","missing":false,"accuracy":1},{"contexts":["red","blue","green"],"outcomes":[0,1,1],"key":37,"choice":0,"rt":259.3449999985751,"outcome":0,"trial":26,"correct":2,"trial_type":"three-arm-trial","trial_index":35,"time_elapsed":1265108,"internal_node_id":"0.0-32.0-0.0","task_version":"screening-mturk","missing":false,"accuracy":0},{"contexts":["red","blue","green"],"outcomes":[0,1,1],"key":38,"choice":1,"rt":290.45999998925254,"outcome":1,"trial":27,"correct":2,"trial_type":"three-arm-trial","trial_index":36,"time_elapsed":1266605,"internal_node_id":"0.0-33.0-0.0","task_version":"screening-mturk","missing":false,"accuracy":0},{"contexts":["red","blue","green"],"outcomes":[0,0,1],"key":38,"choice":1,"rt":529.9850000010338,"outcome":0,"trial":28,"correct":2,"trial_type":"three-arm-trial","trial_index":37,"time_elapsed":1268340,"internal_node_id":"0.0-34.0-0.0","task_version":"screening-mturk","missing":false,"accuracy":0},{"contexts":["red","blue","green"],"outcomes":[0,0,1],"key":38,"choice":1,"rt":346.36500000488013,"outcome":0,"trial":29,"correct":2,"trial_type":"three-arm-trial","trial_index":38,"time_elapsed":1269893,"internal_node_id":"0.0-35.0-0.0","task_version":"screening-mturk","missing":false,"accuracy":0},{"contexts":["red","blue","green"],"outcomes":[0,0,1],"key":37,"choice":0,"rt":601.5400000032969,"outcome":0,"trial":30,"correct":2,"trial_type":"three-arm-trial","trial_index":39,"time_elapsed":1271701,"internal_node_id":"0.0-36.0-0.0","task_version":"screening-mturk","missing":false,"accuracy":0},{"contexts":["red","blue","green"],"outcomes":[1,1,0],"key":39,"choice":2,"rt":201.41000000876375,"outcome":0,"trial":31,"correct":0,"trial_type":"three-arm-trial","trial_index":40,"time_elapsed":1273109,"internal_node_id":"0.0-37.0-0.0","task_version":"screening-mturk","missing":false,"accuracy":0},{"contexts":["red","blue","green"],"outcomes":[1,0,0],"key":39,"choice":2,"rt":345.8399999944959,"outcome":0,"trial":32,"correct":0,"trial_type":"three-arm-trial","trial_index":41,"time_elapsed":1274660,"internal_node_id":"0.0-38.0-0.0","task_version":"screening-mturk","missing":false,"accuracy":0},{"contexts":["red","blue","green"],"outcomes":[1,0,0],"key":38,"choice":1,"rt":307.4200000264682,"outcome":0,"trial":33,"correct":0,"trial_type":"three-arm-trial","trial_index":42,"time_elapsed":1276174,"internal_node_id":"0.0-39.0-0.0","task_version":"screening-mturk","missing":false,"accuracy":0},{"contexts":["red","blue","green"],"outcomes":[1,0,0],"key":37,"choice":0,"rt":1219.939999980852,"outcome":1,"trial":34,"correct":0,"trial_type":"three-arm-trial","trial_index":43,"time_elapsed":1278603,"internal_node_id":"0.0-40.0-0.0","task_version":"screening-mturk","missing":false,"accuracy":1},{"contexts":["red","blue","green"],"outcomes":[1,0,0],"key":37,"choice":0,"rt":331.495000020368,"outcome":1,"trial":35,"correct":0,"trial_type":"three-arm-trial","trial_index":44,"time_elapsed":1280140,"internal_node_id":"0.0-41.0-0.0","task_version":"screening-mturk","missing":false,"accuracy":1},{"contexts":["red","blue","green"],"outcomes":[0,0,0],"key":37,"choice":0,"rt":266.7500000097789,"outcome":0,"trial":36,"correct":0,"trial_type":"three-arm-trial","trial_index":45,"time_elapsed":1281612,"internal_node_id":"0.0-42.0-0.0","task_version":"screening-mturk","missing":false,"accuracy":1},{"contexts":["red","blue","green"],"outcomes":[1,0,0],"key":38,"choice":1,"rt":218.04999999585561,"outcome":0,"trial":37,"correct":0,"trial_type":"three-arm-trial","trial_index":46,"time_elapsed":1283037,"internal_node_id":"0.0-43.0-0.0","task_version":"screening-mturk","missing":false,"accuracy":0},{"contexts":["red","blue","green"],"outcomes":[1,0,0],"key":39,"choice":2,"rt":483.8200000231154,"outcome":0,"trial":38,"correct":0,"trial_type":"three-arm-trial","trial_index":47,"time_elapsed":1284732,"internal_node_id":"0.0-44.0-0.0","task_version":"screening-mturk","missing":false,"accuracy":0},{"contexts":["red","blue","green"],"outcomes":[0,0,0],"key":39,"choice":2,"rt":401.3599999889266,"outcome":0,"trial":39,"correct":0,"trial_type":"three-arm-trial","trial_index":48,"time_elapsed":1286341,"internal_node_id":"0.0-45.0-0.0","task_version":"screening-mturk","missing":false,"accuracy":0},{"contexts":["red","blue","green"],"outcomes":[1,0,0],"key":38,"choice":1,"rt":345.60999998939224,"outcome":0,"trial":40,"correct":0,"trial_type":"three-arm-trial","trial_index":49,"time_elapsed":1287892,"internal_node_id":"0.0-46.0-0.0","task_version":"screening-mturk","missing":false,"accuracy":0},{"contexts":["red","blue","green"],"outcomes":[1,0,0],"key":38,"choice":1,"rt":520.1499999966472,"outcome":0,"trial":41,"correct":0,"trial_type":"three-arm-trial","trial_index":50,"time_elapsed":1289619,"internal_node_id":"0.0-47.0-0.0","task_version":"screening-mturk","missing":false,"accuracy":0},{"contexts":["red","blue","green"],"outcomes":[1,0,0],"key":37,"choice":0,"rt":795.429999998305,"outcome":1,"trial":42,"correct":0,"trial_type":"three-arm-trial","trial_index":51,"time_elapsed":1291620,"internal_node_id":"0.0-48.0-0.0","task_version":"screening-mturk","missing":false,"accuracy":1},{"contexts":["red","blue","green"],"outcomes":[1,0,0],"key":37,"choice":0,"rt":345.8499999833293,"outcome":1,"trial":43,"correct":0,"trial_type":"three-arm-trial","trial_index":52,"time_elapsed":1293172,"internal_node_id":"0.0-49.0-0.0","task_version":"screening-mturk","missing":false,"accuracy":1},{"contexts":["red","blue","green"],"outcomes":[0,0,0],"key":37,"choice":0,"rt":279.40999998827465,"outcome":0,"trial":44,"correct":0,"trial_type":"three-arm-trial","trial_index":53,"time_elapsed":1295535,"internal_node_id":"0.0-50.0-0.0","task_version":"screening-mturk","missing":false,"accuracy":1},{"contexts":["red","blue","green"],"outcomes":[1,0,0],"key":38,"choice":1,"rt":1582.5999999942724,"outcome":0,"trial":45,"correct":0,"trial_type":"three-arm-trial","trial_index":54,"time_elapsed":1298324,"internal_node_id":"0.0-51.0-0.0","task_version":"screening-mturk","missing":false,"accuracy":0},{"contexts":["red","blue","green"],"outcomes":[0,0,1],"key":38,"choice":1,"rt":1002.2149999858811,"outcome":0,"trial":46,"correct":2,"trial_type":"three-arm-trial","trial_index":55,"time_elapsed":1300533,"internal_node_id":"0.0-52.0-0.0","task_version":"screening-mturk","missing":false,"accuracy":0},{"contexts":["red","blue","green"],"outcomes":[0,1,0],"key":39,"choice":2,"rt":184.6650000079535,"outcome":0,"trial":47,"correct":2,"trial_type":"three-arm-trial","trial_index":56,"time_elapsed":1301924,"internal_node_id":"0.0-53.0-0.0","task_version":"screening-mturk","missing":false,"accuracy":1},{"contexts":["red","blue","green"],"outcomes":[0,1,1],"key":38,"choice":1,"rt":274.7149999777321,"outcome":1,"trial":48,"correct":2,"trial_type":"three-arm-trial","trial_index":57,"time_elapsed":1303405,"internal_node_id":"0.0-54.0-0.0","task_version":"screening-mturk","missing":false,"accuracy":0},{"contexts":["red","blue","green"],"outcomes":[0,0,1],"key":37,"choice":0,"rt":329.490000003716,"outcome":0,"trial":49,"correct":2,"trial_type":"three-arm-trial","trial_index":58,"time_elapsed":1304940,"internal_node_id":"0.0-55.0-0.0","task_version":"screening-mturk","missing":false,"accuracy":0},{"contexts":["red","blue","green"],"outcomes":[0,0,1],"key":38,"choice":1,"rt":275.04499998758547,"outcome":0,"trial":50,"correct":2,"trial_type":"three-arm-trial","trial_index":59,"time_elapsed":1306421,"internal_node_id":"0.0-56.0-0.0","task_version":"screening-mturk","missing":false,"accuracy":0},{"contexts":["red","blue","green"],"outcomes":[0,1,1],"key":38,"choice":1,"rt":671.9150000135414,"outcome":1,"trial":51,"correct":2,"trial_type":"three-arm-trial","trial_index":60,"time_elapsed":1308299,"internal_node_id":"0.0-57.0-0.0","task_version":"screening-mturk","missing":false,"accuracy":0},{"contexts":["red","blue","green"],"outcomes":[0,0,0],"key":38,"choice":1,"rt":235.28999998234212,"outcome":0,"trial":52,"correct":2,"trial_type":"three-arm-trial","trial_index":61,"time_elapsed":1309739,"internal_node_id":"0.0-58.0-0.0","task_version":"screening-mturk","missing":false,"accuracy":0},{"contexts":["red","blue","green"],"outcomes":[1,0,0],"key":37,"choice":0,"rt":90.81999998306856,"outcome":1,"trial":53,"correct":2,"trial_type":"three-arm-trial","trial_index":62,"time_elapsed":1311037,"internal_node_id":"0.0-59.0-0.0","task_version":"screening-mturk","missing":false,"accuracy":0},{"contexts":["red","blue","green"],"outcomes":[1,0,1],"key":37,"choice":0,"rt":270.3750000218861,"outcome":1,"trial":54,"correct":2,"trial_type":"three-arm-trial","trial_index":63,"time_elapsed":1312517,"internal_node_id":"0.0-60.0-0.0","task_version":"screening-mturk","missing":false,"accuracy":0},{"contexts":["red","blue","green"],"outcomes":[0,0,1],"key":37,"choice":0,"rt":89.8999999917578,"outcome":0,"trial":55,"correct":2,"trial_type":"three-arm-trial","trial_index":64,"time_elapsed":1313812,"internal_node_id":"0.0-61.0-0.0","task_version":"screening-mturk","missing":false,"accuracy":0},{"contexts":["red","blue","green"],"outcomes":[0,0,1],"key":39,"choice":2,"rt":538.5850000020582,"outcome":1,"trial":56,"correct":2,"trial_type":"three-arm-trial","trial_index":65,"time_elapsed":1315558,"internal_node_id":"0.0-62.0-0.0","task_version":"screening-mturk","missing":false,"accuracy":1},{"contexts":["red","blue","green"],"outcomes":[0,0,1],"key":39,"choice":2,"rt":89.87500000512227,"outcome":1,"trial":57,"correct":2,"trial_type":"three-arm-trial","trial_index":66,"time_elapsed":1316861,"internal_node_id":"0.0-63.0-0.0","task_version":"screening-mturk","missing":false,"accuracy":1},{"contexts":["red","blue","green"],"outcomes":[0,0,1],"key":39,"choice":2,"rt":441.67999998899177,"outcome":1,"trial":58,"correct":2,"trial_type":"three-arm-trial","trial_index":67,"time_elapsed":1318509,"internal_node_id":"0.0-64.0-0.0","task_version":"screening-mturk","missing":false,"accuracy":1},{"contexts":["red","blue","green"],"outcomes":[0,1,0],"key":38,"choice":1,"rt":217.27000002283603,"outcome":1,"trial":59,"correct":2,"trial_type":"three-arm-trial","trial_index":68,"time_elapsed":1319934,"internal_node_id":"0.0-65.0-0.0","task_version":"screening-mturk","missing":false,"accuracy":0},{"contexts":["red","blue","green"],"outcomes":[0,0,1],"key":38,"choice":1,"rt":222.32500000973232,"outcome":0,"trial":60,"correct":2,"trial_type":"three-arm-trial","trial_index":69,"time_elapsed":1321365,"internal_node_id":"0.0-66.0-0.0","task_version":"screening-mturk","missing":false,"accuracy":0},{"contexts":["red","blue","green"],"outcomes":[1,0,0],"key":37,"choice":0,"rt":387.04499998129904,"outcome":1,"trial":61,"correct":0,"trial_type":"three-arm-trial","trial_index":70,"time_elapsed":1322958,"internal_node_id":"0.0-67.0-0.0","task_version":"screening-mturk","missing":false,"accuracy":1},{"contexts":["red","blue","green"],"outcomes":[0,0,1],"key":37,"choice":0,"rt":257.39000001340173,"outcome":0,"trial":62,"correct":0,"trial_type":"three-arm-trial","trial_index":71,"time_elapsed":1324421,"internal_node_id":"0.0-68.0-0.0","task_version":"screening-mturk","missing":false,"accuracy":1},{"contexts":["red","blue","green"],"outcomes":[1,1,1],"key":39,"choice":2,"rt":113.10499999672174,"outcome":1,"trial":63,"correct":0,"trial_type":"three-arm-trial","trial_index":72,"time_elapsed":1325741,"internal_node_id":"0.0-69.0-0.0","task_version":"screening-mturk","missing":false,"accuracy":0},{"contexts":["red","blue","green"],"outcomes":[1,0,0],"key":39,"choice":2,"rt":219.92000000318512,"outcome":0,"trial":64,"correct":0,"trial_type":"three-arm-trial","trial_index":73,"time_elapsed":1327173,"internal_node_id":"0.0-70.0-0.0","task_version":"screening-mturk","missing":false,"accuracy":0},{"contexts":["red","blue","green"],"outcomes":[1,1,0],"key":38,"choice":1,"rt":205.42499999282882,"outcome":1,"trial":65,"correct":0,"trial_type":"three-arm-trial","trial_index":74,"time_elapsed":1328586,"internal_node_id":"0.0-71.0-0.0","task_version":"screening-mturk","missing":false,"accuracy":0},{"contexts":["red","blue","green"],"outcomes":[1,0,0],"key":38,"choice":1,"rt":253.2249999931082,"outcome":0,"trial":66,"correct":0,"trial_type":"three-arm-trial","trial_index":75,"time_elapsed":1330045,"internal_node_id":"0.0-72.0-0.0","task_version":"screening-mturk","missing":false,"accuracy":0},{"contexts":["red","blue","green"],"outcomes":[1,0,0],"key":39,"choice":2,"rt":625.1700000138953,"outcome":0,"trial":67,"correct":0,"trial_type":"three-arm-trial","trial_index":76,"time_elapsed":1331876,"internal_node_id":"0.0-73.0-0.0","task_version":"screening-mturk","missing":false,"accuracy":0},{"contexts":["red","blue","green"],"outcomes":[1,0,0],"key":37,"choice":0,"rt":11.61000001593493,"outcome":1,"trial":68,"correct":0,"trial_type":"three-arm-trial","trial_index":77,"time_elapsed":1333093,"internal_node_id":"0.0-74.0-0.0","task_version":"screening-mturk","missing":false,"accuracy":1},{"contexts":["red","blue","green"],"outcomes":[1,0,0],"key":39,"choice":2,"rt":610.3000000002794,"outcome":0,"trial":69,"correct":0,"trial_type":"three-arm-trial","trial_index":78,"time_elapsed":1334910,"internal_node_id":"0.0-75.0-0.0","task_version":"screening-mturk","missing":false,"accuracy":0},{"contexts":["red","blue","green"],"outcomes":[1,0,0],"key":38,"choice":1,"rt":216.11000000848435,"outcome":0,"trial":70,"correct":0,"trial_type":"three-arm-trial","trial_index":79,"time_elapsed":1336332,"internal_node_id":"0.0-76.0-0.0","task_version":"screening-mturk","missing":false,"accuracy":0},{"contexts":["red","blue","green"],"outcomes":[1,0,0],"key":37,"choice":0,"rt":330.3499999747146,"outcome":1,"trial":71,"correct":0,"trial_type":"three-arm-trial","trial_index":80,"time_elapsed":1337869,"internal_node_id":"0.0-77.0-0.0","task_version":"screening-mturk","missing":false,"accuracy":1},{"contexts":["red","blue","green"],"outcomes":[1,0,0],"key":37,"choice":0,"rt":546.0449999955017,"outcome":1,"trial":72,"correct":0,"trial_type":"three-arm-trial","trial_index":81,"time_elapsed":1339620,"internal_node_id":"0.0-78.0-0.0","task_version":"screening-mturk","missing":false,"accuracy":1},{"contexts":["red","blue","green"],"outcomes":[0,0,0],"key":37,"choice":0,"rt":257.7549999987241,"outcome":0,"trial":73,"correct":0,"trial_type":"three-arm-trial","trial_index":82,"time_elapsed":1341085,"internal_node_id":"0.0-79.0-0.0","task_version":"screening-mturk","missing":false,"accuracy":1},{"contexts":["red","blue","green"],"outcomes":[1,0,1],"key":38,"choice":1,"rt":316.67500000912696,"outcome":0,"trial":74,"correct":0,"trial_type":"three-arm-trial","trial_index":83,"time_elapsed":1342611,"internal_node_id":"0.0-80.0-0.0","task_version":"screening-mturk","missing":false,"accuracy":0},{"contexts":["red","blue","green"],"outcomes":[1,1,0],"key":38,"choice":1,"rt":763.1700000201818,"outcome":1,"trial":75,"correct":0,"trial_type":"three-arm-trial","trial_index":84,"time_elapsed":1344581,"internal_node_id":"0.0-81.0-0.0","task_version":"screening-mturk","missing":false,"accuracy":0},{"contexts":["red","blue","green"],"outcomes":[0,1,0],"key":38,"choice":1,"rt":314.3700000073295,"outcome":1,"trial":76,"correct":1,"trial_type":"three-arm-trial","trial_index":85,"time_elapsed":1346100,"internal_node_id":"0.0-82.0-0.0","task_version":"screening-mturk","missing":false,"accuracy":1},{"contexts":["red","blue","green"],"outcomes":[0,1,1],"key":38,"choice":1,"rt":282.3150000185706,"outcome":1,"trial":77,"correct":1,"trial_type":"three-arm-trial","trial_index":86,"time_elapsed":1347588,"internal_node_id":"0.0-83.0-0.0","task_version":"screening-mturk","missing":false,"accuracy":1},{"contexts":["red","blue","green"],"outcomes":[1,1,1],"key":39,"choice":2,"rt":798.434999975143,"outcome":1,"trial":78,"correct":1,"trial_type":"three-arm-trial","trial_index":87,"time_elapsed":1349596,"internal_node_id":"0.0-84.0-0.0","task_version":"screening-mturk","missing":false,"accuracy":0},{"contexts":["red","blue","green"],"outcomes":[0,1,0],"key":39,"choice":2,"rt":253.36000000243075,"outcome":0,"trial":79,"correct":1,"trial_type":"three-arm-trial","trial_index":88,"time_elapsed":1351061,"internal_node_id":"0.0-85.0-0.0","task_version":"screening-mturk","missing":false,"accuracy":0},{"contexts":["red","blue","green"],"outcomes":[0,0,0],"key":37,"choice":0,"rt":281.8600000173319,"outcome":0,"trial":80,"correct":1,"trial_type":"three-arm-trial","trial_index":89,"time_elapsed":1352548,"internal_node_id":"0.0-86.0-0.0","task_version":"screening-mturk","missing":false,"accuracy":0},{"contexts":["red","blue","green"],"outcomes":[0,1,0],"key":38,"choice":1,"rt":225.36000001127832,"outcome":1,"trial":81,"correct":1,"trial_type":"three-arm-trial","trial_index":90,"time_elapsed":1353980,"internal_node_id":"0.0-87.0-0.0","task_version":"screening-mturk","missing":false,"accuracy":1},{"contexts":["red","blue","green"],"outcomes":[0,1,0],"key":38,"choice":1,"rt":313.6800000211224,"outcome":1,"trial":82,"correct":1,"trial_type":"three-arm-trial","trial_index":91,"time_elapsed":1355501,"internal_node_id":"0.0-88.0-0.0","task_version":"screening-mturk","missing":false,"accuracy":1},{"contexts":["red","blue","green"],"outcomes":[0,1,0],"key":38,"choice":1,"rt":309.1899999999441,"outcome":1,"trial":83,"correct":1,"trial_type":"three-arm-trial","trial_index":92,"time_elapsed":1357021,"internal_node_id":"0.0-89.0-0.0","task_version":"screening-mturk","missing":false,"accuracy":1},{"contexts":["red","blue","green"],"outcomes":[1,1,0],"key":38,"choice":1,"rt":528.8450000225566,"outcome":1,"trial":84,"correct":1,"trial_type":"three-arm-trial","trial_index":93,"time_elapsed":1358755,"internal_node_id":"0.0-90.0-0.0","task_version":"screening-mturk","missing":false,"accuracy":1},{"contexts":["red","blue","green"],"outcomes":[0,1,0],"key":38,"choice":1,"rt":203.1649999844376,"outcome":1,"trial":85,"correct":1,"trial_type":"three-arm-trial","trial_index":94,"time_elapsed":1360163,"internal_node_id":"0.0-91.0-0.0","task_version":"screening-mturk","missing":false,"accuracy":1},{"contexts":["red","blue","green"],"outcomes":[0,1,0],"key":38,"choice":1,"rt":266.1049999878742,"outcome":1,"trial":86,"correct":1,"trial_type":"three-arm-trial","trial_index":95,"time_elapsed":1361637,"internal_node_id":"0.0-92.0-0.0","task_version":"screening-mturk","missing":false,"accuracy":1},{"contexts":["red","blue","green"],"outcomes":[0,1,0],"key":38,"choice":1,"rt":537.4749999900814,"outcome":1,"trial":87,"correct":1,"trial_type":"three-arm-trial","trial_index":96,"time_elapsed":1363379,"internal_node_id":"0.0-93.0-0.0","task_version":"screening-mturk","missing":false,"accuracy":1},{"contexts":["red","blue","green"],"outcomes":[0,1,1],"key":38,"choice":1,"rt":346.6949999856297,"outcome":1,"trial":88,"correct":1,"trial_type":"three-arm-trial","trial_index":97,"time_elapsed":1364931,"internal_node_id":"0.0-94.0-0.0","task_version":"screening-mturk","missing":false,"accuracy":1},{"contexts":["red","blue","green"],"outcomes":[0,1,0],"key":38,"choice":1,"rt":330.74000000488013,"outcome":1,"trial":89,"correct":1,"trial_type":"three-arm-trial","trial_index":98,"time_elapsed":1366468,"internal_node_id":"0.0-95.0-0.0","task_version":"screening-mturk","missing":false,"accuracy":1},{"contexts":["red","blue","green"],"outcomes":[0,0,0],"key":38,"choice":1,"rt":358.0450000008568,"outcome":0,"trial":90,"correct":1,"trial_type":"three-arm-trial","trial_index":99,"time_elapsed":1368037,"internal_node_id":"0.0-96.0-0.0","task_version":"screening-mturk","missing":false,"accuracy":1},{"rt":31812.825000000885,"responses":{"age":"34","gender-categorical":"Female","gender-free-response":"","ethnicity":"Not Hispanic or Latino","race":["Black or African American"],"language":"Yes","fluency":"Very well","prolific":"No","prolific-this-study":"No"},"survey":"demographics","trial_type":"survey-demo","trial_index":100,"time_elapsed":1399860,"internal_node_id":"0.0-97.0","task_version":"screening-mturk","interactions":"[{\"event\":\"blur\",\"trial\":0,\"time\":7842},{\"event\":\"focus\",\"trial\":0,\"time\":71041},{\"event\":\"blur\",\"trial\":0,\"time\":91529},{\"event\":\"focus\",\"trial\":0,\"time\":138362},{\"event\":\"blur\",\"trial\":0,\"time\":194938},{\"event\":\"focus\",\"trial\":0,\"time\":282210},{\"event\":\"blur\",\"trial\":3,\"time\":407362},{\"event\":\"focus\",\"trial\":3,\"time\":425553},{\"event\":\"blur\",\"trial\":3,\"time\":425558},{\"event\":\"focus\",\"trial\":3,\"time\":427441},{\"event\":\"blur\",\"trial\":3,\"time\":429152},{\"event\":\"focus\",\"trial\":3,\"time\":491178},{\"event\":\"blur\",\"trial\":5,\"time\":649496},{\"event\":\"focus\",\"trial\":5,\"time\":707677},{\"event\":\"blur\",\"trial\":5,\"time\":765152},{\"event\":\"focus\",\"trial\":5,\"time\":815908},{\"event\":\"blur\",\"trial\":5,\"time\":815908},{\"event\":\"focus\",\"trial\":5,\"time\":817962},{\"event\":\"blur\",\"trial\":5,\"time\":827367},{\"event\":\"focus\",\"trial\":5,\"time\":956058},{\"event\":\"blur\",\"trial\":5,\"time\":956060},{\"event\":\"focus\",\"trial\":5,\"time\":957760},{\"event\":\"blur\",\"trial\":5,\"time\":964831},{\"event\":\"focus\",\"trial\":5,\"time\":985571},{\"event\":\"blur\",\"trial\":9,\"time\":1121416},{\"event\":\"focus\",\"trial\":9,\"time\":1149755},{\"event\":\"blur\",\"trial\":9,\"time\":1149921},{\"event\":\"focus\",\"trial\":9,\"time\":1151147},{\"event\":\"blur\",\"trial\":9,\"time\":1152495},{\"event\":\"focus\",\"trial\":9,\"time\":1218497},{\"event\":\"blur\",\"trial\":53,\"time\":1293952},{\"event\":\"focus\",\"trial\":54,\"time\":1295851}]"}]