[{"responses":{"Q01":"1","Q03":"1","Q02":"1"},"rt":9272.74000000034,"survey":"pswq","trial_type":"survey-template","trial_index":0,"time_elapsed":9296,"internal_node_id":"0.0-0.0","task_version":"screening-mturk"},{"responses":{"Q08":"0","Q03":"1","Q06":"1","Q02":"1","Q05":"1","Q07":"0","Q04":"1","Q01":"1"},"rt":16416.850000008708,"survey":"gad7","trial_type":"survey-template","trial_index":1,"time_elapsed":25718,"internal_node_id":"0.0-1.0","task_version":"screening-mturk"},{"responses":{"Q10":"2","Q09":"2","Q11":"2","Q04":"1","Q07":"3","Q13":"3","Q12":"2","Q01":"2","Q06":"3","Q08":"3","Q03":"1","Q02":"1","Q05":"2"},"rt":25064.694999993662,"survey":"bisbas","trial_type":"survey-template","trial_index":2,"time_elapsed":50789,"internal_node_id":"0.0-2.0","task_version":"screening-mturk"},{"responses":{"Q05":"3","Q01":"3","Q14":"3","Q04":"3","Q12":"3","Q13":"3","Q07":"3","Q06":"3","Q15":"3","Q08":"3","Q03":"3","Q09":"3","Q11":"3","Q10":"3","Q02":"3"},"rt":27296.47999998997,"survey":"shaps","trial_type":"survey-template","trial_index":3,"time_elapsed":78091,"internal_node_id":"0.0-3.0","task_version":"screening-mturk"},{"responses":{"Q07":"2","Q12":"1","Q01":"1","Q14":"0","Q08":"2","Q06":"1","Q15":"0","Q03":"1","Q02":"0","Q13":"1","Q05":"0","Q04":"1","Q11":"1","Q09":"0","Q10":"0"},"rt":52916.98500000348,"survey":"7up7down","trial_type":"survey-template","trial_index":4,"time_elapsed":131013,"internal_node_id":"0.0-4.0","task_version":"screening-mturk"},{"view_history":"[{\"page_index\":0,\"viewing_time\":25363.47999999998},{\"page_index\":1,\"viewing_time\":6745.309999998426},{\"page_index\":2,\"viewing_time\":5273.9600000059},{\"page_index\":3,\"viewing_time\":3238.084999989951},{\"page_index\":4,\"viewing_time\":2829.8950000025798},{\"page_index\":5,\"viewing_time\":1553.9350000035483},{\"page_index\":6,\"viewing_time\":2682.0350000052713},{\"page_index\":7,\"viewing_time\":1807.8499999974156}]","rt":49495.43500000436,"trial_type":"instructions","trial_index":5,"time_elapsed":180510,"internal_node_id":"0.0-5.0-0.0","task_version":"screening-mturk"},{"responses":["True","True","True","False","True"],"num_errors":1,"rt":14990.47000000428,"trial_type":"three-arm-comprehension","trial_index":6,"time_elapsed":195504,"internal_node_id":"0.0-5.0-1.0","task_version":"screening-mturk"},{"view_history":"[{\"page_index\":0,\"viewing_time\":3169.59499999939},{\"page_index\":1,\"viewing_time\":5427.820000011707},{\"page_index\":2,\"viewing_time\":4178.0049999943},{\"page_index\":3,\"viewing_time\":2909.379999997327},{\"page_index\":4,\"viewing_time\":6976.580000002286},{\"page_index\":5,\"viewing_time\":5191.8750000040745},{\"page_index\":6,\"viewing_time\":1670.0500000006286},{\"page_index\":7,\"viewing_time\":887.9349999915576}]","rt":30411.545000009937,"trial_type":"instructions","trial_index":7,"time_elapsed":225919,"internal_node_id":"0.0-5.1-0.1","task_version":"screening-mturk"},{"responses":["True","True","False","False","True"],"num_errors":0,"rt":14350.370000000112,"trial_type":"three-arm-comprehension","trial_index":8,"time_elapsed":240273,"internal_node_id":"0.0-5.1-1.1","task_version":"screening-mturk"},{"view_history":"[{\"page_index\":0,\"viewing_time\":2353.304999996908}]","rt":2353.65499999898,"trial_type":"instructions","trial_index":9,"time_elapsed":242629,"internal_node_id":"0.0-6.0","task_version":"screening-mturk"},{"contexts":["red","green","blue"],"outcomes":[1,0,1],"key":39,"choice":2,"rt":1903.119999988121,"outcome":1,"trial":1,"correct":0,"trial_type":"three-arm-trial","trial_index":10,"time_elapsed":245737,"internal_node_id":"0.0-7.0-0.0","task_version":"screening-mturk","missing":false,"accuracy":0},{"contexts":["red","green","blue"],"outcomes":[0,0,0],"key":37,"choice":0,"rt":995.840000003227,"outcome":0,"trial":2,"correct":0,"trial_type":"three-arm-trial","trial_index":11,"time_elapsed":247936,"internal_node_id":"0.0-8.0-0.0","task_version":"screening-mturk","missing":false,"accuracy":1},{"contexts":["red","green","blue"],"outcomes":[0,0,0],"key":38,"choice":1,"rt":532.0999999967171,"outcome":0,"trial":3,"correct":0,"trial_type":"three-arm-trial","trial_index":12,"time_elapsed":249672,"internal_node_id":"0.0-9.0-0.0","task_version":"screening-mturk","missing":false,"accuracy":0},{"contexts":["red","green","blue"],"outcomes":[1,0,0],"key":37,"choice":0,"rt":492.6850000047125,"outcome":1,"trial":4,"correct":0,"trial_type":"three-arm-trial","trial_index":13,"time_elapsed":251368,"internal_node_id":"0.0-10.0-0.0","task_version":"screening-mturk","missing":false,"accuracy":1},{"contexts":["red","green","blue"],"outcomes":[0,0,0],"key":37,"choice":0,"rt":300.1700000022538,"outcome":0,"trial":5,"correct":0,"trial_type":"three-arm-trial","trial_index":14,"time_elapsed":252872,"internal_node_id":"0.0-11.0-0.0","task_version":"screening-mturk","missing":false,"accuracy":1},{"contexts":["red","green","blue"],"outcomes":[1,0,1],"key":39,"choice":2,"rt":372.02500000421423,"outcome":1,"trial":6,"correct":0,"trial_type":"three-arm-trial","trial_index":15,"time_elapsed":254449,"internal_node_id":"0.0-12.0-0.0","task_version":"screening-mturk","missing":false,"accuracy":0},{"contexts":["red","green","blue"],"outcomes":[0,1,1],"key":39,"choice":2,"rt":43.22999999567401,"outcome":1,"trial":7,"correct":0,"trial_type":"three-arm-trial","trial_index":16,"time_elapsed":255696,"internal_node_id":"0.0-13.0-0.0","task_version":"screening-mturk","missing":false,"accuracy":0},{"contexts":["red","green","blue"],"outcomes":[1,1,0],"key":39,"choice":2,"rt":76.26499999605585,"outcome":0,"trial":8,"correct":0,"trial_type":"three-arm-trial","trial_index":17,"time_elapsed":256975,"internal_node_id":"0.0-14.0-0.0","task_version":"screening-mturk","missing":false,"accuracy":0},{"contexts":["red","green","blue"],"outcomes":[1,0,0],"key":37,"choice":0,"rt":285.264999998617,"outcome":1,"trial":9,"correct":0,"trial_type":"three-arm-trial","trial_index":18,"time_elapsed":258464,"internal_node_id":"0.0-15.0-0.0","task_version":"screening-mturk","missing":false,"accuracy":1},{"contexts":["red","green","blue"],"outcomes":[1,0,1],"key":39,"choice":2,"rt":187.91999999666587,"outcome":1,"trial":10,"correct":0,"trial_type":"three-arm-trial","trial_index":19,"time_elapsed":259855,"internal_node_id":"0.0-16.0-0.0","task_version":"screening-mturk","missing":false,"accuracy":0},{"contexts":["red","green","blue"],"outcomes":[1,0,0],"key":37,"choice":0,"rt":101.17999999783933,"outcome":1,"trial":11,"correct":0,"trial_type":"three-arm-trial","trial_index":20,"time_elapsed":261159,"internal_node_id":"0.0-17.0-0.0","task_version":"screening-mturk","missing":false,"accuracy":1},{"contexts":["red","green","blue"],"outcomes":[1,0,1],"key":38,"choice":1,"rt":12.679999999818392,"outcome":0,"trial":12,"correct":0,"trial_type":"three-arm-trial","trial_index":21,"time_elapsed":262375,"internal_node_id":"0.0-18.0-0.0","task_version":"screening-mturk","missing":false,"accuracy":0},{"contexts":["red","green","blue"],"outcomes":[1,0,0],"key":39,"choice":2,"rt":324.89000000350643,"outcome":0,"trial":13,"correct":0,"trial_type":"three-arm-trial","trial_index":22,"time_elapsed":263903,"internal_node_id":"0.0-19.0-0.0","task_version":"screening-mturk","missing":false,"accuracy":0},{"contexts":["red","green","blue"],"outcomes":[1,0,0],"key":37,"choice":0,"rt":117.11999999533873,"outcome":1,"trial":14,"correct":0,"trial_type":"three-arm-trial","trial_index":23,"time_elapsed":265223,"internal_node_id":"0.0-20.0-0.0","task_version":"screening-mturk","missing":false,"accuracy":1},{"contexts":["red","green","blue"],"outcomes":[1,0,0],"key":39,"choice":2,"rt":45.31999999016989,"outcome":0,"trial":15,"correct":0,"trial_type":"three-arm-trial","trial_index":24,"time_elapsed":266471,"internal_node_id":"0.0-21.0-0.0","task_version":"screening-mturk","missing":false,"accuracy":0},{"contexts":["red","green","blue"],"outcomes":[0,0,1],"key":38,"choice":1,"rt":12.705000001005828,"outcome":0,"trial":16,"correct":2,"trial_type":"three-arm-trial","trial_index":25,"time_elapsed":267687,"internal_node_id":"0.0-22.0-0.0","task_version":"screening-mturk","missing":false,"accuracy":0},{"contexts":["red","green","blue"],"outcomes":[0,0,1],"key":38,"choice":1,"rt":141.05999999446794,"outcome":0,"trial":17,"correct":2,"trial_type":"three-arm-trial","trial_index":26,"time_elapsed":269031,"internal_node_id":"0.0-23.0-0.0","task_version":"screening-mturk","missing":false,"accuracy":0},{"contexts":["red","green","blue"],"outcomes":[0,0,0],"key":38,"choice":1,"rt":36.64999999455176,"outcome":0,"trial":18,"correct":2,"trial_type":"three-arm-trial","trial_index":27,"time_elapsed":270271,"internal_node_id":"0.0-24.0-0.0","task_version":"screening-mturk","missing":false,"accuracy":0},{"contexts":["red","green","blue"],"outcomes":[0,1,0],"key":37,"choice":0,"rt":196.69499999145046,"outcome":0,"trial":19,"correct":2,"trial_type":"three-arm-trial","trial_index":28,"time_elapsed":271671,"internal_node_id":"0.0-25.0-0.0","task_version":"screening-mturk","missing":false,"accuracy":0},{"contexts":["red","green","blue"],"outcomes":[0,0,1],"key":37,"choice":0,"rt":221.25500001129694,"outcome":0,"trial":20,"correct":2,"trial_type":"three-arm-trial","trial_index":29,"time_elapsed":273095,"internal_node_id":"0.0-26.0-0.0","task_version":"screening-mturk","missing":false,"accuracy":0},{"contexts":["red","green","blue"],"outcomes":[0,1,1],"key":39,"choice":2,"rt":77.9949999996461,"outcome":1,"trial":21,"correct":2,"trial_type":"three-arm-trial","trial_index":30,"time_elapsed":274377,"internal_node_id":"0.0-27.0-0.0","task_version":"screening-mturk","missing":false,"accuracy":1},{"contexts":["red","green","blue"],"outcomes":[0,0,0],"key":39,"choice":2,"rt":171.30499999620952,"outcome":0,"trial":22,"correct":2,"trial_type":"three-arm-trial","trial_index":31,"time_elapsed":275751,"internal_node_id":"0.0-28.0-0.0","task_version":"screening-mturk","missing":false,"accuracy":1},{"contexts":["red","green","blue"],"outcomes":[0,0,1],"key":37,"choice":0,"rt":125.22999999055173,"outcome":0,"trial":23,"correct":2,"trial_type":"three-arm-trial","trial_index":32,"time_elapsed":277078,"internal_node_id":"0.0-29.0-0.0","task_version":"screening-mturk","missing":false,"accuracy":0},{"contexts":["red","green","blue"],"outcomes":[0,0,1],"key":38,"choice":1,"rt":69.57500000135042,"outcome":0,"trial":24,"correct":2,"trial_type":"three-arm-trial","trial_index":33,"time_elapsed":278350,"internal_node_id":"0.0-30.0-0.0","task_version":"screening-mturk","missing":false,"accuracy":0},{"contexts":["red","green","blue"],"outcomes":[0,0,1],"key":39,"choice":2,"rt":45.61000000103377,"outcome":1,"trial":25,"correct":2,"trial_type":"three-arm-trial","trial_index":34,"time_elapsed":279600,"internal_node_id":"0.0-31.0-0.0","task_version":"screening-mturk","missing":false,"accuracy":1},{"contexts":["red","green","blue"],"outcomes":[0,0,0],"key":37,"choice":0,"rt":220.1199999981327,"outcome":0,"trial":26,"correct":2,"trial_type":"three-arm-trial","trial_index":35,"time_elapsed":281025,"internal_node_id":"0.0-32.0-0.0","task_version":"screening-mturk","missing":false,"accuracy":0},{"contexts":["red","green","blue"],"outcomes":[1,1,1],"key":39,"choice":2,"rt":402.92999999655876,"outcome":1,"trial":27,"correct":2,"trial_type":"three-arm-trial","trial_index":36,"time_elapsed":282632,"internal_node_id":"0.0-33.0-0.0","task_version":"screening-mturk","missing":false,"accuracy":1},{"contexts":["red","green","blue"],"outcomes":[0,0,0],"key":39,"choice":2,"rt":420.4650000028778,"outcome":0,"trial":28,"correct":2,"trial_type":"three-arm-trial","trial_index":37,"time_elapsed":284257,"internal_node_id":"0.0-34.0-0.0","task_version":"screening-mturk","missing":false,"accuracy":1},{"contexts":["red","green","blue"],"outcomes":[0,0,1],"key":37,"choice":0,"rt":211.4000000001397,"outcome":0,"trial":29,"correct":2,"trial_type":"three-arm-trial","trial_index":38,"time_elapsed":285671,"internal_node_id":"0.0-35.0-0.0","task_version":"screening-mturk","missing":false,"accuracy":0},{"contexts":["red","green","blue"],"outcomes":[0,0,1],"key":38,"choice":1,"rt":140.9799999964889,"outcome":0,"trial":30,"correct":2,"trial_type":"three-arm-trial","trial_index":39,"time_elapsed":287015,"internal_node_id":"0.0-36.0-0.0","task_version":"screening-mturk","missing":false,"accuracy":0},{"contexts":["red","green","blue"],"outcomes":[0,0,0],"key":39,"choice":2,"rt":13.325000007171184,"outcome":0,"trial":31,"correct":0,"trial_type":"three-arm-trial","trial_index":40,"time_elapsed":288231,"internal_node_id":"0.0-37.0-0.0","task_version":"screening-mturk","missing":false,"accuracy":0},{"contexts":["red","green","blue"],"outcomes":[1,0,0],"key":37,"choice":0,"rt":69.03499999316409,"outcome":1,"trial":32,"correct":0,"trial_type":"three-arm-trial","trial_index":41,"time_elapsed":289504,"internal_node_id":"0.0-38.0-0.0","task_version":"screening-mturk","missing":false,"accuracy":1},{"contexts":["red","green","blue"],"outcomes":[0,0,0],"key":37,"choice":0,"rt":244.539999999688,"outcome":0,"trial":33,"correct":0,"trial_type":"three-arm-trial","trial_index":42,"time_elapsed":290951,"internal_node_id":"0.0-39.0-0.0","task_version":"screening-mturk","missing":false,"accuracy":1},{"contexts":["red","green","blue"],"outcomes":[1,0,1],"key":37,"choice":0,"rt":44.21000000729691,"outcome":1,"trial":34,"correct":0,"trial_type":"three-arm-trial","trial_index":43,"time_elapsed":292200,"internal_node_id":"0.0-40.0-0.0","task_version":"screening-mturk","missing":false,"accuracy":1},{"contexts":["red","green","blue"],"outcomes":[1,0,1],"key":37,"choice":0,"rt":107.28500000550412,"outcome":1,"trial":35,"correct":0,"trial_type":"three-arm-trial","trial_index":44,"time_elapsed":293512,"internal_node_id":"0.0-41.0-0.0","task_version":"screening-mturk","missing":false,"accuracy":1},{"contexts":["red","green","blue"],"outcomes":[1,0,0],"key":39,"choice":2,"rt":4.700000004959293,"outcome":0,"trial":36,"correct":0,"trial_type":"three-arm-trial","trial_index":45,"time_elapsed":294719,"internal_node_id":"0.0-42.0-0.0","task_version":"screening-mturk","missing":false,"accuracy":0},{"contexts":["red","green","blue"],"outcomes":[1,0,1],"key":37,"choice":0,"rt":4.185000012512319,"outcome":1,"trial":37,"correct":0,"trial_type":"three-arm-trial","trial_index":46,"time_elapsed":295927,"internal_node_id":"0.0-43.0-0.0","task_version":"screening-mturk","missing":false,"accuracy":1},{"contexts":["red","green","blue"],"outcomes":[1,0,0],"key":38,"choice":1,"rt":109.96000000159256,"outcome":0,"trial":38,"correct":0,"trial_type":"three-arm-trial","trial_index":47,"time_elapsed":297239,"internal_node_id":"0.0-44.0-0.0","task_version":"screening-mturk","missing":false,"accuracy":0},{"contexts":["red","green","blue"],"outcomes":[1,1,1],"key":37,"choice":0,"rt":68.58999999531079,"outcome":1,"trial":39,"correct":0,"trial_type":"three-arm-trial","trial_index":48,"time_elapsed":298512,"internal_node_id":"0.0-45.0-0.0","task_version":"screening-mturk","missing":false,"accuracy":1},{"contexts":["red","green","blue"],"outcomes":[1,0,1],"key":37,"choice":0,"rt":140.3649999992922,"outcome":1,"trial":40,"correct":0,"trial_type":"three-arm-trial","trial_index":49,"time_elapsed":299856,"internal_node_id":"0.0-46.0-0.0","task_version":"screening-mturk","missing":false,"accuracy":1},{"contexts":["red","green","blue"],"outcomes":[0,0,0],"key":37,"choice":0,"rt":196.93499999993946,"outcome":0,"trial":41,"correct":0,"trial_type":"three-arm-trial","trial_index":50,"time_elapsed":301256,"internal_node_id":"0.0-47.0-0.0","task_version":"screening-mturk","missing":false,"accuracy":1},{"contexts":["red","green","blue"],"outcomes":[1,0,0],"key":39,"choice":2,"rt":196.09499999205582,"outcome":0,"trial":42,"correct":0,"trial_type":"three-arm-trial","trial_index":51,"time_elapsed":302655,"internal_node_id":"0.0-48.0-0.0","task_version":"screening-mturk","missing":false,"accuracy":0},{"contexts":["red","green","blue"],"outcomes":[1,0,0],"key":38,"choice":1,"rt":52.64999999781139,"outcome":0,"trial":43,"correct":0,"trial_type":"three-arm-trial","trial_index":52,"time_elapsed":303911,"internal_node_id":"0.0-49.0-0.0","task_version":"screening-mturk","missing":false,"accuracy":0},{"contexts":["red","green","blue"],"outcomes":[1,1,1],"key":37,"choice":0,"rt":221.07999998843297,"outcome":1,"trial":44,"correct":0,"trial_type":"three-arm-trial","trial_index":53,"time_elapsed":305336,"internal_node_id":"0.0-50.0-0.0","task_version":"screening-mturk","missing":false,"accuracy":1},{"contexts":["red","green","blue"],"outcomes":[0,0,0],"key":39,"choice":2,"rt":163.88500000175554,"outcome":0,"trial":45,"correct":0,"trial_type":"three-arm-trial","trial_index":54,"time_elapsed":306704,"internal_node_id":"0.0-51.0-0.0","task_version":"screening-mturk","missing":false,"accuracy":0},{"contexts":["red","green","blue"],"outcomes":[0,1,0],"key":37,"choice":0,"rt":187.77000000409316,"outcome":0,"trial":46,"correct":1,"trial_type":"three-arm-trial","trial_index":55,"time_elapsed":308095,"internal_node_id":"0.0-52.0-0.0","task_version":"screening-mturk","missing":false,"accuracy":0},{"contexts":["red","green","blue"],"outcomes":[0,1,0],"key":37,"choice":0,"rt":261.19000000471715,"outcome":0,"trial":47,"correct":1,"trial_type":"three-arm-trial","trial_index":56,"time_elapsed":309558,"internal_node_id":"0.0-53.0-0.0","task_version":"screening-mturk","missing":false,"accuracy":0},{"contexts":["red","green","blue"],"outcomes":[1,1,0],"key":37,"choice":0,"rt":149.6599999954924,"outcome":1,"trial":48,"correct":1,"trial_type":"three-arm-trial","trial_index":57,"time_elapsed":310911,"internal_node_id":"0.0-54.0-0.0","task_version":"screening-mturk","missing":false,"accuracy":0},{"contexts":["red","green","blue"],"outcomes":[0,0,0],"key":37,"choice":0,"rt":68.72500000463333,"outcome":0,"trial":49,"correct":1,"trial_type":"three-arm-trial","trial_index":58,"time_elapsed":312184,"internal_node_id":"0.0-55.0-0.0","task_version":"screening-mturk","missing":false,"accuracy":0},{"contexts":["red","green","blue"],"outcomes":[0,1,0],"key":39,"choice":2,"rt":43.7099999981001,"outcome":0,"trial":50,"correct":1,"trial_type":"three-arm-trial","trial_index":59,"time_elapsed":313431,"internal_node_id":"0.0-56.0-0.0","task_version":"screening-mturk","missing":false,"accuracy":0},{"contexts":["red","green","blue"],"outcomes":[1,1,0],"key":39,"choice":2,"rt":165.52999999839813,"outcome":0,"trial":51,"correct":1,"trial_type":"three-arm-trial","trial_index":60,"time_elapsed":314800,"internal_node_id":"0.0-57.0-0.0","task_version":"screening-mturk","missing":false,"accuracy":0},{"contexts":["red","green","blue"],"outcomes":[0,1,1],"key":38,"choice":1,"rt":167.8799999936018,"outcome":1,"trial":52,"correct":1,"trial_type":"three-arm-trial","trial_index":61,"time_elapsed":316172,"internal_node_id":"0.0-58.0-0.0","task_version":"screening-mturk","missing":false,"accuracy":1},{"contexts":["red","green","blue"],"outcomes":[0,1,0],"key":38,"choice":1,"rt":63.34999999671709,"outcome":1,"trial":53,"correct":1,"trial_type":"three-arm-trial","trial_index":62,"time_elapsed":317439,"internal_node_id":"0.0-59.0-0.0","task_version":"screening-mturk","missing":false,"accuracy":1},{"contexts":["red","green","blue"],"outcomes":[0,1,0],"key":38,"choice":1,"rt":164.72000000067055,"outcome":1,"trial":54,"correct":1,"trial_type":"three-arm-trial","trial_index":63,"time_elapsed":318808,"internal_node_id":"0.0-60.0-0.0","task_version":"screening-mturk","missing":false,"accuracy":1},{"contexts":["red","green","blue"],"outcomes":[0,1,0],"key":38,"choice":1,"rt":204.24500000081025,"outcome":1,"trial":55,"correct":1,"trial_type":"three-arm-trial","trial_index":64,"time_elapsed":320215,"internal_node_id":"0.0-61.0-0.0","task_version":"screening-mturk","missing":false,"accuracy":1},{"contexts":["red","green","blue"],"outcomes":[0,1,0],"key":38,"choice":1,"rt":172.91999999724794,"outcome":1,"trial":56,"correct":1,"trial_type":"three-arm-trial","trial_index":65,"time_elapsed":321590,"internal_node_id":"0.0-62.0-0.0","task_version":"screening-mturk","missing":false,"accuracy":1},{"contexts":["red","green","blue"],"outcomes":[0,0,0],"key":38,"choice":1,"rt":37.899999995715916,"outcome":0,"trial":57,"correct":1,"trial_type":"three-arm-trial","trial_index":66,"time_elapsed":322831,"internal_node_id":"0.0-63.0-0.0","task_version":"screening-mturk","missing":false,"accuracy":1},{"contexts":["red","green","blue"],"outcomes":[0,1,0],"key":39,"choice":2,"rt":45.840000006137416,"outcome":0,"trial":58,"correct":1,"trial_type":"three-arm-trial","trial_index":67,"time_elapsed":324080,"internal_node_id":"0.0-64.0-0.0","task_version":"screening-mturk","missing":false,"accuracy":0},{"contexts":["red","green","blue"],"outcomes":[0,0,1],"key":37,"choice":0,"rt":187.81000000308268,"outcome":0,"trial":59,"correct":1,"trial_type":"three-arm-trial","trial_index":68,"time_elapsed":325472,"internal_node_id":"0.0-65.0-0.0","task_version":"screening-mturk","missing":false,"accuracy":0},{"contexts":["red","green","blue"],"outcomes":[0,1,0],"key":37,"choice":0,"rt":96.03500000957865,"outcome":0,"trial":60,"correct":1,"trial_type":"three-arm-trial","trial_index":69,"time_elapsed":326774,"internal_node_id":"0.0-66.0-0.0","task_version":"screening-mturk","missing":false,"accuracy":0},{"contexts":["red","green","blue"],"outcomes":[0,0,0],"key":39,"choice":2,"rt":85.17500000016298,"outcome":0,"trial":61,"correct":0,"trial_type":"three-arm-trial","trial_index":70,"time_elapsed":328063,"internal_node_id":"0.0-67.0-0.0","task_version":"screening-mturk","missing":false,"accuracy":0},{"contexts":["red","green","blue"],"outcomes":[1,0,0],"key":39,"choice":2,"rt":181.14500000956468,"outcome":0,"trial":62,"correct":0,"trial_type":"three-arm-trial","trial_index":71,"time_elapsed":329448,"internal_node_id":"0.0-68.0-0.0","task_version":"screening-mturk","missing":false,"accuracy":0},{"contexts":["red","green","blue"],"outcomes":[0,0,0],"key":38,"choice":1,"rt":123.63999999070074,"outcome":0,"trial":63,"correct":0,"trial_type":"three-arm-trial","trial_index":72,"time_elapsed":330774,"internal_node_id":"0.0-69.0-0.0","task_version":"screening-mturk","missing":false,"accuracy":0},{"contexts":["red","green","blue"],"outcomes":[1,0,0],"key":38,"choice":1,"rt":92.79500000411645,"outcome":0,"trial":64,"correct":0,"trial_type":"three-arm-trial","trial_index":73,"time_elapsed":332071,"internal_node_id":"0.0-70.0-0.0","task_version":"screening-mturk","missing":false,"accuracy":0},{"contexts":["red","green","blue"],"outcomes":[1,0,0],"key":39,"choice":2,"rt":116.65999999968335,"outcome":0,"trial":65,"correct":0,"trial_type":"three-arm-trial","trial_index":74,"time_elapsed":333392,"internal_node_id":"0.0-71.0-0.0","task_version":"screening-mturk","missing":false,"accuracy":0},{"contexts":["red","green","blue"],"outcomes":[1,1,0],"key":37,"choice":0,"rt":52.28499999793712,"outcome":1,"trial":66,"correct":0,"trial_type":"three-arm-trial","trial_index":75,"time_elapsed":334648,"internal_node_id":"0.0-72.0-0.0","task_version":"screening-mturk","missing":false,"accuracy":1},{"contexts":["red","green","blue"],"outcomes":[1,0,0],"key":37,"choice":0,"rt":35.954999999376014,"outcome":1,"trial":67,"correct":0,"trial_type":"three-arm-trial","trial_index":76,"time_elapsed":335886,"internal_node_id":"0.0-73.0-0.0","task_version":"screening-mturk","missing":false,"accuracy":1},{"contexts":["red","green","blue"],"outcomes":[1,1,1],"key":37,"choice":0,"rt":157.83499999088235,"outcome":1,"trial":68,"correct":0,"trial_type":"three-arm-trial","trial_index":77,"time_elapsed":337246,"internal_node_id":"0.0-74.0-0.0","task_version":"screening-mturk","missing":false,"accuracy":1},{"contexts":["red","green","blue"],"outcomes":[0,0,0],"key":37,"choice":0,"rt":101.64999999688007,"outcome":0,"trial":69,"correct":0,"trial_type":"three-arm-trial","trial_index":78,"time_elapsed":338551,"internal_node_id":"0.0-75.0-0.0","task_version":"screening-mturk","missing":false,"accuracy":1},{"contexts":["red","green","blue"],"outcomes":[1,0,0],"key":39,"choice":2,"rt":36.695000002509914,"outcome":0,"trial":70,"correct":0,"trial_type":"three-arm-trial","trial_index":79,"time_elapsed":339791,"internal_node_id":"0.0-76.0-0.0","task_version":"screening-mturk","missing":false,"accuracy":0},{"contexts":["red","green","blue"],"outcomes":[0,1,1],"key":39,"choice":2,"rt":124.62499999674037,"outcome":1,"trial":71,"correct":0,"trial_type":"three-arm-trial","trial_index":80,"time_elapsed":341118,"internal_node_id":"0.0-77.0-0.0","task_version":"screening-mturk","missing":false,"accuracy":0},{"contexts":["red","green","blue"],"outcomes":[1,0,0],"key":39,"choice":2,"rt":148.6600000062026,"outcome":0,"trial":72,"correct":0,"trial_type":"three-arm-trial","trial_index":81,"time_elapsed":342470,"internal_node_id":"0.0-78.0-0.0","task_version":"screening-mturk","missing":false,"accuracy":0},{"contexts":["red","green","blue"],"outcomes":[1,0,0],"key":37,"choice":0,"rt":45.36999999254476,"outcome":1,"trial":73,"correct":0,"trial_type":"three-arm-trial","trial_index":82,"time_elapsed":343718,"internal_node_id":"0.0-79.0-0.0","task_version":"screening-mturk","missing":false,"accuracy":1},{"contexts":["red","green","blue"],"outcomes":[1,0,0],"key":37,"choice":0,"rt":165.55499999958556,"outcome":1,"trial":74,"correct":0,"trial_type":"three-arm-trial","trial_index":83,"time_elapsed":345085,"internal_node_id":"0.0-80.0-0.0","task_version":"screening-mturk","missing":false,"accuracy":1},{"contexts":["red","green","blue"],"outcomes":[1,0,0],"key":37,"choice":0,"rt":77.78500000131316,"outcome":1,"trial":75,"correct":0,"trial_type":"three-arm-trial","trial_index":84,"time_elapsed":346365,"internal_node_id":"0.0-81.0-0.0","task_version":"screening-mturk","missing":false,"accuracy":1},{"contexts":["red","green","blue"],"outcomes":[0,0,1],"key":37,"choice":0,"rt":125.65500001073815,"outcome":0,"trial":76,"correct":2,"trial_type":"three-arm-trial","trial_index":85,"time_elapsed":347694,"internal_node_id":"0.0-82.0-0.0","task_version":"screening-mturk","missing":false,"accuracy":0},{"contexts":["red","green","blue"],"outcomes":[0,0,0],"key":38,"choice":1,"rt":309.1549999953713,"outcome":0,"trial":77,"correct":2,"trial_type":"three-arm-trial","trial_index":86,"time_elapsed":349207,"internal_node_id":"0.0-83.0-0.0","task_version":"screening-mturk","missing":false,"accuracy":0},{"contexts":["red","green","blue"],"outcomes":[0,1,1],"key":37,"choice":0,"rt":43.34000000380911,"outcome":0,"trial":78,"correct":2,"trial_type":"three-arm-trial","trial_index":87,"time_elapsed":350456,"internal_node_id":"0.0-84.0-0.0","task_version":"screening-mturk","missing":false,"accuracy":0},{"contexts":["red","green","blue"],"outcomes":[0,0,1],"key":39,"choice":2,"rt":242.21500000567175,"outcome":1,"trial":79,"correct":2,"trial_type":"three-arm-trial","trial_index":88,"time_elapsed":351901,"internal_node_id":"0.0-85.0-0.0","task_version":"screening-mturk","missing":false,"accuracy":1},{"contexts":["red","green","blue"],"outcomes":[0,0,1],"key":39,"choice":2,"rt":92.57500000239816,"outcome":1,"trial":80,"correct":2,"trial_type":"three-arm-trial","trial_index":89,"time_elapsed":353199,"internal_node_id":"0.0-86.0-0.0","task_version":"screening-mturk","missing":false,"accuracy":1},{"contexts":["red","green","blue"],"outcomes":[0,0,1],"key":39,"choice":2,"rt":163.7100000079954,"outcome":1,"trial":81,"correct":2,"trial_type":"three-arm-trial","trial_index":90,"time_elapsed":354566,"internal_node_id":"0.0-87.0-0.0","task_version":"screening-mturk","missing":false,"accuracy":1},{"contexts":["red","green","blue"],"outcomes":[0,1,1],"key":39,"choice":2,"rt":125.88500000128988,"outcome":1,"trial":82,"correct":2,"trial_type":"three-arm-trial","trial_index":91,"time_elapsed":355895,"internal_node_id":"0.0-88.0-0.0","task_version":"screening-mturk","missing":false,"accuracy":1},{"contexts":["red","green","blue"],"outcomes":[0,1,1],"key":39,"choice":2,"rt":19.925000000512227,"outcome":1,"trial":83,"correct":2,"trial_type":"three-arm-trial","trial_index":92,"time_elapsed":357119,"internal_node_id":"0.0-89.0-0.0","task_version":"screening-mturk","missing":false,"accuracy":1},{"contexts":["red","green","blue"],"outcomes":[1,0,1],"key":39,"choice":2,"rt":43.76999998930842,"outcome":1,"trial":84,"correct":2,"trial_type":"three-arm-trial","trial_index":93,"time_elapsed":358366,"internal_node_id":"0.0-90.0-0.0","task_version":"screening-mturk","missing":false,"accuracy":1},{"contexts":["red","green","blue"],"outcomes":[0,0,1],"key":39,"choice":2,"rt":4.704999999376014,"outcome":1,"trial":85,"correct":2,"trial_type":"three-arm-trial","trial_index":94,"time_elapsed":359575,"internal_node_id":"0.0-91.0-0.0","task_version":"screening-mturk","missing":false,"accuracy":1},{"contexts":["red","green","blue"],"outcomes":[0,0,1],"key":39,"choice":2,"rt":51.940000004833564,"outcome":1,"trial":86,"correct":2,"trial_type":"three-arm-trial","trial_index":95,"time_elapsed":360830,"internal_node_id":"0.0-92.0-0.0","task_version":"screening-mturk","missing":false,"accuracy":1},{"contexts":["red","green","blue"],"outcomes":[0,0,1],"key":39,"choice":2,"rt":22.68999999796506,"outcome":1,"trial":87,"correct":2,"trial_type":"three-arm-trial","trial_index":96,"time_elapsed":362055,"internal_node_id":"0.0-93.0-0.0","task_version":"screening-mturk","missing":false,"accuracy":1},{"contexts":["red","green","blue"],"outcomes":[1,0,1],"key":39,"choice":2,"rt":4.170000000158325,"outcome":1,"trial":88,"correct":2,"trial_type":"three-arm-trial","trial_index":97,"time_elapsed":363263,"internal_node_id":"0.0-94.0-0.0","task_version":"screening-mturk","missing":false,"accuracy":1},{"contexts":["red","green","blue"],"outcomes":[1,0,1],"key":39,"choice":2,"rt":147.0499999995809,"outcome":1,"trial":89,"correct":2,"trial_type":"three-arm-trial","trial_index":98,"time_elapsed":364614,"internal_node_id":"0.0-95.0-0.0","task_version":"screening-mturk","missing":false,"accuracy":1},{"contexts":["red","green","blue"],"outcomes":[0,1,1],"key":39,"choice":2,"rt":141.17000000260305,"outcome":1,"trial":90,"correct":2,"trial_type":"three-arm-trial","trial_index":99,"time_elapsed":365958,"internal_node_id":"0.0-96.0-0.0","task_version":"screening-mturk","missing":false,"accuracy":1},{"rt":15753.985000003013,"responses":{"age":"30","gender-categorical":"Male","gender-free-response":"","ethnicity":"Not Hispanic or Latino","race":["Black or African American"],"language":"Yes","fluency":"Very well","prolific":"No","prolific-this-study":"No"},"survey":"demographics","trial_type":"survey-demo","trial_index":100,"time_elapsed":381719,"internal_node_id":"0.0-97.0","task_version":"screening-mturk","interactions":"[{\"event\":\"blur\",\"trial\":5,\"time\":133476},{\"event\":\"focus\",\"trial\":5,\"time\":137249},{\"event\":\"blur\",\"trial\":5,\"time\":137897},{\"event\":\"focus\",\"trial\":5,\"time\":153321}]"}]