[{"success":true,"timeout":false,"failed_images":[],"failed_audio":[],"failed_video":[],"trial_type":"preload","trial_index":0,"time_elapsed":782,"internal_node_id":"0.0-0.0","task_version":"1.0","jspsych_version":"6.3.1"},{"success":true,"trial_type":"fullscreen","trial_index":1,"time_elapsed":16366,"internal_node_id":"0.0-1.0","task_version":"1.0","jspsych_version":"6.3.1"},{"view_history":[{"page_index":0,"viewing_time":8035}],"rt":8036,"trial_type":"instructions","trial_index":2,"time_elapsed":24406,"internal_node_id":"0.0-2.0","task_version":"1.0","jspsych_version":"6.3.1"},{"responses":{"Q06":"0","Q05":"0","Q04":"0","Q02":"0","Q03":"0","Q08":"0","Q07":"0","Q01":"0"},"rt":125479,"item_order":[5,4,3,1,2,7,6,0],"radio_events":[28819,38154,51194,57225,87200,101384,113680,122839],"key_events":[],"mouse_events":[0,28819,38154,51194,57225,74849,87200,101384,113680,115719,122839,125479],"straightlining":1,"zigzagging":0,"honeypot":0,"survey":"depression","trial_type":"survey-template","trial_index":3,"time_elapsed":149909,"internal_node_id":"0.0-3.0","task_version":"1.0","jspsych_version":"6.3.1"},{"responses":{"Q03":"1","Q04":"0","Q07":"0","Q08":"0","Q01":"0","Q02":"0","Q06":"0","Q05":"0"},"rt":79590,"item_order":[2,3,6,7,0,1,5,4],"radio_events":[40139,43211,49346,55867,58738,64025,72930,76257],"key_events":[],"mouse_events":[40139,43211,49346,55867,58738,64025,72930,76257,79590],"straightlining":0.875,"zigzagging":0.14285714285714285,"honeypot":0,"survey":"anxiety","trial_type":"survey-template","trial_index":4,"time_elapsed":229516,"internal_node_id":"0.0-4.0","task_version":"1.0","jspsych_version":"6.3.1"},{"responses":{"Q06":"1","Q05":"0","Q03":"0","Q08":"3","Q01":"0","Q04":"1","Q02":"1","Q07":"0"},"rt":168292,"item_order":[5,4,2,7,0,3,1,6],"radio_events":[23725,36893,59843,80939,104273,122666,151095,166167],"key_events":[],"mouse_events":[23725,36893,59843,80939,104273,122666,151095,166167,168292],"straightlining":0.5,"zigzagging":0.7142857142857143,"honeypot":0,"survey":"mania","trial_type":"survey-template","trial_index":5,"time_elapsed":397821,"internal_node_id":"0.0-5.0","task_version":"1.0","jspsych_version":"6.3.1"},{"responses":{"Q04":"5","Q05":"5","Q06":"5","Q03":"5","Q02":"4","Q01":"5","Q07":"3"},"rt":62369,"item_order":[3,4,5,2,1,0,6],"radio_events":[16830,19863,24374,30142,37821,43886,48612],"key_events":[],"mouse_events":[16830,19863,24374,30142,37821,43886,47645,48612,62369],"straightlining":0.42857142857142855,"zigzagging":0.16666666666666666,"honeypot":0,"survey":"artistic","trial_type":"survey-template","trial_index":6,"time_elapsed":460202,"internal_node_id":"0.0-6.0","task_version":"1.0","jspsych_version":"6.3.1"},{"responses":{"Q05":"2","Q01":"1","Q03":"4","Q06":"1","Q02":"1","Q07":"5","Q04":"1"},"rt":59896,"item_order":[4,0,2,5,1,6,3],"radio_events":[23110,25918,34549,38885,41997,56252,58188],"key_events":[],"mouse_events":[23110,25918,34549,38885,41997,51780,56252,58188,59896],"straightlining":0.5714285714285714,"zigzagging":0.16666666666666666,"honeypot":0,"survey":"greed","trial_type":"survey-template","trial_index":7,"time_elapsed":520110,"internal_node_id":"0.0-7.0","task_version":"1.0","jspsych_version":"6.3.1"},{"view_history":"[{\"page_index\":0,\"viewing_time\":9536},{\"page_index\":1,\"viewing_time\":7089},{\"page_index\":2,\"viewing_time\":25758},{\"page_index\":3,\"viewing_time\":63390},{\"page_index\":4,\"viewing_time\":23574},{\"page_index\":5,\"viewing_time\":5080},{\"page_index\":6,\"viewing_time\":7984},{\"page_index\":7,\"viewing_time\":12855},{\"page_index\":8,\"viewing_time\":16151},{\"page_index\":9,\"viewing_time\":11672},{\"page_index\":10,\"viewing_time\":7816}]","rt":190905,"trial_type":"two-step-instructions","trial_index":8,"time_elapsed":711033,"internal_node_id":"0.0-8.0-1.0","task_version":"1.0","jspsych_version":"6.3.1"},{"responses":["left/right arrow keys","True","True"],"num_errors":0,"rt":27610,"quiz":1,"trial_type":"two-step-comprehension","trial_index":9,"time_elapsed":738651,"internal_node_id":"0.0-8.0-2.0","task_version":"1.0","jspsych_version":"6.3.1"},{"view_history":"[{\"page_index\":0,\"viewing_time\":13952}]","rt":13953,"phase":"instructions_1b","trial_type":"two-step-instructions","trial_index":10,"time_elapsed":752614,"internal_node_id":"0.0-9.0-0.0-0.0","task_version":"1.0","jspsych_version":"6.3.1"},{"state_2_ids":[0,1],"state_2_key":0,"state_2_choice":0,"state_2_rt":3430,"outcome":0,"screen_resolution":[1366,768],"minimum_resolution":1,"trial_type":"alien-practice","trial_index":11,"time_elapsed":758270,"internal_node_id":"0.0-9.0-1.0-0.0","task_version":"1.0","jspsych_version":"6.3.1"},{"state_2_ids":[0,1],"state_2_key":1,"state_2_choice":1,"state_2_rt":1516,"outcome":0,"screen_resolution":[1366,768],"minimum_resolution":1,"trial_type":"alien-practice","trial_index":12,"time_elapsed":762000,"internal_node_id":"0.0-9.0-2.0-0.0","task_version":"1.0","jspsych_version":"6.3.1"},{"state_2_ids":[0,1],"state_2_key":1,"state_2_choice":1,"state_2_rt":920,"outcome":1,"screen_resolution":[1366,768],"minimum_resolution":1,"trial_type":"alien-practice","trial_index":13,"time_elapsed":765140,"internal_node_id":"0.0-9.0-3.0-0.0","task_version":"1.0","jspsych_version":"6.3.1"},{"state_2_ids":[0,1],"state_2_key":1,"state_2_choice":1,"state_2_rt":1155,"outcome":1,"screen_resolution":[1366,768],"minimum_resolution":1,"trial_type":"alien-practice","trial_index":14,"time_elapsed":768509,"internal_node_id":"0.0-9.0-4.0-0.0","task_version":"1.0","jspsych_version":"6.3.1"},{"state_2_ids":[0,1],"state_2_key":1,"state_2_choice":1,"state_2_rt":1209,"outcome":1,"screen_resolution":[1366,768],"minimum_resolution":1,"trial_type":"alien-practice","trial_index":15,"time_elapsed":771940,"internal_node_id":"0.0-9.0-5.0-0.0","task_version":"1.0","jspsych_version":"6.3.1"},{"view_history":"[{\"page_index\":0,\"viewing_time\":6174},{\"page_index\":1,\"viewing_time\":7583},{\"page_index\":2,\"viewing_time\":12744},{\"page_index\":3,\"viewing_time\":20527},{\"page_index\":4,\"viewing_time\":9103},{\"page_index\":5,\"viewing_time\":4185}]","rt":60317,"trial_type":"two-step-instructions","trial_index":16,"time_elapsed":832268,"internal_node_id":"0.0-10.0-1.0","task_version":"1.0","jspsych_version":"6.3.1"},{"responses":["left/right arrow keys","True","True"],"num_errors":1,"rt":29938,"quiz":2,"trial_type":"two-step-comprehension","trial_index":17,"time_elapsed":862213,"internal_node_id":"0.0-10.0-2.0","task_version":"1.0","jspsych_version":"6.3.1"},{"view_history":"[{\"page_index\":0,\"viewing_time\":4002}]","rt":4002,"trial_type":"two-step-instructions","trial_index":18,"time_elapsed":866226,"internal_node_id":"0.0-10.1-0.1-0.1","task_version":"1.0","jspsych_version":"6.3.1"},{"view_history":"[{\"page_index\":0,\"viewing_time\":1901},{\"page_index\":1,\"viewing_time\":4224},{\"page_index\":2,\"viewing_time\":3728},{\"page_index\":3,\"viewing_time\":3679},{\"page_index\":4,\"viewing_time\":1112}]","rt":14645,"trial_type":"two-step-instructions","trial_index":19,"time_elapsed":880882,"internal_node_id":"0.0-10.1-1.1","task_version":"1.0","jspsych_version":"6.3.1"},{"responses":["left/right arrow keys","False","True"],"num_errors":0,"rt":16651,"quiz":2,"trial_type":"two-step-comprehension","trial_index":20,"time_elapsed":897541,"internal_node_id":"0.0-10.1-2.1","task_version":"1.0","jspsych_version":"6.3.1"},{"view_history":"[{\"page_index\":0,\"viewing_time\":5505},{\"page_index\":1,\"viewing_time\":7112},{\"page_index\":2,\"viewing_time\":20695}]","rt":33313,"trial_type":"two-step-instructions","trial_index":21,"time_elapsed":930864,"internal_node_id":"0.0-11.0-0.0","task_version":"1.0","jspsych_version":"6.3.1"},{"state_1_ids":[1,0],"state_1_key":0,"state_1_choice":1,"state_1_rt":2660,"transition":1,"state":1,"state_2_ids":[2,3],"state_2_key":0,"state_2_choice":2,"state_2_rt":7739,"outcome":0,"rocket_colors":["#48a782","#955db9"],"planet_colors":["#5f6f81","#7f5d5d"],"screen_resolution":[1366,768],"minimum_resolution":1,"trial":0,"trial_type":"two-step-trial","trial_index":22,"time_elapsed":943279,"internal_node_id":"0.0-11.0-1.0-0.0","task_version":"1.0","jspsych_version":"6.3.1","missing":false},{"state_1_ids":[1,0],"state_1_key":1,"state_1_choice":0,"state_1_rt":4610,"transition":0,"state":1,"state_2_ids":[2,3],"state_2_key":1,"state_2_choice":3,"state_2_rt":2943,"outcome":1,"rocket_colors":["#48a782","#955db9"],"planet_colors":["#5f6f81","#7f5d5d"],"screen_resolution":[1366,768],"minimum_resolution":1,"trial":0,"trial_type":"two-step-trial","trial_index":23,"time_elapsed":952852,"internal_node_id":"0.0-11.0-1.0-0.1","task_version":"1.0","jspsych_version":"6.3.1","missing":false},{"state_1_ids":[1,0],"state_1_key":1,"state_1_choice":0,"state_1_rt":2997,"transition":1,"state":0,"state_2_ids":[0,1],"state_2_key":1,"state_2_choice":1,"state_2_rt":8839,"outcome":0,"rocket_colors":["#48a782","#955db9"],"planet_colors":["#5f6f81","#7f5d5d"],"screen_resolution":[1366,768],"minimum_resolution":1,"trial":0,"trial_type":"two-step-trial","trial_index":24,"time_elapsed":966712,"internal_node_id":"0.0-11.0-1.0-0.2","task_version":"1.0","jspsych_version":"6.3.1","missing":false},{"state_1_ids":[0,1],"state_1_key":0,"state_1_choice":0,"state_1_rt":2660,"transition":1,"state":0,"state_2_ids":[0,1],"state_2_key":1,"state_2_choice":1,"state_2_rt":5114,"outcome":1,"rocket_colors":["#48a782","#955db9"],"planet_colors":["#5f6f81","#7f5d5d"],"screen_resolution":[1366,768],"minimum_resolution":1,"trial":0,"trial_type":"two-step-trial","trial_index":25,"time_elapsed":976502,"internal_node_id":"0.0-11.0-1.0-0.3","task_version":"1.0","jspsych_version":"6.3.1","missing":false},{"state_1_ids":[1,0],"state_1_key":1,"state_1_choice":0,"state_1_rt":3503,"transition":1,"state":0,"state_2_ids":[0,1],"state_2_key":1,"state_2_choice":1,"state_2_rt":2842,"outcome":1,"rocket_colors":["#48a782","#955db9"],"planet_colors":["#5f6f81","#7f5d5d"],"screen_resolution":[1366,768],"minimum_resolution":1,"trial":0,"trial_type":"two-step-trial","trial_index":26,"time_elapsed":984862,"internal_node_id":"0.0-11.0-1.0-0.4","task_version":"1.0","jspsych_version":"6.3.1","missing":false},{"state_1_ids":[0,1],"state_1_key":0,"state_1_choice":0,"state_1_rt":1213,"transition":1,"state":0,"state_2_ids":[0,1],"state_2_key":1,"state_2_choice":1,"state_2_rt":1350,"outcome":0,"rocket_colors":["#48a782","#955db9"],"planet_colors":["#5f6f81","#7f5d5d"],"screen_resolution":[1366,768],"minimum_resolution":1,"trial":0,"trial_type":"two-step-trial","trial_index":27,"time_elapsed":989441,"internal_node_id":"0.0-11.0-1.0-0.5","task_version":"1.0","jspsych_version":"6.3.1","missing":false},{"state_1_ids":[0,1],"state_1_key":0,"state_1_choice":0,"state_1_rt":2504,"transition":1,"state":0,"state_2_ids":[0,1],"state_2_key":1,"state_2_choice":1,"state_2_rt":2620,"outcome":0,"rocket_colors":["#48a782","#955db9"],"planet_colors":["#5f6f81","#7f5d5d"],"screen_resolution":[1366,768],"minimum_resolution":1,"trial":0,"trial_type":"two-step-trial","trial_index":28,"time_elapsed":996581,"internal_node_id":"0.0-11.0-1.0-0.6","task_version":"1.0","jspsych_version":"6.3.1","missing":false},{"state_1_ids":[0,1],"state_1_key":1,"state_1_choice":1,"state_1_rt":1602,"transition":1,"state":1,"state_2_ids":[2,3],"state_2_key":0,"state_2_choice":2,"state_2_rt":3577,"outcome":0,"rocket_colors":["#48a782","#955db9"],"planet_colors":["#5f6f81","#7f5d5d"],"screen_resolution":[1366,768],"minimum_resolution":1,"trial":0,"trial_type":"two-step-trial","trial_index":29,"time_elapsed":1003779,"internal_node_id":"0.0-11.0-1.0-0.7","task_version":"1.0","jspsych_version":"6.3.1","missing":false},{"state_1_ids":[1,0],"state_1_key":0,"state_1_choice":1,"state_1_rt":1052,"transition":1,"state":1,"state_2_ids":[2,3],"state_2_key":1,"state_2_choice":3,"state_2_rt":2732,"outcome":1,"rocket_colors":["#48a782","#955db9"],"planet_colors":["#5f6f81","#7f5d5d"],"screen_resolution":[1366,768],"minimum_resolution":1,"trial":0,"trial_type":"two-step-trial","trial_index":30,"time_elapsed":1009580,"internal_node_id":"0.0-11.0-1.0-0.8","task_version":"1.0","jspsych_version":"6.3.1","missing":false},{"state_1_ids":[0,1],"state_1_key":1,"state_1_choice":1,"state_1_rt":3686,"transition":1,"state":1,"state_2_ids":[2,3],"state_2_key":1,"state_2_choice":3,"state_2_rt":1572,"outcome":1,"rocket_colors":["#48a782","#955db9"],"planet_colors":["#5f6f81","#7f5d5d"],"screen_resolution":[1366,768],"minimum_resolution":1,"trial":0,"trial_type":"two-step-trial","trial_index":31,"time_elapsed":1016850,"internal_node_id":"0.0-11.0-1.0-0.9","task_version":"1.0","jspsych_version":"6.3.1","missing":false},{"view_history":"[{\"page_index\":0,\"viewing_time\":7023},{\"page_index\":1,\"viewing_time\":4872},{\"page_index\":2,\"viewing_time\":3535},{\"page_index\":3,\"viewing_time\":6216},{\"page_index\":4,\"viewing_time\":12121},{\"page_index\":5,\"viewing_time\":28101},{\"page_index\":6,\"viewing_time\":6256}]","rt":68125,"trial_type":"two-step-instructions","trial_index":32,"time_elapsed":1084985,"internal_node_id":"0.0-12.0-1.0","task_version":"1.0","jspsych_version":"6.3.1"},{"responses":["True","False","True"],"num_errors":0,"rt":47160,"quiz":3,"trial_type":"two-step-comprehension","trial_index":33,"time_elapsed":1132150,"internal_node_id":"0.0-12.0-2.0","task_version":"1.0","jspsych_version":"6.3.1"},{"view_history":"[{\"page_index\":0,\"viewing_time\":3100},{\"page_index\":1,\"viewing_time\":6168},{\"page_index\":2,\"viewing_time\":6255}]","rt":15525,"trial_type":"two-step-instructions","trial_index":34,"time_elapsed":1147677,"internal_node_id":"0.0-13.0","task_version":"1.0","jspsych_version":"6.3.1"},{"state_1_ids":[1,0],"state_1_key":0,"state_1_choice":1,"state_1_rt":5882,"transition":0,"state":0,"state_2_ids":[0,1],"state_2_key":0,"state_2_choice":0,"state_2_rt":2320,"outcome":1,"rocket_colors":["#486ea7","#a75248"],"planet_colors":["#5b7c65","#706081"],"screen_resolution":[1366,768],"minimum_resolution":1,"trial":1,"drifts":[0.412,0.317,0.453,0.743],"drift_ix":2,"trial_type":"two-step-trial","trial_index":35,"time_elapsed":1157909,"internal_node_id":"0.0-14.0-0.0","task_version":"1.0","jspsych_version":"6.3.1","browser_interactions":0,"missing":false},{"state_1_ids":[0,1],"state_1_key":1,"state_1_choice":1,"state_1_rt":1131,"transition":1,"state":1,"state_2_ids":[2,3],"state_2_key":1,"state_2_choice":3,"state_2_rt":3841,"outcome":1,"rocket_colors":["#486ea7","#a75248"],"planet_colors":["#5b7c65","#706081"],"screen_resolution":[1366,768],"minimum_resolution":1,"trial":2,"drifts":[0.402,0.305,0.461,0.702],"drift_ix":2,"trial_type":"two-step-trial","trial_index":36,"time_elapsed":1164900,"internal_node_id":"0.0-15.0-0.0","task_version":"1.0","jspsych_version":"6.3.1","browser_interactions":0,"missing":false},{"state_1_ids":[1,0],"state_1_key":0,"state_1_choice":1,"state_1_rt":1316,"transition":1,"state":1,"state_2_ids":[2,3],"state_2_key":1,"state_2_choice":3,"state_2_rt":1233,"outcome":1,"rocket_colors":["#486ea7","#a75248"],"planet_colors":["#5b7c65","#706081"],"screen_resolution":[1366,768],"minimum_resolution":1,"trial":3,"drifts":[0.373,0.327,0.445,0.732],"drift_ix":2,"trial_type":"two-step-trial","trial_index":37,"time_elapsed":1169460,"internal_node_id":"0.0-16.0-0.0","task_version":"1.0","jspsych_version":"6.3.1","browser_interactions":0,"missing":false},{"state_1_ids":[1,0],"state_1_key":0,"state_1_choice":1,"state_1_rt":947,"transition":0,"state":0,"state_2_ids":[0,1],"state_2_key":0,"state_2_choice":0,"state_2_rt":4111,"outcome":0,"rocket_colors":["#486ea7","#a75248"],"planet_colors":["#5b7c65","#706081"],"screen_resolution":[1366,768],"minimum_resolution":1,"trial":4,"drifts":[0.381,0.303,0.418,0.736],"drift_ix":2,"trial_type":"two-step-trial","trial_index":38,"time_elapsed":1176539,"internal_node_id":"0.0-17.0-0.0","task_version":"1.0","jspsych_version":"6.3.1","browser_interactions":0,"missing":false},{"state_1_ids":[0,1],"state_1_key":1,"state_1_choice":1,"state_1_rt":1237,"transition":1,"state":1,"state_2_ids":[2,3],"state_2_key":1,"state_2_choice":3,"state_2_rt":1758,"outcome":0,"rocket_colors":["#486ea7","#a75248"],"planet_colors":["#5b7c65","#706081"],"screen_resolution":[1366,768],"minimum_resolution":1,"trial":5,"drifts":[0.366,0.363,0.401,0.709],"drift_ix":2,"trial_type":"two-step-trial","trial_index":39,"time_elapsed":1181549,"internal_node_id":"0.0-18.0-0.0","task_version":"1.0","jspsych_version":"6.3.1","browser_interactions":0,"missing":false},{"state_1_ids":[0,1],"state_1_key":1,"state_1_choice":1,"state_1_rt":1071,"transition":1,"state":1,"state_2_ids":[2,3],"state_2_key":1,"state_2_choice":3,"state_2_rt":1937,"outcome":1,"rocket_colors":["#486ea7","#a75248"],"planet_colors":["#5b7c65","#706081"],"screen_resolution":[1366,768],"minimum_resolution":1,"trial":6,"drifts":[0.393,0.368,0.383,0.711],"drift_ix":2,"trial_type":"two-step-trial","trial_index":40,"time_elapsed":1186569,"internal_node_id":"0.0-19.0-0.0","task_version":"1.0","jspsych_version":"6.3.1","browser_interactions":0,"missing":false},{"state_1_ids":[1,0],"state_1_key":1,"state_1_choice":0,"state_1_rt":2660,"transition":1,"state":0,"state_2_ids":[0,1],"state_2_key":0,"state_2_choice":0,"state_2_rt":2250,"outcome":0,"rocket_colors":["#486ea7","#a75248"],"planet_colors":["#5b7c65","#706081"],"screen_resolution":[1366,768],"minimum_resolution":1,"trial":7,"drifts":[0.4,0.405,0.425,0.678],"drift_ix":2,"trial_type":"two-step-trial","trial_index":41,"time_elapsed":1193499,"internal_node_id":"0.0-20.0-0.0","task_version":"1.0","jspsych_version":"6.3.1","browser_interactions":0,"missing":false},{"state_1_ids":[0,1],"state_1_key":0,"state_1_choice":0,"state_1_rt":1590,"transition":0,"state":1,"state_2_ids":[2,3],"state_2_key":1,"state_2_choice":3,"state_2_rt":1073,"outcome":1,"rocket_colors":["#486ea7","#a75248"],"planet_colors":["#5b7c65","#706081"],"screen_resolution":[1366,768],"minimum_resolution":1,"trial":8,"drifts":[0.383,0.388,0.415,0.699],"drift_ix":2,"trial_type":"two-step-trial","trial_index":42,"time_elapsed":1198174,"internal_node_id":"0.0-21.0-0.0","task_version":"1.0","jspsych_version":"6.3.1","browser_interactions":0,"missing":false},{"state_1_ids":[1,0],"state_1_key":1,"state_1_choice":0,"state_1_rt":1373,"transition":1,"state":0,"state_2_ids":[0,1],"state_2_key":1,"state_2_choice":1,"state_2_rt":2100,"outcome":0,"rocket_colors":["#486ea7","#a75248"],"planet_colors":["#5b7c65","#706081"],"screen_resolution":[1366,768],"minimum_resolution":1,"trial":9,"drifts":[0.347,0.439,0.405,0.713],"drift_ix":2,"trial_type":"two-step-trial","trial_index":43,"time_elapsed":1203665,"internal_node_id":"0.0-22.0-0.0","task_version":"1.0","jspsych_version":"6.3.1","browser_interactions":0,"missing":false},{"state_1_ids":[0,1],"state_1_key":1,"state_1_choice":1,"state_1_rt":1277,"transition":1,"state":1,"state_2_ids":[2,3],"state_2_key":1,"state_2_choice":3,"state_2_rt":901,"outcome":1,"rocket_colors":["#486ea7","#a75248"],"planet_colors":["#5b7c65","#706081"],"screen_resolution":[1366,768],"minimum_resolution":1,"trial":10,"drifts":[0.367,0.459,0.46,0.731],"drift_ix":2,"trial_type":"two-step-trial","trial_index":44,"time_elapsed":1207865,"internal_node_id":"0.0-23.0-0.0","task_version":"1.0","jspsych_version":"6.3.1","browser_interactions":0,"missing":false},{"state_1_ids":[1,0],"state_1_key":1,"state_1_choice":0,"state_1_rt":1624,"transition":1,"state":0,"state_2_ids":[0,1],"state_2_key":1,"state_2_choice":1,"state_2_rt":1772,"outcome":1,"rocket_colors":["#486ea7","#a75248"],"planet_colors":["#5b7c65","#706081"],"screen_resolution":[1366,768],"minimum_resolution":1,"trial":11,"drifts":[0.397,0.451,0.461,0.701],"drift_ix":2,"trial_type":"two-step-trial","trial_index":45,"time_elapsed":1213315,"internal_node_id":"0.0-24.0-0.0","task_version":"1.0","jspsych_version":"6.3.1","browser_interactions":0,"missing":false},{"state_1_ids":[0,1],"state_1_key":0,"state_1_choice":0,"state_1_rt":1728,"transition":0,"state":1,"state_2_ids":[2,3],"state_2_key":1,"state_2_choice":3,"state_2_rt":1103,"outcome":1,"rocket_colors":["#486ea7","#a75248"],"planet_colors":["#5b7c65","#706081"],"screen_resolution":[1366,768],"minimum_resolution":1,"trial":12,"drifts":[0.357,0.426,0.459,0.707],"drift_ix":2,"trial_type":"two-step-trial","trial_index":46,"time_elapsed":1218158,"internal_node_id":"0.0-25.0-0.0","task_version":"1.0","jspsych_version":"6.3.1","browser_interactions":0,"missing":false},{"state_1_ids":[0,1],"state_1_key":0,"state_1_choice":0,"state_1_rt":883,"transition":0,"state":1,"state_2_ids":[2,3],"state_2_key":1,"state_2_choice":3,"state_2_rt":1190,"outcome":1,"rocket_colors":["#486ea7","#a75248"],"planet_colors":["#5b7c65","#706081"],"screen_resolution":[1366,768],"minimum_resolution":1,"trial":13,"drifts":[0.337,0.398,0.428,0.721],"drift_ix":2,"trial_type":"two-step-trial","trial_index":47,"time_elapsed":1222248,"internal_node_id":"0.0-26.0-0.0","task_version":"1.0","jspsych_version":"6.3.1","browser_interactions":0,"missing":false},{"state_1_ids":[0,1],"state_1_key":1,"state_1_choice":1,"state_1_rt":2656,"transition":1,"state":1,"state_2_ids":[2,3],"state_2_key":1,"state_2_choice":3,"state_2_rt":1103,"outcome":1,"rocket_colors":["#486ea7","#a75248"],"planet_colors":["#5b7c65","#706081"],"screen_resolution":[1366,768],"minimum_resolution":1,"trial":14,"drifts":[0.283,0.408,0.384,0.719],"drift_ix":2,"trial_type":"two-step-trial","trial_index":48,"time_elapsed":1228017,"internal_node_id":"0.0-27.0-0.0","task_version":"1.0","jspsych_version":"6.3.1","browser_interactions":0,"missing":false},{"state_1_ids":[0,1],"state_1_key":0,"state_1_choice":0,"state_1_rt":1146,"transition":1,"state":0,"state_2_ids":[0,1],"state_2_key":1,"state_2_choice":1,"state_2_rt":1229,"outcome":0,"rocket_colors":["#486ea7","#a75248"],"planet_colors":["#5b7c65","#706081"],"screen_resolution":[1366,768],"minimum_resolution":1,"trial":15,"drifts":[0.295,0.37,0.375,0.738],"drift_ix":2,"trial_type":"two-step-trial","trial_index":49,"time_elapsed":1232418,"internal_node_id":"0.0-28.0-0.0","task_version":"1.0","jspsych_version":"6.3.1","browser_interactions":0,"missing":false},{"state_1_ids":[1,0],"state_1_key":1,"state_1_choice":0,"state_1_rt":2786,"transition":1,"state":0,"state_2_ids":[0,1],"state_2_key":1,"state_2_choice":1,"state_2_rt":2110,"outcome":1,"rocket_colors":["#486ea7","#a75248"],"planet_colors":["#5b7c65","#706081"],"screen_resolution":[1366,768],"minimum_resolution":1,"trial":16,"drifts":[0.305,0.343,0.325,0.713],"drift_ix":2,"trial_type":"two-step-trial","trial_index":50,"time_elapsed":1239327,"internal_node_id":"0.0-29.0-0.0","task_version":"1.0","jspsych_version":"6.3.1","browser_interactions":0,"missing":false},{"state_1_ids":[0,1],"state_1_key":1,"state_1_choice":1,"state_1_rt":1528,"transition":1,"state":1,"state_2_ids":[2,3],"state_2_key":1,"state_2_choice":3,"state_2_rt":774,"outcome":1,"rocket_colors":["#486ea7","#a75248"],"planet_colors":["#5b7c65","#706081"],"screen_resolution":[1366,768],"minimum_resolution":1,"trial":17,"drifts":[0.305,0.313,0.334,0.705],"drift_ix":2,"trial_type":"two-step-trial","trial_index":51,"time_elapsed":1243647,"internal_node_id":"0.0-30.0-0.0","task_version":"1.0","jspsych_version":"6.3.1","browser_interactions":0,"missing":false},{"state_1_ids":[1,0],"state_1_key":1,"state_1_choice":0,"state_1_rt":1402,"transition":1,"state":0,"state_2_ids":[0,1],"state_2_key":1,"state_2_choice":1,"state_2_rt":1382,"outcome":0,"rocket_colors":["#486ea7","#a75248"],"planet_colors":["#5b7c65","#706081"],"screen_resolution":[1366,768],"minimum_resolution":1,"trial":18,"drifts":[0.316,0.314,0.353,0.728],"drift_ix":2,"trial_type":"two-step-trial","trial_index":52,"time_elapsed":1248450,"internal_node_id":"0.0-31.0-0.0","task_version":"1.0","jspsych_version":"6.3.1","browser_interactions":0,"missing":false},{"state_1_ids":[0,1],"state_1_key":0,"state_1_choice":0,"state_1_rt":1861,"transition":1,"state":0,"state_2_ids":[0,1],"state_2_key":1,"state_2_choice":1,"state_2_rt":1205,"outcome":1,"rocket_colors":["#486ea7","#a75248"],"planet_colors":["#5b7c65","#706081"],"screen_resolution":[1366,768],"minimum_resolution":1,"trial":19,"drifts":[0.317,0.335,0.368,0.745],"drift_ix":2,"trial_type":"two-step-trial","trial_index":53,"time_elapsed":1253530,"internal_node_id":"0.0-32.0-0.0","task_version":"1.0","jspsych_version":"6.3.1","browser_interactions":0,"missing":false},{"state_1_ids":[0,1],"state_1_key":0,"state_1_choice":0,"state_1_rt":2145,"transition":1,"state":0,"state_2_ids":[0,1],"state_2_key":1,"state_2_choice":1,"state_2_rt":1159,"outcome":1,"rocket_colors":["#486ea7","#a75248"],"planet_colors":["#5b7c65","#706081"],"screen_resolution":[1366,768],"minimum_resolution":1,"trial":20,"drifts":[0.307,0.313,0.421,0.737],"drift_ix":2,"trial_type":"two-step-trial","trial_index":54,"time_elapsed":1258850,"internal_node_id":"0.0-33.0-0.0","task_version":"1.0","jspsych_version":"6.3.1","browser_interactions":0,"missing":false},{"state_1_ids":[1,0],"state_1_key":1,"state_1_choice":0,"state_1_rt":1492,"transition":1,"state":0,"state_2_ids":[0,1],"state_2_key":1,"state_2_choice":1,"state_2_rt":1107,"outcome":1,"rocket_colors":["#486ea7","#a75248"],"planet_colors":["#5b7c65","#706081"],"screen_resolution":[1366,768],"minimum_resolution":1,"trial":21,"drifts":[0.31,0.305,0.401,0.745],"drift_ix":2,"trial_type":"two-step-trial","trial_index":55,"time_elapsed":1263461,"internal_node_id":"0.0-34.0-0.0","task_version":"1.0","jspsych_version":"6.3.1","browser_interactions":0,"missing":false},{"state_1_ids":[0,1],"state_1_key":0,"state_1_choice":0,"state_1_rt":943,"transition":1,"state":0,"state_2_ids":[0,1],"state_2_key":1,"state_2_choice":1,"state_2_rt":845,"outcome":1,"rocket_colors":["#486ea7","#a75248"],"planet_colors":["#5b7c65","#706081"],"screen_resolution":[1366,768],"minimum_resolution":1,"trial":22,"drifts":[0.326,0.31,0.391,0.735],"drift_ix":2,"trial_type":"two-step-trial","trial_index":56,"time_elapsed":1267261,"internal_node_id":"0.0-35.0-0.0","task_version":"1.0","jspsych_version":"6.3.1","browser_interactions":0,"missing":false},{"state_1_ids":[0,1],"state_1_key":0,"state_1_choice":0,"state_1_rt":815,"transition":0,"state":1,"state_2_ids":[2,3],"state_2_key":1,"state_2_choice":3,"state_2_rt":1056,"outcome":0,"rocket_colors":["#486ea7","#a75248"],"planet_colors":["#5b7c65","#706081"],"screen_resolution":[1366,768],"minimum_resolution":1,"trial":23,"drifts":[0.331,0.302,0.379,0.741],"drift_ix":2,"trial_type":"two-step-trial","trial_index":57,"time_elapsed":1271141,"internal_node_id":"0.0-36.0-0.0","task_version":"1.0","jspsych_version":"6.3.1","browser_interactions":0,"missing":false},{"state_1_ids":[0,1],"state_1_key":1,"state_1_choice":1,"state_1_rt":1873,"transition":0,"state":0,"state_2_ids":[0,1],"state_2_key":1,"state_2_choice":1,"state_2_rt":1415,"outcome":0,"rocket_colors":["#486ea7","#a75248"],"planet_colors":["#5b7c65","#706081"],"screen_resolution":[1366,768],"minimum_resolution":1,"trial":24,"drifts":[0.358,0.323,0.393,0.738],"drift_ix":2,"trial_type":"two-step-trial","trial_index":58,"time_elapsed":1276441,"internal_node_id":"0.0-37.0-0.0","task_version":"1.0","jspsych_version":"6.3.1","browser_interactions":0,"missing":false},{"state_1_ids":[1,0],"state_1_key":0,"state_1_choice":1,"state_1_rt":766,"transition":1,"state":1,"state_2_ids":[2,3],"state_2_key":1,"state_2_choice":3,"state_2_rt":851,"outcome":1,"rocket_colors":["#486ea7","#a75248"],"planet_colors":["#5b7c65","#706081"],"screen_resolution":[1366,768],"minimum_resolution":1,"trial":25,"drifts":[0.342,0.299,0.368,0.724],"drift_ix":2,"trial_type":"two-step-trial","trial_index":59,"time_elapsed":1280080,"internal_node_id":"0.0-38.0-0.0","task_version":"1.0","jspsych_version":"6.3.1","browser_interactions":0,"missing":false},{"state_1_ids":[0,1],"state_1_key":1,"state_1_choice":1,"state_1_rt":956,"transition":1,"state":1,"state_2_ids":[2,3],"state_2_key":1,"state_2_choice":3,"state_2_rt":771,"outcome":1,"rocket_colors":["#486ea7","#a75248"],"planet_colors":["#5b7c65","#706081"],"screen_resolution":[1366,768],"minimum_resolution":1,"trial":26,"drifts":[0.362,0.294,0.373,0.738],"drift_ix":2,"trial_type":"two-step-trial","trial_index":60,"time_elapsed":1283830,"internal_node_id":"0.0-39.0-0.0","task_version":"1.0","jspsych_version":"6.3.1","browser_interactions":0,"missing":false},{"state_1_ids":[1,0],"state_1_key":0,"state_1_choice":1,"state_1_rt":1112,"transition":1,"state":1,"state_2_ids":[2,3],"state_2_key":1,"state_2_choice":3,"state_2_rt":609,"outcome":1,"rocket_colors":["#486ea7","#a75248"],"planet_colors":["#5b7c65","#706081"],"screen_resolution":[1366,768],"minimum_resolution":1,"trial":27,"drifts":[0.332,0.286,0.389,0.683],"drift_ix":2,"trial_type":"two-step-trial","trial_index":61,"time_elapsed":1287570,"internal_node_id":"0.0-40.0-0.0","task_version":"1.0","jspsych_version":"6.3.1","browser_interactions":0,"missing":false},{"state_1_ids":[0,1],"state_1_key":1,"state_1_choice":1,"state_1_rt":1535,"transition":1,"state":1,"state_2_ids":[2,3],"state_2_key":1,"state_2_choice":3,"state_2_rt":629,"outcome":1,"rocket_colors":["#486ea7","#a75248"],"planet_colors":["#5b7c65","#706081"],"screen_resolution":[1366,768],"minimum_resolution":1,"trial":28,"drifts":[0.34,0.303,0.383,0.689],"drift_ix":2,"trial_type":"two-step-trial","trial_index":62,"time_elapsed":1291750,"internal_node_id":"0.0-41.0-0.0","task_version":"1.0","jspsych_version":"6.3.1","browser_interactions":0,"missing":false},{"state_1_ids":[1,0],"state_1_key":0,"state_1_choice":1,"state_1_rt":891,"transition":1,"state":1,"state_2_ids":[2,3],"state_2_key":1,"state_2_choice":3,"state_2_rt":657,"outcome":0,"rocket_colors":["#486ea7","#a75248"],"planet_colors":["#5b7c65","#706081"],"screen_resolution":[1366,768],"minimum_resolution":1,"trial":29,"drifts":[0.317,0.302,0.385,0.679],"drift_ix":2,"trial_type":"two-step-trial","trial_index":63,"time_elapsed":1295317,"internal_node_id":"0.0-42.0-0.0","task_version":"1.0","jspsych_version":"6.3.1","browser_interactions":0,"missing":false},{"state_1_ids":[1,0],"state_1_key":0,"state_1_choice":1,"state_1_rt":2329,"transition":0,"state":0,"state_2_ids":[0,1],"state_2_key":1,"state_2_choice":1,"state_2_rt":1041,"outcome":1,"rocket_colors":["#486ea7","#a75248"],"planet_colors":["#5b7c65","#706081"],"screen_resolution":[1366,768],"minimum_resolution":1,"trial":30,"drifts":[0.353,0.346,0.414,0.681],"drift_ix":2,"trial_type":"two-step-trial","trial_index":64,"time_elapsed":1300708,"internal_node_id":"0.0-43.0-0.0","task_version":"1.0","jspsych_version":"6.3.1","browser_interactions":0,"missing":false},{"state_1_ids":[0,1],"state_1_key":0,"state_1_choice":0,"state_1_rt":850,"transition":1,"state":0,"state_2_ids":[0,1],"state_2_key":1,"state_2_choice":1,"state_2_rt":693,"outcome":0,"rocket_colors":["#486ea7","#a75248"],"planet_colors":["#5b7c65","#706081"],"screen_resolution":[1366,768],"minimum_resolution":1,"trial":31,"drifts":[0.325,0.331,0.414,0.647],"drift_ix":2,"trial_type":"two-step-trial","trial_index":65,"time_elapsed":1304267,"internal_node_id":"0.0-44.0-0.0","task_version":"1.0","jspsych_version":"6.3.1","browser_interactions":0,"missing":false},{"state_1_ids":[1,0],"state_1_key":0,"state_1_choice":1,"state_1_rt":1323,"transition":1,"state":1,"state_2_ids":[2,3],"state_2_key":1,"state_2_choice":3,"state_2_rt":911,"outcome":0,"rocket_colors":["#486ea7","#a75248"],"planet_colors":["#5b7c65","#706081"],"screen_resolution":[1366,768],"minimum_resolution":1,"trial":32,"drifts":[0.328,0.33,0.383,0.663],"drift_ix":2,"trial_type":"two-step-trial","trial_index":66,"time_elapsed":1308517,"internal_node_id":"0.0-45.0-0.0","task_version":"1.0","jspsych_version":"6.3.1","browser_interactions":0,"missing":false},{"state_1_ids":[1,0],"state_1_key":0,"state_1_choice":1,"state_1_rt":1102,"transition":1,"state":1,"state_2_ids":[2,3],"state_2_key":1,"state_2_choice":3,"state_2_rt":694,"outcome":1,"rocket_colors":["#486ea7","#a75248"],"planet_colors":["#5b7c65","#706081"],"screen_resolution":[1366,768],"minimum_resolution":1,"trial":33,"drifts":[0.322,0.332,0.362,0.633],"drift_ix":2,"trial_type":"two-step-trial","trial_index":67,"time_elapsed":1312327,"internal_node_id":"0.0-46.0-0.0","task_version":"1.0","jspsych_version":"6.3.1","browser_interactions":0,"missing":false},{"state_1_ids":[1,0],"state_1_key":1,"state_1_choice":0,"state_1_rt":1134,"transition":1,"state":0,"state_2_ids":[0,1],"state_2_key":1,"state_2_choice":1,"state_2_rt":994,"outcome":0,"rocket_colors":["#486ea7","#a75248"],"planet_colors":["#5b7c65","#706081"],"screen_resolution":[1366,768],"minimum_resolution":1,"trial":34,"drifts":[0.322,0.307,0.363,0.617],"drift_ix":2,"trial_type":"two-step-trial","trial_index":68,"time_elapsed":1316468,"internal_node_id":"0.0-47.0-0.0","task_version":"1.0","jspsych_version":"6.3.1","browser_interactions":0,"missing":false},{"state_1_ids":[1,0],"state_1_key":1,"state_1_choice":0,"state_1_rt":1131,"transition":0,"state":1,"state_2_ids":[2,3],"state_2_key":1,"state_2_choice":3,"state_2_rt":770,"outcome":1,"rocket_colors":["#486ea7","#a75248"],"planet_colors":["#5b7c65","#706081"],"screen_resolution":[1366,768],"minimum_resolution":1,"trial":35,"drifts":[0.297,0.336,0.333,0.65],"drift_ix":2,"trial_type":"two-step-trial","trial_index":69,"time_elapsed":1320387,"internal_node_id":"0.0-48.0-0.0","task_version":"1.0","jspsych_version":"6.3.1","browser_interactions":0,"missing":false},{"state_1_ids":[0,1],"state_1_key":0,"state_1_choice":0,"state_1_rt":1248,"transition":1,"state":0,"state_2_ids":[0,1],"state_2_key":1,"state_2_choice":1,"state_2_rt":869,"outcome":1,"rocket_colors":["#486ea7","#a75248"],"planet_colors":["#5b7c65","#706081"],"screen_resolution":[1366,768],"minimum_resolution":1,"trial":36,"drifts":[0.326,0.343,0.331,0.633],"drift_ix":2,"trial_type":"two-step-trial","trial_index":70,"time_elapsed":1324527,"internal_node_id":"0.0-49.0-0.0","task_version":"1.0","jspsych_version":"6.3.1","browser_interactions":0,"missing":false},{"state_1_ids":[0,1],"state_1_key":0,"state_1_choice":0,"state_1_rt":1147,"transition":1,"state":0,"state_2_ids":[0,1],"state_2_key":1,"state_2_choice":1,"state_2_rt":583,"outcome":0,"rocket_colors":["#486ea7","#a75248"],"planet_colors":["#5b7c65","#706081"],"screen_resolution":[1366,768],"minimum_resolution":1,"trial":37,"drifts":[0.318,0.324,0.327,0.612],"drift_ix":2,"trial_type":"two-step-trial","trial_index":71,"time_elapsed":1328277,"internal_node_id":"0.0-50.0-0.0","task_version":"1.0","jspsych_version":"6.3.1","browser_interactions":0,"missing":false},{"state_1_ids":[1,0],"state_1_key":0,"state_1_choice":1,"state_1_rt":720,"transition":1,"state":1,"state_2_ids":[2,3],"state_2_key":1,"state_2_choice":3,"state_2_rt":717,"outcome":1,"rocket_colors":["#486ea7","#a75248"],"planet_colors":["#5b7c65","#706081"],"screen_resolution":[1366,768],"minimum_resolution":1,"trial":38,"drifts":[0.304,0.324,0.319,0.591],"drift_ix":2,"trial_type":"two-step-trial","trial_index":72,"time_elapsed":1331727,"internal_node_id":"0.0-51.0-0.0","task_version":"1.0","jspsych_version":"6.3.1","browser_interactions":0,"missing":false},{"state_1_ids":[1,0],"state_1_key":0,"state_1_choice":1,"state_1_rt":866,"transition":1,"state":1,"state_2_ids":[2,3],"state_2_key":1,"state_2_choice":3,"state_2_rt":621,"outcome":0,"rocket_colors":["#486ea7","#a75248"],"planet_colors":["#5b7c65","#706081"],"screen_resolution":[1366,768],"minimum_resolution":1,"trial":39,"drifts":[0.283,0.362,0.351,0.561],"drift_ix":2,"trial_type":"two-step-trial","trial_index":73,"time_elapsed":1335227,"internal_node_id":"0.0-52.0-0.0","task_version":"1.0","jspsych_version":"6.3.1","browser_interactions":0,"missing":false},{"state_1_ids":[1,0],"state_1_key":0,"state_1_choice":1,"state_1_rt":690,"transition":1,"state":1,"state_2_ids":[2,3],"state_2_key":1,"state_2_choice":3,"state_2_rt":679,"outcome":0,"rocket_colors":["#486ea7","#a75248"],"planet_colors":["#5b7c65","#706081"],"screen_resolution":[1366,768],"minimum_resolution":1,"trial":40,"drifts":[0.295,0.387,0.331,0.546],"drift_ix":2,"trial_type":"two-step-trial","trial_index":74,"time_elapsed":1338617,"internal_node_id":"0.0-53.0-0.0","task_version":"1.0","jspsych_version":"6.3.1","browser_interactions":0,"missing":false},{"state_1_ids":[1,0],"state_1_key":1,"state_1_choice":0,"state_1_rt":919,"transition":1,"state":0,"state_2_ids":[0,1],"state_2_key":1,"state_2_choice":1,"state_2_rt":915,"outcome":1,"rocket_colors":["#486ea7","#a75248"],"planet_colors":["#5b7c65","#706081"],"screen_resolution":[1366,768],"minimum_resolution":1,"trial":41,"drifts":[0.293,0.385,0.33,0.584],"drift_ix":2,"trial_type":"two-step-trial","trial_index":75,"time_elapsed":1342466,"internal_node_id":"0.0-54.0-0.0","task_version":"1.0","jspsych_version":"6.3.1","browser_interactions":0,"missing":false},{"state_1_ids":[1,0],"state_1_key":1,"state_1_choice":0,"state_1_rt":1429,"transition":0,"state":1,"state_2_ids":[2,3],"state_2_key":1,"state_2_choice":3,"state_2_rt":1175,"outcome":1,"rocket_colors":["#486ea7","#a75248"],"planet_colors":["#5b7c65","#706081"],"screen_resolution":[1366,768],"minimum_resolution":1,"trial":42,"drifts":[0.304,0.383,0.318,0.562],"drift_ix":2,"trial_type":"two-step-trial","trial_index":76,"time_elapsed":1347085,"internal_node_id":"0.0-55.0-0.0","task_version":"1.0","jspsych_version":"6.3.1","browser_interactions":0,"missing":false},{"state_1_ids":[0,1],"state_1_key":1,"state_1_choice":1,"state_1_rt":3360,"transition":1,"state":1,"state_2_ids":[2,3],"state_2_key":1,"state_2_choice":3,"state_2_rt":809,"outcome":0,"rocket_colors":["#486ea7","#a75248"],"planet_colors":["#5b7c65","#706081"],"screen_resolution":[1366,768],"minimum_resolution":1,"trial":43,"drifts":[0.318,0.398,0.315,0.576],"drift_ix":2,"trial_type":"two-step-trial","trial_index":77,"time_elapsed":1353264,"internal_node_id":"0.0-56.0-0.0","task_version":"1.0","jspsych_version":"6.3.1","browser_interactions":0,"missing":false},{"state_1_ids":[1,0],"state_1_key":0,"state_1_choice":1,"state_1_rt":677,"transition":1,"state":1,"state_2_ids":[2,3],"state_2_key":1,"state_2_choice":3,"state_2_rt":548,"outcome":1,"rocket_colors":["#486ea7","#a75248"],"planet_colors":["#5b7c65","#706081"],"screen_resolution":[1366,768],"minimum_resolution":1,"trial":44,"drifts":[0.321,0.371,0.348,0.616],"drift_ix":2,"trial_type":"two-step-trial","trial_index":78,"time_elapsed":1356514,"internal_node_id":"0.0-57.0-0.0","task_version":"1.0","jspsych_version":"6.3.1","browser_interactions":0,"missing":false},{"state_1_ids":[0,1],"state_1_key":0,"state_1_choice":0,"state_1_rt":1650,"transition":1,"state":0,"state_2_ids":[0,1],"state_2_key":1,"state_2_choice":1,"state_2_rt":981,"outcome":0,"rocket_colors":["#486ea7","#a75248"],"planet_colors":["#5b7c65","#706081"],"screen_resolution":[1366,768],"minimum_resolution":1,"trial":45,"drifts":[0.319,0.418,0.367,0.598],"drift_ix":2,"trial_type":"two-step-trial","trial_index":79,"time_elapsed":1361164,"internal_node_id":"0.0-58.0-0.0","task_version":"1.0","jspsych_version":"6.3.1","browser_interactions":0,"missing":false},{"state_1_ids":[0,1],"state_1_key":0,"state_1_choice":0,"state_1_rt":620,"transition":1,"state":0,"state_2_ids":[0,1],"state_2_key":1,"state_2_choice":1,"state_2_rt":600,"outcome":1,"rocket_colors":["#486ea7","#a75248"],"planet_colors":["#5b7c65","#706081"],"screen_resolution":[1366,768],"minimum_resolution":1,"trial":46,"drifts":[0.326,0.44,0.366,0.588],"drift_ix":2,"trial_type":"two-step-trial","trial_index":80,"time_elapsed":1364404,"internal_node_id":"0.0-59.0-0.0","task_version":"1.0","jspsych_version":"6.3.1","browser_interactions":0,"missing":false},{"state_1_ids":[0,1],"state_1_key":0,"state_1_choice":0,"state_1_rt":640,"transition":1,"state":0,"state_2_ids":[0,1],"state_2_key":1,"state_2_choice":1,"state_2_rt":563,"outcome":1,"rocket_colors":["#486ea7","#a75248"],"planet_colors":["#5b7c65","#706081"],"screen_resolution":[1366,768],"minimum_resolution":1,"trial":47,"drifts":[0.315,0.46,0.378,0.597],"drift_ix":2,"trial_type":"two-step-trial","trial_index":81,"time_elapsed":1367624,"internal_node_id":"0.0-60.0-0.0","task_version":"1.0","jspsych_version":"6.3.1","browser_interactions":0,"missing":false},{"state_1_ids":[0,1],"state_1_key":0,"state_1_choice":0,"state_1_rt":851,"transition":1,"state":0,"state_2_ids":[0,1],"state_2_key":1,"state_2_choice":1,"state_2_rt":670,"outcome":1,"rocket_colors":["#486ea7","#a75248"],"planet_colors":["#5b7c65","#706081"],"screen_resolution":[1366,768],"minimum_resolution":1,"trial":48,"drifts":[0.281,0.476,0.36,0.571],"drift_ix":2,"trial_type":"two-step-trial","trial_index":82,"time_elapsed":1371164,"internal_node_id":"0.0-61.0-0.0","task_version":"1.0","jspsych_version":"6.3.1","browser_interactions":0,"missing":false},{"state_1_ids":[1,0],"state_1_key":1,"state_1_choice":0,"state_1_rt":1216,"transition":1,"state":0,"state_2_ids":[0,1],"state_2_key":1,"state_2_choice":1,"state_2_rt":727,"outcome":1,"rocket_colors":["#486ea7","#a75248"],"planet_colors":["#5b7c65","#706081"],"screen_resolution":[1366,768],"minimum_resolution":1,"trial":49,"drifts":[0.254,0.439,0.383,0.579],"drift_ix":2,"trial_type":"two-step-trial","trial_index":83,"time_elapsed":1375124,"internal_node_id":"0.0-62.0-0.0","task_version":"1.0","jspsych_version":"6.3.1","browser_interactions":0,"missing":false},{"state_1_ids":[0,1],"state_1_key":0,"state_1_choice":0,"state_1_rt":852,"transition":1,"state":0,"state_2_ids":[0,1],"state_2_key":1,"state_2_choice":1,"state_2_rt":701,"outcome":1,"rocket_colors":["#486ea7","#a75248"],"planet_colors":["#5b7c65","#706081"],"screen_resolution":[1366,768],"minimum_resolution":1,"trial":50,"drifts":[0.303,0.471,0.392,0.592],"drift_ix":2,"trial_type":"two-step-trial","trial_index":84,"time_elapsed":1378693,"internal_node_id":"0.0-63.0-0.0","task_version":"1.0","jspsych_version":"6.3.1","browser_interactions":0,"missing":false},{"state_1_ids":[0,1],"state_1_key":0,"state_1_choice":0,"state_1_rt":1132,"transition":1,"state":0,"state_2_ids":[0,1],"state_2_key":1,"state_2_choice":1,"state_2_rt":709,"outcome":1,"rocket_colors":["#486ea7","#a75248"],"planet_colors":["#5b7c65","#706081"],"screen_resolution":[1366,768],"minimum_resolution":1,"trial":51,"drifts":[0.274,0.41,0.377,0.587],"drift_ix":2,"trial_type":"two-step-trial","trial_index":85,"time_elapsed":1382561,"internal_node_id":"0.0-64.0-0.0","task_version":"1.0","jspsych_version":"6.3.1","browser_interactions":0,"missing":false},{"state_1_ids":[1,0],"state_1_key":1,"state_1_choice":0,"state_1_rt":1229,"transition":1,"state":0,"state_2_ids":[0,1],"state_2_key":1,"state_2_choice":1,"state_2_rt":2730,"outcome":1,"rocket_colors":["#486ea7","#a75248"],"planet_colors":["#5b7c65","#706081"],"screen_resolution":[1366,768],"minimum_resolution":1,"trial":52,"drifts":[0.29,0.413,0.363,0.572],"drift_ix":2,"trial_type":"two-step-trial","trial_index":86,"time_elapsed":1388540,"internal_node_id":"0.0-65.0-0.0","task_version":"1.0","jspsych_version":"6.3.1","browser_interactions":0,"missing":false},{"state_1_ids":[1,0],"state_1_key":1,"state_1_choice":0,"state_1_rt":1754,"transition":1,"state":0,"state_2_ids":[0,1],"state_2_key":1,"state_2_choice":1,"state_2_rt":772,"outcome":0,"rocket_colors":["#486ea7","#a75248"],"planet_colors":["#5b7c65","#706081"],"screen_resolution":[1366,768],"minimum_resolution":1,"trial":53,"drifts":[0.292,0.425,0.318,0.522],"drift_ix":2,"trial_type":"two-step-trial","trial_index":87,"time_elapsed":1393081,"internal_node_id":"0.0-66.0-0.0","task_version":"1.0","jspsych_version":"6.3.1","browser_interactions":0,"missing":false},{"state_1_ids":[0,1],"state_1_key":1,"state_1_choice":1,"state_1_rt":1707,"transition":0,"state":0,"state_2_ids":[0,1],"state_2_key":1,"state_2_choice":1,"state_2_rt":1195,"outcome":1,"rocket_colors":["#486ea7","#a75248"],"planet_colors":["#5b7c65","#706081"],"screen_resolution":[1366,768],"minimum_resolution":1,"trial":54,"drifts":[0.284,0.449,0.332,0.552],"drift_ix":2,"trial_type":"two-step-trial","trial_index":88,"time_elapsed":1397997,"internal_node_id":"0.0-67.0-0.0","task_version":"1.0","jspsych_version":"6.3.1","browser_interactions":0,"missing":false},{"state_1_ids":[1,0],"state_1_key":1,"state_1_choice":0,"state_1_rt":970,"transition":1,"state":0,"state_2_ids":[0,1],"state_2_key":1,"state_2_choice":1,"state_2_rt":628,"outcome":0,"rocket_colors":["#486ea7","#a75248"],"planet_colors":["#5b7c65","#706081"],"screen_resolution":[1366,768],"minimum_resolution":1,"trial":55,"drifts":[0.253,0.41,0.344,0.579],"drift_ix":2,"trial_type":"two-step-trial","trial_index":89,"time_elapsed":1401607,"internal_node_id":"0.0-68.0-0.0","task_version":"1.0","jspsych_version":"6.3.1","browser_interactions":0,"missing":false},{"state_1_ids":[0,1],"state_1_key":0,"state_1_choice":0,"state_1_rt":943,"transition":1,"state":0,"state_2_ids":[0,1],"state_2_key":1,"state_2_choice":1,"state_2_rt":850,"outcome":0,"rocket_colors":["#486ea7","#a75248"],"planet_colors":["#5b7c65","#706081"],"screen_resolution":[1366,768],"minimum_resolution":1,"trial":56,"drifts":[0.277,0.408,0.373,0.526],"drift_ix":2,"trial_type":"two-step-trial","trial_index":90,"time_elapsed":1405417,"internal_node_id":"0.0-69.0-0.0","task_version":"1.0","jspsych_version":"6.3.1","browser_interactions":0,"missing":false},{"state_1_ids":[1,0],"state_1_key":0,"state_1_choice":1,"state_1_rt":1452,"transition":1,"state":1,"state_2_ids":[2,3],"state_2_key":1,"state_2_choice":3,"state_2_rt":728,"outcome":0,"rocket_colors":["#486ea7","#a75248"],"planet_colors":["#5b7c65","#706081"],"screen_resolution":[1366,768],"minimum_resolution":1,"trial":57,"drifts":[0.252,0.418,0.356,0.521],"drift_ix":2,"trial_type":"two-step-trial","trial_index":91,"time_elapsed":1409607,"internal_node_id":"0.0-70.0-0.0","task_version":"1.0","jspsych_version":"6.3.1","browser_interactions":0,"missing":false},{"state_1_ids":[0,1],"state_1_key":1,"state_1_choice":1,"state_1_rt":1426,"transition":0,"state":0,"state_2_ids":[0,1],"state_2_key":1,"state_2_choice":1,"state_2_rt":1003,"outcome":1,"rocket_colors":["#486ea7","#a75248"],"planet_colors":["#5b7c65","#706081"],"screen_resolution":[1366,768],"minimum_resolution":1,"trial":58,"drifts":[0.282,0.462,0.395,0.504],"drift_ix":2,"trial_type":"two-step-trial","trial_index":92,"time_elapsed":1414057,"internal_node_id":"0.0-71.0-0.0","task_version":"1.0","jspsych_version":"6.3.1","browser_interactions":0,"missing":false},{"state_1_ids":[0,1],"state_1_key":0,"state_1_choice":0,"state_1_rt":1259,"transition":0,"state":1,"state_2_ids":[2,3],"state_2_key":1,"state_2_choice":3,"state_2_rt":982,"outcome":0,"rocket_colors":["#486ea7","#a75248"],"planet_colors":["#5b7c65","#706081"],"screen_resolution":[1366,768],"minimum_resolution":1,"trial":59,"drifts":[0.297,0.475,0.39,0.498],"drift_ix":2,"trial_type":"two-step-trial","trial_index":93,"time_elapsed":1418316,"internal_node_id":"0.0-72.0-0.0","task_version":"1.0","jspsych_version":"6.3.1","browser_interactions":0,"missing":false},{"state_1_ids":[0,1],"state_1_key":0,"state_1_choice":0,"state_1_rt":570,"transition":1,"state":0,"state_2_ids":[0,1],"state_2_key":1,"state_2_choice":1,"state_2_rt":974,"outcome":0,"rocket_colors":["#486ea7","#a75248"],"planet_colors":["#5b7c65","#706081"],"screen_resolution":[1366,768],"minimum_resolution":1,"trial":60,"drifts":[0.295,0.463,0.364,0.52],"drift_ix":2,"trial_type":"two-step-trial","trial_index":94,"time_elapsed":1421877,"internal_node_id":"0.0-73.0-0.0","task_version":"1.0","jspsych_version":"6.3.1","browser_interactions":0,"missing":false},{"state_1_ids":[0,1],"state_1_key":1,"state_1_choice":1,"state_1_rt":1145,"transition":1,"state":1,"state_2_ids":[2,3],"state_2_key":1,"state_2_choice":3,"state_2_rt":804,"outcome":0,"rocket_colors":["#486ea7","#a75248"],"planet_colors":["#5b7c65","#706081"],"screen_resolution":[1366,768],"minimum_resolution":1,"trial":61,"drifts":[0.295,0.433,0.355,0.543],"drift_ix":2,"trial_type":"two-step-trial","trial_index":95,"time_elapsed":1425837,"internal_node_id":"0.0-74.0-0.0","task_version":"1.0","jspsych_version":"6.3.1","browser_interactions":0,"missing":false},{"state_1_ids":[0,1],"state_1_key":1,"state_1_choice":1,"state_1_rt":967,"transition":0,"state":0,"state_2_ids":[0,1],"state_2_key":1,"state_2_choice":1,"state_2_rt":932,"outcome":0,"rocket_colors":["#486ea7","#a75248"],"planet_colors":["#5b7c65","#706081"],"screen_resolution":[1366,768],"minimum_resolution":1,"trial":62,"drifts":[0.307,0.43,0.353,0.543],"drift_ix":2,"trial_type":"two-step-trial","trial_index":96,"time_elapsed":1429756,"internal_node_id":"0.0-75.0-0.0","task_version":"1.0","jspsych_version":"6.3.1","browser_interactions":0,"missing":false},{"state_1_ids":[0,1],"state_1_key":1,"state_1_choice":1,"state_1_rt":1974,"transition":0,"state":0,"state_2_ids":[0,1],"state_2_key":1,"state_2_choice":1,"state_2_rt":1218,"outcome":1,"rocket_colors":["#486ea7","#a75248"],"planet_colors":["#5b7c65","#706081"],"screen_resolution":[1366,768],"minimum_resolution":1,"trial":63,"drifts":[0.353,0.426,0.367,0.529],"drift_ix":2,"trial_type":"two-step-trial","trial_index":97,"time_elapsed":1434956,"internal_node_id":"0.0-76.0-0.0","task_version":"1.0","jspsych_version":"6.3.1","browser_interactions":0,"missing":false},{"state_1_ids":[1,0],"state_1_key":0,"state_1_choice":1,"state_1_rt":859,"transition":1,"state":1,"state_2_ids":[2,3],"state_2_key":1,"state_2_choice":3,"state_2_rt":898,"outcome":0,"rocket_colors":["#486ea7","#a75248"],"planet_colors":["#5b7c65","#706081"],"screen_resolution":[1366,768],"minimum_resolution":1,"trial":64,"drifts":[0.37,0.432,0.33,0.47],"drift_ix":2,"trial_type":"two-step-trial","trial_index":98,"time_elapsed":1438736,"internal_node_id":"0.0-77.0-0.0","task_version":"1.0","jspsych_version":"6.3.1","browser_interactions":0,"missing":false},{"state_1_ids":[0,1],"state_1_key":0,"state_1_choice":0,"state_1_rt":1280,"transition":1,"state":0,"state_2_ids":[0,1],"state_2_key":1,"state_2_choice":1,"state_2_rt":607,"outcome":1,"rocket_colors":["#486ea7","#a75248"],"planet_colors":["#5b7c65","#706081"],"screen_resolution":[1366,768],"minimum_resolution":1,"trial":65,"drifts":[0.377,0.393,0.348,0.501],"drift_ix":2,"trial_type":"two-step-trial","trial_index":99,"time_elapsed":1442637,"internal_node_id":"0.0-78.0-0.0","task_version":"1.0","jspsych_version":"6.3.1","browser_interactions":0,"missing":false},{"state_1_ids":[0,1],"state_1_key":0,"state_1_choice":0,"state_1_rt":658,"transition":1,"state":0,"state_2_ids":[0,1],"state_2_key":1,"state_2_choice":1,"state_2_rt":597,"outcome":0,"rocket_colors":["#486ea7","#a75248"],"planet_colors":["#5b7c65","#706081"],"screen_resolution":[1366,768],"minimum_resolution":1,"trial":66,"drifts":[0.345,0.371,0.258,0.459],"drift_ix":2,"trial_type":"two-step-trial","trial_index":100,"time_elapsed":1445907,"internal_node_id":"0.0-79.0-0.0","task_version":"1.0","jspsych_version":"6.3.1","browser_interactions":0,"missing":false},{"state_1_ids":[0,1],"state_1_key":0,"state_1_choice":0,"state_1_rt":490,"transition":1,"state":0,"state_2_ids":[0,1],"state_2_key":1,"state_2_choice":1,"state_2_rt":553,"outcome":1,"rocket_colors":["#486ea7","#a75248"],"planet_colors":["#5b7c65","#706081"],"screen_resolution":[1366,768],"minimum_resolution":1,"trial":67,"drifts":[0.332,0.355,0.256,0.426],"drift_ix":2,"trial_type":"two-step-trial","trial_index":101,"time_elapsed":1448963,"internal_node_id":"0.0-80.0-0.0","task_version":"1.0","jspsych_version":"6.3.1","browser_interactions":0,"missing":false},{"state_1_ids":[0,1],"state_1_key":0,"state_1_choice":0,"state_1_rt":595,"transition":1,"state":0,"state_2_ids":[0,1],"state_2_key":1,"state_2_choice":1,"state_2_rt":706,"outcome":0,"rocket_colors":["#486ea7","#a75248"],"planet_colors":["#5b7c65","#706081"],"screen_resolution":[1366,768],"minimum_resolution":1,"trial":68,"drifts":[0.331,0.398,0.311,0.426],"drift_ix":2,"trial_type":"two-step-trial","trial_index":102,"time_elapsed":1452273,"internal_node_id":"0.0-81.0-0.0","task_version":"1.0","jspsych_version":"6.3.1","browser_interactions":0,"missing":false},{"state_1_ids":[1,0],"state_1_key":1,"state_1_choice":0,"state_1_rt":1098,"transition":0,"state":1,"state_2_ids":[2,3],"state_2_key":1,"state_2_choice":3,"state_2_rt":3549,"outcome":0,"rocket_colors":["#486ea7","#a75248"],"planet_colors":["#5b7c65","#706081"],"screen_resolution":[1366,768],"minimum_resolution":1,"trial":69,"drifts":[0.325,0.426,0.326,0.384],"drift_ix":2,"trial_type":"two-step-trial","trial_index":103,"time_elapsed":1458943,"internal_node_id":"0.0-82.0-0.0","task_version":"1.0","jspsych_version":"6.3.1","browser_interactions":0,"missing":false},{"state_1_ids":[1,0],"state_1_key":0,"state_1_choice":1,"state_1_rt":927,"transition":1,"state":1,"state_2_ids":[2,3],"state_2_key":1,"state_2_choice":3,"state_2_rt":649,"outcome":1,"rocket_colors":["#486ea7","#a75248"],"planet_colors":["#5b7c65","#706081"],"screen_resolution":[1366,768],"minimum_resolution":1,"trial":70,"drifts":[0.293,0.475,0.305,0.375],"drift_ix":2,"trial_type":"two-step-trial","trial_index":104,"time_elapsed":1462542,"internal_node_id":"0.0-83.0-0.0","task_version":"1.0","jspsych_version":"6.3.1","browser_interactions":0,"missing":false},{"state_1_ids":[1,0],"state_1_key":0,"state_1_choice":1,"state_1_rt":554,"transition":1,"state":1,"state_2_ids":[2,3],"state_2_key":1,"state_2_choice":3,"state_2_rt":569,"outcome":0,"rocket_colors":["#486ea7","#a75248"],"planet_colors":["#5b7c65","#706081"],"screen_resolution":[1366,768],"minimum_resolution":1,"trial":71,"drifts":[0.268,0.51,0.303,0.365],"drift_ix":2,"trial_type":"two-step-trial","trial_index":105,"time_elapsed":1465683,"internal_node_id":"0.0-84.0-0.0","task_version":"1.0","jspsych_version":"6.3.1","browser_interactions":0,"missing":false},{"state_1_ids":[0,1],"state_1_key":1,"state_1_choice":1,"state_1_rt":818,"transition":0,"state":0,"state_2_ids":[0,1],"state_2_key":0,"state_2_choice":0,"state_2_rt":1468,"outcome":0,"rocket_colors":["#486ea7","#a75248"],"planet_colors":["#5b7c65","#706081"],"screen_resolution":[1366,768],"minimum_resolution":1,"trial":72,"drifts":[0.294,0.507,0.326,0.359],"drift_ix":2,"trial_type":"two-step-trial","trial_index":106,"time_elapsed":1469982,"internal_node_id":"0.0-85.0-0.0","task_version":"1.0","jspsych_version":"6.3.1","browser_interactions":0,"missing":false},{"state_1_ids":[0,1],"state_1_key":1,"state_1_choice":1,"state_1_rt":787,"transition":1,"state":1,"state_2_ids":[2,3],"state_2_key":1,"state_2_choice":3,"state_2_rt":603,"outcome":1,"rocket_colors":["#486ea7","#a75248"],"planet_colors":["#5b7c65","#706081"],"screen_resolution":[1366,768],"minimum_resolution":1,"trial":73,"drifts":[0.296,0.541,0.313,0.367],"drift_ix":2,"trial_type":"two-step-trial","trial_index":107,"time_elapsed":1473393,"internal_node_id":"0.0-86.0-0.0","task_version":"1.0","jspsych_version":"6.3.1","browser_interactions":0,"missing":false},{"state_1_ids":[1,0],"state_1_key":0,"state_1_choice":1,"state_1_rt":729,"transition":0,"state":0,"state_2_ids":[0,1],"state_2_key":1,"state_2_choice":1,"state_2_rt":1335,"outcome":0,"rocket_colors":["#486ea7","#a75248"],"planet_colors":["#5b7c65","#706081"],"screen_resolution":[1366,768],"minimum_resolution":1,"trial":74,"drifts":[0.282,0.491,0.339,0.374],"drift_ix":2,"trial_type":"two-step-trial","trial_index":108,"time_elapsed":1477472,"internal_node_id":"0.0-87.0-0.0","task_version":"1.0","jspsych_version":"6.3.1","browser_interactions":0,"missing":false},{"state_1_ids":[1,0],"state_1_key":0,"state_1_choice":1,"state_1_rt":2530,"transition":0,"state":0,"state_2_ids":[0,1],"state_2_key":1,"state_2_choice":1,"state_2_rt":1144,"outcome":1,"rocket_colors":["#486ea7","#a75248"],"planet_colors":["#5b7c65","#706081"],"screen_resolution":[1366,768],"minimum_resolution":1,"trial":75,"drifts":[0.336,0.513,0.333,0.367],"drift_ix":2,"trial_type":"two-step-trial","trial_index":109,"time_elapsed":1483163,"internal_node_id":"0.0-88.0-0.0","task_version":"1.0","jspsych_version":"6.3.1","browser_interactions":0,"missing":false},{"state_1_ids":[0,1],"state_1_key":1,"state_1_choice":1,"state_1_rt":2045,"transition":1,"state":1,"state_2_ids":[2,3],"state_2_key":1,"state_2_choice":3,"state_2_rt":695,"outcome":0,"rocket_colors":["#486ea7","#a75248"],"planet_colors":["#5b7c65","#706081"],"screen_resolution":[1366,768],"minimum_resolution":1,"trial":76,"drifts":[0.344,0.538,0.274,0.339],"drift_ix":2,"trial_type":"two-step-trial","trial_index":110,"time_elapsed":1487913,"internal_node_id":"0.0-89.0-0.0","task_version":"1.0","jspsych_version":"6.3.1","browser_interactions":0,"missing":false},{"state_1_ids":[0,1],"state_1_key":1,"state_1_choice":1,"state_1_rt":1533,"transition":1,"state":1,"state_2_ids":[2,3],"state_2_key":1,"state_2_choice":3,"state_2_rt":654,"outcome":1,"rocket_colors":["#486ea7","#a75248"],"planet_colors":["#5b7c65","#706081"],"screen_resolution":[1366,768],"minimum_resolution":1,"trial":77,"drifts":[0.322,0.54,0.262,0.343],"drift_ix":2,"trial_type":"two-step-trial","trial_index":111,"time_elapsed":1492112,"internal_node_id":"0.0-90.0-0.0","task_version":"1.0","jspsych_version":"6.3.1","browser_interactions":0,"missing":false},{"state_1_ids":[1,0],"state_1_key":1,"state_1_choice":0,"state_1_rt":1792,"transition":1,"state":0,"state_2_ids":[0,1],"state_2_key":1,"state_2_choice":1,"state_2_rt":683,"outcome":0,"rocket_colors":["#486ea7","#a75248"],"planet_colors":["#5b7c65","#706081"],"screen_resolution":[1366,768],"minimum_resolution":1,"trial":78,"drifts":[0.351,0.561,0.265,0.342],"drift_ix":2,"trial_type":"two-step-trial","trial_index":112,"time_elapsed":1496603,"internal_node_id":"0.0-91.0-0.0","task_version":"1.0","jspsych_version":"6.3.1","browser_interactions":0,"missing":false},{"state_1_ids":[1,0],"state_1_key":1,"state_1_choice":0,"state_1_rt":1457,"transition":0,"state":1,"state_2_ids":[2,3],"state_2_key":1,"state_2_choice":3,"state_2_rt":943,"outcome":1,"rocket_colors":["#486ea7","#a75248"],"planet_colors":["#5b7c65","#706081"],"screen_resolution":[1366,768],"minimum_resolution":1,"trial":79,"drifts":[0.335,0.543,0.286,0.35],"drift_ix":2,"trial_type":"two-step-trial","trial_index":113,"time_elapsed":1501020,"internal_node_id":"0.0-92.0-0.0","task_version":"1.0","jspsych_version":"6.3.1","browser_interactions":0,"missing":false},{"state_1_ids":[0,1],"state_1_key":0,"state_1_choice":0,"state_1_rt":1176,"transition":1,"state":0,"state_2_ids":[0,1],"state_2_key":1,"state_2_choice":1,"state_2_rt":862,"outcome":0,"rocket_colors":["#486ea7","#a75248"],"planet_colors":["#5b7c65","#706081"],"screen_resolution":[1366,768],"minimum_resolution":1,"trial":80,"drifts":[0.328,0.536,0.289,0.405],"drift_ix":2,"trial_type":"two-step-trial","trial_index":114,"time_elapsed":1505070,"internal_node_id":"0.0-93.0-0.0","task_version":"1.0","jspsych_version":"6.3.1","browser_interactions":0,"missing":false},{"state_1_ids":[1,0],"state_1_key":1,"state_1_choice":0,"state_1_rt":2041,"transition":1,"state":0,"state_2_ids":[0,1],"state_2_key":1,"state_2_choice":1,"state_2_rt":650,"outcome":0,"rocket_colors":["#486ea7","#a75248"],"planet_colors":["#5b7c65","#706081"],"screen_resolution":[1366,768],"minimum_resolution":1,"trial":81,"drifts":[0.286,0.534,0.265,0.391],"drift_ix":2,"trial_type":"two-step-trial","trial_index":115,"time_elapsed":1509779,"internal_node_id":"0.0-94.0-0.0","task_version":"1.0","jspsych_version":"6.3.1","browser_interactions":0,"missing":false},{"state_1_ids":[0,1],"state_1_key":1,"state_1_choice":1,"state_1_rt":1170,"transition":0,"state":0,"state_2_ids":[0,1],"state_2_key":1,"state_2_choice":1,"state_2_rt":768,"outcome":0,"rocket_colors":["#486ea7","#a75248"],"planet_colors":["#5b7c65","#706081"],"screen_resolution":[1366,768],"minimum_resolution":1,"trial":82,"drifts":[0.307,0.553,0.256,0.373],"drift_ix":2,"trial_type":"two-step-trial","trial_index":116,"time_elapsed":1513730,"internal_node_id":"0.0-95.0-0.0","task_version":"1.0","jspsych_version":"6.3.1","browser_interactions":0,"missing":false},{"state_1_ids":[0,1],"state_1_key":0,"state_1_choice":0,"state_1_rt":587,"transition":1,"state":0,"state_2_ids":[0,1],"state_2_key":1,"state_2_choice":1,"state_2_rt":1326,"outcome":1,"rocket_colors":["#486ea7","#a75248"],"planet_colors":["#5b7c65","#706081"],"screen_resolution":[1366,768],"minimum_resolution":1,"trial":83,"drifts":[0.306,0.564,0.273,0.38],"drift_ix":2,"trial_type":"two-step-trial","trial_index":117,"time_elapsed":1517660,"internal_node_id":"0.0-96.0-0.0","task_version":"1.0","jspsych_version":"6.3.1","browser_interactions":0,"missing":false},{"state_1_ids":[1,0],"state_1_key":1,"state_1_choice":0,"state_1_rt":1595,"transition":0,"state":1,"state_2_ids":[2,3],"state_2_key":1,"state_2_choice":3,"state_2_rt":943,"outcome":0,"rocket_colors":["#486ea7","#a75248"],"planet_colors":["#5b7c65","#706081"],"screen_resolution":[1366,768],"minimum_resolution":1,"trial":84,"drifts":[0.263,0.564,0.275,0.397],"drift_ix":2,"trial_type":"two-step-trial","trial_index":118,"time_elapsed":1522220,"internal_node_id":"0.0-97.0-0.0","task_version":"1.0","jspsych_version":"6.3.1","browser_interactions":0,"missing":false},{"state_1_ids":[0,1],"state_1_key":0,"state_1_choice":0,"state_1_rt":2408,"transition":0,"state":1,"state_2_ids":[2,3],"state_2_key":1,"state_2_choice":3,"state_2_rt":2444,"outcome":1,"rocket_colors":["#486ea7","#a75248"],"planet_colors":["#5b7c65","#706081"],"screen_resolution":[1366,768],"minimum_resolution":1,"trial":85,"drifts":[0.295,0.592,0.3,0.406],"drift_ix":2,"trial_type":"two-step-trial","trial_index":119,"time_elapsed":1529090,"internal_node_id":"0.0-98.0-0.0","task_version":"1.0","jspsych_version":"6.3.1","browser_interactions":0,"missing":false},{"state_1_ids":[1,0],"state_1_key":1,"state_1_choice":0,"state_1_rt":872,"transition":1,"state":0,"state_2_ids":[0,1],"state_2_key":1,"state_2_choice":1,"state_2_rt":869,"outcome":1,"rocket_colors":["#486ea7","#a75248"],"planet_colors":["#5b7c65","#706081"],"screen_resolution":[1366,768],"minimum_resolution":1,"trial":86,"drifts":[0.266,0.571,0.324,0.417],"drift_ix":2,"trial_type":"two-step-trial","trial_index":120,"time_elapsed":1532849,"internal_node_id":"0.0-99.0-0.0","task_version":"1.0","jspsych_version":"6.3.1","browser_interactions":0,"missing":false},{"state_1_ids":[1,0],"state_1_key":1,"state_1_choice":0,"state_1_rt":870,"transition":1,"state":0,"state_2_ids":[0,1],"state_2_key":1,"state_2_choice":1,"state_2_rt":633,"outcome":0,"rocket_colors":["#486ea7","#a75248"],"planet_colors":["#5b7c65","#706081"],"screen_resolution":[1366,768],"minimum_resolution":1,"trial":87,"drifts":[0.25,0.532,0.345,0.39],"drift_ix":2,"trial_type":"two-step-trial","trial_index":121,"time_elapsed":1536369,"internal_node_id":"0.0-100.0-0.0","task_version":"1.0","jspsych_version":"6.3.1","browser_interactions":0,"missing":false},{"state_1_ids":[0,1],"state_1_key":0,"state_1_choice":0,"state_1_rt":943,"transition":1,"state":0,"state_2_ids":[0,1],"state_2_key":1,"state_2_choice":1,"state_2_rt":662,"outcome":1,"rocket_colors":["#486ea7","#a75248"],"planet_colors":["#5b7c65","#706081"],"screen_resolution":[1366,768],"minimum_resolution":1,"trial":88,"drifts":[0.258,0.529,0.341,0.378],"drift_ix":2,"trial_type":"two-step-trial","trial_index":122,"time_elapsed":1539989,"internal_node_id":"0.0-101.0-0.0","task_version":"1.0","jspsych_version":"6.3.1","browser_interactions":0,"missing":false},{"state_1_ids":[1,0],"state_1_key":1,"state_1_choice":0,"state_1_rt":836,"transition":1,"state":0,"state_2_ids":[0,1],"state_2_key":1,"state_2_choice":1,"state_2_rt":2161,"outcome":0,"rocket_colors":["#486ea7","#a75248"],"planet_colors":["#5b7c65","#706081"],"screen_resolution":[1366,768],"minimum_resolution":1,"trial":89,"drifts":[0.266,0.533,0.306,0.41],"drift_ix":2,"trial_type":"two-step-trial","trial_index":123,"time_elapsed":1545010,"internal_node_id":"0.0-102.0-0.0","task_version":"1.0","jspsych_version":"6.3.1","browser_interactions":0,"missing":false},{"state_1_ids":[1,0],"state_1_key":1,"state_1_choice":0,"state_1_rt":1189,"transition":1,"state":0,"state_2_ids":[0,1],"state_2_key":1,"state_2_choice":1,"state_2_rt":832,"outcome":0,"rocket_colors":["#486ea7","#a75248"],"planet_colors":["#5b7c65","#706081"],"screen_resolution":[1366,768],"minimum_resolution":1,"trial":90,"drifts":[0.254,0.554,0.297,0.382],"drift_ix":2,"trial_type":"two-step-trial","trial_index":124,"time_elapsed":1549047,"internal_node_id":"0.0-103.0-0.0","task_version":"1.0","jspsych_version":"6.3.1","browser_interactions":0,"missing":false},{"state_1_ids":[1,0],"state_1_key":1,"state_1_choice":0,"state_1_rt":690,"transition":0,"state":1,"state_2_ids":[2,3],"state_2_key":1,"state_2_choice":3,"state_2_rt":611,"outcome":0,"rocket_colors":["#486ea7","#a75248"],"planet_colors":["#5b7c65","#706081"],"screen_resolution":[1366,768],"minimum_resolution":1,"trial":91,"drifts":[0.265,0.543,0.313,0.38],"drift_ix":2,"trial_type":"two-step-trial","trial_index":125,"time_elapsed":1552367,"internal_node_id":"0.0-104.0-0.0","task_version":"1.0","jspsych_version":"6.3.1","browser_interactions":0,"missing":false},{"state_1_ids":[1,0],"state_1_key":0,"state_1_choice":1,"state_1_rt":963,"transition":1,"state":1,"state_2_ids":[2,3],"state_2_key":1,"state_2_choice":3,"state_2_rt":633,"outcome":1,"rocket_colors":["#486ea7","#a75248"],"planet_colors":["#5b7c65","#706081"],"screen_resolution":[1366,768],"minimum_resolution":1,"trial":92,"drifts":[0.259,0.54,0.279,0.363],"drift_ix":2,"trial_type":"two-step-trial","trial_index":126,"time_elapsed":1555977,"internal_node_id":"0.0-105.0-0.0","task_version":"1.0","jspsych_version":"6.3.1","browser_interactions":0,"missing":false},{"state_1_ids":[0,1],"state_1_key":1,"state_1_choice":1,"state_1_rt":1436,"transition":1,"state":1,"state_2_ids":[2,3],"state_2_key":1,"state_2_choice":3,"state_2_rt":724,"outcome":0,"rocket_colors":["#486ea7","#a75248"],"planet_colors":["#5b7c65","#706081"],"screen_resolution":[1366,768],"minimum_resolution":1,"trial":93,"drifts":[0.251,0.565,0.296,0.35],"drift_ix":2,"trial_type":"two-step-trial","trial_index":127,"time_elapsed":1560156,"internal_node_id":"0.0-106.0-0.0","task_version":"1.0","jspsych_version":"6.3.1","browser_interactions":0,"missing":false},{"state_1_ids":[0,1],"state_1_key":1,"state_1_choice":1,"state_1_rt":1087,"transition":1,"state":1,"state_2_ids":[2,3],"state_2_key":1,"state_2_choice":3,"state_2_rt":653,"outcome":1,"rocket_colors":["#486ea7","#a75248"],"planet_colors":["#5b7c65","#706081"],"screen_resolution":[1366,768],"minimum_resolution":1,"trial":94,"drifts":[0.276,0.543,0.275,0.322],"drift_ix":2,"trial_type":"two-step-trial","trial_index":128,"time_elapsed":1563916,"internal_node_id":"0.0-107.0-0.0","task_version":"1.0","jspsych_version":"6.3.1","browser_interactions":0,"missing":false},{"state_1_ids":[1,0],"state_1_key":0,"state_1_choice":1,"state_1_rt":964,"transition":1,"state":1,"state_2_ids":[2,3],"state_2_key":1,"state_2_choice":3,"state_2_rt":641,"outcome":0,"rocket_colors":["#486ea7","#a75248"],"planet_colors":["#5b7c65","#706081"],"screen_resolution":[1366,768],"minimum_resolution":1,"trial":95,"drifts":[0.317,0.539,0.285,0.291],"drift_ix":2,"trial_type":"two-step-trial","trial_index":129,"time_elapsed":1567546,"internal_node_id":"0.0-108.0-0.0","task_version":"1.0","jspsych_version":"6.3.1","browser_interactions":0,"missing":false},{"state_1_ids":[1,0],"state_1_key":0,"state_1_choice":1,"state_1_rt":699,"transition":1,"state":1,"state_2_ids":[2,3],"state_2_key":1,"state_2_choice":3,"state_2_rt":687,"outcome":0,"rocket_colors":["#486ea7","#a75248"],"planet_colors":["#5b7c65","#706081"],"screen_resolution":[1366,768],"minimum_resolution":1,"trial":96,"drifts":[0.325,0.583,0.251,0.276],"drift_ix":2,"trial_type":"two-step-trial","trial_index":130,"time_elapsed":1570946,"internal_node_id":"0.0-109.0-0.0","task_version":"1.0","jspsych_version":"6.3.1","browser_interactions":0,"missing":false},{"state_1_ids":[0,1],"state_1_key":0,"state_1_choice":0,"state_1_rt":731,"transition":0,"state":1,"state_2_ids":[2,3],"state_2_key":1,"state_2_choice":3,"state_2_rt":843,"outcome":0,"rocket_colors":["#486ea7","#a75248"],"planet_colors":["#5b7c65","#706081"],"screen_resolution":[1366,768],"minimum_resolution":1,"trial":97,"drifts":[0.352,0.597,0.278,0.336],"drift_ix":2,"trial_type":"two-step-trial","trial_index":131,"time_elapsed":1574536,"internal_node_id":"0.0-110.0-0.0","task_version":"1.0","jspsych_version":"6.3.1","browser_interactions":0,"missing":false},{"state_1_ids":[0,1],"state_1_key":1,"state_1_choice":1,"state_1_rt":967,"transition":0,"state":0,"state_2_ids":[0,1],"state_2_key":1,"state_2_choice":1,"state_2_rt":974,"outcome":1,"rocket_colors":["#486ea7","#a75248"],"planet_colors":["#5b7c65","#706081"],"screen_resolution":[1366,768],"minimum_resolution":1,"trial":98,"drifts":[0.369,0.601,0.316,0.324],"drift_ix":2,"trial_type":"two-step-trial","trial_index":132,"time_elapsed":1578495,"internal_node_id":"0.0-111.0-0.0","task_version":"1.0","jspsych_version":"6.3.1","browser_interactions":0,"missing":false},{"state_1_ids":[0,1],"state_1_key":1,"state_1_choice":1,"state_1_rt":1113,"transition":1,"state":1,"state_2_ids":[2,3],"state_2_key":1,"state_2_choice":3,"state_2_rt":1547,"outcome":0,"rocket_colors":["#486ea7","#a75248"],"planet_colors":["#5b7c65","#706081"],"screen_resolution":[1366,768],"minimum_resolution":1,"trial":99,"drifts":[0.338,0.574,0.29,0.307],"drift_ix":2,"trial_type":"two-step-trial","trial_index":133,"time_elapsed":1583166,"internal_node_id":"0.0-112.0-0.0","task_version":"1.0","jspsych_version":"6.3.1","browser_interactions":0,"missing":false},{"state_1_ids":[1,0],"state_1_key":0,"state_1_choice":1,"state_1_rt":2611,"transition":0,"state":0,"state_2_ids":[0,1],"state_2_key":1,"state_2_choice":1,"state_2_rt":798,"outcome":1,"rocket_colors":["#486ea7","#a75248"],"planet_colors":["#5b7c65","#706081"],"screen_resolution":[1366,768],"minimum_resolution":1,"trial":100,"drifts":[0.348,0.567,0.294,0.264],"drift_ix":2,"trial_type":"two-step-trial","trial_index":134,"time_elapsed":1588596,"internal_node_id":"0.0-113.0-0.0","task_version":"1.0","jspsych_version":"6.3.1","browser_interactions":0,"missing":false},{"view_history":"[{\"page_index\":0,\"viewing_time\":117043},{\"page_index\":1,\"viewing_time\":3199}]","rt":120243,"trial_type":"two-step-instructions","trial_index":135,"time_elapsed":1708847,"internal_node_id":"0.0-114.0","task_version":"1.0","jspsych_version":"6.3.1"},{"state_1_ids":[0,1],"state_1_key":1,"state_1_choice":1,"state_1_rt":2221,"transition":0,"state":0,"state_2_ids":[0,1],"state_2_key":1,"state_2_choice":1,"state_2_rt":1411,"outcome":0,"rocket_colors":["#486ea7","#a75248"],"planet_colors":["#5b7c65","#706081"],"screen_resolution":[1366,768],"minimum_resolution":1,"trial":101,"drifts":[0.332,0.536,0.335,0.261],"drift_ix":2,"trial_type":"two-step-trial","trial_index":136,"time_elapsed":1714495,"internal_node_id":"0.0-115.0-0.0","task_version":"1.0","jspsych_version":"6.3.1","browser_interactions":0,"missing":false},{"state_1_ids":[1,0],"state_1_key":0,"state_1_choice":1,"state_1_rt":1936,"transition":0,"state":0,"state_2_ids":[0,1],"state_2_key":1,"state_2_choice":1,"state_2_rt":816,"outcome":1,"rocket_colors":["#486ea7","#a75248"],"planet_colors":["#5b7c65","#706081"],"screen_resolution":[1366,768],"minimum_resolution":1,"trial":102,"drifts":[0.331,0.521,0.359,0.268],"drift_ix":2,"trial_type":"two-step-trial","trial_index":137,"time_elapsed":1719254,"internal_node_id":"0.0-116.0-0.0","task_version":"1.0","jspsych_version":"6.3.1","browser_interactions":0,"missing":false},{"state_1_ids":[0,1],"state_1_key":1,"state_1_choice":1,"state_1_rt":834,"transition":0,"state":0,"state_2_ids":[0,1],"state_2_key":1,"state_2_choice":1,"state_2_rt":650,"outcome":0,"rocket_colors":["#486ea7","#a75248"],"planet_colors":["#5b7c65","#706081"],"screen_resolution":[1366,768],"minimum_resolution":1,"trial":103,"drifts":[0.317,0.518,0.371,0.309],"drift_ix":2,"trial_type":"two-step-trial","trial_index":138,"time_elapsed":1722756,"internal_node_id":"0.0-117.0-0.0","task_version":"1.0","jspsych_version":"6.3.1","browser_interactions":0,"missing":false},{"state_1_ids":[1,0],"state_1_key":0,"state_1_choice":1,"state_1_rt":694,"transition":0,"state":0,"state_2_ids":[0,1],"state_2_key":1,"state_2_choice":1,"state_2_rt":627,"outcome":1,"rocket_colors":["#486ea7","#a75248"],"planet_colors":["#5b7c65","#706081"],"screen_resolution":[1366,768],"minimum_resolution":1,"trial":104,"drifts":[0.334,0.493,0.341,0.296],"drift_ix":2,"trial_type":"two-step-trial","trial_index":139,"time_elapsed":1726085,"internal_node_id":"0.0-118.0-0.0","task_version":"1.0","jspsych_version":"6.3.1","browser_interactions":0,"missing":false},{"state_1_ids":[0,1],"state_1_key":1,"state_1_choice":1,"state_1_rt":1004,"transition":0,"state":0,"state_2_ids":[0,1],"state_2_key":1,"state_2_choice":1,"state_2_rt":623,"outcome":0,"rocket_colors":["#486ea7","#a75248"],"planet_colors":["#5b7c65","#706081"],"screen_resolution":[1366,768],"minimum_resolution":1,"trial":105,"drifts":[0.349,0.494,0.34,0.27],"drift_ix":2,"trial_type":"two-step-trial","trial_index":140,"time_elapsed":1729725,"internal_node_id":"0.0-119.0-0.0","task_version":"1.0","jspsych_version":"6.3.1","browser_interactions":0,"missing":false},{"state_1_ids":[1,0],"state_1_key":0,"state_1_choice":1,"state_1_rt":1307,"transition":1,"state":1,"state_2_ids":[2,3],"state_2_key":1,"state_2_choice":3,"state_2_rt":1022,"outcome":0,"rocket_colors":["#486ea7","#a75248"],"planet_colors":["#5b7c65","#706081"],"screen_resolution":[1366,768],"minimum_resolution":1,"trial":106,"drifts":[0.302,0.497,0.307,0.282],"drift_ix":2,"trial_type":"two-step-trial","trial_index":141,"time_elapsed":1734075,"internal_node_id":"0.0-120.0-0.0","task_version":"1.0","jspsych_version":"6.3.1","browser_interactions":0,"missing":false},{"state_1_ids":[1,0],"state_1_key":0,"state_1_choice":1,"state_1_rt":1753,"transition":1,"state":1,"state_2_ids":[2,3],"state_2_key":1,"state_2_choice":3,"state_2_rt":602,"outcome":1,"rocket_colors":["#486ea7","#a75248"],"planet_colors":["#5b7c65","#706081"],"screen_resolution":[1366,768],"minimum_resolution":1,"trial":107,"drifts":[0.336,0.523,0.294,0.315],"drift_ix":2,"trial_type":"two-step-trial","trial_index":142,"time_elapsed":1738446,"internal_node_id":"0.0-121.0-0.0","task_version":"1.0","jspsych_version":"6.3.1","browser_interactions":0,"missing":false},{"state_1_ids":[1,0],"state_1_key":0,"state_1_choice":1,"state_1_rt":705,"transition":1,"state":1,"state_2_ids":[2,3],"state_2_key":1,"state_2_choice":3,"state_2_rt":523,"outcome":0,"rocket_colors":["#486ea7","#a75248"],"planet_colors":["#5b7c65","#706081"],"screen_resolution":[1366,768],"minimum_resolution":1,"trial":108,"drifts":[0.381,0.482,0.317,0.324],"drift_ix":2,"trial_type":"two-step-trial","trial_index":143,"time_elapsed":1741685,"internal_node_id":"0.0-122.0-0.0","task_version":"1.0","jspsych_version":"6.3.1","browser_interactions":0,"missing":false},{"state_1_ids":[1,0],"state_1_key":0,"state_1_choice":1,"state_1_rt":606,"transition":1,"state":1,"state_2_ids":[2,3],"state_2_key":1,"state_2_choice":3,"state_2_rt":1,"outcome":1,"rocket_colors":["#486ea7","#a75248"],"planet_colors":["#5b7c65","#706081"],"screen_resolution":[1366,768],"minimum_resolution":1,"trial":109,"drifts":[0.342,0.505,0.32,0.33],"drift_ix":2,"trial_type":"two-step-trial","trial_index":144,"time_elapsed":1744315,"internal_node_id":"0.0-123.0-0.0","task_version":"1.0","jspsych_version":"6.3.1","browser_interactions":0,"missing":false},{"state_1_ids":[1,0],"state_1_key":0,"state_1_choice":1,"state_1_rt":719,"transition":1,"state":1,"state_2_ids":[2,3],"state_2_key":1,"state_2_choice":3,"state_2_rt":537,"outcome":0,"rocket_colors":["#486ea7","#a75248"],"planet_colors":["#5b7c65","#706081"],"screen_resolution":[1366,768],"minimum_resolution":1,"trial":110,"drifts":[0.337,0.526,0.318,0.349],"drift_ix":2,"trial_type":"two-step-trial","trial_index":145,"time_elapsed":1747592,"internal_node_id":"0.0-124.0-0.0","task_version":"1.0","jspsych_version":"6.3.1","browser_interactions":0,"missing":false},{"state_1_ids":[1,0],"state_1_key":1,"state_1_choice":0,"state_1_rt":1171,"transition":1,"state":0,"state_2_ids":[0,1],"state_2_key":1,"state_2_choice":1,"state_2_rt":733,"outcome":1,"rocket_colors":["#486ea7","#a75248"],"planet_colors":["#5b7c65","#706081"],"screen_resolution":[1366,768],"minimum_resolution":1,"trial":111,"drifts":[0.374,0.551,0.269,0.35],"drift_ix":2,"trial_type":"two-step-trial","trial_index":146,"time_elapsed":1751512,"internal_node_id":"0.0-125.0-0.0","task_version":"1.0","jspsych_version":"6.3.1","browser_interactions":0,"missing":false},{"state_1_ids":[1,0],"state_1_key":1,"state_1_choice":0,"state_1_rt":946,"transition":0,"state":1,"state_2_ids":[2,3],"state_2_key":1,"state_2_choice":3,"state_2_rt":732,"outcome":1,"rocket_colors":["#486ea7","#a75248"],"planet_colors":["#5b7c65","#706081"],"screen_resolution":[1366,768],"minimum_resolution":1,"trial":112,"drifts":[0.355,0.517,0.255,0.331],"drift_ix":2,"trial_type":"two-step-trial","trial_index":147,"time_elapsed":1755211,"internal_node_id":"0.0-126.0-0.0","task_version":"1.0","jspsych_version":"6.3.1","browser_interactions":0,"missing":false},{"state_1_ids":[1,0],"state_1_key":1,"state_1_choice":0,"state_1_rt":1015,"transition":1,"state":0,"state_2_ids":[0,1],"state_2_key":1,"state_2_choice":1,"state_2_rt":921,"outcome":0,"rocket_colors":["#486ea7","#a75248"],"planet_colors":["#5b7c65","#706081"],"screen_resolution":[1366,768],"minimum_resolution":1,"trial":113,"drifts":[0.331,0.507,0.283,0.271],"drift_ix":2,"trial_type":"two-step-trial","trial_index":148,"time_elapsed":1759161,"internal_node_id":"0.0-127.0-0.0","task_version":"1.0","jspsych_version":"6.3.1","browser_interactions":0,"missing":false},{"state_1_ids":[1,0],"state_1_key":1,"state_1_choice":0,"state_1_rt":971,"transition":1,"state":0,"state_2_ids":[0,1],"state_2_key":1,"state_2_choice":1,"state_2_rt":649,"outcome":1,"rocket_colors":["#486ea7","#a75248"],"planet_colors":["#5b7c65","#706081"],"screen_resolution":[1366,768],"minimum_resolution":1,"trial":114,"drifts":[0.326,0.467,0.284,0.267],"drift_ix":2,"trial_type":"two-step-trial","trial_index":149,"time_elapsed":1762792,"internal_node_id":"0.0-128.0-0.0","task_version":"1.0","jspsych_version":"6.3.1","browser_interactions":0,"missing":false},{"state_1_ids":[0,1],"state_1_key":0,"state_1_choice":0,"state_1_rt":663,"transition":1,"state":0,"state_2_ids":[0,1],"state_2_key":1,"state_2_choice":1,"state_2_rt":825,"outcome":1,"rocket_colors":["#486ea7","#a75248"],"planet_colors":["#5b7c65","#706081"],"screen_resolution":[1366,768],"minimum_resolution":1,"trial":115,"drifts":[0.313,0.494,0.291,0.251],"drift_ix":2,"trial_type":"two-step-trial","trial_index":150,"time_elapsed":1766292,"internal_node_id":"0.0-129.0-0.0","task_version":"1.0","jspsych_version":"6.3.1","browser_interactions":0,"missing":false},{"state_1_ids":[0,1],"state_1_key":0,"state_1_choice":0,"state_1_rt":507,"transition":1,"state":0,"state_2_ids":[0,1],"state_2_key":1,"state_2_choice":1,"state_2_rt":571,"outcome":0,"rocket_colors":["#486ea7","#a75248"],"planet_colors":["#5b7c65","#706081"],"screen_resolution":[1366,768],"minimum_resolution":1,"trial":116,"drifts":[0.319,0.494,0.296,0.273],"drift_ix":2,"trial_type":"two-step-trial","trial_index":151,"time_elapsed":1769391,"internal_node_id":"0.0-130.0-0.0","task_version":"1.0","jspsych_version":"6.3.1","browser_interactions":0,"missing":false},{"state_1_ids":[1,0],"state_1_key":0,"state_1_choice":1,"state_1_rt":725,"transition":0,"state":0,"state_2_ids":[0,1],"state_2_key":1,"state_2_choice":1,"state_2_rt":660,"outcome":0,"rocket_colors":["#486ea7","#a75248"],"planet_colors":["#5b7c65","#706081"],"screen_resolution":[1366,768],"minimum_resolution":1,"trial":117,"drifts":[0.297,0.492,0.312,0.277],"drift_ix":2,"trial_type":"two-step-trial","trial_index":152,"time_elapsed":1772791,"internal_node_id":"0.0-131.0-0.0","task_version":"1.0","jspsych_version":"6.3.1","browser_interactions":0,"missing":false},{"state_1_ids":[0,1],"state_1_key":1,"state_1_choice":1,"state_1_rt":673,"transition":0,"state":0,"state_2_ids":[0,1],"state_2_key":1,"state_2_choice":1,"state_2_rt":695,"outcome":0,"rocket_colors":["#486ea7","#a75248"],"planet_colors":["#5b7c65","#706081"],"screen_resolution":[1366,768],"minimum_resolution":1,"trial":118,"drifts":[0.288,0.513,0.36,0.275],"drift_ix":2,"trial_type":"two-step-trial","trial_index":153,"time_elapsed":1776171,"internal_node_id":"0.0-132.0-0.0","task_version":"1.0","jspsych_version":"6.3.1","browser_interactions":0,"missing":false},{"state_1_ids":[1,0],"state_1_key":1,"state_1_choice":0,"state_1_rt":606,"transition":1,"state":0,"state_2_ids":[0,1],"state_2_key":1,"state_2_choice":1,"state_2_rt":590,"outcome":1,"rocket_colors":["#486ea7","#a75248"],"planet_colors":["#5b7c65","#706081"],"screen_resolution":[1366,768],"minimum_resolution":1,"trial":119,"drifts":[0.304,0.552,0.392,0.266],"drift_ix":2,"trial_type":"two-step-trial","trial_index":154,"time_elapsed":1779391,"internal_node_id":"0.0-133.0-0.0","task_version":"1.0","jspsych_version":"6.3.1","browser_interactions":0,"missing":false},{"state_1_ids":[1,0],"state_1_key":1,"state_1_choice":0,"state_1_rt":2927,"transition":1,"state":0,"state_2_ids":[0,1],"state_2_key":1,"state_2_choice":1,"state_2_rt":759,"outcome":0,"rocket_colors":["#486ea7","#a75248"],"planet_colors":["#5b7c65","#706081"],"screen_resolution":[1366,768],"minimum_resolution":1,"trial":120,"drifts":[0.295,0.538,0.367,0.253],"drift_ix":2,"trial_type":"two-step-trial","trial_index":155,"time_elapsed":1785101,"internal_node_id":"0.0-134.0-0.0","task_version":"1.0","jspsych_version":"6.3.1","browser_interactions":0,"missing":false},{"state_1_ids":[0,1],"state_1_key":1,"state_1_choice":1,"state_1_rt":1036,"transition":0,"state":0,"state_2_ids":[0,1],"state_2_key":1,"state_2_choice":1,"state_2_rt":659,"outcome":1,"rocket_colors":["#486ea7","#a75248"],"planet_colors":["#5b7c65","#706081"],"screen_resolution":[1366,768],"minimum_resolution":1,"trial":121,"drifts":[0.268,0.49,0.389,0.267],"drift_ix":2,"trial_type":"two-step-trial","trial_index":156,"time_elapsed":1788801,"internal_node_id":"0.0-135.0-0.0","task_version":"1.0","jspsych_version":"6.3.1","browser_interactions":0,"missing":false},{"state_1_ids":[1,0],"state_1_key":0,"state_1_choice":1,"state_1_rt":744,"transition":1,"state":1,"state_2_ids":[2,3],"state_2_key":1,"state_2_choice":3,"state_2_rt":1130,"outcome":0,"rocket_colors":["#486ea7","#a75248"],"planet_colors":["#5b7c65","#706081"],"screen_resolution":[1366,768],"minimum_resolution":1,"trial":122,"drifts":[0.292,0.548,0.366,0.262],"drift_ix":2,"trial_type":"two-step-trial","trial_index":157,"time_elapsed":1792690,"internal_node_id":"0.0-136.0-0.0","task_version":"1.0","jspsych_version":"6.3.1","browser_interactions":0,"missing":false},{"state_1_ids":[0,1],"state_1_key":0,"state_1_choice":0,"state_1_rt":3409,"transition":1,"state":0,"state_2_ids":[0,1],"state_2_key":1,"state_2_choice":1,"state_2_rt":2221,"outcome":0,"rocket_colors":["#486ea7","#a75248"],"planet_colors":["#5b7c65","#706081"],"screen_resolution":[1366,768],"minimum_resolution":1,"trial":123,"drifts":[0.287,0.579,0.38,0.276],"drift_ix":2,"trial_type":"two-step-trial","trial_index":158,"time_elapsed":1800339,"internal_node_id":"0.0-137.0-0.0","task_version":"1.0","jspsych_version":"6.3.1","browser_interactions":0,"missing":false},{"state_1_ids":[1,0],"state_1_key":1,"state_1_choice":0,"state_1_rt":4394,"transition":1,"state":0,"state_2_ids":[0,1],"state_2_key":1,"state_2_choice":1,"state_2_rt":681,"outcome":1,"rocket_colors":["#486ea7","#a75248"],"planet_colors":["#5b7c65","#706081"],"screen_resolution":[1366,768],"minimum_resolution":1,"trial":124,"drifts":[0.296,0.64,0.405,0.262],"drift_ix":2,"trial_type":"two-step-trial","trial_index":159,"time_elapsed":1807429,"internal_node_id":"0.0-138.0-0.0","task_version":"1.0","jspsych_version":"6.3.1","browser_interactions":0,"missing":false},{"state_1_ids":[0,1],"state_1_key":0,"state_1_choice":0,"state_1_rt":838,"transition":0,"state":1,"state_2_ids":[2,3],"state_2_key":0,"state_2_choice":2,"state_2_rt":1959,"outcome":0,"rocket_colors":["#486ea7","#a75248"],"planet_colors":["#5b7c65","#706081"],"screen_resolution":[1366,768],"minimum_resolution":1,"trial":125,"drifts":[0.25,0.637,0.448,0.25],"drift_ix":2,"trial_type":"two-step-trial","trial_index":160,"time_elapsed":1812248,"internal_node_id":"0.0-139.0-0.0","task_version":"1.0","jspsych_version":"6.3.1","browser_interactions":0,"missing":false},{"state_1_ids":[1,0],"state_1_key":1,"state_1_choice":0,"state_1_rt":1304,"transition":1,"state":0,"state_2_ids":[0,1],"state_2_key":1,"state_2_choice":1,"state_2_rt":1330,"outcome":1,"rocket_colors":["#486ea7","#a75248"],"planet_colors":["#5b7c65","#706081"],"screen_resolution":[1366,768],"minimum_resolution":1,"trial":126,"drifts":[0.255,0.666,0.447,0.257],"drift_ix":2,"trial_type":"two-step-trial","trial_index":161,"time_elapsed":1816898,"internal_node_id":"0.0-140.0-0.0","task_version":"1.0","jspsych_version":"6.3.1","browser_interactions":0,"missing":false},{"state_1_ids":[0,1],"state_1_key":0,"state_1_choice":0,"state_1_rt":873,"transition":0,"state":1,"state_2_ids":[2,3],"state_2_key":1,"state_2_choice":3,"state_2_rt":1200,"outcome":0,"rocket_colors":["#486ea7","#a75248"],"planet_colors":["#5b7c65","#706081"],"screen_resolution":[1366,768],"minimum_resolution":1,"trial":127,"drifts":[0.281,0.695,0.433,0.272],"drift_ix":2,"trial_type":"two-step-trial","trial_index":162,"time_elapsed":1820988,"internal_node_id":"0.0-141.0-0.0","task_version":"1.0","jspsych_version":"6.3.1","browser_interactions":0,"missing":false},{"state_1_ids":[0,1],"state_1_key":1,"state_1_choice":1,"state_1_rt":1062,"transition":1,"state":1,"state_2_ids":[2,3],"state_2_key":1,"state_2_choice":3,"state_2_rt":756,"outcome":0,"rocket_colors":["#486ea7","#a75248"],"planet_colors":["#5b7c65","#706081"],"screen_resolution":[1366,768],"minimum_resolution":1,"trial":128,"drifts":[0.277,0.667,0.42,0.278],"drift_ix":2,"trial_type":"two-step-trial","trial_index":163,"time_elapsed":1824818,"internal_node_id":"0.0-142.0-0.0","task_version":"1.0","jspsych_version":"6.3.1","browser_interactions":0,"missing":false},{"state_1_ids":[1,0],"state_1_key":0,"state_1_choice":1,"state_1_rt":2268,"transition":1,"state":1,"state_2_ids":[2,3],"state_2_key":1,"state_2_choice":3,"state_2_rt":666,"outcome":0,"rocket_colors":["#486ea7","#a75248"],"planet_colors":["#5b7c65","#706081"],"screen_resolution":[1366,768],"minimum_resolution":1,"trial":129,"drifts":[0.318,0.661,0.46,0.294],"drift_ix":2,"trial_type":"two-step-trial","trial_index":164,"time_elapsed":1829768,"internal_node_id":"0.0-143.0-0.0","task_version":"1.0","jspsych_version":"6.3.1","browser_interactions":0,"missing":false},{"state_1_ids":[0,1],"state_1_key":1,"state_1_choice":1,"state_1_rt":1890,"transition":1,"state":1,"state_2_ids":[2,3],"state_2_key":1,"state_2_choice":3,"state_2_rt":941,"outcome":0,"rocket_colors":["#486ea7","#a75248"],"planet_colors":["#5b7c65","#706081"],"screen_resolution":[1366,768],"minimum_resolution":1,"trial":130,"drifts":[0.306,0.677,0.461,0.259],"drift_ix":2,"trial_type":"two-step-trial","trial_index":165,"time_elapsed":1834618,"internal_node_id":"0.0-144.0-0.0","task_version":"1.0","jspsych_version":"6.3.1","browser_interactions":0,"missing":false},{"state_1_ids":[0,1],"state_1_key":0,"state_1_choice":0,"state_1_rt":509,"transition":1,"state":0,"state_2_ids":[0,1],"state_2_key":1,"state_2_choice":1,"state_2_rt":540,"outcome":1,"rocket_colors":["#486ea7","#a75248"],"planet_colors":["#5b7c65","#706081"],"screen_resolution":[1366,768],"minimum_resolution":1,"trial":131,"drifts":[0.35,0.655,0.474,0.278],"drift_ix":2,"trial_type":"two-step-trial","trial_index":166,"time_elapsed":1837687,"internal_node_id":"0.0-145.0-0.0","task_version":"1.0","jspsych_version":"6.3.1","browser_interactions":0,"missing":false},{"state_1_ids":[0,1],"state_1_key":0,"state_1_choice":0,"state_1_rt":548,"transition":1,"state":0,"state_2_ids":[0,1],"state_2_key":1,"state_2_choice":1,"state_2_rt":838,"outcome":1,"rocket_colors":["#486ea7","#a75248"],"planet_colors":["#5b7c65","#706081"],"screen_resolution":[1366,768],"minimum_resolution":1,"trial":132,"drifts":[0.352,0.663,0.445,0.297],"drift_ix":2,"trial_type":"two-step-trial","trial_index":167,"time_elapsed":1841087,"internal_node_id":"0.0-146.0-0.0","task_version":"1.0","jspsych_version":"6.3.1","browser_interactions":0,"missing":false},{"state_1_ids":[0,1],"state_1_key":0,"state_1_choice":0,"state_1_rt":559,"transition":1,"state":0,"state_2_ids":[0,1],"state_2_key":1,"state_2_choice":1,"state_2_rt":546,"outcome":1,"rocket_colors":["#486ea7","#a75248"],"planet_colors":["#5b7c65","#706081"],"screen_resolution":[1366,768],"minimum_resolution":1,"trial":133,"drifts":[0.374,0.662,0.412,0.314],"drift_ix":2,"trial_type":"two-step-trial","trial_index":168,"time_elapsed":1844206,"internal_node_id":"0.0-147.0-0.0","task_version":"1.0","jspsych_version":"6.3.1","browser_interactions":0,"missing":false},{"state_1_ids":[1,0],"state_1_key":1,"state_1_choice":0,"state_1_rt":955,"transition":1,"state":0,"state_2_ids":[0,1],"state_2_key":1,"state_2_choice":1,"state_2_rt":806,"outcome":1,"rocket_colors":["#486ea7","#a75248"],"planet_colors":["#5b7c65","#706081"],"screen_resolution":[1366,768],"minimum_resolution":1,"trial":134,"drifts":[0.405,0.666,0.424,0.315],"drift_ix":2,"trial_type":"two-step-trial","trial_index":169,"time_elapsed":1847975,"internal_node_id":"0.0-148.0-0.0","task_version":"1.0","jspsych_version":"6.3.1","browser_interactions":0,"missing":false},{"state_1_ids":[1,0],"state_1_key":1,"state_1_choice":0,"state_1_rt":843,"transition":1,"state":0,"state_2_ids":[0,1],"state_2_key":1,"state_2_choice":1,"state_2_rt":620,"outcome":1,"rocket_colors":["#486ea7","#a75248"],"planet_colors":["#5b7c65","#706081"],"screen_resolution":[1366,768],"minimum_resolution":1,"trial":135,"drifts":[0.43,0.696,0.452,0.345],"drift_ix":2,"trial_type":"two-step-trial","trial_index":170,"time_elapsed":1851455,"internal_node_id":"0.0-149.0-0.0","task_version":"1.0","jspsych_version":"6.3.1","browser_interactions":0,"missing":false},{"state_1_ids":[1,0],"state_1_key":1,"state_1_choice":0,"state_1_rt":778,"transition":0,"state":1,"state_2_ids":[2,3],"state_2_key":1,"state_2_choice":3,"state_2_rt":1830,"outcome":0,"rocket_colors":["#486ea7","#a75248"],"planet_colors":["#5b7c65","#706081"],"screen_resolution":[1366,768],"minimum_resolution":1,"trial":136,"drifts":[0.426,0.681,0.444,0.337],"drift_ix":2,"trial_type":"two-step-trial","trial_index":171,"time_elapsed":1856085,"internal_node_id":"0.0-150.0-0.0","task_version":"1.0","jspsych_version":"6.3.1","browser_interactions":0,"missing":false},{"state_1_ids":[1,0],"state_1_key":1,"state_1_choice":0,"state_1_rt":811,"transition":1,"state":0,"state_2_ids":[0,1],"state_2_key":1,"state_2_choice":1,"state_2_rt":577,"outcome":0,"rocket_colors":["#486ea7","#a75248"],"planet_colors":["#5b7c65","#706081"],"screen_resolution":[1366,768],"minimum_resolution":1,"trial":137,"drifts":[0.411,0.674,0.45,0.299],"drift_ix":2,"trial_type":"two-step-trial","trial_index":172,"time_elapsed":1859485,"internal_node_id":"0.0-151.0-0.0","task_version":"1.0","jspsych_version":"6.3.1","browser_interactions":0,"missing":false},{"state_1_ids":[1,0],"state_1_key":1,"state_1_choice":0,"state_1_rt":644,"transition":1,"state":0,"state_2_ids":[0,1],"state_2_key":1,"state_2_choice":1,"state_2_rt":704,"outcome":1,"rocket_colors":["#486ea7","#a75248"],"planet_colors":["#5b7c65","#706081"],"screen_resolution":[1366,768],"minimum_resolution":1,"trial":138,"drifts":[0.414,0.699,0.459,0.339],"drift_ix":2,"trial_type":"two-step-trial","trial_index":173,"time_elapsed":1862845,"internal_node_id":"0.0-152.0-0.0","task_version":"1.0","jspsych_version":"6.3.1","browser_interactions":0,"missing":false},{"state_1_ids":[0,1],"state_1_key":0,"state_1_choice":0,"state_1_rt":922,"transition":0,"state":1,"state_2_ids":[2,3],"state_2_key":1,"state_2_choice":3,"state_2_rt":2354,"outcome":1,"rocket_colors":["#486ea7","#a75248"],"planet_colors":["#5b7c65","#706081"],"screen_resolution":[1366,768],"minimum_resolution":1,"trial":139,"drifts":[0.394,0.734,0.462,0.307],"drift_ix":2,"trial_type":"two-step-trial","trial_index":174,"time_elapsed":1868135,"internal_node_id":"0.0-153.0-0.0","task_version":"1.0","jspsych_version":"6.3.1","browser_interactions":0,"missing":false},{"state_1_ids":[1,0],"state_1_key":1,"state_1_choice":0,"state_1_rt":768,"transition":1,"state":0,"state_2_ids":[0,1],"state_2_key":1,"state_2_choice":1,"state_2_rt":773,"outcome":1,"rocket_colors":["#486ea7","#a75248"],"planet_colors":["#5b7c65","#706081"],"screen_resolution":[1366,768],"minimum_resolution":1,"trial":140,"drifts":[0.361,0.693,0.467,0.292],"drift_ix":2,"trial_type":"two-step-trial","trial_index":175,"time_elapsed":1871694,"internal_node_id":"0.0-154.0-0.0","task_version":"1.0","jspsych_version":"6.3.1","browser_interactions":0,"missing":false},{"state_1_ids":[0,1],"state_1_key":0,"state_1_choice":0,"state_1_rt":630,"transition":1,"state":0,"state_2_ids":[0,1],"state_2_key":1,"state_2_choice":1,"state_2_rt":709,"outcome":1,"rocket_colors":["#486ea7","#a75248"],"planet_colors":["#5b7c65","#706081"],"screen_resolution":[1366,768],"minimum_resolution":1,"trial":141,"drifts":[0.354,0.722,0.46,0.26],"drift_ix":2,"trial_type":"two-step-trial","trial_index":176,"time_elapsed":1875055,"internal_node_id":"0.0-155.0-0.0","task_version":"1.0","jspsych_version":"6.3.1","browser_interactions":0,"missing":false},{"state_1_ids":[1,0],"state_1_key":1,"state_1_choice":0,"state_1_rt":1063,"transition":1,"state":0,"state_2_ids":[0,1],"state_2_key":1,"state_2_choice":1,"state_2_rt":787,"outcome":1,"rocket_colors":["#486ea7","#a75248"],"planet_colors":["#5b7c65","#706081"],"screen_resolution":[1366,768],"minimum_resolution":1,"trial":142,"drifts":[0.353,0.749,0.428,0.301],"drift_ix":2,"trial_type":"two-step-trial","trial_index":177,"time_elapsed":1878915,"internal_node_id":"0.0-156.0-0.0","task_version":"1.0","jspsych_version":"6.3.1","browser_interactions":0,"missing":false},{"state_1_ids":[1,0],"state_1_key":1,"state_1_choice":0,"state_1_rt":726,"transition":0,"state":1,"state_2_ids":[2,3],"state_2_key":1,"state_2_choice":3,"state_2_rt":1661,"outcome":1,"rocket_colors":["#486ea7","#a75248"],"planet_colors":["#5b7c65","#706081"],"screen_resolution":[1366,768],"minimum_resolution":1,"trial":143,"drifts":[0.361,0.73,0.409,0.316],"drift_ix":2,"trial_type":"two-step-trial","trial_index":178,"time_elapsed":1883315,"internal_node_id":"0.0-157.0-0.0","task_version":"1.0","jspsych_version":"6.3.1","browser_interactions":0,"missing":false},{"state_1_ids":[0,1],"state_1_key":0,"state_1_choice":0,"state_1_rt":755,"transition":1,"state":0,"state_2_ids":[0,1],"state_2_key":1,"state_2_choice":1,"state_2_rt":762,"outcome":1,"rocket_colors":["#486ea7","#a75248"],"planet_colors":["#5b7c65","#706081"],"screen_resolution":[1366,768],"minimum_resolution":1,"trial":144,"drifts":[0.295,0.721,0.424,0.316],"drift_ix":2,"trial_type":"two-step-trial","trial_index":179,"time_elapsed":1886844,"internal_node_id":"0.0-158.0-0.0","task_version":"1.0","jspsych_version":"6.3.1","browser_interactions":0,"missing":false},{"state_1_ids":[0,1],"state_1_key":0,"state_1_choice":0,"state_1_rt":499,"transition":1,"state":0,"state_2_ids":[0,1],"state_2_key":1,"state_2_choice":1,"state_2_rt":712,"outcome":1,"rocket_colors":["#486ea7","#a75248"],"planet_colors":["#5b7c65","#706081"],"screen_resolution":[1366,768],"minimum_resolution":1,"trial":145,"drifts":[0.287,0.742,0.437,0.287],"drift_ix":2,"trial_type":"two-step-trial","trial_index":180,"time_elapsed":1890075,"internal_node_id":"0.0-159.0-0.0","task_version":"1.0","jspsych_version":"6.3.1","browser_interactions":0,"missing":false},{"state_1_ids":[1,0],"state_1_key":1,"state_1_choice":0,"state_1_rt":716,"transition":1,"state":0,"state_2_ids":[0,1],"state_2_key":1,"state_2_choice":1,"state_2_rt":675,"outcome":1,"rocket_colors":["#486ea7","#a75248"],"planet_colors":["#5b7c65","#706081"],"screen_resolution":[1366,768],"minimum_resolution":1,"trial":146,"drifts":[0.278,0.742,0.427,0.31],"drift_ix":2,"trial_type":"two-step-trial","trial_index":181,"time_elapsed":1893484,"internal_node_id":"0.0-160.0-0.0","task_version":"1.0","jspsych_version":"6.3.1","browser_interactions":0,"missing":false},{"state_1_ids":[0,1],"state_1_key":0,"state_1_choice":0,"state_1_rt":697,"transition":1,"state":0,"state_2_ids":[0,1],"state_2_key":1,"state_2_choice":1,"state_2_rt":600,"outcome":1,"rocket_colors":["#486ea7","#a75248"],"planet_colors":["#5b7c65","#706081"],"screen_resolution":[1366,768],"minimum_resolution":1,"trial":147,"drifts":[0.277,0.741,0.475,0.282],"drift_ix":2,"trial_type":"two-step-trial","trial_index":182,"time_elapsed":1896797,"internal_node_id":"0.0-161.0-0.0","task_version":"1.0","jspsych_version":"6.3.1","browser_interactions":0,"missing":false},{"state_1_ids":[1,0],"state_1_key":1,"state_1_choice":0,"state_1_rt":960,"transition":1,"state":0,"state_2_ids":[0,1],"state_2_key":1,"state_2_choice":1,"state_2_rt":701,"outcome":1,"rocket_colors":["#486ea7","#a75248"],"planet_colors":["#5b7c65","#706081"],"screen_resolution":[1366,768],"minimum_resolution":1,"trial":148,"drifts":[0.264,0.733,0.497,0.268],"drift_ix":2,"trial_type":"two-step-trial","trial_index":183,"time_elapsed":1900482,"internal_node_id":"0.0-162.0-0.0","task_version":"1.0","jspsych_version":"6.3.1","browser_interactions":0,"missing":false},{"state_1_ids":[1,0],"state_1_key":1,"state_1_choice":0,"state_1_rt":753,"transition":0,"state":1,"state_2_ids":[2,3],"state_2_key":1,"state_2_choice":3,"state_2_rt":973,"outcome":0,"rocket_colors":["#486ea7","#a75248"],"planet_colors":["#5b7c65","#706081"],"screen_resolution":[1366,768],"minimum_resolution":1,"trial":149,"drifts":[0.258,0.74,0.534,0.264],"drift_ix":2,"trial_type":"two-step-trial","trial_index":184,"time_elapsed":1904222,"internal_node_id":"0.0-163.0-0.0","task_version":"1.0","jspsych_version":"6.3.1","browser_interactions":0,"missing":false},{"state_1_ids":[1,0],"state_1_key":1,"state_1_choice":0,"state_1_rt":509,"transition":1,"state":0,"state_2_ids":[0,1],"state_2_key":1,"state_2_choice":1,"state_2_rt":672,"outcome":1,"rocket_colors":["#486ea7","#a75248"],"planet_colors":["#5b7c65","#706081"],"screen_resolution":[1366,768],"minimum_resolution":1,"trial":150,"drifts":[0.326,0.735,0.576,0.271],"drift_ix":2,"trial_type":"two-step-trial","trial_index":185,"time_elapsed":1907422,"internal_node_id":"0.0-164.0-0.0","task_version":"1.0","jspsych_version":"6.3.1","browser_interactions":0,"missing":false},{"state_1_ids":[0,1],"state_1_key":0,"state_1_choice":0,"state_1_rt":876,"transition":0,"state":1,"state_2_ids":[2,3],"state_2_key":1,"state_2_choice":3,"state_2_rt":892,"outcome":0,"rocket_colors":["#486ea7","#a75248"],"planet_colors":["#5b7c65","#706081"],"screen_resolution":[1366,768],"minimum_resolution":1,"trial":151,"drifts":[0.29,0.726,0.571,0.275],"drift_ix":2,"trial_type":"two-step-trial","trial_index":186,"time_elapsed":1911211,"internal_node_id":"0.0-165.0-0.0","task_version":"1.0","jspsych_version":"6.3.1","browser_interactions":0,"missing":false},{"state_1_ids":[1,0],"state_1_key":1,"state_1_choice":0,"state_1_rt":936,"transition":1,"state":0,"state_2_ids":[0,1],"state_2_key":1,"state_2_choice":1,"state_2_rt":637,"outcome":1,"rocket_colors":["#486ea7","#a75248"],"planet_colors":["#5b7c65","#706081"],"screen_resolution":[1366,768],"minimum_resolution":1,"trial":152,"drifts":[0.318,0.734,0.594,0.314],"drift_ix":2,"trial_type":"two-step-trial","trial_index":187,"time_elapsed":1914791,"internal_node_id":"0.0-166.0-0.0","task_version":"1.0","jspsych_version":"6.3.1","browser_interactions":0,"missing":false},{"state_1_ids":[1,0],"state_1_key":1,"state_1_choice":0,"state_1_rt":905,"tr