[{"success":true,"timeout":false,"failed_images":[],"failed_audio":[],"failed_video":[],"trial_type":"preload","trial_index":0,"time_elapsed":595,"internal_node_id":"0.0-0.0","task_version":"1.0","jspsych_version":"6.3.1"},{"success":true,"trial_type":"fullscreen","trial_index":1,"time_elapsed":4690,"internal_node_id":"0.0-1.0","task_version":"1.0","jspsych_version":"6.3.1"},{"view_history":[{"page_index":0,"viewing_time":4910.5}],"rt":4911.20000000298,"trial_type":"instructions","trial_index":2,"time_elapsed":9603,"internal_node_id":"0.0-2.0","task_version":"1.0","jspsych_version":"6.3.1"},{"responses":{"Q04":"1","Q02":"1","Q01":"1","Q03":"2","Q08":"0","Q05":"1","Q06":"1","Q07":"0"},"rt":85109.60000000894,"item_order":[3,1,0,2,7,4,5,6],"radio_events":[6779.70000000298,11349.60000000894,25734.40000000596,35642.60000000894,47827,55961.40000000596,63880.90000000596,75642.79999999702],"key_events":[],"mouse_events":[0.4000000059604645,6779.70000000298,11349.60000000894,20549.10000000894,25734.40000000596,35642.60000000894,47827,55961.40000000596,63880.90000000596,67148,68557.40000000596,75642.79999999702,85108.5],"straightlining":0.625,"zigzagging":0.42857142857142855,"honeypot":0,"survey":"depression","trial_type":"survey-template","trial_index":3,"time_elapsed":94717,"internal_node_id":"0.0-3.0","task_version":"1.0","jspsych_version":"6.3.1"},{"responses":{"Q01":"4","Q04":"1","Q02":"1","Q03":"0","Q05":"2","Q07":"6","Q06":"1"},"rt":31709.89999999106,"item_order":[0,3,1,2,4,6,5],"radio_events":[5659.5999999940395,7973.0999999940395,10956.39999999106,13010.29999999702,19911,24544.79999999702,27276.09999999404],"key_events":[],"mouse_events":[5659.5999999940395,7973.0999999940395,10956.39999999106,13010.29999999702,19911,24544.79999999702,27276.09999999404,31708.5],"straightlining":0.42857142857142855,"zigzagging":0.16666666666666666,"honeypot":0,"survey":"greed","trial_type":"survey-template","trial_index":4,"time_elapsed":126431,"internal_node_id":"0.0-4.0","task_version":"1.0","jspsych_version":"6.3.1"},{"responses":{"Q05":"5","Q07":"3","Q02":"4","Q03":"5","Q04":"4","Q06":"5","Q01":"6"},"rt":29959.20000000298,"item_order":[4,6,1,2,3,5,0],"radio_events":[4284.79999999702,8208,13554,18542.29999999702,21658.40000000596,24035.29999999702,27900.10000000894],"key_events":[],"mouse_events":[4284.79999999702,8208,13554,16642.79999999702,18542.29999999702,21658.40000000596,24035.29999999702,27900.10000000894,29958.5],"straightlining":0.42857142857142855,"zigzagging":0.16666666666666666,"honeypot":0,"survey":"artistic","trial_type":"survey-template","trial_index":5,"time_elapsed":156393,"internal_node_id":"0.0-5.0","task_version":"1.0","jspsych_version":"6.3.1"},{"responses":{"Q03":"1","Q04":"2","Q01":"2","Q06":"2","Q05":"1","Q08":"0","Q02":"1","Q07":"1"},"rt":25712.29999999702,"item_order":[2,3,0,5,4,7,1,6],"radio_events":[3728.2999999970198,5588.5,7490,9120.09999999404,12127.5,17703.89999999106,21168.89999999106,23027.20000000298],"key_events":[],"mouse_events":[3728.2999999970198,5588.5,7490,9120.09999999404,12127.5,17703.89999999106,21168.89999999106,23027.20000000298,25711.70000000298],"straightlining":0.5,"zigzagging":0.5714285714285714,"honeypot":0,"survey":"anxiety","trial_type":"survey-template","trial_index":6,"time_elapsed":182108,"internal_node_id":"0.0-6.0","task_version":"1.0","jspsych_version":"6.3.1"},{"responses":{"Q05":"0","Q08":"3","Q01":"0","Q03":"1","Q02":"0","Q06":"2","Q04":"0","Q07":"1"},"rt":85183,"item_order":[4,7,0,2,1,5,3,6],"radio_events":[9239.59999999404,21783.69999998808,31411.19999998808,40434.09999999404,48382.09999999404,60640.89999999106,72318.79999999702,83332.19999998808],"key_events":[],"mouse_events":[9239.59999999404,21783.69999998808,31411.19999998808,40434.09999999404,48382.09999999404,60640.89999999106,72318.79999999702,82102.19999998808,83332.19999998808,85182.19999998808],"straightlining":0.5,"zigzagging":0.7142857142857143,"honeypot":0,"survey":"mania","trial_type":"survey-template","trial_index":7,"time_elapsed":267293,"internal_node_id":"0.0-7.0","task_version":"1.0","jspsych_version":"6.3.1"},{"view_history":"[{\"page_index\":0,\"viewing_time\":8548.5},{\"page_index\":1,\"viewing_time\":5445.699999988079},{\"page_index\":2,\"viewing_time\":1727.800000011921},{\"page_index\":3,\"viewing_time\":18795.09999999404},{\"page_index\":4,\"viewing_time\":6282.79999999702},{\"page_index\":5,\"viewing_time\":6615},{\"page_index\":6,\"viewing_time\":5484.600000008941},{\"page_index\":7,\"viewing_time\":17929.29999999702},{\"page_index\":8,\"viewing_time\":7791.5},{\"page_index\":9,\"viewing_time\":9991.5},{\"page_index\":10,\"viewing_time\":4596.29999999702}]","rt":93209.29999999702,"trial_type":"two-step-instructions","trial_index":8,"time_elapsed":360507,"internal_node_id":"0.0-8.0-1.0","task_version":"1.0","jspsych_version":"6.3.1"},{"responses":["left/right arrow keys","True","True"],"num_errors":0,"rt":16063.800000011921,"quiz":1,"trial_type":"two-step-comprehension","trial_index":9,"time_elapsed":376574,"internal_node_id":"0.0-8.0-2.0","task_version":"1.0","jspsych_version":"6.3.1"},{"view_history":"[{\"page_index\":0,\"viewing_time\":9005.79999999702}]","rt":9006.20000000298,"phase":"instructions_1b","trial_type":"two-step-instructions","trial_index":10,"time_elapsed":385583,"internal_node_id":"0.0-9.0-0.0-0.0","task_version":"1.0","jspsych_version":"6.3.1"},{"state_2_ids":[0,1],"state_2_key":1,"state_2_choice":1,"state_2_rt":6038.20000000298,"outcome":1,"screen_resolution":[1536,864],"minimum_resolution":1,"trial_type":"alien-practice","trial_index":11,"time_elapsed":393826,"internal_node_id":"0.0-9.0-1.0-0.0","task_version":"1.0","jspsych_version":"6.3.1"},{"state_2_ids":[0,1],"state_2_key":1,"state_2_choice":1,"state_2_rt":562.2000000029802,"outcome":0,"screen_resolution":[1536,864],"minimum_resolution":1,"trial_type":"alien-practice","trial_index":12,"time_elapsed":396592,"internal_node_id":"0.0-9.0-2.0-0.0","task_version":"1.0","jspsych_version":"6.3.1"},{"state_2_ids":[0,1],"state_2_key":0,"state_2_choice":0,"state_2_rt":2018.1000000089407,"outcome":0,"screen_resolution":[1536,864],"minimum_resolution":1,"trial_type":"alien-practice","trial_index":13,"time_elapsed":400814,"internal_node_id":"0.0-9.0-3.0-0.0","task_version":"1.0","jspsych_version":"6.3.1"},{"state_2_ids":[0,1],"state_2_key":1,"state_2_choice":1,"state_2_rt":592.6999999880791,"outcome":1,"screen_resolution":[1536,864],"minimum_resolution":1,"trial_type":"alien-practice","trial_index":14,"time_elapsed":403612,"internal_node_id":"0.0-9.0-4.0-0.0","task_version":"1.0","jspsych_version":"6.3.1"},{"state_2_ids":[0,1],"state_2_key":1,"state_2_choice":1,"state_2_rt":578.1000000089407,"outcome":1,"screen_resolution":[1536,864],"minimum_resolution":1,"trial_type":"alien-practice","trial_index":15,"time_elapsed":406394,"internal_node_id":"0.0-9.0-5.0-0.0","task_version":"1.0","jspsych_version":"6.3.1"},{"state_2_ids":[0,1],"state_2_key":1,"state_2_choice":1,"state_2_rt":1000,"outcome":1,"screen_resolution":[1536,864],"minimum_resolution":1,"trial_type":"alien-practice","trial_index":16,"time_elapsed":409597,"internal_node_id":"0.0-9.0-6.0-0.0","task_version":"1.0","jspsych_version":"6.3.1"},{"view_history":"[{\"page_index\":0,\"viewing_time\":5272.29999999702},{\"page_index\":1,\"viewing_time\":5879.0999999940395},{\"page_index\":2,\"viewing_time\":10670.70000000298},{\"page_index\":3,\"viewing_time\":14124.5},{\"page_index\":4,\"viewing_time\":4906},{\"page_index\":5,\"viewing_time\":2928.0999999940395}]","rt":43781.39999999106,"trial_type":"two-step-instructions","trial_index":17,"time_elapsed":453382,"internal_node_id":"0.0-10.0-1.0","task_version":"1.0","jspsych_version":"6.3.1"},{"responses":["left/right arrow keys","False","True"],"num_errors":0,"rt":16482.59999999404,"quiz":2,"trial_type":"two-step-comprehension","trial_index":18,"time_elapsed":469868,"internal_node_id":"0.0-10.0-2.0","task_version":"1.0","jspsych_version":"6.3.1"},{"view_history":"[{\"page_index\":0,\"viewing_time\":3545.6000000089407},{\"page_index\":1,\"viewing_time\":9944.59999999404},{\"page_index\":2,\"viewing_time\":28205.09999999404}]","rt":41696,"trial_type":"two-step-instructions","trial_index":19,"time_elapsed":511569,"internal_node_id":"0.0-11.0-0.0","task_version":"1.0","jspsych_version":"6.3.1"},{"state_1_ids":[1,0],"state_1_key":0,"state_1_choice":1,"state_1_rt":5330.20000000298,"transition":0,"state":0,"state_2_ids":[0,1],"state_2_key":1,"state_2_choice":1,"state_2_rt":9714.699999988079,"outcome":0,"rocket_colors":["#486ea7","#a75248"],"planet_colors":["#5b7c65","#706081"],"screen_resolution":[1536,864],"minimum_resolution":1,"trial":0,"trial_type":"two-step-trial","trial_index":20,"time_elapsed":528622,"internal_node_id":"0.0-11.0-1.0-0.0","task_version":"1.0","jspsych_version":"6.3.1","missing":false},{"state_1_ids":[1,0],"state_1_key":1,"state_1_choice":0,"state_1_rt":6775.9000000059605,"transition":1,"state":0,"state_2_ids":[0,1],"state_2_key":1,"state_2_choice":1,"state_2_rt":7390.600000008941,"outcome":1,"rocket_colors":["#486ea7","#a75248"],"planet_colors":["#5b7c65","#706081"],"screen_resolution":[1536,864],"minimum_resolution":1,"trial":0,"trial_type":"two-step-trial","trial_index":21,"time_elapsed":544794,"internal_node_id":"0.0-11.0-1.0-0.1","task_version":"1.0","jspsych_version":"6.3.1","missing":false},{"state_1_ids":[1,0],"state_1_key":0,"state_1_choice":1,"state_1_rt":4098.4000000059605,"transition":0,"state":0,"state_2_ids":[0,1],"state_2_key":1,"state_2_choice":1,"state_2_rt":2286.8999999910593,"outcome":0,"rocket_colors":["#486ea7","#a75248"],"planet_colors":["#5b7c65","#706081"],"screen_resolution":[1536,864],"minimum_resolution":1,"trial":0,"trial_type":"two-step-trial","trial_index":22,"time_elapsed":553185,"internal_node_id":"0.0-11.0-1.0-0.2","task_version":"1.0","jspsych_version":"6.3.1","missing":false},{"state_1_ids":[1,0],"state_1_key":1,"state_1_choice":0,"state_1_rt":6065.4000000059605,"transition":1,"state":0,"state_2_ids":[0,1],"state_2_key":1,"state_2_choice":1,"state_2_rt":2719.9000000059605,"outcome":0,"rocket_colors":["#486ea7","#a75248"],"planet_colors":["#5b7c65","#706081"],"screen_resolution":[1536,864],"minimum_resolution":1,"trial":0,"trial_type":"two-step-trial","trial_index":23,"time_elapsed":563976,"internal_node_id":"0.0-11.0-1.0-0.3","task_version":"1.0","jspsych_version":"6.3.1","missing":false},{"state_1_ids":[0,1],"state_1_key":0,"state_1_choice":0,"state_1_rt":8876.29999999702,"transition":1,"state":0,"state_2_ids":[0,1],"state_2_key":0,"state_2_choice":0,"state_2_rt":3417.5999999940395,"outcome":1,"rocket_colors":["#486ea7","#a75248"],"planet_colors":["#5b7c65","#706081"],"screen_resolution":[1536,864],"minimum_resolution":1,"trial":0,"trial_type":"two-step-trial","trial_index":24,"time_elapsed":578275,"internal_node_id":"0.0-11.0-1.0-0.4","task_version":"1.0","jspsych_version":"6.3.1","missing":false},{"state_1_ids":[1,0],"state_1_key":0,"state_1_choice":1,"state_1_rt":8841.09999999404,"transition":1,"state":1,"state_2_ids":[2,3],"state_2_key":0,"state_2_choice":2,"state_2_rt":4527.5,"outcome":0,"rocket_colors":["#486ea7","#a75248"],"planet_colors":["#5b7c65","#706081"],"screen_resolution":[1536,864],"minimum_resolution":1,"trial":0,"trial_type":"two-step-trial","trial_index":25,"time_elapsed":593649,"internal_node_id":"0.0-11.0-1.0-0.5","task_version":"1.0","jspsych_version":"6.3.1","missing":false},{"state_1_ids":[0,1],"state_1_key":0,"state_1_choice":0,"state_1_rt":4557.70000000298,"transition":1,"state":0,"state_2_ids":[0,1],"state_2_key":1,"state_2_choice":1,"state_2_rt":7273,"outcome":0,"rocket_colors":["#486ea7","#a75248"],"planet_colors":["#5b7c65","#706081"],"screen_resolution":[1536,864],"minimum_resolution":1,"trial":0,"trial_type":"two-step-trial","trial_index":26,"time_elapsed":607484,"internal_node_id":"0.0-11.0-1.0-0.6","task_version":"1.0","jspsych_version":"6.3.1","missing":false},{"state_1_ids":[1,0],"state_1_key":0,"state_1_choice":1,"state_1_rt":2297.9000000059605,"transition":1,"state":1,"state_2_ids":[2,3],"state_2_key":0,"state_2_choice":2,"state_2_rt":2347.2000000029802,"outcome":1,"rocket_colors":["#486ea7","#a75248"],"planet_colors":["#5b7c65","#706081"],"screen_resolution":[1536,864],"minimum_resolution":1,"trial":0,"trial_type":"two-step-trial","trial_index":27,"time_elapsed":614134,"internal_node_id":"0.0-11.0-1.0-0.7","task_version":"1.0","jspsych_version":"6.3.1","missing":false},{"state_1_ids":[1,0],"state_1_key":0,"state_1_choice":1,"state_1_rt":2289.300000011921,"transition":0,"state":0,"state_2_ids":[0,1],"state_2_key":0,"state_2_choice":0,"state_2_rt":2450.4000000059605,"outcome":1,"rocket_colors":["#486ea7","#a75248"],"planet_colors":["#5b7c65","#706081"],"screen_resolution":[1536,864],"minimum_resolution":1,"trial":0,"trial_type":"two-step-trial","trial_index":28,"time_elapsed":620879,"internal_node_id":"0.0-11.0-1.0-0.8","task_version":"1.0","jspsych_version":"6.3.1","missing":false},{"state_1_ids":[0,1],"state_1_key":1,"state_1_choice":1,"state_1_rt":3989.199999988079,"transition":1,"state":1,"state_2_ids":[2,3],"state_2_key":0,"state_2_choice":2,"state_2_rt":1867.5,"outcome":1,"rocket_colors":["#486ea7","#a75248"],"planet_colors":["#5b7c65","#706081"],"screen_resolution":[1536,864],"minimum_resolution":1,"trial":0,"trial_type":"two-step-trial","trial_index":29,"time_elapsed":628740,"internal_node_id":"0.0-11.0-1.0-0.9","task_version":"1.0","jspsych_version":"6.3.1","missing":false},{"view_history":"[{\"page_index\":0,\"viewing_time\":3694.7999999970198},{\"page_index\":1,\"viewing_time\":5631.79999999702},{\"page_index\":2,\"viewing_time\":2379.7999999970198},{\"page_index\":3,\"viewing_time\":2977.6000000089407},{\"page_index\":4,\"viewing_time\":17226.20000000298},{\"page_index\":5,\"viewing_time\":41832.59999999404},{\"page_index\":6,\"viewing_time\":6315.5}]","rt":80058.70000000298,"trial_type":"two-step-instructions","trial_index":30,"time_elapsed":708805,"internal_node_id":"0.0-12.0-1.0","task_version":"1.0","jspsych_version":"6.3.1"},{"responses":["True","False","True"],"num_errors":0,"rt":15747,"quiz":3,"trial_type":"two-step-comprehension","trial_index":31,"time_elapsed":724555,"internal_node_id":"0.0-12.0-2.0","task_version":"1.0","jspsych_version":"6.3.1"},{"view_history":"[{\"page_index\":0,\"viewing_time\":3077.8999999910593},{\"page_index\":1,\"viewing_time\":6114.79999999702},{\"page_index\":2,\"viewing_time\":6220}]","rt":15413.199999988079,"trial_type":"two-step-instructions","trial_index":32,"time_elapsed":739973,"internal_node_id":"0.0-13.0","task_version":"1.0","jspsych_version":"6.3.1"},{"state_1_ids":[1,0],"state_1_key":0,"state_1_choice":1,"state_1_rt":3116.5,"transition":1,"state":1,"state_2_ids":[2,3],"state_2_key":1,"state_2_choice":3,"state_2_rt":5248,"outcome":1,"rocket_colors":["#48a782","#955db9"],"planet_colors":["#5f6f81","#7f5d5d"],"screen_resolution":[1536,864],"minimum_resolution":1,"trial":1,"drifts":[0.305,0.438,0.598,0.713],"drift_ix":3,"trial_type":"two-step-trial","trial_index":33,"time_elapsed":750344,"internal_node_id":"0.0-14.0-0.0","task_version":"1.0","jspsych_version":"6.3.1","browser_interactions":0,"missing":false},{"state_1_ids":[1,0],"state_1_key":0,"state_1_choice":1,"state_1_rt":7665.70000000298,"transition":1,"state":1,"state_2_ids":[2,3],"state_2_key":1,"state_2_choice":3,"state_2_rt":3725.2999999970198,"outcome":1,"rocket_colors":["#48a782","#955db9"],"planet_colors":["#5f6f81","#7f5d5d"],"screen_resolution":[1536,864],"minimum_resolution":1,"trial":2,"drifts":[0.326,0.396,0.598,0.702],"drift_ix":3,"trial_type":"two-step-trial","trial_index":34,"time_elapsed":763742,"internal_node_id":"0.0-15.0-0.0","task_version":"1.0","jspsych_version":"6.3.1","browser_interactions":0,"missing":false},{"state_1_ids":[0,1],"state_1_key":0,"state_1_choice":0,"state_1_rt":6914.29999999702,"transition":1,"state":0,"state_2_ids":[0,1],"state_2_key":1,"state_2_choice":1,"state_2_rt":2693,"outcome":0,"rocket_colors":["#48a782","#955db9"],"planet_colors":["#5f6f81","#7f5d5d"],"screen_resolution":[1536,864],"minimum_resolution":1,"trial":3,"drifts":[0.302,0.426,0.576,0.736],"drift_ix":3,"trial_type":"two-step-trial","trial_index":35,"time_elapsed":775354,"internal_node_id":"0.0-16.0-0.0","task_version":"1.0","jspsych_version":"6.3.1","browser_interactions":0,"missing":false},{"state_1_ids":[0,1],"state_1_key":1,"state_1_choice":1,"state_1_rt":3475.7000000029802,"transition":1,"state":1,"state_2_ids":[2,3],"state_2_key":1,"state_2_choice":3,"state_2_rt":3167,"outcome":1,"rocket_colors":["#48a782","#955db9"],"planet_colors":["#5f6f81","#7f5d5d"],"screen_resolution":[1536,864],"minimum_resolution":1,"trial":4,"drifts":[0.362,0.43,0.582,0.702],"drift_ix":3,"trial_type":"two-step-trial","trial_index":36,"time_elapsed":784001,"internal_node_id":"0.0-17.0-0.0","task_version":"1.0","jspsych_version":"6.3.1","browser_interactions":0,"missing":false},{"state_1_ids":[1,0],"state_1_key":1,"state_1_choice":0,"state_1_rt":4352.100000008941,"transition":1,"state":0,"state_2_ids":[0,1],"state_2_key":0,"state_2_choice":0,"state_2_rt":2672.1000000089407,"outcome":0,"rocket_colors":["#48a782","#955db9"],"planet_colors":["#5f6f81","#7f5d5d"],"screen_resolution":[1536,864],"minimum_resolution":1,"trial":5,"drifts":[0.368,0.485,0.615,0.711],"drift_ix":3,"trial_type":"two-step-trial","trial_index":37,"time_elapsed":793031,"internal_node_id":"0.0-18.0-0.0","task_version":"1.0","jspsych_version":"6.3.1","browser_interactions":0,"missing":false},{"state_1_ids":[1,0],"state_1_key":1,"state_1_choice":0,"state_1_rt":2425.9000000059605,"transition":0,"state":1,"state_2_ids":[2,3],"state_2_key":1,"state_2_choice":3,"state_2_rt":3029.5,"outcome":0,"rocket_colors":["#48a782","#955db9"],"planet_colors":["#5f6f81","#7f5d5d"],"screen_resolution":[1536,864],"minimum_resolution":1,"trial":6,"drifts":[0.404,0.486,0.616,0.744],"drift_ix":3,"trial_type":"two-step-trial","trial_index":38,"time_elapsed":800492,"internal_node_id":"0.0-19.0-0.0","task_version":"1.0","jspsych_version":"6.3.1","browser_interactions":0,"missing":false},{"state_1_ids":[1,0],"state_1_key":1,"state_1_choice":0,"state_1_rt":2749.0999999940395,"transition":1,"state":0,"state_2_ids":[0,1],"state_2_key":0,"state_2_choice":0,"state_2_rt":4569.0999999940395,"outcome":0,"rocket_colors":["#48a782","#955db9"],"planet_colors":["#5f6f81","#7f5d5d"],"screen_resolution":[1536,864],"minimum_resolution":1,"trial":7,"drifts":[0.387,0.453,0.558,0.725],"drift_ix":3,"trial_type":"two-step-trial","trial_index":39,"time_elapsed":809816,"internal_node_id":"0.0-20.0-0.0","task_version":"1.0","jspsych_version":"6.3.1","browser_interactions":0,"missing":false},{"state_1_ids":[0,1],"state_1_key":1,"state_1_choice":1,"state_1_rt":3280,"transition":0,"state":0,"state_2_ids":[0,1],"state_2_key":1,"state_2_choice":1,"state_2_rt":3944.3999999910593,"outcome":1,"rocket_colors":["#48a782","#955db9"],"planet_colors":["#5f6f81","#7f5d5d"],"screen_resolution":[1536,864],"minimum_resolution":1,"trial":8,"drifts":[0.438,0.474,0.539,0.737],"drift_ix":3,"trial_type":"two-step-trial","trial_index":40,"time_elapsed":819045,"internal_node_id":"0.0-21.0-0.0","task_version":"1.0","jspsych_version":"6.3.1","browser_interactions":0,"missing":false},{"state_1_ids":[0,1],"state_1_key":1,"state_1_choice":1,"state_1_rt":1860.7999999970198,"transition":1,"state":1,"state_2_ids":[2,3],"state_2_key":1,"state_2_choice":3,"state_2_rt":2632.699999988079,"outcome":0,"rocket_colors":["#48a782","#955db9"],"planet_colors":["#5f6f81","#7f5d5d"],"screen_resolution":[1536,864],"minimum_resolution":1,"trial":9,"drifts":[0.459,0.489,0.53,0.714],"drift_ix":3,"trial_type":"two-step-trial","trial_index":41,"time_elapsed":825544,"internal_node_id":"0.0-22.0-0.0","task_version":"1.0","jspsych_version":"6.3.1","browser_interactions":0,"missing":false},{"state_1_ids":[1,0],"state_1_key":0,"state_1_choice":1,"state_1_rt":2893.6000000089407,"transition":0,"state":0,"state_2_ids":[0,1],"state_2_key":0,"state_2_choice":0,"state_2_rt":2734.7999999970198,"outcome":0,"rocket_colors":["#48a782","#955db9"],"planet_colors":["#5f6f81","#7f5d5d"],"screen_resolution":[1536,864],"minimum_resolution":1,"trial":10,"drifts":[0.45,0.506,0.534,0.707],"drift_ix":3,"trial_type":"two-step-trial","trial_index":42,"time_elapsed":833176,"internal_node_id":"0.0-23.0-0.0","task_version":"1.0","jspsych_version":"6.3.1","browser_interactions":0,"missing":false},{"state_1_ids":[0,1],"state_1_key":1,"state_1_choice":1,"state_1_rt":2312,"transition":1,"state":1,"state_2_ids":[2,3],"state_2_key":1,"state_2_choice":3,"state_2_rt":1876,"outcome":1,"rocket_colors":["#48a782","#955db9"],"planet_colors":["#5f6f81","#7f5d5d"],"screen_resolution":[1536,864],"minimum_resolution":1,"trial":11,"drifts":[0.425,0.476,0.477,0.71],"drift_ix":3,"trial_type":"two-step-trial","trial_index":43,"time_elapsed":839369,"internal_node_id":"0.0-24.0-0.0","task_version":"1.0","jspsych_version":"6.3.1","browser_interactions":0,"missing":false},{"state_1_ids":[1,0],"state_1_key":1,"state_1_choice":0,"state_1_rt":2299.7999999970198,"transition":1,"state":0,"state_2_ids":[0,1],"state_2_key":1,"state_2_choice":1,"state_2_rt":3039.5,"outcome":1,"rocket_colors":["#48a782","#955db9"],"planet_colors":["#5f6f81","#7f5d5d"],"screen_resolution":[1536,864],"minimum_resolution":1,"trial":12,"drifts":[0.397,0.483,0.492,0.681],"drift_ix":3,"trial_type":"two-step-trial","trial_index":44,"time_elapsed":846714,"internal_node_id":"0.0-25.0-0.0","task_version":"1.0","jspsych_version":"6.3.1","browser_interactions":0,"missing":false},{"state_1_ids":[1,0],"state_1_key":0,"state_1_choice":1,"state_1_rt":2543.300000011921,"transition":0,"state":0,"state_2_ids":[0,1],"state_2_key":1,"state_2_choice":1,"state_2_rt":3568.9000000059605,"outcome":0,"rocket_colors":["#48a782","#955db9"],"planet_colors":["#5f6f81","#7f5d5d"],"screen_resolution":[1536,864],"minimum_resolution":1,"trial":13,"drifts":[0.407,0.496,0.476,0.697],"drift_ix":3,"trial_type":"two-step-trial","trial_index":45,"time_elapsed":854831,"internal_node_id":"0.0-26.0-0.0","task_version":"1.0","jspsych_version":"6.3.1","browser_interactions":0,"missing":false},{"state_1_ids":[0,1],"state_1_key":0,"state_1_choice":0,"state_1_rt":2417.7999999970198,"transition":1,"state":0,"state_2_ids":[0,1],"state_2_key":1,"state_2_choice":1,"state_2_rt":3958.699999988079,"outcome":1,"rocket_colors":["#48a782","#955db9"],"planet_colors":["#5f6f81","#7f5d5d"],"screen_resolution":[1536,864],"minimum_resolution":1,"trial":14,"drifts":[0.369,0.494,0.493,0.747],"drift_ix":3,"trial_type":"two-step-trial","trial_index":46,"time_elapsed":863213,"internal_node_id":"0.0-27.0-0.0","task_version":"1.0","jspsych_version":"6.3.1","browser_interactions":0,"missing":false},{"state_1_ids":[0,1],"state_1_key":1,"state_1_choice":1,"state_1_rt":2108.3999999910593,"transition":1,"state":1,"state_2_ids":[2,3],"state_2_key":1,"state_2_choice":3,"state_2_rt":2799.300000011921,"outcome":1,"rocket_colors":["#48a782","#955db9"],"planet_colors":["#5f6f81","#7f5d5d"],"screen_resolution":[1536,864],"minimum_resolution":1,"trial":15,"drifts":[0.342,0.537,0.465,0.735],"drift_ix":3,"trial_type":"two-step-trial","trial_index":47,"time_elapsed":870127,"internal_node_id":"0.0-28.0-0.0","task_version":"1.0","jspsych_version":"6.3.1","browser_interactions":0,"missing":false},{"state_1_ids":[0,1],"state_1_key":1,"state_1_choice":1,"state_1_rt":1449,"transition":1,"state":1,"state_2_ids":[2,3],"state_2_key":1,"state_2_choice":3,"state_2_rt":1589.2000000029802,"outcome":0,"rocket_colors":["#48a782","#955db9"],"planet_colors":["#5f6f81","#7f5d5d"],"screen_resolution":[1536,864],"minimum_resolution":1,"trial":16,"drifts":[0.313,0.512,0.467,0.743],"drift_ix":3,"trial_type":"two-step-trial","trial_index":48,"time_elapsed":875170,"internal_node_id":"0.0-29.0-0.0","task_version":"1.0","jspsych_version":"6.3.1","browser_interactions":0,"missing":false},{"state_1_ids":[1,0],"state_1_key":0,"state_1_choice":1,"state_1_rt":3479.0999999940395,"transition":1,"state":1,"state_2_ids":[2,3],"state_2_key":0,"state_2_choice":2,"state_2_rt":1727.7000000029802,"outcome":1,"rocket_colors":["#48a782","#955db9"],"planet_colors":["#5f6f81","#7f5d5d"],"screen_resolution":[1536,864],"minimum_resolution":1,"trial":17,"drifts":[0.313,0.504,0.486,0.73],"drift_ix":3,"trial_type":"two-step-trial","trial_index":49,"time_elapsed":882382,"internal_node_id":"0.0-30.0-0.0","task_version":"1.0","jspsych_version":"6.3.1","browser_interactions":0,"missing":false},{"state_1_ids":[0,1],"state_1_key":1,"state_1_choice":1,"state_1_rt":4099.70000000298,"transition":0,"state":0,"state_2_ids":[0,1],"state_2_key":1,"state_2_choice":1,"state_2_rt":3105.300000011921,"outcome":0,"rocket_colors":["#48a782","#955db9"],"planet_colors":["#5f6f81","#7f5d5d"],"screen_resolution":[1536,864],"minimum_resolution":1,"trial":18,"drifts":[0.334,0.526,0.501,0.707],"drift_ix":3,"trial_type":"two-step-trial","trial_index":50,"time_elapsed":891592,"internal_node_id":"0.0-31.0-0.0","task_version":"1.0","jspsych_version":"6.3.1","browser_interactions":0,"missing":false},{"state_1_ids":[1,0],"state_1_key":1,"state_1_choice":0,"state_1_rt":2367.6000000089407,"transition":0,"state":1,"state_2_ids":[2,3],"state_2_key":0,"state_2_choice":2,"state_2_rt":3292.7000000029802,"outcome":1,"rocket_colors":["#48a782","#955db9"],"planet_colors":["#5f6f81","#7f5d5d"],"screen_resolution":[1536,864],"minimum_resolution":1,"trial":19,"drifts":[0.312,0.543,0.473,0.695],"drift_ix":3,"trial_type":"two-step-trial","trial_index":51,"time_elapsed":899259,"internal_node_id":"0.0-32.0-0.0","task_version":"1.0","jspsych_version":"6.3.1","browser_interactions":0,"missing":false},{"state_1_ids":[0,1],"state_1_key":0,"state_1_choice":0,"state_1_rt":4400.100000008941,"transition":1,"state":0,"state_2_ids":[0,1],"state_2_key":0,"state_2_choice":0,"state_2_rt":3082.8999999910593,"outcome":0,"rocket_colors":["#48a782","#955db9"],"planet_colors":["#5f6f81","#7f5d5d"],"screen_resolution":[1536,864],"minimum_resolution":1,"trial":20,"drifts":[0.304,0.536,0.482,0.668],"drift_ix":3,"trial_type":"two-step-trial","trial_index":52,"time_elapsed":908745,"internal_node_id":"0.0-33.0-0.0","task_version":"1.0","jspsych_version":"6.3.1","browser_interactions":0,"missing":false},{"state_1_ids":[0,1],"state_1_key":1,"state_1_choice":1,"state_1_rt":2488,"transition":1,"state":1,"state_2_ids":[2,3],"state_2_key":0,"state_2_choice":2,"state_2_rt":1860.2999999970198,"outcome":1,"rocket_colors":["#48a782","#955db9"],"planet_colors":["#5f6f81","#7f5d5d"],"screen_resolution":[1536,864],"minimum_resolution":1,"trial":21,"drifts":[0.309,0.543,0.477,0.682],"drift_ix":3,"trial_type":"two-step-trial","trial_index":53,"time_elapsed":915100,"internal_node_id":"0.0-34.0-0.0","task_version":"1.0","jspsych_version":"6.3.1","browser_interactions":0,"missing":false},{"state_1_ids":[0,1],"state_1_key":0,"state_1_choice":0,"state_1_rt":3475.5999999940395,"transition":0,"state":1,"state_2_ids":[2,3],"state_2_key":1,"state_2_choice":3,"state_2_rt":3606.7000000029802,"outcome":1,"rocket_colors":["#48a782","#955db9"],"planet_colors":["#5f6f81","#7f5d5d"],"screen_resolution":[1536,864],"minimum_resolution":1,"trial":22,"drifts":[0.301,0.563,0.45,0.702],"drift_ix":3,"trial_type":"two-step-trial","trial_index":54,"time_elapsed":924187,"internal_node_id":"0.0-35.0-0.0","task_version":"1.0","jspsych_version":"6.3.1","browser_interactions":0,"missing":false},{"state_1_ids":[1,0],"state_1_key":0,"state_1_choice":1,"state_1_rt":2041.5,"transition":1,"state":1,"state_2_ids":[2,3],"state_2_key":1,"state_2_choice":3,"state_2_rt":5165.399999991059,"outcome":1,"rocket_colors":["#48a782","#955db9"],"planet_colors":["#5f6f81","#7f5d5d"],"screen_resolution":[1536,864],"minimum_resolution":1,"trial":23,"drifts":[0.322,0.569,0.42,0.742],"drift_ix":3,"trial_type":"two-step-trial","trial_index":55,"time_elapsed":933400,"internal_node_id":"0.0-36.0-0.0","task_version":"1.0","jspsych_version":"6.3.1","browser_interactions":0,"missing":false},{"state_1_ids":[1,0],"state_1_key":0,"state_1_choice":1,"state_1_rt":3228.5,"transition":0,"state":0,"state_2_ids":[0,1],"state_2_key":1,"state_2_choice":1,"state_2_rt":2534.2999999970198,"outcome":1,"rocket_colors":["#48a782","#955db9"],"planet_colors":["#5f6f81","#7f5d5d"],"screen_resolution":[1536,864],"minimum_resolution":1,"trial":24,"drifts":[0.298,0.566,0.43,0.74],"drift_ix":3,"trial_type":"two-step-trial","trial_index":56,"time_elapsed":941167,"internal_node_id":"0.0-37.0-0.0","task_version":"1.0","jspsych_version":"6.3.1","browser_interactions":0,"missing":false},{"state_1_ids":[0,1],"state_1_key":1,"state_1_choice":1,"state_1_rt":1994.5,"transition":1,"state":1,"state_2_ids":[2,3],"state_2_key":0,"state_2_choice":2,"state_2_rt":1899.6000000089407,"outcome":1,"rocket_colors":["#48a782","#955db9"],"planet_colors":["#5f6f81","#7f5d5d"],"screen_resolution":[1536,864],"minimum_resolution":1,"trial":25,"drifts":[0.293,0.552,0.394,0.669],"drift_ix":3,"trial_type":"two-step-trial","trial_index":57,"time_elapsed":947066,"internal_node_id":"0.0-38.0-0.0","task_version":"1.0","jspsych_version":"6.3.1","browser_interactions":0,"missing":false},{"state_1_ids":[1,0],"state_1_key":1,"state_1_choice":0,"state_1_rt":2112.5999999940395,"transition":1,"state":0,"state_2_ids":[0,1],"state_2_key":1,"state_2_choice":1,"state_2_rt":3943.7999999970198,"outcome":0,"rocket_colors":["#48a782","#955db9"],"planet_colors":["#5f6f81","#7f5d5d"],"screen_resolution":[1536,864],"minimum_resolution":1,"trial":26,"drifts":[0.285,0.566,0.393,0.625],"drift_ix":3,"trial_type":"two-step-trial","trial_index":58,"time_elapsed":955126,"internal_node_id":"0.0-39.0-0.0","task_version":"1.0","jspsych_version":"6.3.1","browser_interactions":0,"missing":false},{"state_1_ids":[1,0],"state_1_key":0,"state_1_choice":1,"state_1_rt":1786.7000000029802,"transition":0,"state":0,"state_2_ids":[0,1],"state_2_key":1,"state_2_choice":1,"state_2_rt":4328.199999988079,"outcome":1,"rocket_colors":["#48a782","#955db9"],"planet_colors":["#5f6f81","#7f5d5d"],"screen_resolution":[1536,864],"minimum_resolution":1,"trial":27,"drifts":[0.303,0.511,0.422,0.685],"drift_ix":3,"trial_type":"two-step-trial","trial_index":59,"time_elapsed":963244,"internal_node_id":"0.0-40.0-0.0","task_version":"1.0","jspsych_version":"6.3.1","browser_interactions":0,"missing":false},{"state_1_ids":[0,1],"state_1_key":0,"state_1_choice":0,"state_1_rt":2058.5,"transition":1,"state":0,"state_2_ids":[0,1],"state_2_key":0,"state_2_choice":0,"state_2_rt":1813.1000000089407,"outcome":0,"rocket_colors":["#48a782","#955db9"],"planet_colors":["#5f6f81","#7f5d5d"],"screen_resolution":[1536,864],"minimum_resolution":1,"trial":28,"drifts":[0.301,0.517,0.418,0.733],"drift_ix":3,"trial_type":"two-step-trial","trial_index":60,"time_elapsed":969121,"internal_node_id":"0.0-41.0-0.0","task_version":"1.0","jspsych_version":"6.3.1","browser_interactions":0,"missing":false},{"state_1_ids":[1,0],"state_1_key":0,"state_1_choice":1,"state_1_rt":1795.7000000029802,"transition":1,"state":1,"state_2_ids":[2,3],"state_2_key":1,"state_2_choice":3,"state_2_rt":2576.2000000029802,"outcome":1,"rocket_colors":["#48a782","#955db9"],"planet_colors":["#5f6f81","#7f5d5d"],"screen_resolution":[1536,864],"minimum_resolution":1,"trial":29,"drifts":[0.345,0.508,0.373,0.733],"drift_ix":3,"trial_type":"two-step-trial","trial_index":61,"time_elapsed":975498,"internal_node_id":"0.0-42.0-0.0","task_version":"1.0","jspsych_version":"6.3.1","browser_interactions":0,"missing":false},{"state_1_ids":[0,1],"state_1_key":1,"state_1_choice":1,"state_1_rt":2549.300000011921,"transition":0,"state":0,"state_2_ids":[0,1],"state_2_key":0,"state_2_choice":0,"state_2_rt":2898.4000000059605,"outcome":1,"rocket_colors":["#48a782","#955db9"],"planet_colors":["#5f6f81","#7f5d5d"],"screen_resolution":[1536,864],"minimum_resolution":1,"trial":30,"drifts":[0.33,0.509,0.425,0.737],"drift_ix":3,"trial_type":"two-step-trial","trial_index":62,"time_elapsed":982951,"internal_node_id":"0.0-43.0-0.0","task_version":"1.0","jspsych_version":"6.3.1","browser_interactions":0,"missing":false},{"state_1_ids":[0,1],"state_1_key":1,"state_1_choice":1,"state_1_rt":3072.5,"transition":0,"state":0,"state_2_ids":[0,1],"state_2_key":0,"state_2_choice":0,"state_2_rt":2274.5,"outcome":0,"rocket_colors":["#48a782","#955db9"],"planet_colors":["#5f6f81","#7f5d5d"],"screen_resolution":[1536,864],"minimum_resolution":1,"trial":31,"drifts":[0.33,0.475,0.428,0.706],"drift_ix":3,"trial_type":"two-step-trial","trial_index":63,"time_elapsed":990303,"internal_node_id":"0.0-44.0-0.0","task_version":"1.0","jspsych_version":"6.3.1","browser_interactions":0,"missing":false},{"state_1_ids":[1,0],"state_1_key":0,"state_1_choice":1,"state_1_rt":1528.1000000089407,"transition":0,"state":0,"state_2_ids":[0,1],"state_2_key":1,"state_2_choice":1,"state_2_rt":2139.300000011921,"outcome":1,"rocket_colors":["#48a782","#955db9"],"planet_colors":["#5f6f81","#7f5d5d"],"screen_resolution":[1536,864],"minimum_resolution":1,"trial":32,"drifts":[0.332,0.492,0.442,0.701],"drift_ix":3,"trial_type":"two-step-trial","trial_index":64,"time_elapsed":995974,"internal_node_id":"0.0-45.0-0.0","task_version":"1.0","jspsych_version":"6.3.1","browser_interactions":0,"missing":false},{"state_1_ids":[0,1],"state_1_key":1,"state_1_choice":1,"state_1_rt":2892.2999999970198,"transition":0,"state":0,"state_2_ids":[0,1],"state_2_key":1,"state_2_choice":1,"state_2_rt":3323.2000000029802,"outcome":0,"rocket_colors":["#48a782","#955db9"],"planet_colors":["#5f6f81","#7f5d5d"],"screen_resolution":[1536,864],"minimum_resolution":1,"trial":33,"drifts":[0.306,0.461,0.388,0.724],"drift_ix":3,"trial_type":"two-step-trial","trial_index":65,"time_elapsed":1004195,"internal_node_id":"0.0-46.0-0.0","task_version":"1.0","jspsych_version":"6.3.1","browser_interactions":0,"missing":false},{"state_1_ids":[0,1],"state_1_key":1,"state_1_choice":1,"state_1_rt":3411.6000000089407,"transition":0,"state":0,"state_2_ids":[0,1],"state_2_key":0,"state_2_choice":0,"state_2_rt":2576.7999999970198,"outcome":0,"rocket_colors":["#48a782","#955db9"],"planet_colors":["#5f6f81","#7f5d5d"],"screen_resolution":[1536,864],"minimum_resolution":1,"trial":34,"drifts":[0.335,0.445,0.418,0.721],"drift_ix":3,"trial_type":"two-step-trial","trial_index":66,"time_elapsed":1012187,"internal_node_id":"0.0-47.0-0.0","task_version":"1.0","jspsych_version":"6.3.1","browser_interactions":0,"missing":false},{"state_1_ids":[0,1],"state_1_key":0,"state_1_choice":0,"state_1_rt":2850.7000000029802,"transition":0,"state":1,"state_2_ids":[2,3],"state_2_key":0,"state_2_choice":2,"state_2_rt":2192.1000000089407,"outcome":0,"rocket_colors":["#48a782","#955db9"],"planet_colors":["#5f6f81","#7f5d5d"],"screen_resolution":[1536,864],"minimum_resolution":1,"trial":35,"drifts":[0.342,0.479,0.439,0.713],"drift_ix":3,"trial_type":"two-step-trial","trial_index":67,"time_elapsed":1019234,"internal_node_id":"0.0-48.0-0.0","task_version":"1.0","jspsych_version":"6.3.1","browser_interactions":0,"missing":false},{"state_1_ids":[1,0],"state_1_key":0,"state_1_choice":1,"state_1_rt":1577.8999999910593,"transition":0,"state":0,"state_2_ids":[0,1],"state_2_key":1,"state_2_choice":1,"state_2_rt":3840.0999999940395,"outcome":1,"rocket_colors":["#48a782","#955db9"],"planet_colors":["#5f6f81","#7f5d5d"],"screen_resolution":[1536,864],"minimum_resolution":1,"trial":36,"drifts":[0.323,0.462,0.51,0.711],"drift_ix":3,"trial_type":"two-step-trial","trial_index":68,"time_elapsed":1026657,"internal_node_id":"0.0-49.0-0.0","task_version":"1.0","jspsych_version":"6.3.1","browser_interactions":0,"missing":false},{"state_1_ids":[0,1],"state_1_key":1,"state_1_choice":1,"state_1_rt":3303.7999999970198,"transition":1,"state":1,"state_2_ids":[2,3],"state_2_key":0,"state_2_choice":2,"state_2_rt":2410.7999999970198,"outcome":0,"rocket_colors":["#48a782","#955db9"],"planet_colors":["#5f6f81","#7f5d5d"],"screen_resolution":[1536,864],"minimum_resolution":1,"trial":37,"drifts":[0.323,0.441,0.493,0.674],"drift_ix":3,"trial_type":"two-step-trial","trial_index":69,"time_elapsed":1034376,"internal_node_id":"0.0-50.0-0.0","task_version":"1.0","jspsych_version":"6.3.1","browser_interactions":0,"missing":false},{"state_1_ids":[0,1],"state_1_key":1,"state_1_choice":1,"state_1_rt":3425.7999999970198,"transition":1,"state":1,"state_2_ids":[2,3],"state_2_key":1,"state_2_choice":3,"state_2_rt":1509.7000000029802,"outcome":1,"rocket_colors":["#48a782","#955db9"],"planet_colors":["#5f6f81","#7f5d5d"],"screen_resolution":[1536,864],"minimum_resolution":1,"trial":38,"drifts":[0.361,0.419,0.482,0.648],"drift_ix":3,"trial_type":"two-step-trial","trial_index":70,"time_elapsed":1041316,"internal_node_id":"0.0-51.0-0.0","task_version":"1.0","jspsych_version":"6.3.1","browser_interactions":0,"missing":false},{"state_1_ids":[1,0],"state_1_key":1,"state_1_choice":0,"state_1_rt":2252.7999999970198,"transition":1,"state":0,"state_2_ids":[0,1],"state_2_key":0,"state_2_choice":0,"state_2_rt":1917.8999999910593,"outcome":0,"rocket_colors":["#48a782","#955db9"],"planet_colors":["#5f6f81","#7f5d5d"],"screen_resolution":[1536,864],"minimum_resolution":1,"trial":39,"drifts":[0.386,0.389,0.441,0.619],"drift_ix":3,"trial_type":"two-step-trial","trial_index":71,"time_elapsed":1047490,"internal_node_id":"0.0-52.0-0.0","task_version":"1.0","jspsych_version":"6.3.1","browser_interactions":0,"missing":false},{"state_1_ids":[1,0],"state_1_key":0,"state_1_choice":1,"state_1_rt":2226,"transition":1,"state":1,"state_2_ids":[2,3],"state_2_key":1,"state_2_choice":3,"state_2_rt":3436.2999999970198,"outcome":1,"rocket_colors":["#48a782","#955db9"],"planet_colors":["#5f6f81","#7f5d5d"],"screen_resolution":[1536,864],"minimum_resolution":1,"trial":40,"drifts":[0.384,0.374,0.431,0.605],"drift_ix":3,"trial_type":"two-step-trial","trial_index":72,"time_elapsed":1055159,"internal_node_id":"0.0-53.0-0.0","task_version":"1.0","jspsych_version":"6.3.1","browser_interactions":0,"missing":false},{"state_1_ids":[0,1],"state_1_key":1,"state_1_choice":1,"state_1_rt":2560.2999999970198,"transition":1,"state":1,"state_2_ids":[2,3],"state_2_key":1,"state_2_choice":3,"state_2_rt":2200.2000000029802,"outcome":0,"rocket_colors":["#48a782","#955db9"],"planet_colors":["#5f6f81","#7f5d5d"],"screen_resolution":[1536,864],"minimum_resolution":1,"trial":41,"drifts":[0.382,0.413,0.442,0.617],"drift_ix":3,"trial_type":"two-step-trial","trial_index":73,"time_elapsed":1061924,"internal_node_id":"0.0-54.0-0.0","task_version":"1.0","jspsych_version":"6.3.1","browser_interactions":0,"missing":false},{"state_1_ids":[1,0],"state_1_key":1,"state_1_choice":0,"state_1_rt":2587.2000000029802,"transition":1,"state":0,"state_2_ids":[0,1],"state_2_key":0,"state_2_choice":0,"state_2_rt":1652.5999999940395,"outcome":0,"rocket_colors":["#48a782","#955db9"],"planet_colors":["#5f6f81","#7f5d5d"],"screen_resolution":[1536,864],"minimum_resolution":1,"trial":42,"drifts":[0.398,0.39,0.424,0.641],"drift_ix":3,"trial_type":"two-step-trial","trial_index":74,"time_elapsed":1068169,"internal_node_id":"0.0-55.0-0.0","task_version":"1.0","jspsych_version":"6.3.1","browser_interactions":0,"missing":false},{"state_1_ids":[1,0],"state_1_key":0,"state_1_choice":1,"state_1_rt":1462.0999999940395,"transition":1,"state":1,"state_2_ids":[2,3],"state_2_key":1,"state_2_choice":3,"state_2_rt":2622.2999999970198,"outcome":1,"rocket_colors":["#48a782","#955db9"],"planet_colors":["#5f6f81","#7f5d5d"],"screen_resolution":[1536,864],"minimum_resolution":1,"trial":43,"drifts":[0.37,0.404,0.412,0.63],"drift_ix":3,"trial_type":"two-step-trial","trial_index":75,"time_elapsed":1074259,"internal_node_id":"0.0-56.0-0.0","task_version":"1.0","jspsych_version":"6.3.1","browser_interactions":0,"missing":false},{"state_1_ids":[0,1],"state_1_key":1,"state_1_choice":1,"state_1_rt":2059.2999999970198,"transition":1,"state":1,"state_2_ids":[2,3],"state_2_key":0,"state_2_choice":2,"state_2_rt":2039.4000000059605,"outcome":0,"rocket_colors":["#48a782","#955db9"],"planet_colors":["#5f6f81","#7f5d5d"],"screen_resolution":[1536,864],"minimum_resolution":1,"trial":44,"drifts":[0.417,0.444,0.403,0.613],"drift_ix":3,"trial_type":"two-step-trial","trial_index":76,"time_elapsed":1080362,"internal_node_id":"0.0-57.0-0.0","task_version":"1.0","jspsych_version":"6.3.1","browser_interactions":0,"missing":false},{"state_1_ids":[1,0],"state_1_key":1,"state_1_choice":0,"state_1_rt":1835.2000000029802,"transition":0,"state":1,"state_2_ids":[2,3],"state_2_key":0,"state_2_choice":2,"state_2_rt":3534.2999999970198,"outcome":1,"rocket_colors":["#48a782","#955db9"],"planet_colors":["#5f6f81","#7f5d5d"],"screen_resolution":[1536,864],"minimum_resolution":1,"trial":45,"drifts":[0.439,0.427,0.37,0.612],"drift_ix":3,"trial_type":"two-step-trial","trial_index":77,"time_elapsed":1087737,"internal_node_id":"0.0-58.0-0.0","task_version":"1.0","jspsych_version":"6.3.1","browser_interactions":0,"missing":false},{"state_1_ids":[1,0],"state_1_key":1,"state_1_choice":0,"state_1_rt":1728.2999999970198,"transition":1,"state":0,"state_2_ids":[0,1],"state_2_key":0,"state_2_choice":0,"state_2_rt":2895,"outcome":0,"rocket_colors":["#48a782","#955db9"],"planet_colors":["#5f6f81","#7f5d5d"],"screen_resolution":[1536,864],"minimum_resolution":1,"trial":46,"drifts":[0.459,0.416,0.369,0.621],"drift_ix":3,"trial_type":"two-step-trial","trial_index":78,"time_elapsed":1094365,"internal_node_id":"0.0-59.0-0.0","task_version":"1.0","jspsych_version":"6.3.1","browser_interactions":0,"missing":false},{"state_1_ids":[0,1],"state_1_key":1,"state_1_choice":1,"state_1_rt":2696.5999999940395,"transition":1,"state":1,"state_2_ids":[2,3],"state_2_key":0,"state_2_choice":2,"state_2_rt":2203.3999999910593,"outcome":0,"rocket_colors":["#48a782","#955db9"],"planet_colors":["#5f6f81","#7f5d5d"],"screen_resolution":[1536,864],"minimum_resolution":1,"trial":47,"drifts":[0.475,0.425,0.384,0.6],"drift_ix":3,"trial_type":"two-step-trial","trial_index":79,"time_elapsed":1101269,"internal_node_id":"0.0-60.0-0.0","task_version":"1.0","jspsych_version":"6.3.1","browser_interactions":0,"missing":false},{"state_1_ids":[1,0],"state_1_key":1,"state_1_choice":0,"state_1_rt":2211,"transition":0,"state":1,"state_2_ids":[2,3],"state_2_key":0,"state_2_choice":2,"state_2_rt":1907.6000000089407,"outcome":1,"rocket_colors":["#48a782","#955db9"],"planet_colors":["#5f6f81","#7f5d5d"],"screen_resolution":[1536,864],"minimum_resolution":1,"trial":48,"drifts":[0.438,0.4,0.412,0.606],"drift_ix":3,"trial_type":"two-step-trial","trial_index":80,"time_elapsed":1107394,"internal_node_id":"0.0-61.0-0.0","task_version":"1.0","jspsych_version":"6.3.1","browser_interactions":0,"missing":false},{"state_1_ids":[1,0],"state_1_key":1,"state_1_choice":0,"state_1_rt":1629.2999999970198,"transition":1,"state":0,"state_2_ids":[0,1],"state_2_key":1,"state_2_choice":1,"state_2_rt":2830.8999999910593,"outcome":1,"rocket_colors":["#48a782","#955db9"],"planet_colors":["#5f6f81","#7f5d5d"],"screen_resolution":[1536,864],"minimum_resolution":1,"trial":49,"drifts":[0.47,0.408,0.421,0.598],"drift_ix":3,"trial_type":"two-step-trial","trial_index":81,"time_elapsed":1113860,"internal_node_id":"0.0-62.0-0.0","task_version":"1.0","jspsych_version":"6.3.1","browser_interactions":0,"missing":false},{"state_1_ids":[0,1],"state_1_key":1,"state_1_choice":1,"state_1_rt":2211.6000000089407,"transition":1,"state":1,"state_2_ids":[2,3],"state_2_key":1,"state_2_choice":3,"state_2_rt":3432.7000000029802,"outcome":1,"rocket_colors":["#48a782","#955db9"],"planet_colors":["#5f6f81","#7f5d5d"],"screen_resolution":[1536,864],"minimum_resolution":1,"trial":50,"drifts":[0.41,0.42,0.42,0.6],"drift_ix":3,"trial_type":"two-step-trial","trial_index":82,"time_elapsed":1121509,"internal_node_id":"0.0-63.0-0.0","task_version":"1.0","jspsych_version":"6.3.1","browser_interactions":0,"missing":false},{"state_1_ids":[0,1],"state_1_key":1,"state_1_choice":1,"state_1_rt":4149.29999999702,"transition":0,"state":0,"state_2_ids":[0,1],"state_2_key":1,"state_2_choice":1,"state_2_rt":1498.2000000029802,"outcome":0,"rocket_colors":["#48a782","#955db9"],"planet_colors":["#5f6f81","#7f5d5d"],"screen_resolution":[1536,864],"minimum_resolution":1,"trial":51,"drifts":[0.412,0.415,0.461,0.564],"drift_ix":3,"trial_type":"two-step-trial","trial_index":83,"time_elapsed":1129162,"internal_node_id":"0.0-64.0-0.0","task_version":"1.0","jspsych_version":"6.3.1","browser_interactions":0,"missing":false},{"state_1_ids":[1,0],"state_1_key":1,"state_1_choice":0,"state_1_rt":1936.2000000029802,"transition":0,"state":1,"state_2_ids":[2,3],"state_2_key":0,"state_2_choice":2,"state_2_rt":1676.0999999940395,"outcome":0,"rocket_colors":["#48a782","#955db9"],"planet_colors":["#5f6f81","#7f5d5d"],"screen_resolution":[1536,864],"minimum_resolution":1,"trial":52,"drifts":[0.424,0.4,0.482,0.568],"drift_ix":3,"trial_type":"two-step-trial","trial_index":84,"time_elapsed":1134779,"internal_node_id":"0.0-65.0-0.0","task_version":"1.0","jspsych_version":"6.3.1","browser_interactions":0,"missing":false},{"state_1_ids":[1,0],"state_1_key":0,"state_1_choice":1,"state_1_rt":1733.2000000029802,"transition":0,"state":0,"state_2_ids":[0,1],"state_2_key":0,"state_2_choice":0,"state_2_rt":2422,"outcome":0,"rocket_colors":["#48a782","#955db9"],"planet_colors":["#5f6f81","#7f5d5d"],"screen_resolution":[1536,864],"minimum_resolution":1,"trial":53,"drifts":[0.449,0.35,0.448,0.582],"drift_ix":3,"trial_type":"two-step-trial","trial_index":85,"time_elapsed":1140941,"internal_node_id":"0.0-66.0-0.0","task_version":"1.0","jspsych_version":"6.3.1","browser_interactions":0,"missing":false},{"state_1_ids":[1,0],"state_1_key":0,"state_1_choice":1,"state_1_rt":1510.5,"transition":1,"state":1,"state_2_ids":[2,3],"state_2_key":0,"state_2_choice":2,"state_2_rt":2456.5,"outcome":0,"rocket_colors":["#48a782","#955db9"],"planet_colors":["#5f6f81","#7f5d5d"],"screen_resolution":[1536,864],"minimum_resolution":1,"trial":54,"drifts":[0.409,0.381,0.436,0.573],"drift_ix":3,"trial_type":"two-step-trial","trial_index":86,"time_elapsed":1146913,"internal_node_id":"0.0-67.0-0.0","task_version":"1.0","jspsych_version":"6.3.1","browser_interactions":0,"missing":false},{"state_1_ids":[1,0],"state_1_key":1,"state_1_choice":0,"state_1_rt":1558.5,"transition":1,"state":0,"state_2_ids":[0,1],"state_2_key":1,"state_2_choice":1,"state_2_rt":2354.1000000089407,"outcome":1,"rocket_colors":["#48a782","#955db9"],"planet_colors":["#5f6f81","#7f5d5d"],"screen_resolution":[1536,864],"minimum_resolution":1,"trial":55,"drifts":[0.408,0.407,0.428,0.609],"drift_ix":3,"trial_type":"two-step-trial","trial_index":87,"time_elapsed":1152831,"internal_node_id":"0.0-68.0-0.0","task_version":"1.0","jspsych_version":"6.3.1","browser_interactions":0,"missing":false},{"state_1_ids":[1,0],"state_1_key":0,"state_1_choice":1,"state_1_rt":2851.5999999940395,"transition":1,"state":1,"state_2_ids":[2,3],"state_2_key":1,"state_2_choice":3,"state_2_rt":3029.5,"outcome":1,"rocket_colors":["#48a782","#955db9"],"planet_colors":["#5f6f81","#7f5d5d"],"screen_resolution":[1536,864],"minimum_resolution":1,"trial":56,"drifts":[0.417,0.354,0.381,0.598],"drift_ix":3,"trial_type":"two-step-trial","trial_index":88,"time_elapsed":1160717,"internal_node_id":"0.0-69.0-0.0","task_version":"1.0","jspsych_version":"6.3.1","browser_interactions":0,"missing":false},{"state_1_ids":[1,0],"state_1_key":0,"state_1_choice":1,"state_1_rt":2236.4000000059605,"transition":0,"state":0,"state_2_ids":[0,1],"state_2_key":0,"state_2_choice":0,"state_2_rt":2207,"outcome":0,"rocket_colors":["#48a782","#955db9"],"planet_colors":["#5f6f81","#7f5d5d"],"screen_resolution":[1536,864],"minimum_resolution":1,"trial":57,"drifts":[0.462,0.35,0.396,0.55],"drift_ix":3,"trial_type":"two-step-trial","trial_index":89,"time_elapsed":1167165,"internal_node_id":"0.0-70.0-0.0","task_version":"1.0","jspsych_version":"6.3.1","browser_interactions":0,"missing":false},{"state_1_ids":[1,0],"state_1_key":1,"state_1_choice":0,"state_1_rt":1527.5999999940395,"transition":1,"state":0,"state_2_ids":[0,1],"state_2_key":1,"state_2_choice":1,"state_2_rt":2833,"outcome":0,"rocket_colors":["#48a782","#955db9"],"planet_colors":["#5f6f81","#7f5d5d"],"screen_resolution":[1536,864],"minimum_resolution":1,"trial":58,"drifts":[0.474,0.332,0.382,0.55],"drift_ix":3,"trial_type":"two-step-trial","trial_index":90,"time_elapsed":1173531,"internal_node_id":"0.0-71.0-0.0","task_version":"1.0","jspsych_version":"6.3.1","browser_interactions":0,"missing":false},{"state_1_ids":[1,0],"state_1_key":0,"state_1_choice":1,"state_1_rt":1930.2999999970198,"transition":1,"state":1,"state_2_ids":[2,3],"state_2_key":1,"state_2_choice":3,"state_2_rt":3348.7999999970198,"outcome":1,"rocket_colors":["#48a782","#955db9"],"planet_colors":["#5f6f81","#7f5d5d"],"screen_resolution":[1536,864],"minimum_resolution":1,"trial":59,"drifts":[0.462,0.326,0.376,0.559],"drift_ix":3,"trial_type":"two-step-trial","trial_index":91,"time_elapsed":1180815,"internal_node_id":"0.0-72.0-0.0","task_version":"1.0","jspsych_version":"6.3.1","browser_interactions":0,"missing":false},{"state_1_ids":[1,0],"state_1_key":0,"state_1_choice":1,"state_1_rt":2379.4000000059605,"transition":1,"state":1,"state_2_ids":[2,3],"state_2_key":0,"state_2_choice":2,"state_2_rt":2512.2999999970198,"outcome":1,"rocket_colors":["#48a782","#955db9"],"planet_colors":["#5f6f81","#7f5d5d"],"screen_resolution":[1536,864],"minimum_resolution":1,"trial":60,"drifts":[0.432,0.348,0.372,0.56],"drift_ix":3,"trial_type":"two-step-trial","trial_index":92,"time_elapsed":1187711,"internal_node_id":"0.0-73.0-0.0","task_version":"1.0","jspsych_version":"6.3.1","browser_interactions":0,"missing":false},{"state_1_ids":[0,1],"state_1_key":1,"state_1_choice":1,"state_1_rt":4352.5,"transition":0,"state":0,"state_2_ids":[0,1],"state_2_key":0,"state_2_choice":0,"state_2_rt":4160.29999999702,"outcome":0,"rocket_colors":["#48a782","#955db9"],"planet_colors":["#5f6f81","#7f5d5d"],"screen_resolution":[1536,864],"minimum_resolution":1,"trial":61,"drifts":[0.43,0.371,0.389,0.587],"drift_ix":3,"trial_type":"two-step-trial","trial_index":93,"time_elapsed":1198229,"internal_node_id":"0.0-74.0-0.0","task_version":"1.0","jspsych_version":"6.3.1","browser_interactions":0,"missing":false},{"state_1_ids":[1,0],"state_1_key":0,"state_1_choice":1,"state_1_rt":2011.699999988079,"transition":1,"state":1,"state_2_ids":[2,3],"state_2_key":1,"state_2_choice":3,"state_2_rt":3593.9000000059605,"outcome":1,"rocket_colors":["#48a782","#955db9"],"planet_colors":["#5f6f81","#7f5d5d"],"screen_resolution":[1536,864],"minimum_resolution":1,"trial":62,"drifts":[0.426,0.371,0.382,0.585],"drift_ix":3,"trial_type":"two-step-trial","trial_index":94,"time_elapsed":1205841,"internal_node_id":"0.0-75.0-0.0","task_version":"1.0","jspsych_version":"6.3.1","browser_interactions":0,"missing":false},{"state_1_ids":[0,1],"state_1_key":1,"state_1_choice":1,"state_1_rt":3034.5,"transition":1,"state":1,"state_2_ids":[2,3],"state_2_key":0,"state_2_choice":2,"state_2_rt":2914.4000000059605,"outcome":0,"rocket_colors":["#48a782","#955db9"],"planet_colors":["#5f6f81","#7f5d5d"],"screen_resolution":[1536,864],"minimum_resolution":1,"trial":63,"drifts":[0.431,0.358,0.396,0.59],"drift_ix":3,"trial_type":"two-step-trial","trial_index":95,"time_elapsed":1213795,"internal_node_id":"0.0-76.0-0.0","task_version":"1.0","jspsych_version":"6.3.1","browser_interactions":0,"missing":false},{"state_1_ids":[0,1],"state_1_key":1,"state_1_choice":1,"state_1_rt":3330.2000000029802,"transition":1,"state":1,"state_2_ids":[2,3],"state_2_key":1,"state_2_choice":3,"state_2_rt":1573.7000000029802,"outcome":0,"rocket_colors":["#48a782","#955db9"],"planet_colors":["#5f6f81","#7f5d5d"],"screen_resolution":[1536,864],"minimum_resolution":1,"trial":64,"drifts":[0.392,0.299,0.415,0.581],"drift_ix":3,"trial_type":"two-step-trial","trial_index":96,"time_elapsed":1220705,"internal_node_id":"0.0-77.0-0.0","task_version":"1.0","jspsych_version":"6.3.1","browser_interactions":0,"missing":false},{"state_1_ids":[1,0],"state_1_key":0,"state_1_choice":1,"state_1_rt":1975.3999999910593,"transition":0,"state":0,"state_2_ids":[0,1],"state_2_key":1,"state_2_choice":1,"state_2_rt":3190.2000000029802,"outcome":0,"rocket_colors":["#48a782","#955db9"],"planet_colors":["#5f6f81","#7f5d5d"],"screen_resolution":[1536,864],"minimum_resolution":1,"trial":65,"drifts":[0.371,0.329,0.405,0.589],"drift_ix":3,"trial_type":"two-step-trial","trial_index":97,"time_elapsed":1227876,"internal_node_id":"0.0-78.0-0.0","task_version":"1.0","jspsych_version":"6.3.1","browser_interactions":0,"missing":false},{"state_1_ids":[0,1],"state_1_key":0,"state_1_choice":0,"state_1_rt":3223,"transition":1,"state":0,"state_2_ids":[0,1],"state_2_key":1,"state_2_choice":1,"state_2_rt":2857,"outcome":0,"rocket_colors":["#48a782","#955db9"],"planet_colors":["#5f6f81","#7f5d5d"],"screen_resolution":[1536,864],"minimum_resolution":1,"trial":66,"drifts":[0.354,0.287,0.413,0.591],"drift_ix":3,"trial_type":"two-step-trial","trial_index":98,"time_elapsed":1235960,"internal_node_id":"0.0-79.0-0.0","task_version":"1.0","jspsych_version":"6.3.1","browser_interactions":0,"missing":false},{"state_1_ids":[0,1],"state_1_key":0,"state_1_choice":0,"state_1_rt":3173.5,"transition":1,"state":0,"state_2_ids":[0,1],"state_2_key":0,"state_2_choice":0,"state_2_rt":2145.7999999970198,"outcome":0,"rocket_colors":["#48a782","#955db9"],"planet_colors":["#5f6f81","#7f5d5d"],"screen_resolution":[1536,864],"minimum_resolution":1,"trial":67,"drifts":[0.398,0.254,0.426,0.603],"drift_ix":3,"trial_type":"two-step-trial","trial_index":99,"time_elapsed":1243285,"internal_node_id":"0.0-80.0-0.0","task_version":"1.0","jspsych_version":"6.3.1","browser_interactions":0,"missing":false},{"state_1_ids":[0,1],"state_1_key":0,"state_1_choice":0,"state_1_rt":2663.2999999970198,"transition":1,"state":0,"state_2_ids":[0,1],"state_2_key":1,"state_2_choice":1,"state_2_rt":4729.0999999940395,"outcome":1,"rocket_colors":["#48a782","#955db9"],"planet_colors":["#5f6f81","#7f5d5d"],"screen_resolution":[1536,864],"minimum_resolution":1,"trial":68,"drifts":[0.425,0.254,0.441,0.582],"drift_ix":3,"trial_type":"two-step-trial","trial_index":100,"time_elapsed":1252682,"internal_node_id":"0.0-81.0-0.0","task_version":"1.0","jspsych_version":"6.3.1","browser_interactions":0,"missing":false},{"state_1_ids":[1,0],"state_1_key":1,"state_1_choice":0,"state_1_rt":2582.5,"transition":0,"state":1,"state_2_ids":[2,3],"state_2_key":1,"state_2_choice":3,"state_2_rt":1815.5,"outcome":0,"rocket_colors":["#48a782","#955db9"],"planet_colors":["#5f6f81","#7f5d5d"],"screen_resolution":[1536,864],"minimum_resolution":1,"trial":69,"drifts":[0.474,0.287,0.392,0.531],"drift_ix":3,"trial_type":"two-step-trial","trial_index":101,"time_elapsed":1259085,"internal_node_id":"0.0-82.0-0.0","task_version":"1.0","jspsych_version":"6.3.1","browser_interactions":0,"missing":false},{"state_1_ids":[0,1],"state_1_key":1,"state_1_choice":1,"state_1_rt":1602.8999999910593,"transition":0,"state":0,"state_2_ids":[0,1],"state_2_key":0,"state_2_choice":0,"state_2_rt":2684.1000000089407,"outcome":1,"rocket_colors":["#48a782","#955db9"],"planet_colors":["#5f6f81","#7f5d5d"],"screen_resolution":[1536,864],"minimum_resolution":1,"trial":70,"drifts":[0.51,0.279,0.378,0.487],"drift_ix":3,"trial_type":"two-step-trial","trial_index":102,"time_elapsed":1265377,"internal_node_id":"0.0-83.0-0.0","task_version":"1.0","jspsych_version":"6.3.1","browser_interactions":0,"missing":false},{"state_1_ids":[0,1],"state_1_key":0,"state_1_choice":0,"state_1_rt":2641.7999999970198,"transition":1,"state":0,"state_2_ids":[0,1],"state_2_key":0,"state_2_choice":0,"state_2_rt":2376.5,"outcome":0,"rocket_colors":["#48a782","#955db9"],"planet_colors":["#5f6f81","#7f5d5d"],"screen_resolution":[1536,864],"minimum_resolution":1,"trial":71,"drifts":[0.506,0.269,0.381,0.477],"drift_ix":3,"trial_type":"two-step-trial","trial_index":103,"time_elapsed":1272401,"internal_node_id":"0.0-84.0-0.0","task_version":"1.0","jspsych_version":"6.3.1","browser_interactions":0,"missing":false},{"state_1_ids":[1,0],"state_1_key":1,"state_1_choice":0,"state_1_rt":2938.5,"transition":0,"state":1,"state_2_ids":[2,3],"state_2_key":1,"state_2_choice":3,"state_2_rt":5085.79999999702,"outcome":0,"rocket_colors":["#48a782","#955db9"],"planet_colors":["#5f6f81","#7f5d5d"],"screen_resolution":[1536,864],"minimum_resolution":1,"trial":72,"drifts":[0.541,0.263,0.39,0.466],"drift_ix":3,"trial_type":"two-step-trial","trial_index":104,"time_elapsed":1282431,"internal_node_id":"0.0-85.0-0.0","task_version":"1.0","jspsych_version":"6.3.1","browser_interactions":0,"missing":false},{"state_1_ids":[0,1],"state_1_key":1,"state_1_choice":1,"state_1_rt":1966.300000011921,"transition":1,"state":1,"state_2_ids":[2,3],"state_2_key":1,"state_2_choice":3,"state_2_rt":1694.2999999970198,"outcome":0,"rocket_colors":["#48a782","#955db9"],"planet_colors":["#5f6f81","#7f5d5d"],"screen_resolution":[1536,864],"minimum_resolution":1,"trial":73,"drifts":[0.49,0.271,0.373,0.466],"drift_ix":3,"trial_type":"two-step-trial","trial_index":105,"time_elapsed":1288095,"internal_node_id":"0.0-86.0-0.0","task_version":"1.0","jspsych_version":"6.3.1","browser_interactions":0,"missing":false},{"state_1_ids":[0,1],"state_1_key":1,"state_1_choice":1,"state_1_rt":1524.3999999910593,"transition":0,"state":0,"state_2_ids":[0,1],"state_2_key":0,"state_2_choice":0,"state_2_rt":1979.800000011921,"outcome":1,"rocket_colors":["#48a782","#955db9"],"planet_colors":["#5f6f81","#7f5d5d"],"screen_resolution":[1536,864],"minimum_resolution":1,"trial":74,"drifts":[0.512,0.277,0.41,0.457],"drift_ix":3,"trial_type":"two-step-trial","trial_index":106,"time_elapsed":1293605,"internal_node_id":"0.0-87.0-0.0","task_version":"1.0","jspsych_version":"6.3.1","browser_interactions":0,"missing":false},{"state_1_ids":[0,1],"state_1_key":0,"state_1_choice":0,"state_1_rt":2106.7000000029802,"transition":0,"state":1,"state_2_ids":[2,3],"state_2_key":1,"state_2_choice":3,"state_2_rt":2714.8999999910593,"outcome":1,"rocket_colors":["#48a782","#955db9"],"planet_colors":["#5f6f81","#7f5d5d"],"screen_resolution":[1536,864],"minimum_resolution":1,"trial":75,"drifts":[0.537,0.271,0.42,0.478],"drift_ix":3,"trial_type":"two-step-trial","trial_index":107,"time_elapsed":1300431,"internal_node_id":"0.0-88.0-0.0","task_version":"1.0","jspsych_version":"6.3.1","browser_interactions":0,"missing":false},{"state_1_ids":[1,0],"state_1_key":1,"state_1_choice":0,"state_1_rt":2829,"transition":1,"state":0,"state_2_ids":[0,1],"state_2_key":1,"state_2_choice":1,"state_2_rt":2005.5,"outcome":0,"rocket_colors":["#48a782","#955db9"],"planet_colors":["#5f6f81","#7f5d5d"],"screen_resolution":[1536,864],"minimum_resolution":1,"trial":76,"drifts":[0.539,0.257,0.455,0.448],"drift_ix":3,"trial_type":"two-step-trial","trial_index":108,"time_elapsed":1307271,"internal_node_id":"0.0-89.0-0.0","task_version":"1.0","jspsych_version":"6.3.1","browser_interactions":0,"missing":false},{"state_1_ids":[1,0],"state_1_key":0,"state_1_choice":1,"state_1_rt":3069.7999999970198,"transition":1,"state":1,"state_2_ids":[2,3],"state_2_key":0,"state_2_choice":2,"state_2_rt":1645.2999999970198,"outcome":1,"rocket_colors":["#48a782","#955db9"],"planet_colors":["#5f6f81","#7f5d5d"],"screen_resolution":[1536,864],"minimum_resolution":1,"trial":77,"drifts":[0.56,0.261,0.459,0.423],"drift_ix":3,"trial_type":"two-step-trial","trial_index":109,"time_elapsed":1313991,"internal_node_id":"0.0-90.0-0.0","task_version":"1.0","jspsych_version":"6.3.1","browser_interactions":0,"missing":false},{"state_1_ids":[1,0],"state_1_key":0,"state_1_choice":1,"state_1_rt":1515.7000000029802,"transition":0,"state":0,"state_2_ids":[0,1],"state_2_key":1,"state_2_choice":1,"state_2_rt":3157.7000000029802,"outcome":1,"rocket_colors":["#48a782","#955db9"],"planet_colors":["#5f6f81","#7f5d5d"],"screen_resolution":[1536,864],"minimum_resolution":1,"trial":78,"drifts":[0.543,0.26,0.436,0.441],"drift_ix":3,"trial_type":"two-step-trial","trial_index":110,"time_elapsed":1320670,"internal_node_id":"0.0-91.0-0.0","task_version":"1.0","jspsych_version":"6.3.1","browser_interactions":0,"missing":false},{"state_1_ids":[0,1],"state_1_key":1,"state_1_choice":1,"state_1_rt":2571.7999999970198,"transition":1,"state":1,"state_2_ids":[2,3],"state_2_key":0,"state_2_choice":2,"state_2_rt":1946.5999999940395,"outcome":0,"rocket_colors":["#48a782","#955db9"],"planet_colors":["#5f6f81","#7f5d5d"],"screen_resolution":[1536,864],"minimum_resolution":1,"trial":79,"drifts":[0.536,0.268,0.465,0.475],"drift_ix":3,"trial_type":"two-step-trial","trial_index":111,"time_elapsed":1327195,"internal_node_id":"0.0-92.0-0.0","task_version":"1.0","jspsych_version":"6.3.1","browser_interactions":0,"missing":false},{"state_1_ids":[0,1],"state_1_key":0,"state_1_choice":0,"state_1_rt":2353.5,"transition":0,"state":1,"state_2_ids":[2,3],"state_2_key":1,"state_2_choice":3,"state_2_rt":2166,"outcome":1,"rocket_colors":["#48a782","#955db9"],"planet_colors":["#5f6f81","#7f5d5d"],"screen_resolution":[1536,864],"minimum_resolution":1,"trial":80,"drifts":[0.534,0.324,0.464,0.482],"drift_ix":3,"trial_type":"two-step-trial","trial_index":112,"time_elapsed":1333719,"internal_node_id":"0.0-93.0-0.0","task_version":"1.0","jspsych_version":"6.3.1","browser_interactions":0,"missing":false},{"state_1_ids":[1,0],"state_1_key":1,"state_1_choice":0,"state_1_rt":2554.2000000029802,"transition":1,"state":0,"state_2_ids":[0,1],"state_2_key":0,"state_2_choice":0,"state_2_rt":2330.2000000029802,"outcome":0,"rocket_colors":["#48a782","#955db9"],"planet_colors":["#5f6f81","#7f5d5d"],"screen_resolution":[1536,864],"minimum_resolution":1,"trial":81,"drifts":[0.553,0.309,0.445,0.465],"drift_ix":3,"trial_type":"two-step-trial","trial_index":113,"time_elapsed":1340609,"internal_node_id":"0.0-94.0-0.0","task_version":"1.0","jspsych_version":"6.3.1","browser_interactions":0,"missing":false},{"state_1_ids":[1,0],"state_1_key":1,"state_1_choice":0,"state_1_rt":2785.2000000029802,"transition":0,"state":1,"state_2_ids":[2,3],"state_2_key":1,"state_2_choice":3,"state_2_rt":1587.5,"outcome":0,"rocket_colors":["#48a782","#955db9"],"planet_colors":["#5f6f81","#7f5d5d"],"screen_resolution":[1536,864],"minimum_resolution":1,"trial":82,"drifts":[0.563,0.291,0.404,0.437],"drift_ix":3,"trial_type":"two-step-trial","trial_index":114,"time_elapsed":1346986,"internal_node_id":"0.0-95.0-0.0","task_version":"1.0","jspsych_version":"6.3.1","browser_interactions":0,"missing":false},{"state_1_ids":[0,1],"state_1_key":1,"state_1_choice":1,"state_1_rt":2268.8999999910593,"transition":0,"state":0,"state_2_ids":[0,1],"state_2_key":1,"state_2_choice":1,"state_2_rt":1889.4000000059605,"outcome":0,"rocket_colors":["#48a782","#955db9"],"planet_colors":["#5f6f81","#7f5d5d"],"screen_resolution":[1536,864],"minimum_resolution":1,"trial":83,"drifts":[0.563,0.298,0.442,0.474],"drift_ix":3,"trial_type":"two-step-trial","trial_index":115,"time_elapsed":1353150,"internal_node_id":"0.0-96.0-0.0","task_version":"1.0","jspsych_version":"6.3.1","browser_interactions":0,"missing":false},{"state_1_ids":[1,0],"state_1_key":0,"state_1_choice":1,"state_1_rt":3664.9000000059605,"transition":1,"state":1,"state_2_ids":[2,3],"state_2_key":0,"state_2_choice":2,"state_2_rt":1915.5999999940395,"outcome":0,"rocket_colors":["#48a782","#955db9"],"planet_colors":["#5f6f81","#7f5d5d"],"screen_resolution":[1536,864],"minimum_resolution":1,"trial":84,"drifts":[0.591,0.316,0.454,0.449],"drift_ix":3,"trial_type":"two-step-trial","trial_index":116,"time_elapsed":1360738,"internal_node_id":"0.0-97.0-0.0","task_version":"1.0","jspsych_version":"6.3.1","browser_interactions":0,"missing":false},{"state_1_ids":[1,0],"state_1_key":0,"state_1_choice":1,"state_1_rt":1555.4000000059605,"transition":0,"state":0,"state_2_ids":[0,1],"state_2_key":0,"state_2_choice":0,"state_2_rt":1496.2000000029802,"outcome":0,"rocket_colors":["#48a782","#955db9"],"planet_colors":["#5f6f81","#7f5d5d"],"screen_resolution":[1536,864],"minimum_resolution":1,"trial":85,"drifts":[0.57,0.324,0.436,0.421],"drift_ix":3,"trial_type":"two-step-trial","trial_index":117,"time_elapsed":1365794,"internal_node_id":"0.0-98.0-0.0","task_version":"1.0","jspsych_version":"6.3.1","browser_interactions":0,"missing":false},{"state_1_ids":[1,0],"state_1_key":0,"state_1_choice":1,"state_1_rt":1441.7000000029802,"transition":1,"state":1,"state_2_ids":[2,3],"state_2_key":1,"state_2_choice":3,"state_2_rt":3886.7999999970198,"outcome":0,"rocket_colors":["#48a782","#955db9"],"planet_colors":["#5f6f81","#7f5d5d"],"screen_resolution":[1536,864],"minimum_resolution":1,"trial":86,"drifts":[0.531,0.336,0.408,0.378],"drift_ix":3,"trial_type":"two-step-trial","trial_index":118,"time_elapsed":1373129,"internal_node_id":"0.0-99.0-0.0","task_version":"1.0","jspsych_version":"6.3.1","browser_interactions":0,"missing":false},{"state_1_ids":[0,1],"state_1_key":1,"state_1_choice":1,"state_1_rt":2026.9000000059605,"transition":1,"state":1,"state_2_ids":[2,3],"state_2_key":0,"state_2_choice":2,"state_2_rt":2341.9000000059605,"outcome":1,"rocket_colors":["#48a782","#955db9"],"planet_colors":["#5f6f81","#7f5d5d"],"screen_resolution":[1536,864],"minimum_resolution":1,"trial":87,"drifts":[0.529,0.309,0.432,0.403],"drift_ix":3,"trial_type":"two-step-trial","trial_index":119,"time_elapsed":1379505,"internal_node_id":"0.0-100.0-0.0","task_version":"1.0","jspsych_version":"6.3.1","browser_interactions":0,"missing":false},{"state_1_ids":[1,0],"state_1_key":0,"state_1_choice":1,"state_1_rt":1798.5,"transition":0,"state":0,"state_2_ids":[0,1],"state_2_key":0,"state_2_choice":0,"state_2_rt":3030.5999999940395,"outcome":0,"rocket_colors":["#48a782","#955db9"],"planet_colors":["#5f6f81","#7f5d5d"],"screen_resolution":[1536,864],"minimum_resolution":1,"trial":88,"drifts":[0.532,0.296,0.431,0.406],"drift_ix":3,"trial_type":"two-step-trial","trial_index":120,"time_elapsed":1386339,"internal_node_id":"0.0-101.0-0.0","task_version":"1.0","jspsych_version":"6.3.1","browser_interactions":0,"missing":false},{"state_1_ids":[0,1],"state_1_key":1,"state_1_choice":1,"state_1_rt":2957.5999999940395,"transition":0,"state":0,"state_2_ids":[0,1],"state_2_key":1,"state_2_choice":1,"state_2_rt":2142.5999999940395,"outcome":0,"rocket_colors":["#48a782","#955db9"],"planet_colors":["#5f6f81","#7f5d5d"],"screen_resolution":[1536,864],"minimum_resolution":1,"trial":89,"drifts":[0.553,0.328,0.456,0.411],"drift_ix":3,"trial_type":"two-step-trial","trial_index":121,"time_elapsed":1393445,"internal_node_id":"0.0-102.0-0.0","task_version":"1.0","jspsych_version":"6.3.1","browser_interactions":0,"missing":false},{"state_1_ids":[0,1],"state_1_key":1,"state_1_choice":1,"state_1_rt":2565.6000000089407,"transition":1,"state":1,"state_2_ids":[2,3],"state_2_key":0,"state_2_choice":2,"state_2_rt":3839.9000000059605,"outcome":0,"rocket_colors":["#48a782","#955db9"],"planet_colors":["#5f6f81","#7f5d5d"],"screen_resolution":[1536,864],"minimum_resolution":1,"trial":90,"drifts":[0.542,0.3,0.493,0.409],"drift_ix":3,"trial_type":"two-step-trial","trial_index":122,"time_elapsed":1401856,"internal_node_id":"0.0-103.0-0.0","task_version":"1.0","jspsych_version":"6.3.1","browser_interactions":0,"missing":false},{"state_1_ids":[1,0],"state_1_key":0,"state_1_choice":1,"state_1_rt":1764.2000000029802,"transition":1,"state":1,"state_2_ids":[2,3],"state_2_key":1,"state_2_choice":3,"state_2_rt":2111.6000000089407,"outcome":0,"rocket_colors":["#48a782","#955db9"],"planet_colors":["#5f6f81","#7f5d5d"],"screen_resolution":[1536,864],"minimum_resolution":1,"trial":91,"drifts":[0.54,0.298,0.512,0.437],"drift_ix":3,"trial_type":"two-step-trial","trial_index":123,"time_elapsed":1407742,"internal_node_id":"0.0-104.0-0.0","task_version":"1.0","jspsych_version":"6.3.1","browser_interactions":0,"missing":false},{"state_1_ids":[0,1],"state_1_key":0,"state_1_choice":0,"state_1_rt":2447.9000000059605,"transition":1,"state":0,"state_2_ids":[0,1],"state_2_key":0,"state_2_choice":0,"state_2_rt":2816.7999999970198,"outcome":0,"rocket_colors":["#48a782","#955db9"],"planet_colors":["#5f6f81","#7f5d5d"],"screen_resolution":[1536,864],"minimum_resolution":1,"trial":92,"drifts":[0.564,0.281,0.499,0.45],"drift_ix":3,"trial_type":"two-step-trial","trial_index":124,"time_elapsed":1415013,"internal_node_id":"0.0-105.0-0.0","task_version":"1.0","jspsych_version":"6.3.1","browser_interactions":0,"missing":false},{"state_1_ids":[1,0],"state_1_key":0,"state_1_choice":1,"state_1_rt":2759.5,"transition":0,"state":0,"state_2_ids":[0,1],"state_2_key":1,"state_2_choice":1,"state_2_rt":2326.300000011921,"outcome":0,"rocket_colors":["#48a782","#955db9"],"planet_colors":["#5f6f81","#7f5d5d"],"screen_resolution":[1536,864],"minimum_resolution":1,"trial":93,"drifts":[0.542,0.268,0.44,0.42],"drift_ix":3,"trial_type":"two-step-trial","trial_index":125,"time_elapsed":1422103,"internal_node_id":"0.0-106.0-0.0","task_version":"1.0","jspsych_version":"6.3.1","browser_interactions":0,"missing":false},{"state_1_ids":[1,0],"state_1_key":0,"state_1_choice":1,"state_1_rt":4260.20000000298,"transition":0,"state":0,"state_2_ids":[0,1],"state_2_key":1,"state_2_choice":1,"state_2_rt":1721.6000000089407,"outcome":0,"rocket_colors":["#48a782","#955db9"],"planet_colors":["#5f6f81","#7f5d5d"],"screen_resolution":[1536,864],"minimum_resolution":1,"trial":94,"drifts":[0.539,0.26,0.421,0.438],"drift_ix":3,"trial_type":"two-step-trial","trial_index":126,"time_elapsed":1430090,"internal_node_id":"0.0-107.0-0.0","task_version":"1.0","jspsych_version":"6.3.1","browser_interactions":0,"missing":false},{"state_1_ids":[0,1],"state_1_key":1,"state_1_choice":1,"state_1_rt":2278.7999999970198,"transition":1,"state":1,"state_2_ids":[2,3],"state_2_key":0,"state_2_choice":2,"state_2_rt":1794.9000000059605,"outcome":1,"rocket_colors":["#48a782","#955db9"],"planet_colors":["#5f6f81","#7f5d5d"],"screen_resolution":[1536,864],"minimum_resolution":1,"trial":95,"drifts":[0.583,0.272,0.407,0.449],"drift_ix":3,"trial_type":"two-step-trial","trial_index":127,"time_elapsed":1436168,"internal_node_id":"0.0-108.0-0.0","task_version":"1.0","jspsych_version":"6.3.1","browser_interactions":0,"missing":false},{"state_1_ids":[0,1],"state_1_key":1,"state_1_choice":1,"state_1_rt":2130,"transition":0,"state":0,"state_2_ids":[0,1],"state_2_key":0,"state_2_choice":0,"state_2_rt":2050.6000000089407,"outcome":0,"rocket_colors":["#48a782","#955db9"],"planet_colors":["#5f6f81","#7f5d5d"],"screen_resolution":[1536,864],"minimum_resolution":1,"trial":96,"drifts":[0.596,0.257,0.37,0.508],"drift_ix":3,"trial_type":"two-step-trial","trial_index":128,"time_elapsed":1442354,"internal_node_id":"0.0-109.0-0.0","task_version":"1.0","jspsych_version":"6.3.1","browser_interactions":0,"missing":false},{"state_1_ids":[1,0],"state_1_key":0,"state_1_choice":1,"state_1_rt":1578.4000000059605,"transition":1,"state":1,"state_2_ids":[2,3],"state_2_key":1,"state_2_choice":3,"state_2_rt":1458.699999988079,"outcome":1,"rocket_colors":["#48a782","#955db9"],"planet_colors":["#5f6f81","#7f5d5d"],"screen_resolution":[1536,864],"minimum_resolution":1,"trial":97,"drifts":[0.6,0.317,0.384,0.526],"drift_ix":3,"trial_type":"two-step-trial","trial_index":129,"time_elapsed":1447396,"internal_node_id":"0.0-110.0-0.0","task_version":"1.0","jspsych_version":"6.3.1","browser_interactions":0,"missing":false},{"state_1_ids":[0,1],"state_1_key":1,"state_1_choice":1,"state_1_rt":1937.0999999940395,"transition":1,"state":1,"state_2_ids":[2,3],"state_2_key":1,"state_2_choice":3,"state_2_rt":1491.3999999910593,"outcome":1,"rocket_colors":["#48a782","#955db9"],"planet_colors":["#5f6f81","#7f5d5d"],"screen_resolution":[1536,864],"minimum_resolution":1,"trial":98,"drifts":[0.573,0.304,0.387,0.504],"drift_ix":3,"trial_type":"two-step-trial","trial_index":130,"time_elapsed":1452829,"internal_node_id":"0.0-111.0-0.0","task_version":"1.0","jspsych_version":"6.3.1","browser_interactions":0,"missing":false},{"state_1_ids":[0,1],"state_1_key":1,"state_1_choice":1,"state_1_rt":4226.5999999940395,"transition":0,"state":0,"state_2_ids":[0,1],"state_2_key":0,"state_2_choice":0,"state_2_rt":2917.800000011921,"outcome":0,"rocket_colors":["#48a782","#955db9"],"planet_colors":["#5f6f81","#7f5d5d"],"screen_resolution":[1536,864],"minimum_resolution":1,"trial":99,"drifts":[0.567,0.288,0.405,0.531],"drift_ix":3,"trial_type":"two-step-trial","trial_index":131,"time_elapsed":1461978,"internal_node_id":"0.0-112.0-0.0","task_version":"1.0","jspsych_version":"6.3.1","browser_interactions":0,"missing":false},{"state_1_ids":[0,1],"state_1_key":1,"state_1_choice":1,"state_1_rt":2835.4000000059605,"transition":1,"state":1,"state_2_ids":[2,3],"state_2_key":0,"state_2_choice":2,"state_2_rt":2634.5999999940395,"outcome":0,"rocket_colors":["#48a782","#955db9"],"planet_colors":["#5f6f81","#7f5d5d"],"screen_resolution":[1536,864],"minimum_resolution":1,"trial":100,"drifts":[0.535,0.255,0.402,0.526],"drift_ix":3,"trial_type":"two-step-trial","trial_index":132,"time_elapsed":1469454,"internal_node_id":"0.0-113.0-0.0","task_version":"1.0","jspsych_version":"6.3.1","browser_interactions":0,"missing":false},{"view_history":"[{\"page_index\":0,\"viewing_time\":64025.5},{\"page_index\":1,\"viewing_time\":3651.5}]","rt":67677.60000000894,"trial_type":"two-step-instructions","trial_index":133,"time_elapsed":1537134,"internal_node_id":"0.0-114.0","task_version":"1.0","jspsych_version":"6.3.1"},{"state_1_ids":[0,1],"state_1_key":1,"state_1_choice":1,"state_1_rt":4018.9000000059605,"transition":1,"state":1,"state_2_ids":[2,3],"state_2_key":1,"state_2_choice":3,"state_2_rt":1835.5999999940395,"outcome":0,"rocket_colors":["#48a782","#955db9"],"planet_colors":["#5f6f81","#7f5d5d"],"screen_resolution":[1536,864],"minimum_resolution":1,"trial":101,"drifts":[0.52,0.27,0.348,0.507],"drift_ix":3,"trial_type":"two-step-trial","trial_index":134,"time_elapsed":1544995,"internal_node_id":"0.0-115.0-0.0","task_version":"1.0","jspsych_version":"6.3.1","browser_interactions":0,"missing":false},{"state_1_ids":[1,0],"state_1_key":0,"state_1_choice":1,"state_1_rt":3073.2000000029802,"transition":0,"state":0,"state_2_ids":[0,1],"state_2_key":0,"state_2_choice":0,"state_2_rt":915.7999999970198,"outcome":0,"rocket_colors":["#48a782","#955db9"],"planet_colors":["#5f6f81","#7f5d5d"],"screen_resolution":[1536,864],"minimum_resolution":1,"trial":102,"drifts":[0.518,0.277,0.374,0.503],"drift_ix":3,"trial_type":"two-step-trial","trial_index":135,"time_elapsed":1550990,"internal_node_id":"0.0-116.0-0.0","task_version":"1.0","jspsych_version":"6.3.1","browser_interactions":0,"missing":false},{"state_1_ids":[1,0],"state_1_key":0,"state_1_choice":1,"state_1_rt":521,"transition":1,"state":1,"state_2_ids":[2,3],"state_2_key":1,"state_2_choice":3,"state_2_rt":2517.9000000059605,"outcome":1,"rocket_colors":["#48a782","#955db9"],"planet_colors":["#5f6f81","#7f5d5d"],"screen_resolution":[1536,864],"minimum_resolution":1,"trial":103,"drifts":[0.492,0.318,0.345,0.483],"drift_ix":3,"trial_type":"two-step-trial","trial_index":136,"time_elapsed":1556035,"internal_node_id":"0.0-117.0-0.0","task_version":"1.0","jspsych_version":"6.3.1","browser_interactions":0,"missing":false},{"state_1_ids":[0,1],"state_1_key":1,"state_1_choice":1,"state_1_rt":2332.5,"transition":1,"state":1,"state_2_ids":[2,3],"state_2_key":1,"state_2_choice":3,"state_2_rt":1361.5999999940395,"outcome":0,"rocket_colors":["#48a782","#955db9"],"planet_colors":["#5f6f81","#7f5d5d"],"screen_resolution":[1536,864],"minimum_resolution":1,"trial":104,"drifts":[0.494,0.305,0.344,0.485],"drift_ix":3,"trial_type":"two-step-trial","trial_index":137,"time_elapsed":1561734,"internal_node_id":"0.0-118.0-0.0","task_version":"1.0","jspsych_version":"6.3.1","browser_interactions":0,"missing":false},{"state_1_ids":[1,0],"state_1_key":1,"state_1_choice":0,"state_1_rt":1813.8999999910593,"transition":1,"state":0,"state_2_ids":[0,1],"state_2_key":1,"state_2_choice":1,"state_2_rt":1430.4000000059605,"outcome":0,"rocket_colors":["#48a782","#955db9"],"planet_colors":["#5f6f81","#7f5d5d"],"screen_resolution":[1536,864],"minimum_resolution":1,"trial":105,"drifts":[0.496,0.279,0.36,0.503],"drift_ix":3,"trial_type":"two-step-trial","trial_index":138,"time_elapsed":1566984,"internal_node_id":"0.0-119.0-0.0","task_version":"1.0","jspsych_version":"6.3.1","browser_interactions":0,"missing":false},{"state_1_ids":[1,0],"state_1_key":1,"state_1_choice":0,"state_1_rt":1139.7999999970198,"transition":1,"state":0,"state_2_ids":[0,1],"state_2_key":0,"state_2_choice":0,"state_2_rt":2304.7999999970198,"outcome":0,"rocket_colors":["#48a782","#955db9"],"planet_colors":["#5f6f81","#7f5d5d"],"screen_resolution":[1536,864],"minimum_resolution":1,"trial":106,"drifts":[0.522,0.291,0.358,0.537],"drift_ix":3,"trial_type":"two-step-trial","trial_index":139,"time_elapsed":1572434,"internal_node_id":"0.0-120.0-0.0","task_version":"1.0","jspsych_version":"6.3.1","browser_interactions":0,"missing":false},{"state_1_ids":[0,1],"state_1_key":1,"state_1_choice":1,"state_1_rt":2691.9000000059605,"transition":0,"state":0,"state_2_ids":[0,1],"state_2_key":1,"state_2_choice":1,"state_2_rt":831,"outcome":0,"rocket_colors":["#48a782","#955db9"],"planet_colors":["#5f6f81","#7f5d5d"],"screen_resolution":[1536,864],"minimum_resolution":1,"trial":107,"drifts":[0.481,0.324,0.357,0.499],"drift_ix":3,"trial_type":"two-step-trial","trial_index":140,"time_elapsed":1577963,"internal_node_id":"0.0-121.0-0.0","task_version":"1.0","jspsych_version":"6.3.1","browser_interactions":0,"missing":false},{"state_1_ids":[0,1],"state_1_key":1,"state_1_choice":1,"state_1_rt":592.7000000029802,"transition":1,"state":1,"state_2_ids":[2,3],"state_2_key":1,"state_2_choice":3,"state_2_rt":862.5999999940395,"outcome":1,"rocket_colors":["#48a782","#955db9"],"planet_colors":["#5f6f81","#7f5d5d"],"screen_resolution":[1536,864],"minimum_resolution":1,"trial":108,"drifts":[0.504,0.334,0.327,0.481],"drift_ix":3,"trial_type":"two-step-trial","trial_index":141,"time_elapsed":1581423,"internal_node_id":"0.0-122.0-0.0","task_version":"1.0","jspsych_version":"6.3.1","browser_interactions":0,"missing":false},{"state_1_ids":[0,1],"state_1_key":1,"state_1_choice":1,"state_1_rt":784.4000000059605,"transition":1,"state":1,"state_2_ids":[2,3],"state_2_key":1,"state_2_choice":3,"state_2_rt":954.8999999910593,"outcome":1,"rocket_colors":["#48a782","#955db9"],"planet_colors":["#5f6f81","#7f5d5d"],"screen_resolution":[1536,864],"minimum_resolution":1,"trial":109,"drifts":[0.526,0.339,0.308,0.485],"drift_ix":3,"trial_type":"two-step-trial","trial_index":142,"time_elapsed":1585167,"internal_node_id":"0.0-123.0-0.0","task_version":"1.0","jspsych_version":"6.3.1","browser_interactions":0,"missing":false},{"state_1_ids":[0,1],"state_1_key":1,"state_1_choice":1,"state_1_rt":624.6000000089407,"transition":1,"state":1,"state_2_ids":[2,3],"state_2_key":1,"state_2_choice":3,"state_2_rt":531.7999999970198,"outcome":0,"rocket_colors":["#48a782","#955db9"],"planet_colors":["#5f6f81","#7f5d5d"],"screen_resolution":[1536,864],"minimum_resolution":1,"trial":110,"drifts":[0.551,0.358,0.295,0.444],"drift_ix":3,"trial_type":"two-step-trial","trial_index":143,"time_elapsed":1588328,"internal_node_id":"0.0-124.0-0.0","task_version":"1.0","jspsych_version":"6.3.1","browser_interactions":0,"missing":false},{"state_1_ids":[0,1],"state_1_key":1,"state_1_choice":1,"state_1_rt":704.5,"transition":0,"state":0,"state_2_ids":[0,1],"state_2_key":1,"state_2_choice":1,"state_2_rt":951.2999999970198,"outcome":0,"rocket_colors":["#48a782","#955db9"],"planet_colors":["#5f6f81","#7f5d5d"],"screen_resolution":[1536,864],"minimum_resolution":1,"trial":111,"drifts":[0.517,0.359,0.323,0.417],"drift_ix":3,"trial_type":"two-step-trial","trial_index":144,"time_elapsed":1591988,"internal_node_id":"0.0-125.0-0.0","task_version":"1.0","jspsych_version":"6.3.1","browser_interactions":0,"missing":false},{"state_1_ids":[1,0],"state_1_key":1,"state_1_choice":0,"state_1_rt":975.5,"transition":1,"state":0,"state_2_ids":[0,1],"state_2_key":1,"state_2_choice":1,"state_2_rt":880.0999999940395,"outcome":1,"rocket_colors":["#48a782","#955db9"],"planet_colors":["#5f6f81","#7f5d5d"],"screen_resolution":[1536,864],"minimum_resolution":1,"trial":112,"drifts":[0.506,0.34,0.322,0.412],"drift_ix":3,"trial_type":"two-step-trial","trial_index":145,"time_elapsed":1595850,"internal_node_id":"0.0-126.0-0.0","task_version":"1.0","jspsych_version":"6.3.1","browser_interactions":0,"missing":false},{"state_1_ids":[0,1],"state_1_key":1,"state_1_choice":1,"state_1_rt":1012.5,"transition":0,"state":0,"state_2_ids":[0,1],"state_2_key":1,"state_2_choice":1,"state_2_rt":3866.6000000089407,"outcome":1,"rocket_colors":["#48a782","#955db9"],"planet_colors":["#5f6f81","#7f5d5d"],"screen_resolution":[1536,864],"minimum_resolution":1,"trial":113,"drifts":[0.467,0.28,0.348,0.413],"drift_ix":3,"trial_type":"two-step-trial","trial_index":146,"time_elapsed":1602734,"internal_node_id":"0.0-127.0-0.0","task_version":"1.0","jspsych_version":"6.3.1","browser_interactions":0,"missing":false},{"state_1_ids":[0,1],"state_1_key":0,"state_1_choice":0,"state_1_rt":2724.4000000059605,"transition":1,"state":0,"state_2_ids":[0,1],"state_2_key":0,"state_2_choice":0,"state_2_rt":1504.6000000089407,"outcome":1,"rocket_colors":["#48a782","#955db9"],"planet_colors":["#5f6f81","#7f5d5d"],"screen_resolution":[1536,864],"minimum_resolution":1,"trial":114,"drifts":[0.494,0.276,0.373,0.43],"drift_ix":3,"trial_type":"two-step-trial","trial_index":147,"time_elapsed":1608967,"internal_node_id":"0.0-128.0-0.0","task_version":"1.0","jspsych_version":"6.3.1","browser_interactions":0,"missing":false},{"state_1_ids":[0,1],"state_1_key":0,"state_1_choice":0,"state_1_rt":593.3999999910593,"transition":0,"state":1,"state_2_ids":[2,3],"state_2_key":0,"state_2_choice":2,"state_2_rt":1465.0999999940395,"outcome":0,"rocket_colors":["#48a782","#955db9"],"planet_colors":["#5f6f81","#7f5d5d"],"screen_resolution":[1536,864],"minimum_resolution":1,"trial":115,"drifts":[0.493,0.258,0.428,0.412],"drift_ix":3,"trial_type":"two-step-trial","trial_index":148,"time_elapsed":1613031,"internal_node_id":"0.0-129.0-0.0","task_version":"1.0","jspsych_version":"6.3.1","browser_interactions":0,"missing":false},{"state_1_ids":[1,0],"state_1_key":0,"state_1_choice":1,"state_1_rt":691.9000000059605,"transition":1,"state":1,"state_2_ids":[2,3],"state_2_key":0,"state_2_choice":2,"state_2_rt":683.4000000059605,"outcome":0,"rocket_colors":["#48a782","#955db9"],"planet_colors":["#5f6f81","#7f5d5d"],"screen_resolution":[1536,864],"minimum_resolution":1,"trial":116,"drifts":[0.492,0.266,0.447,0.466],"drift_ix":3,"trial_type":"two-step-trial","trial_index":149,"time_elapsed":1616410,"internal_node_id":"0.0-130.0-0.0","task_version":"1.0","jspsych_version":"6.3.1","browser_interactions":0,"missing":false},{"state_1_ids":[1,0],"state_1_key":0,"state_1_choice":1,"state_1_rt":532.8999999910593,"transition":0,"state":0,"state_2_ids":[0,1],"state_2_key":0,"state_2_choice":0,"state_2_rt":883.2000000029802,"outcome":0,"rocket_colors":["#48a782","#955db9"],"planet_colors":["#5f6f81","#7f5d5d"],"screen_resolution":[1536,864],"minimum_resolution":1,"trial":117,"drifts":[0.512,0.269,0.457,0.471],"drift_ix":3,"trial_type":"two-step-trial","trial_index":150,"time_elapsed":1619830,"internal_node_id":"0.0-131.0-0.0","task_version":"1.0","jspsych_version":"6.3.1","browser_interactions":0,"missing":false},{"state_1_ids":[1,0],"state_1_key":0,"state_1_choice":1,"state_1_rt":568.7000000029802,"transition":0,"state":0,"state_2_ids":[0,1],"state_2_key":0,"state_2_choice":0,"state_2_rt":3076.1000000089407,"outcome":0,"rocket_colors":["#48a782","#955db9"],"planet_colors":["#5f6f81","#7f5d5d"],"screen_resolution":[1536,864],"minimum_resolution":1,"trial":118,"drifts":[0.551,0.283,0.506,0.484],"drift_ix":3,"trial_type":"two-step-trial","trial_index":151,"time_elapsed":1625481,"internal_node_id":"0.0-132.0-0.0","task_version":"1.0","jspsych_version":"6.3.1","browser_interactions":0,"missing":false},{"state_1_ids":[0,1],"state_1_key":1,"state_1_choice":1,"state_1_rt":3707,"transition":0,"state":0,"state_2_ids":[0,1],"state_2_key":1,"state_2_choice":1,"state_2_rt":1804,"outcome":0,"rocket_colors":["#48a782","#955db9"],"planet_colors":["#5f6f81","#7f5d5d"],"screen_resolution":[1536,864],"minimum_resolution":1,"trial":119,"drifts":[0.537,0.273,0.462,0.473],"drift_ix":3,"trial_type":"two-step-trial","trial_index":152,"time_elapsed":1632996,"internal_node_id":"0.0-133.0-0.0","task_version":"1.0","jspsych_version":"6.3.1","browser_interactions":0,"missing":false},{"state_1_ids":[1,0],"state_1_key":1,"state_1_choice":0,"state_1_rt":1339.2000000029802,"transition":1,"state":0,"state_2_ids":[0,1],"state_2_key":1,"state_2_choice":1,"state_2_rt":813.7000000029802,"outcome":0,"rocket_colors":["#48a782","#955db9"],"planet_colors":["#5f6f81","#7f5d5d"],"screen_resolution":[1536,864],"minimum_resolution":1,"trial":120,"drifts":[0.49,0.26,0.46,0.477],"drift_ix":3,"trial_type":"two-step-trial","trial_index":153,"time_elapsed":1637154,"internal_node_id":"0.0-134.0-0.0","task_version":"1.0","jspsych_version":"6.3.1","browser_interactions":0,"missing":false},{"state_1_ids":[1,0],"state_1_key":1,"state_1_choice":0,"state_1_rt":851.2999999970198,"transition":1,"state":0,"state_2_ids":[0,1],"state_2_key":1,"state_2_choice":1,"state_2_rt":2931.5999999940395,"outcome":1,"rocket_colors":["#48a782","#955db9"],"planet_colors":["#5f6f81","#7f5d5d"],"screen_resolution":[1536,864],"minimum_resolution":1,"trial":121,"drifts":[0.547,0.275,0.457,0.431],"drift_ix":3,"trial_type":"two-step-trial","trial_index":154,"time_elapsed":1642942,"internal_node_id":"0.0-135.0-0.0","task_version":"1.0","jspsych_version":"6.3.1","browser_interactions":0,"missing":false},{"state_1_ids":[1,0],"state_1_key":1,"state_1_choice":0,"state_1_rt":1571.199999988079,"transition":1,"state":0,"state_2_ids":[0,1],"state_2_key":1,"state_2_choice":1,"state_2_rt":1057.6000000089407,"outcome":0,"rocket_colors":["#48a782","#955db9"],"planet_colors":["#5f6f81","#7f5d5d"],"screen_resolution":[1536,864],"minimum_resolution":1,"trial":122,"drifts":[0.578,0.269,0.386,0.411],"drift_ix":3,"trial_type":"two-step-trial","trial_index":155,"time_elapsed":1647575,"internal_node_id":"0.0-136.0-0.0","task_version":"1.0","jspsych_version":"6.3.1","browser_interactions":0,"missing":false},{"state_1_ids":[1,0],"state_1_key":0,"state_1_choice":1,"state_1_rt":2236.0999999940395,"transition":0,"state":0,"state_2_ids":[0,1],"state_2_key":0,"state_2_choice":0,"state_2_rt":546.6999999880791,"outcome":1,"rocket_colors":["#48a782","#955db9"],"planet_colors":["#5f6f81","#7f5d5d"],"screen_resolution":[1536,864],"minimum_resolution":1,"trial":123,"drifts":[0.639,0.269,0.384,0.429],"drift_ix":3,"trial_type":"two-step-trial","trial_index":156,"time_elapsed":1652363,"internal_node_id":"0.0-137.0-0.0","task_version":"1.0","jspsych_version":"6.3.1","browser_interactions":0,"missing":false},{"state_1_ids":[0,1],"state_1_key":0,"state_1_choice":0,"state_1_rt":716.8999999910593,"transition":0,"state":1,"state_2_ids":[2,3],"state_2_key":0,"state_2_choice":2,"state_2_rt":814.9000000059605,"outcome":1,"rocket_colors":["#48a782","#955db9"],"planet_colors":["#5f6f81","#7f5d5d"],"screen_resolution":[1536,864],"minimum_resolution":1,"trial":124,"drifts":[0.636,0.254,0.416,0.449],"drift_ix":3,"trial_type":"two-step-trial","trial_index":157,"time_elapsed":1655899,"internal_node_id":"0.0-138.0-0.0","task_version":"1.0","jspsych_version":"6.3.1","browser_interactions":0,"missing":false},{"state_1_ids":[1,0],"state_1_key":0,"state_1_choice":1,"state_1_rt":891.5999999940395,"transition":1,"state":1,"state_2_ids":[2,3],"state_2_key":0,"state_2_choice":2,"state_2_rt":551.9000000059605,"outcome":0,"rocket_colors":["#48a782","#955db9"],"planet_colors":["#5f6f81","#7f5d5d"],"screen_resolution":[1536,864],"minimum_resolution":1,"trial":125,"drifts":[0.665,0.257,0.44,0.433],"drift_ix":3,"trial_type":"two-step-trial","trial_index":158,"time_elapsed":1659349,"internal_node_id":"0.0-139.0-0.0","task_version":"1.0","jspsych_version":"6.3.1","browser_interactions":0,"missing":false},{"state_1_ids":[1,0],"state_1_key":0,"state_1_choice":1,"state_1_rt":589.9000000059605,"transition":1,"state":1,"state_2_ids":[2,3],"state_2_key":1,"state_2_choice":3,"state_2_rt":5159.5999999940395,"outcome":0,"rocket_colors":["#48a782","#955db9"],"planet_colors":["#5f6f81","#7f5d5d"],"screen_resolution":[1536,864],"minimum_resolution":1,"trial":126,"drifts":[0.694,0.25,0.453,0.414],"drift_ix":3,"trial_type":"two-step-trial","trial_index":159,"time_elapsed":1667104,"internal_node_id":"0.0-140.0-0.0","task_version":"1.0","jspsych_version":"6.3.1","browser_interactions":0,"missing":false},{"state_1_ids":[1,0],"state_1_key":0,"state_1_choice":1,"state_1_rt":2210.7000000029802,"transition":0,"state":0,"state_2_ids":[0,1],"state_2_key":0,"state_2_choice":0,"state_2_rt":812.6000000089407,"outcome":1,"rocket_colors":["#48a782","#955db9"],"planet_colors":["#5f6f81","#7f5d5d"],"screen_resolution":[1536,864],"minimum_resolution":1,"trial":127,"drifts":[0.666,0.266,0.449,0.399],"drift_ix":3,"trial_type":"two-step-trial","trial_index":160,"time_elapsed":1672133,"internal_node_id":"0.0-141.0-0.0","task_version":"1.0","jspsych_version":"6.3.1","browser_interactions":0,"missing":false},{"state_1_ids":[1,0],"state_1_key":0,"state_1_choice":1,"state_1_rt":664.2999999970198,"transition":1,"state":1,"state_2_ids":[2,3],"state_2_key":0,"state_2_choice":2,"state_2_rt":847.7000000029802,"outcome":1,"rocket_colors":["#48a782","#955db9"],"planet_colors":["#5f6f81","#7f5d5d"],"screen_resolution":[1536,864],"minimum_resolution":1,"trial":128,"drifts":[0.66,0.272,0.461,0.39],"drift_ix":3,"trial_type":"two-step-trial","trial_index":161,"time_elapsed":1675651,"internal_node_id":"0.0-142.0-0.0","task_version":"1.0","jspsych_version":"6.3.1","browser_interactions":0,"missing":false},{"state_1_ids":[1,0],"state_1_key":0,"state_1_choice":1,"state_1_rt":818.1999999880791,"transition":1,"state":1,"state_2_ids":[2,3],"state_2_key":0,"state_2_choice":2,"state_2_rt":634.3000000119209,"outcome":0,"rocket_colors":["#48a782","#955db9"],"planet_colors":["#5f6f81","#7f5d5d"],"screen_resolution":[1536,864],"minimum_resolution":1,"trial":129,"drifts":[0.677,0.288,0.452,0.388],"drift_ix":3,"trial_type":"two-step-trial","trial_index":162,"time_elapsed":1679108,"internal_node_id":"0.0-143.0-0.0","task_version":"1.0","jspsych_version":"6.3.1","browser_interactions":0,"missing":false},{"state_1_ids":[1,0],"state_1_key":0,"state_1_choice":1,"state_1_rt":787.5999999940395,"transition":1,"state":1,"state_2_ids":[2,3],"state_2_key":0,"state_2_choice":2,"state_2_rt":662.2000000029802,"outcome":0,"rocket_colors":["#48a782","#955db9"],"planet_colors":["#5f6f81","#7f5d5d"],"screen_resolution":[1536,864],"minimum_resolution":1,"trial":130,"drifts":[0.654,0.252,0.415,0.434],"drift_ix":3,"trial_type":"two-step-trial","trial_index":163,"time_elapsed":1682563,"internal_node_id":"0.0-144.0-0.0","task_version":"1.0","jspsych_version":"6.3.1","browser_interactions":0,"missing":false},{"state_1_ids":[0,1],"state_1_key":0,"state_1_choice":0,"state_1_rt":660.3999999910593,"transition":1,"state":0,"state_2_ids":[0,1],"state_2_key":0,"state_2_choice":0,"state_2_rt":1008.5,"outcome":0,"rocket_colors":["#48a782","#955db9"],"planet_colors":["#5f6f81","#7f5d5d"],"screen_resolution":[1536,864],"minimum_resolution":1,"trial":131,"drifts":[0.662,0.271,0.398,0.411],"drift_ix":3,"trial_type":"two-step-trial","trial_index":164,"time_elapsed":1686237,"internal_node_id":"0.0-145.0-0.0","task_version":"1.0","jspsych_version":"6.3.1","browser_interactions":0,"missing":false},{"state_1_ids":[1,0],"state_1_key":0,"state_1_choice":1,"state_1_rt":645.3999999910593,"transition":0,"state":0,"state_2_ids":[0,1],"state_2_key":1,"state_2_choice":1,"state_2_rt":2785.800000011921,"outcome":0,"rocket_colors":["#48a782","#955db9"],"planet_colors":["#5f6f81","#7f5d5d"],"screen_resolution":[1536,864],"minimum_resolution":1,"trial":132,"drifts":[0.661,0.29,0.402,0.435],"drift_ix":3,"trial_type":"two-step-trial","trial_index":165,"time_elapsed":1691673,"internal_node_id":"0.0-146.0-0.0","task_version":"1.0","jspsych_version":"6.3.1","browser_interactions":0,"missing":false},{"state_1_ids":[0,1],"state_1_key":1,"state_1_choice":1,"state_1_rt":3120.3999999910593,"transition":1,"state":1,"state_2_ids":[2,3],"state_2_key":1,"state_2_choice":3,"state_2_rt":1602.8999999910593,"outcome":0,"rocket_colors":["#48a782","#955db9"],"planet_colors":["#5f6f81","#7f5d5d"],"screen_resolution":[1536,864],"minimum_resolution":1,"trial":133,"drifts":[0.665,0.307,0.385,0.395],"drift_ix":3,"trial_type":"two-step-trial","trial_index":166,"time_elapsed":1698402,"internal_node_id":"0.0-147.0-0.0","task_version":"1.0","jspsych_version":"6.3.1","browser_interactions":0,"missing":false},{"state_1_ids":[1,0],"state_1_key":0,"state_1_choice":1,"state_1_rt":2343.8999999910593,"transition":1,"state":1,"state_2_ids":[2,3],"state_2_key":0,"state_2_choice":2,"state_2_rt":619.5999999940395,"outcome":0,"rocket_colors":["#48a782","#955db9"],"planet_colors":["#5f6f81","#7f5d5d"],"screen_resolution":[1536,864],"minimum_resolution":1,"trial":134,"drifts":[0.696,0.308,0.332,0.425],"drift_ix":3,"trial_type":"two-step-trial","trial_index":167,"time_elapsed":1703371,"internal_node_id":"0.0-148.0-0.0","task_version":"1.0","jspsych_version":"6.3.1","browser_interactions":0,"missing":false},{"state_1_ids":[0,1],"state_1_key":0,"state_1_choice":0,"state_1_rt":750.1999999880791,"transition":0,"state":1,"state_2_ids":[2,3],"state_2_key":0,"state_2_choice":2,"state_2_rt":902.7999999970198,"outcome":1,"rocket_colors":["#48a782","#955db9"],"planet_colors":["#5f6f81","#7f5d5d"],"screen_resolution":[1536,864],"minimum_resolution":1,"trial":135,"drifts":[0.68,0.339,0.346,0.425],"drift_ix":3,"trial_type":"two-step-trial","trial_index":168,"time_elapsed":1707029,"internal_node_id":"0.0-149.0-0.0","task_version":"1.0","jspsych_version":"6.3.1","browser_interactions":0,"missing":false},{"state_1_ids":[1,0],"state_1_key":0,"state_1_choice":1,"state_1_rt":749.8999999910593,"transition":1,"state":1,"state_2_ids":[2,3],"state_2_key":1,"state_2_choice":3,"state_2_rt":3612.0999999940395,"outcome":1,"rocket_colors":["#48a782","#955db9"],"planet_colors":["#5f6f81","#7f5d5d"],"screen_resolution":[1536,864],"minimum_resolution":1,"trial":136,"drifts":[0.674,0.33,0.342,0.403],"drift_ix":3,"trial_type":"two-step-trial","trial_index":169,"time_elapsed":1713396,"internal_node_id":"0.0-150.0-0.0","task_version":"1.0","jspsych_version":"6.3.1","browser_interactions":0,"missing":false},{"state_1_ids":[1,0],"state_1_key":1,"state_1_choice":0,"state_1_rt":913.1000000089407,"transition":0,"state":1,"state_2_ids":[2,3],"state_2_key":0,"state_2_choice":2,"state_2_rt":4345.0999999940395,"outcome":1,"rocket_colors":["#48a782","#955db9"],"planet_colors":["#5f6f81","#7f5d5d"],"screen_resolution":[1536,864],"minimum_resolution":1,"trial":137,"drifts":[0.699,0.293,0.329,0.403],"drift_ix":3,"trial_type":"two-step-trial","trial_index":170,"time_elapsed":1720659,"internal_node_id":"0.0-151.0-0.0","task_version":"1.0","jspsych_version":"6.3.1","browser_interactions":0,"missing":false},{"state_1_ids":[1,0],"state_1_key":0,"state_1_choice":1,"state_1_rt":1253,"transition":0,"state":0,"state_2_ids":[0,1],"state_2_key":1,"state_2_choice":1,"state_2_rt":2046,"outcome":1,"rocket_colors":["#48a782","#955db9"],"planet_colors":["#5f6f81","#7f5d5d"],"screen_resolution":[1536,864],"minimum_resolution":1,"trial":138,"drifts":[0.734,0.332,0.387,0.413],"drift_ix":3,"trial_type":"two-step-trial","trial_index":171,"time_elapsed":1725962,"internal_node_id":"0.0-152.0-0.0","task_version":"1.0","jspsych_version":"6.3.1","browser_interactions":0,"missing":false},{"state_1_ids":[0,1],"state_1_key":0,"state_1_choice":0,"state_1_rt":2358.8999999910593,"transition":0,"state":1,"state_2_ids":[2,3],"state_2_key":0,"state_2_choice":2,"state_2_rt":1023.7000000029802,"outcome":0,"rocket_colors":["#48a782","#955db9"],"planet_colors":["#5f6f81","#7f5d5d"],"screen_resolution":[1536,864],"minimum_resolution":1,"trial":139,"drifts":[0.692,0.301,0.41,0.413],"drift_ix":3,"trial_type":"two-step-trial","trial_index":172,"time_elapsed":1731351,"internal_node_id":"0.0-153.0-0.0","task_version":"1.0","jspsych_version":"6.3.1","browser_interactions":0,"missing":false},{"state_1_ids":[1,0],"state_1_key":0,"state_1_choice":1,"state_1_rt":966.6999999880791,"transition":1,"state":1,"state_2_ids":[2,3],"state_2_key":0,"state_2_choice":2,"state_2_rt":1719.1000000089407,"outcome":1,"rocket_colors":["#48a782","#955db9"],"planet_colors":["#5f6f81","#7f5d5d"],"screen_resolution":[1536,864],"minimum_resolution":1,"trial":140,"drifts":[0.722,0.286,0.408,0.406],"drift_ix":3,"trial_type":"two-step-trial","trial_index":173,"time_elapsed":1736043,"internal_node_id":"0.0-154.0-0.0","task_version":"1.0","jspsych_version":"6.3.1","browser_interactions":0,"missing":false},{"state_1_ids":[0,1],"state_1_key":0,"state_1_choice":0,"state_1_rt":844.5,"transition":1,"state":0,"state_2_ids":[0,1],"state_2_key":1,"state_2_choice":1,"state_2_rt":2580.5,"outcome":0,"rocket_colors":["#48a782","#955db9"],"planet_colors":["#5f6f81","#7f5d5d"],"screen_resolution":[1536,864],"minimum_resolution":1,"trial":141,"drifts":[0.748,0.253,0.428,0.403],"drift_ix":3,"trial_type":"two-step-trial","trial_index":174,"time_elapsed":1741472,"internal_node_id":"0.0-155.0-0.0","task_version":"1.0","jspsych_version":"6.3.1","browser_interactions":0,"missing":false},{"state_1_ids":[1,0],"state_1_key":1,"state_1_choice":0,"state_1_rt":2867.8999999910593,"transition":1,"state":0,"state_2_ids":[0,1],"state_2_key":0,"state_2_choice":0,"state_2_rt":1364.7000000029802,"outcome":1,"rocket_colors":["#48a782","#955db9"],"planet_colors":["#5f6f81","#7f5d5d"],"screen_resolution":[1536,864],"minimum_resolution":1,"trial":142,"drifts":[0.73,0.307,0.452,0.407],"drift_ix":3,"trial_type":"two-step-trial","trial_index":175,"time_elapsed":1747710,"internal_node_id":"0.0-156.0-0.0","task_version":"1.0","jspsych_version":"6.3.1","browser_interactions":0,"missing":false},{"state_1_ids":[0,1],"state_1_key":0,"state_1_choice":0,"state_1_rt":1467.7000000029802,"transition":1,"state":0,"state_2_ids":[0,1],"state_2_key":0,"state_2_choice":0,"state_2_rt":946.7999999970198,"outcome":1,"rocket_colors":["#48a782","#955db9"],"planet_colors":["#5f6f81","#7f5d5d"],"screen_resolution":[1536,864],"minimum_resolution":1,"trial":143,"drifts":[0.722,0.322,0.426,0.388],"drift_ix":3,"trial_type":"two-step-trial","trial_index":176,"time_elapsed":1752131,"internal_node_id":"0.0-157.0-0.0","task_version":"1.0","jspsych_version":"6.3.1","browser_interactions":0,"missing":false},{"state_1_ids":[1,0],"state_1_key":1,"state_1_choice":0,"state_1_rt":4251.199999988079,"transition":0,"state":1,"state_2_ids":[2,3],"state_2_key":1,"state_2_choice":3,"state_2_rt":626.5999999940395,"outcome":1,"rocket_colors":["#48a782","#955db9"],"planet_colors":["#5f6f81","#7f5d5d"],"screen_resolution":[1536,864],"minimum_resolution":1,"trial":144,"drifts":[0.741,0.323,0.436,0.398],"drift_ix":3,"trial_type":"two-step-trial","trial_index":177,"time_elapsed":1759014,"internal_node_id":"0.0-158.0-0.0","task_version":"1.0","jspsych_version":"6.3.1","browser_interactions":0,"missing":false},{"state_1_ids":[0,1],"state_1_key":1,"state_1_choice":1,"state_1_rt":727.2000000029802,"transition":1,"state":1,"state_2_ids":[2,3],"state_2_key":1,"state_2_choice":3,"state_2_rt":558.1999999880791,"outcome":1,"rocket_colors":["#48a782","#955db9"],"planet_colo