[{"success":true,"timeout":false,"failed_images":[],"failed_audio":[],"failed_video":[],"trial_type":"preload","trial_index":0,"time_elapsed":239,"internal_node_id":"0.0-0.0","task_version":"1.0","jspsych_version":"6.3.1"},{"success":true,"trial_type":"fullscreen","trial_index":1,"time_elapsed":2590,"internal_node_id":"0.0-1.0","task_version":"1.0","jspsych_version":"6.3.1"},{"view_history":[{"page_index":0,"viewing_time":3049}],"rt":3049,"trial_type":"instructions","trial_index":2,"time_elapsed":5639,"internal_node_id":"0.0-2.0","task_version":"1.0","jspsych_version":"6.3.1"},{"responses":{"Q07":"1","Q01":"0","Q08":"3","Q03":"0","Q04":"0","Q05":"0","Q06":"1","Q02":"1"},"rt":54710,"item_order":[6,0,7,2,3,4,5,1],"radio_events":[7236,10870,14011,24553,31916,36585,42358,50926],"key_events":[],"mouse_events":[0,5487,7236,10870,14011,23477,24553,30826,31504,31916,35839,36585,42358,50926,54710],"straightlining":0.5,"zigzagging":0.5714285714285714,"honeypot":0,"survey":"mania","trial_type":"survey-template","trial_index":3,"time_elapsed":60355,"internal_node_id":"0.0-3.0","task_version":"1.0","jspsych_version":"6.3.1"},{"responses":{"Q04":"1","Q07":"1","Q01":"2","Q03":"2","Q08":"0","Q02":"1","Q06":"2","Q05":"2"},"rt":33706,"item_order":[3,6,0,2,7,1,5,4],"radio_events":[4392,5972,7079,8046,9386,14190,15561,19346,24201],"key_events":[],"mouse_events":[3447,4392,5972,6672,7079,8046,9386,14190,15561,17589,19346,24201,33706],"straightlining":0.5,"zigzagging":0.42857142857142855,"honeypot":0,"survey":"anxiety","trial_type":"survey-template","trial_index":4,"time_elapsed":94064,"internal_node_id":"0.0-4.0","task_version":"1.0","jspsych_version":"6.3.1"},{"responses":{"Q01":"2","Q03":"0","Q04":"1","Q02":"0","Q06":"0","Q07":"6","Q05":"2"},"rt":18263,"item_order":[0,2,3,1,5,6,4],"radio_events":[2593,3864,6877,7767,9141,10786,15640,15930],"key_events":[],"mouse_events":[2593,3864,5647,6877,7767,8320,9141,10786,14890,15640,15930,18263],"straightlining":0.42857142857142855,"zigzagging":0.5,"honeypot":0,"survey":"greed","trial_type":"survey-template","trial_index":5,"time_elapsed":112329,"internal_node_id":"0.0-5.0","task_version":"1.0","jspsych_version":"6.3.1"},{"responses":{"Q06":"1","Q04":"1","Q07":"0","Q05":"2","Q08":"0","Q02":"1","Q03":"1","Q01":"1"},"rt":42637,"item_order":[5,3,6,4,7,1,2,0],"radio_events":[7553,10983,13262,15497,22576,27266,33240,38399,41614],"key_events":[],"mouse_events":[7553,10983,13262,15497,22576,26782,27266,33240,38399,41271,41614,42637],"straightlining":0.625,"zigzagging":0.2857142857142857,"honeypot":0,"survey":"depression","trial_type":"survey-template","trial_index":6,"time_elapsed":154969,"internal_node_id":"0.0-6.0","task_version":"1.0","jspsych_version":"6.3.1"},{"responses":{"Q03":"6","Q05":"5","Q06":"5","Q01":"6","Q07":"3","Q04":"5","Q02":"6"},"rt":14474,"item_order":[2,4,5,0,6,3,1],"radio_events":[2961,4004,5944,7334,8464,9858,12341],"key_events":[],"mouse_events":[2115,2961,4004,5944,7334,8464,9858,12341,14474],"straightlining":0.2857142857142857,"zigzagging":0.3333333333333333,"honeypot":0,"survey":"artistic","trial_type":"survey-template","trial_index":7,"time_elapsed":169447,"internal_node_id":"0.0-7.0","task_version":"1.0","jspsych_version":"6.3.1"},{"view_history":"[{\"page_index\":0,\"viewing_time\":20246},{\"page_index\":1,\"viewing_time\":6495},{\"page_index\":2,\"viewing_time\":1968},{\"page_index\":3,\"viewing_time\":5961},{\"page_index\":2,\"viewing_time\":1185},{\"page_index\":3,\"viewing_time\":1497},{\"page_index\":4,\"viewing_time\":3304},{\"page_index\":5,\"viewing_time\":1992},{\"page_index\":6,\"viewing_time\":1648},{\"page_index\":7,\"viewing_time\":12682},{\"page_index\":8,\"viewing_time\":4386},{\"page_index\":9,\"viewing_time\":3344},{\"page_index\":10,\"viewing_time\":1584}]","rt":66292,"trial_type":"two-step-instructions","trial_index":8,"time_elapsed":235744,"internal_node_id":"0.0-8.0-1.0","task_version":"1.0","jspsych_version":"6.3.1"},{"responses":["left/right arrow keys","True","True"],"num_errors":0,"rt":16331,"quiz":1,"trial_type":"two-step-comprehension","trial_index":9,"time_elapsed":252078,"internal_node_id":"0.0-8.0-2.0","task_version":"1.0","jspsych_version":"6.3.1"},{"view_history":"[{\"page_index\":0,\"viewing_time\":5795}]","rt":5795,"phase":"instructions_1b","trial_type":"two-step-instructions","trial_index":10,"time_elapsed":257878,"internal_node_id":"0.0-9.0-0.0-0.0","task_version":"1.0","jspsych_version":"6.3.1"},{"state_2_ids":[0,1],"state_2_key":0,"state_2_choice":0,"state_2_rt":776,"outcome":0,"screen_resolution":[1280,720],"minimum_resolution":1,"trial_type":"alien-practice","trial_index":11,"time_elapsed":260872,"internal_node_id":"0.0-9.0-1.0-0.0","task_version":"1.0","jspsych_version":"6.3.1"},{"state_2_ids":[0,1],"state_2_key":1,"state_2_choice":1,"state_2_rt":496,"outcome":0,"screen_resolution":[1280,720],"minimum_resolution":1,"trial_type":"alien-practice","trial_index":12,"time_elapsed":263591,"internal_node_id":"0.0-9.0-2.0-0.0","task_version":"1.0","jspsych_version":"6.3.1"},{"state_2_ids":[0,1],"state_2_key":1,"state_2_choice":1,"state_2_rt":423,"outcome":1,"screen_resolution":[1280,720],"minimum_resolution":1,"trial_type":"alien-practice","trial_index":13,"time_elapsed":266228,"internal_node_id":"0.0-9.0-3.0-0.0","task_version":"1.0","jspsych_version":"6.3.1"},{"state_2_ids":[0,1],"state_2_key":1,"state_2_choice":1,"state_2_rt":378,"outcome":1,"screen_resolution":[1280,720],"minimum_resolution":1,"trial_type":"alien-practice","trial_index":14,"time_elapsed":268825,"internal_node_id":"0.0-9.0-4.0-0.0","task_version":"1.0","jspsych_version":"6.3.1"},{"state_2_ids":[0,1],"state_2_key":1,"state_2_choice":1,"state_2_rt":393,"outcome":1,"screen_resolution":[1280,720],"minimum_resolution":1,"trial_type":"alien-practice","trial_index":15,"time_elapsed":271435,"internal_node_id":"0.0-9.0-5.0-0.0","task_version":"1.0","jspsych_version":"6.3.1"},{"view_history":"[{\"page_index\":0,\"viewing_time\":2825},{\"page_index\":1,\"viewing_time\":1375},{\"page_index\":2,\"viewing_time\":4351},{\"page_index\":3,\"viewing_time\":4098},{\"page_index\":4,\"viewing_time\":1776},{\"page_index\":5,\"viewing_time\":1504}]","rt":15929,"trial_type":"two-step-instructions","trial_index":16,"time_elapsed":287370,"internal_node_id":"0.0-10.0-1.0","task_version":"1.0","jspsych_version":"6.3.1"},{"responses":["left/right arrow keys","False","True"],"num_errors":0,"rt":13709,"quiz":2,"trial_type":"two-step-comprehension","trial_index":17,"time_elapsed":301080,"internal_node_id":"0.0-10.0-2.0","task_version":"1.0","jspsych_version":"6.3.1"},{"view_history":"[{\"page_index\":0,\"viewing_time\":3352},{\"page_index\":1,\"viewing_time\":1921},{\"page_index\":2,\"viewing_time\":3384}]","rt":8657,"trial_type":"two-step-instructions","trial_index":18,"time_elapsed":309740,"internal_node_id":"0.0-11.0-0.0","task_version":"1.0","jspsych_version":"6.3.1"},{"state_1_ids":[0,1],"state_1_key":0,"state_1_choice":0,"state_1_rt":815,"transition":1,"state":0,"state_2_ids":[0,1],"state_2_key":1,"state_2_choice":1,"state_2_rt":644,"outcome":0,"rocket_colors":["#a75248","#486ea7"],"planet_colors":["#5b7c65","#706081"],"screen_resolution":[1280,720],"minimum_resolution":1,"trial":0,"trial_type":"two-step-trial","trial_index":19,"time_elapsed":313220,"internal_node_id":"0.0-11.0-1.0-0.0","task_version":"1.0","jspsych_version":"6.3.1","missing":false},{"state_1_ids":[0,1],"state_1_key":0,"state_1_choice":0,"state_1_rt":856,"transition":0,"state":1,"state_2_ids":[2,3],"state_2_key":0,"state_2_choice":2,"state_2_rt":1034,"outcome":0,"rocket_colors":["#a75248","#486ea7"],"planet_colors":["#5b7c65","#706081"],"screen_resolution":[1280,720],"minimum_resolution":1,"trial":0,"trial_type":"two-step-trial","trial_index":20,"time_elapsed":317137,"internal_node_id":"0.0-11.0-1.0-0.1","task_version":"1.0","jspsych_version":"6.3.1","missing":false},{"state_1_ids":[0,1],"state_1_key":0,"state_1_choice":0,"state_1_rt":812,"transition":1,"state":0,"state_2_ids":[0,1],"state_2_key":1,"state_2_choice":1,"state_2_rt":684,"outcome":0,"rocket_colors":["#a75248","#486ea7"],"planet_colors":["#5b7c65","#706081"],"screen_resolution":[1280,720],"minimum_resolution":1,"trial":0,"trial_type":"two-step-trial","trial_index":21,"time_elapsed":320641,"internal_node_id":"0.0-11.0-1.0-0.2","task_version":"1.0","jspsych_version":"6.3.1","missing":false},{"state_1_ids":[1,0],"state_1_key":0,"state_1_choice":1,"state_1_rt":1060,"transition":1,"state":1,"state_2_ids":[2,3],"state_2_key":1,"state_2_choice":3,"state_2_rt":985,"outcome":0,"rocket_colors":["#a75248","#486ea7"],"planet_colors":["#5b7c65","#706081"],"screen_resolution":[1280,720],"minimum_resolution":1,"trial":0,"trial_type":"two-step-trial","trial_index":22,"time_elapsed":324712,"internal_node_id":"0.0-11.0-1.0-0.3","task_version":"1.0","jspsych_version":"6.3.1","missing":false},{"state_1_ids":[0,1],"state_1_key":1,"state_1_choice":1,"state_1_rt":623,"transition":1,"state":1,"state_2_ids":[2,3],"state_2_key":0,"state_2_choice":2,"state_2_rt":944,"outcome":0,"rocket_colors":["#a75248","#486ea7"],"planet_colors":["#5b7c65","#706081"],"screen_resolution":[1280,720],"minimum_resolution":1,"trial":0,"trial_type":"two-step-trial","trial_index":23,"time_elapsed":328296,"internal_node_id":"0.0-11.0-1.0-0.4","task_version":"1.0","jspsych_version":"6.3.1","missing":false},{"state_1_ids":[1,0],"state_1_key":0,"state_1_choice":1,"state_1_rt":750,"transition":1,"state":1,"state_2_ids":[2,3],"state_2_key":1,"state_2_choice":3,"state_2_rt":684,"outcome":1,"rocket_colors":["#a75248","#486ea7"],"planet_colors":["#5b7c65","#706081"],"screen_resolution":[1280,720],"minimum_resolution":1,"trial":0,"trial_type":"two-step-trial","trial_index":24,"time_elapsed":331749,"internal_node_id":"0.0-11.0-1.0-0.5","task_version":"1.0","jspsych_version":"6.3.1","missing":false},{"state_1_ids":[0,1],"state_1_key":1,"state_1_choice":1,"state_1_rt":755,"transition":1,"state":1,"state_2_ids":[2,3],"state_2_key":1,"state_2_choice":3,"state_2_rt":520,"outcome":1,"rocket_colors":["#a75248","#486ea7"],"planet_colors":["#5b7c65","#706081"],"screen_resolution":[1280,720],"minimum_resolution":1,"trial":0,"trial_type":"two-step-trial","trial_index":25,"time_elapsed":335049,"internal_node_id":"0.0-11.0-1.0-0.6","task_version":"1.0","jspsych_version":"6.3.1","missing":false},{"state_1_ids":[1,0],"state_1_key":0,"state_1_choice":1,"state_1_rt":766,"transition":1,"state":1,"state_2_ids":[2,3],"state_2_key":1,"state_2_choice":3,"state_2_rt":575,"outcome":1,"rocket_colors":["#a75248","#486ea7"],"planet_colors":["#5b7c65","#706081"],"screen_resolution":[1280,720],"minimum_resolution":1,"trial":0,"trial_type":"two-step-trial","trial_index":26,"time_elapsed":338407,"internal_node_id":"0.0-11.0-1.0-0.7","task_version":"1.0","jspsych_version":"6.3.1","missing":false},{"state_1_ids":[1,0],"state_1_key":1,"state_1_choice":0,"state_1_rt":498,"transition":1,"state":0,"state_2_ids":[0,1],"state_2_key":1,"state_2_choice":1,"state_2_rt":641,"outcome":0,"rocket_colors":["#a75248","#486ea7"],"planet_colors":["#5b7c65","#706081"],"screen_resolution":[1280,720],"minimum_resolution":1,"trial":0,"trial_type":"two-step-trial","trial_index":27,"time_elapsed":341569,"internal_node_id":"0.0-11.0-1.0-0.8","task_version":"1.0","jspsych_version":"6.3.1","missing":false},{"state_1_ids":[1,0],"state_1_key":1,"state_1_choice":0,"state_1_rt":930,"transition":1,"state":0,"state_2_ids":[0,1],"state_2_key":0,"state_2_choice":0,"state_2_rt":739,"outcome":1,"rocket_colors":["#a75248","#486ea7"],"planet_colors":["#5b7c65","#706081"],"screen_resolution":[1280,720],"minimum_resolution":1,"trial":0,"trial_type":"two-step-trial","trial_index":28,"time_elapsed":345251,"internal_node_id":"0.0-11.0-1.0-0.9","task_version":"1.0","jspsych_version":"6.3.1","missing":false},{"view_history":"[{\"page_index\":0,\"viewing_time\":2213},{\"page_index\":1,\"viewing_time\":1728},{\"page_index\":2,\"viewing_time\":944},{\"page_index\":3,\"viewing_time\":2665},{\"page_index\":4,\"viewing_time\":5281},{\"page_index\":5,\"viewing_time\":7993},{\"page_index\":6,\"viewing_time\":2737}]","rt":23561,"trial_type":"two-step-instructions","trial_index":29,"time_elapsed":368816,"internal_node_id":"0.0-12.0-1.0","task_version":"1.0","jspsych_version":"6.3.1"},{"responses":["True","False","True"],"num_errors":0,"rt":8300,"quiz":3,"trial_type":"two-step-comprehension","trial_index":30,"time_elapsed":377118,"internal_node_id":"0.0-12.0-2.0","task_version":"1.0","jspsych_version":"6.3.1"},{"view_history":"[{\"page_index\":0,\"viewing_time\":2536},{\"page_index\":1,\"viewing_time\":1673},{\"page_index\":2,\"viewing_time\":1425}]","rt":5634,"trial_type":"two-step-instructions","trial_index":31,"time_elapsed":382755,"internal_node_id":"0.0-13.0","task_version":"1.0","jspsych_version":"6.3.1"},{"state_1_ids":[1,0],"state_1_key":0,"state_1_choice":1,"state_1_rt":837,"transition":0,"state":0,"state_2_ids":[0,1],"state_2_key":1,"state_2_choice":1,"state_2_rt":759,"outcome":0,"rocket_colors":["#48a782","#955db9"],"planet_colors":["#7f5d5d","#5f6f81"],"screen_resolution":[1280,720],"minimum_resolution":1,"trial":1,"drifts":[0.6,0.51,0.387,0.388],"drift_ix":0,"trial_type":"two-step-trial","trial_index":32,"time_elapsed":386377,"internal_node_id":"0.0-14.0-0.0","task_version":"1.0","jspsych_version":"6.3.1","browser_interactions":0,"missing":false},{"state_1_ids":[0,1],"state_1_key":1,"state_1_choice":1,"state_1_rt":530,"transition":0,"state":0,"state_2_ids":[0,1],"state_2_key":0,"state_2_choice":0,"state_2_rt":748,"outcome":0,"rocket_colors":["#48a782","#955db9"],"planet_colors":["#7f5d5d","#5f6f81"],"screen_resolution":[1280,720],"minimum_resolution":1,"trial":2,"drifts":[0.6,0.49,0.376,0.364],"drift_ix":0,"trial_type":"two-step-trial","trial_index":33,"time_elapsed":389665,"internal_node_id":"0.0-15.0-0.0","task_version":"1.0","jspsych_version":"6.3.1","browser_interactions":0,"missing":false},{"state_1_ids":[0,1],"state_1_key":1,"state_1_choice":1,"state_1_rt":530,"transition":1,"state":1,"state_2_ids":[2,3],"state_2_key":0,"state_2_choice":2,"state_2_rt":971,"outcome":0,"rocket_colors":["#48a782","#955db9"],"planet_colors":["#7f5d5d","#5f6f81"],"screen_resolution":[1280,720],"minimum_resolution":1,"trial":3,"drifts":[0.612,0.488,0.376,0.385],"drift_ix":0,"trial_type":"two-step-trial","trial_index":34,"time_elapsed":393186,"internal_node_id":"0.0-16.0-0.0","task_version":"1.0","jspsych_version":"6.3.1","browser_interactions":0,"missing":false},{"state_1_ids":[0,1],"state_1_key":1,"state_1_choice":1,"state_1_rt":528,"transition":0,"state":0,"state_2_ids":[0,1],"state_2_key":0,"state_2_choice":0,"state_2_rt":841,"outcome":0,"rocket_colors":["#48a782","#955db9"],"planet_colors":["#7f5d5d","#5f6f81"],"screen_resolution":[1280,720],"minimum_resolution":1,"trial":4,"drifts":[0.659,0.517,0.37,0.352],"drift_ix":0,"trial_type":"two-step-trial","trial_index":35,"time_elapsed":396584,"internal_node_id":"0.0-17.0-0.0","task_version":"1.0","jspsych_version":"6.3.1","browser_interactions":0,"missing":false},{"state_1_ids":[1,0],"state_1_key":1,"state_1_choice":0,"state_1_rt":852,"transition":1,"state":0,"state_2_ids":[0,1],"state_2_key":0,"state_2_choice":0,"state_2_rt":1186,"outcome":1,"rocket_colors":["#48a782","#955db9"],"planet_colors":["#7f5d5d","#5f6f81"],"screen_resolution":[1280,720],"minimum_resolution":1,"trial":5,"drifts":[0.676,0.497,0.349,0.378],"drift_ix":0,"trial_type":"two-step-trial","trial_index":36,"time_elapsed":400641,"internal_node_id":"0.0-18.0-0.0","task_version":"1.0","jspsych_version":"6.3.1","browser_interactions":0,"missing":false},{"state_1_ids":[1,0],"state_1_key":1,"state_1_choice":0,"state_1_rt":732,"transition":0,"state":1,"state_2_ids":[2,3],"state_2_key":0,"state_2_choice":2,"state_2_rt":1053,"outcome":1,"rocket_colors":["#48a782","#955db9"],"planet_colors":["#7f5d5d","#5f6f81"],"screen_resolution":[1280,720],"minimum_resolution":1,"trial":6,"drifts":[0.682,0.475,0.347,0.386],"drift_ix":0,"trial_type":"two-step-trial","trial_index":37,"time_elapsed":404437,"internal_node_id":"0.0-19.0-0.0","task_version":"1.0","jspsych_version":"6.3.1","browser_interactions":0,"missing":false},{"state_1_ids":[1,0],"state_1_key":0,"state_1_choice":1,"state_1_rt":879,"transition":1,"state":1,"state_2_ids":[2,3],"state_2_key":0,"state_2_choice":2,"state_2_rt":899,"outcome":0,"rocket_colors":["#48a782","#955db9"],"planet_colors":["#7f5d5d","#5f6f81"],"screen_resolution":[1280,720],"minimum_resolution":1,"trial":7,"drifts":[0.65,0.473,0.346,0.344],"drift_ix":0,"trial_type":"two-step-trial","trial_index":38,"time_elapsed":408237,"internal_node_id":"0.0-20.0-0.0","task_version":"1.0","jspsych_version":"6.3.1","browser_interactions":0,"missing":false},{"state_1_ids":[0,1],"state_1_key":1,"state_1_choice":1,"state_1_rt":802,"transition":1,"state":1,"state_2_ids":[2,3],"state_2_key":1,"state_2_choice":3,"state_2_rt":842,"outcome":1,"rocket_colors":["#48a782","#955db9"],"planet_colors":["#7f5d5d","#5f6f81"],"screen_resolution":[1280,720],"minimum_resolution":1,"trial":8,"drifts":[0.637,0.456,0.371,0.318],"drift_ix":0,"trial_type":"two-step-trial","trial_index":39,"time_elapsed":411892,"internal_node_id":"0.0-21.0-0.0","task_version":"1.0","jspsych_version":"6.3.1","browser_interactions":0,"missing":false},{"state_1_ids":[1,0],"state_1_key":0,"state_1_choice":1,"state_1_rt":954,"transition":0,"state":0,"state_2_ids":[0,1],"state_2_key":0,"state_2_choice":0,"state_2_rt":738,"outcome":1,"rocket_colors":["#48a782","#955db9"],"planet_colors":["#7f5d5d","#5f6f81"],"screen_resolution":[1280,720],"minimum_resolution":1,"trial":9,"drifts":[0.637,0.443,0.354,0.311],"drift_ix":0,"trial_type":"two-step-trial","trial_index":40,"time_elapsed":415605,"internal_node_id":"0.0-22.0-0.0","task_version":"1.0","jspsych_version":"6.3.1","browser_interactions":0,"missing":false},{"state_1_ids":[0,1],"state_1_key":1,"state_1_choice":1,"state_1_rt":602,"transition":1,"state":1,"state_2_ids":[2,3],"state_2_key":0,"state_2_choice":2,"state_2_rt":1214,"outcome":0,"rocket_colors":["#48a782","#955db9"],"planet_colors":["#7f5d5d","#5f6f81"],"screen_resolution":[1280,720],"minimum_resolution":1,"trial":10,"drifts":[0.63,0.435,0.315,0.32],"drift_ix":0,"trial_type":"two-step-trial","trial_index":41,"time_elapsed":419429,"internal_node_id":"0.0-23.0-0.0","task_version":"1.0","jspsych_version":"6.3.1","browser_interactions":0,"missing":false},{"state_1_ids":[1,0],"state_1_key":0,"state_1_choice":1,"state_1_rt":842,"transition":0,"state":0,"state_2_ids":[0,1],"state_2_key":0,"state_2_choice":0,"state_2_rt":897,"outcome":1,"rocket_colors":["#48a782","#955db9"],"planet_colors":["#7f5d5d","#5f6f81"],"screen_resolution":[1280,720],"minimum_resolution":1,"trial":11,"drifts":[0.599,0.48,0.291,0.32],"drift_ix":0,"trial_type":"two-step-trial","trial_index":42,"time_elapsed":423190,"internal_node_id":"0.0-24.0-0.0","task_version":"1.0","jspsych_version":"6.3.1","browser_interactions":0,"missing":false},{"state_1_ids":[0,1],"state_1_key":0,"state_1_choice":0,"state_1_rt":858,"transition":0,"state":1,"state_2_ids":[2,3],"state_2_key":1,"state_2_choice":3,"state_2_rt":863,"outcome":0,"rocket_colors":["#48a782","#955db9"],"planet_colors":["#7f5d5d","#5f6f81"],"screen_resolution":[1280,720],"minimum_resolution":1,"trial":12,"drifts":[0.573,0.445,0.3,0.33],"drift_ix":0,"trial_type":"two-step-trial","trial_index":43,"time_elapsed":426921,"internal_node_id":"0.0-25.0-0.0","task_version":"1.0","jspsych_version":"6.3.1","browser_interactions":0,"missing":false},{"state_1_ids":[0,1],"state_1_key":0,"state_1_choice":0,"state_1_rt":560,"transition":0,"state":1,"state_2_ids":[2,3],"state_2_key":0,"state_2_choice":2,"state_2_rt":601,"outcome":1,"rocket_colors":["#48a782","#955db9"],"planet_colors":["#7f5d5d","#5f6f81"],"screen_resolution":[1280,720],"minimum_resolution":1,"trial":13,"drifts":[0.6,0.4,0.3,0.32],"drift_ix":0,"trial_type":"two-step-trial","trial_index":44,"time_elapsed":430099,"internal_node_id":"0.0-26.0-0.0","task_version":"1.0","jspsych_version":"6.3.1","browser_interactions":0,"missing":false},{"state_1_ids":[1,0],"state_1_key":1,"state_1_choice":0,"state_1_rt":495,"transition":1,"state":0,"state_2_ids":[0,1],"state_2_key":0,"state_2_choice":0,"state_2_rt":774,"outcome":1,"rocket_colors":["#48a782","#955db9"],"planet_colors":["#7f5d5d","#5f6f81"],"screen_resolution":[1280,720],"minimum_resolution":1,"trial":14,"drifts":[0.601,0.428,0.308,0.274],"drift_ix":0,"trial_type":"two-step-trial","trial_index":45,"time_elapsed":433384,"internal_node_id":"0.0-27.0-0.0","task_version":"1.0","jspsych_version":"6.3.1","browser_interactions":0,"missing":false},{"state_1_ids":[0,1],"state_1_key":0,"state_1_choice":0,"state_1_rt":771,"transition":1,"state":0,"state_2_ids":[0,1],"state_2_key":0,"state_2_choice":0,"state_2_rt":779,"outcome":1,"rocket_colors":["#48a782","#955db9"],"planet_colors":["#7f5d5d","#5f6f81"],"screen_resolution":[1280,720],"minimum_resolution":1,"trial":15,"drifts":[0.588,0.441,0.345,0.295],"drift_ix":0,"trial_type":"two-step-trial","trial_index":46,"time_elapsed":436941,"internal_node_id":"0.0-28.0-0.0","task_version":"1.0","jspsych_version":"6.3.1","browser_interactions":0,"missing":false},{"state_1_ids":[0,1],"state_1_key":0,"state_1_choice":0,"state_1_rt":662,"transition":1,"state":0,"state_2_ids":[0,1],"state_2_key":0,"state_2_choice":0,"state_2_rt":607,"outcome":0,"rocket_colors":["#48a782","#955db9"],"planet_colors":["#7f5d5d","#5f6f81"],"screen_resolution":[1280,720],"minimum_resolution":1,"trial":16,"drifts":[0.641,0.463,0.39,0.301],"drift_ix":0,"trial_type":"two-step-trial","trial_index":47,"time_elapsed":440235,"internal_node_id":"0.0-29.0-0.0","task_version":"1.0","jspsych_version":"6.3.1","browser_interactions":0,"missing":false},{"state_1_ids":[0,1],"state_1_key":0,"state_1_choice":0,"state_1_rt":720,"transition":0,"state":1,"state_2_ids":[2,3],"state_2_key":0,"state_2_choice":2,"state_2_rt":972,"outcome":0,"rocket_colors":["#48a782","#955db9"],"planet_colors":["#7f5d5d","#5f6f81"],"screen_resolution":[1280,720],"minimum_resolution":1,"trial":17,"drifts":[0.649,0.465,0.413,0.325],"drift_ix":0,"trial_type":"two-step-trial","trial_index":48,"time_elapsed":443944,"internal_node_id":"0.0-30.0-0.0","task_version":"1.0","jspsych_version":"6.3.1","browser_interactions":0,"missing":false},{"state_1_ids":[1,0],"state_1_key":0,"state_1_choice":1,"state_1_rt":684,"transition":1,"state":1,"state_2_ids":[2,3],"state_2_key":1,"state_2_choice":3,"state_2_rt":817,"outcome":0,"rocket_colors":["#48a782","#955db9"],"planet_colors":["#7f5d5d","#5f6f81"],"screen_resolution":[1280,720],"minimum_resolution":1,"trial":18,"drifts":[0.627,0.478,0.397,0.324],"drift_ix":0,"trial_type":"two-step-trial","trial_index":49,"time_elapsed":447466,"internal_node_id":"0.0-31.0-0.0","task_version":"1.0","jspsych_version":"6.3.1","browser_interactions":0,"missing":false},{"state_1_ids":[1,0],"state_1_key":1,"state_1_choice":0,"state_1_rt":746,"transition":1,"state":0,"state_2_ids":[0,1],"state_2_key":0,"state_2_choice":0,"state_2_rt":666,"outcome":1,"rocket_colors":["#48a782","#955db9"],"planet_colors":["#7f5d5d","#5f6f81"],"screen_resolution":[1280,720],"minimum_resolution":1,"trial":19,"drifts":[0.656,0.491,0.375,0.348],"drift_ix":0,"trial_type":"two-step-trial","trial_index":50,"time_elapsed":450887,"internal_node_id":"0.0-32.0-0.0","task_version":"1.0","jspsych_version":"6.3.1","browser_interactions":0,"missing":false},{"state_1_ids":[1,0],"state_1_key":1,"state_1_choice":0,"state_1_rt":543,"transition":1,"state":0,"state_2_ids":[0,1],"state_2_key":0,"state_2_choice":0,"state_2_rt":518,"outcome":0,"rocket_colors":["#48a782","#955db9"],"planet_colors":["#7f5d5d","#5f6f81"],"screen_resolution":[1280,720],"minimum_resolution":1,"trial":20,"drifts":[0.64,0.468,0.396,0.335],"drift_ix":0,"trial_type":"two-step-trial","trial_index":51,"time_elapsed":453962,"internal_node_id":"0.0-33.0-0.0","task_version":"1.0","jspsych_version":"6.3.1","browser_interactions":0,"missing":false},{"state_1_ids":[1,0],"state_1_key":1,"state_1_choice":0,"state_1_rt":524,"transition":0,"state":1,"state_2_ids":[2,3],"state_2_key":1,"state_2_choice":3,"state_2_rt":886,"outcome":0,"rocket_colors":["#48a782","#955db9"],"planet_colors":["#7f5d5d","#5f6f81"],"screen_resolution":[1280,720],"minimum_resolution":1,"trial":21,"drifts":[0.633,0.467,0.352,0.33],"drift_ix":0,"trial_type":"two-step-trial","trial_index":52,"time_elapsed":457396,"internal_node_id":"0.0-34.0-0.0","task_version":"1.0","jspsych_version":"6.3.1","browser_interactions":0,"missing":false},{"state_1_ids":[1,0],"state_1_key":0,"state_1_choice":1,"state_1_rt":810,"transition":1,"state":1,"state_2_ids":[2,3],"state_2_key":0,"state_2_choice":2,"state_2_rt":1006,"outcome":1,"rocket_colors":["#48a782","#955db9"],"planet_colors":["#7f5d5d","#5f6f81"],"screen_resolution":[1280,720],"minimum_resolution":1,"trial":22,"drifts":[0.591,0.462,0.379,0.373],"drift_ix":0,"trial_type":"two-step-trial","trial_index":53,"time_elapsed":461221,"internal_node_id":"0.0-35.0-0.0","task_version":"1.0","jspsych_version":"6.3.1","browser_interactions":0,"missing":false},{"state_1_ids":[0,1],"state_1_key":1,"state_1_choice":1,"state_1_rt":658,"transition":1,"state":1,"state_2_ids":[2,3],"state_2_key":0,"state_2_choice":2,"state_2_rt":579,"outcome":1,"rocket_colors":["#48a782","#955db9"],"planet_colors":["#7f5d5d","#5f6f81"],"screen_resolution":[1280,720],"minimum_resolution":1,"trial":23,"drifts":[0.612,0.436,0.44,0.331],"drift_ix":0,"trial_type":"two-step-trial","trial_index":54,"time_elapsed":464484,"internal_node_id":"0.0-36.0-0.0","task_version":"1.0","jspsych_version":"6.3.1","browser_interactions":0,"missing":false},{"state_1_ids":[1,0],"state_1_key":0,"state_1_choice":1,"state_1_rt":548,"transition":1,"state":1,"state_2_ids":[2,3],"state_2_key":0,"state_2_choice":2,"state_2_rt":594,"outcome":0,"rocket_colors":["#48a782","#955db9"],"planet_colors":["#7f5d5d","#5f6f81"],"screen_resolution":[1280,720],"minimum_resolution":1,"trial":24,"drifts":[0.612,0.434,0.473,0.352],"drift_ix":0,"trial_type":"two-step-trial","trial_index":55,"time_elapsed":467642,"internal_node_id":"0.0-37.0-0.0","task_version":"1.0","jspsych_version":"6.3.1","browser_interactions":0,"missing":false},{"state_1_ids":[1,0],"state_1_key":0,"state_1_choice":1,"state_1_rt":494,"transition":1,"state":1,"state_2_ids":[2,3],"state_2_key":0,"state_2_choice":2,"state_2_rt":541,"outcome":0,"rocket_colors":["#48a782","#955db9"],"planet_colors":["#7f5d5d","#5f6f81"],"screen_resolution":[1280,720],"minimum_resolution":1,"trial":25,"drifts":[0.568,0.394,0.47,0.342],"drift_ix":0,"trial_type":"two-step-trial","trial_index":56,"time_elapsed":470695,"internal_node_id":"0.0-38.0-0.0","task_version":"1.0","jspsych_version":"6.3.1","browser_interactions":0,"missing":false},{"state_1_ids":[0,1],"state_1_key":0,"state_1_choice":0,"state_1_rt":715,"transition":1,"state":0,"state_2_ids":[0,1],"state_2_key":0,"state_2_choice":0,"state_2_rt":500,"outcome":1,"rocket_colors":["#48a782","#955db9"],"planet_colors":["#7f5d5d","#5f6f81"],"screen_resolution":[1280,720],"minimum_resolution":1,"trial":26,"drifts":[0.601,0.434,0.455,0.342],"drift_ix":0,"trial_type":"two-step-trial","trial_index":57,"time_elapsed":473926,"internal_node_id":"0.0-39.0-0.0","task_version":"1.0","jspsych_version":"6.3.1","browser_interactions":0,"missing":false},{"state_1_ids":[0,1],"state_1_key":0,"state_1_choice":0,"state_1_rt":563,"transition":1,"state":0,"state_2_ids":[0,1],"state_2_key":0,"state_2_choice":0,"state_2_rt":557,"outcome":0,"rocket_colors":["#48a782","#955db9"],"planet_colors":["#7f5d5d","#5f6f81"],"screen_resolution":[1280,720],"minimum_resolution":1,"trial":27,"drifts":[0.539,0.464,0.435,0.334],"drift_ix":0,"trial_type":"two-step-trial","trial_index":58,"time_elapsed":477071,"internal_node_id":"0.0-40.0-0.0","task_version":"1.0","jspsych_version":"6.3.1","browser_interactions":0,"missing":false},{"state_1_ids":[1,0],"state_1_key":1,"state_1_choice":0,"state_1_rt":749,"transition":0,"state":1,"state_2_ids":[2,3],"state_2_key":0,"state_2_choice":2,"state_2_rt":816,"outcome":0,"rocket_colors":["#48a782","#955db9"],"planet_colors":["#7f5d5d","#5f6f81"],"screen_resolution":[1280,720],"minimum_resolution":1,"trial":28,"drifts":[0.523,0.476,0.415,0.352],"drift_ix":0,"trial_type":"two-step-trial","trial_index":59,"time_elapsed":480648,"internal_node_id":"0.0-41.0-0.0","task_version":"1.0","jspsych_version":"6.3.1","browser_interactions":0,"missing":false},{"state_1_ids":[1,0],"state_1_key":1,"state_1_choice":0,"state_1_rt":643,"transition":1,"state":0,"state_2_ids":[0,1],"state_2_key":0,"state_2_choice":0,"state_2_rt":670,"outcome":0,"rocket_colors":["#48a782","#955db9"],"planet_colors":["#7f5d5d","#5f6f81"],"screen_resolution":[1280,720],"minimum_resolution":1,"trial":29,"drifts":[0.515,0.504,0.459,0.339],"drift_ix":0,"trial_type":"two-step-trial","trial_index":60,"time_elapsed":483974,"internal_node_id":"0.0-42.0-0.0","task_version":"1.0","jspsych_version":"6.3.1","browser_interactions":0,"missing":false},{"state_1_ids":[0,1],"state_1_key":1,"state_1_choice":1,"state_1_rt":1014,"transition":1,"state":1,"state_2_ids":[2,3],"state_2_key":1,"state_2_choice":3,"state_2_rt":811,"outcome":1,"rocket_colors":["#48a782","#955db9"],"planet_colors":["#7f5d5d","#5f6f81"],"screen_resolution":[1280,720],"minimum_resolution":1,"trial":30,"drifts":[0.491,0.488,0.491,0.323],"drift_ix":0,"trial_type":"two-step-trial","trial_index":61,"time_elapsed":487824,"internal_node_id":"0.0-43.0-0.0","task_version":"1.0","jspsych_version":"6.3.1","browser_interactions":0,"missing":false},{"state_1_ids":[0,1],"state_1_key":1,"state_1_choice":1,"state_1_rt":540,"transition":1,"state":1,"state_2_ids":[2,3],"state_2_key":1,"state_2_choice":3,"state_2_rt":556,"outcome":0,"rocket_colors":["#48a782","#955db9"],"planet_colors":["#7f5d5d","#5f6f81"],"screen_resolution":[1280,720],"minimum_resolution":1,"trial":31,"drifts":[0.478,0.502,0.474,0.353],"drift_ix":0,"trial_type":"two-step-trial","trial_index":62,"time_elapsed":490933,"internal_node_id":"0.0-44.0-0.0","task_version":"1.0","jspsych_version":"6.3.1","browser_interactions":0,"missing":false},{"state_1_ids":[0,1],"state_1_key":0,"state_1_choice":0,"state_1_rt":872,"transition":1,"state":0,"state_2_ids":[0,1],"state_2_key":1,"state_2_choice":1,"state_2_rt":580,"outcome":0,"rocket_colors":["#48a782","#955db9"],"planet_colors":["#7f5d5d","#5f6f81"],"screen_resolution":[1280,720],"minimum_resolution":1,"trial":32,"drifts":[0.459,0.453,0.457,0.338],"drift_ix":0,"trial_type":"two-step-trial","trial_index":63,"time_elapsed":494391,"internal_node_id":"0.0-45.0-0.0","task_version":"1.0","jspsych_version":"6.3.1","browser_interactions":0,"missing":false},{"state_1_ids":[0,1],"state_1_key":0,"state_1_choice":0,"state_1_rt":830,"transition":1,"state":0,"state_2_ids":[0,1],"state_2_key":0,"state_2_choice":0,"state_2_rt":802,"outcome":0,"rocket_colors":["#48a782","#955db9"],"planet_colors":["#7f5d5d","#5f6f81"],"screen_resolution":[1280,720],"minimum_resolution":1,"trial":33,"drifts":[0.435,0.461,0.485,0.304],"drift_ix":0,"trial_type":"two-step-trial","trial_index":64,"time_elapsed":498050,"internal_node_id":"0.0-46.0-0.0","task_version":"1.0","jspsych_version":"6.3.1","browser_interactions":0,"missing":false},{"state_1_ids":[0,1],"state_1_key":1,"state_1_choice":1,"state_1_rt":612,"transition":1,"state":1,"state_2_ids":[2,3],"state_2_key":1,"state_2_choice":3,"state_2_rt":722,"outcome":1,"rocket_colors":["#48a782","#955db9"],"planet_colors":["#7f5d5d","#5f6f81"],"screen_resolution":[1280,720],"minimum_resolution":1,"trial":34,"drifts":[0.425,0.445,0.448,0.302],"drift_ix":0,"trial_type":"two-step-trial","trial_index":65,"time_elapsed":501407,"internal_node_id":"0.0-47.0-0.0","task_version":"1.0","jspsych_version":"6.3.1","browser_interactions":0,"missing":false},{"state_1_ids":[0,1],"state_1_key":1,"state_1_choice":1,"state_1_rt":518,"transition":1,"state":1,"state_2_ids":[2,3],"state_2_key":1,"state_2_choice":3,"state_2_rt":496,"outcome":0,"rocket_colors":["#48a782","#955db9"],"planet_colors":["#7f5d5d","#5f6f81"],"screen_resolution":[1280,720],"minimum_resolution":1,"trial":35,"drifts":[0.398,0.417,0.401,0.285],"drift_ix":0,"trial_type":"two-step-trial","trial_index":66,"time_elapsed":504446,"internal_node_id":"0.0-48.0-0.0","task_version":"1.0","jspsych_version":"6.3.1","browser_interactions":0,"missing":false},{"state_1_ids":[1,0],"state_1_key":0,"state_1_choice":1,"state_1_rt":728,"transition":1,"state":1,"state_2_ids":[2,3],"state_2_key":1,"state_2_choice":3,"state_2_rt":408,"outcome":0,"rocket_colors":["#48a782","#955db9"],"planet_colors":["#7f5d5d","#5f6f81"],"screen_resolution":[1280,720],"minimum_resolution":1,"trial":36,"drifts":[0.438,0.401,0.404,0.302],"drift_ix":0,"trial_type":"two-step-trial","trial_index":67,"time_elapsed":507604,"internal_node_id":"0.0-49.0-0.0","task_version":"1.0","jspsych_version":"6.3.1","browser_interactions":0,"missing":false},{"state_1_ids":[1,0],"state_1_key":0,"state_1_choice":1,"state_1_rt":571,"transition":1,"state":1,"state_2_ids":[2,3],"state_2_key":0,"state_2_choice":2,"state_2_rt":524,"outcome":0,"rocket_colors":["#48a782","#955db9"],"planet_colors":["#7f5d5d","#5f6f81"],"screen_resolution":[1280,720],"minimum_resolution":1,"trial":37,"drifts":[0.446,0.383,0.396,0.273],"drift_ix":0,"trial_type":"two-step-trial","trial_index":68,"time_elapsed":510728,"internal_node_id":"0.0-50.0-0.0","task_version":"1.0","jspsych_version":"6.3.1","browser_interactions":0,"missing":false},{"state_1_ids":[1,0],"state_1_key":1,"state_1_choice":0,"state_1_rt":457,"transition":0,"state":1,"state_2_ids":[2,3],"state_2_key":0,"state_2_choice":2,"state_2_rt":959,"outcome":0,"rocket_colors":["#48a782","#955db9"],"planet_colors":["#7f5d5d","#5f6f81"],"screen_resolution":[1280,720],"minimum_resolution":1,"trial":38,"drifts":[0.473,0.425,0.406,0.259],"drift_ix":0,"trial_type":"two-step-trial","trial_index":69,"time_elapsed":514149,"internal_node_id":"0.0-51.0-0.0","task_version":"1.0","jspsych_version":"6.3.1","browser_interactions":0,"missing":false},{"state_1_ids":[0,1],"state_1_key":0,"state_1_choice":0,"state_1_rt":485,"transition":1,"state":0,"state_2_ids":[0,1],"state_2_key":0,"state_2_choice":0,"state_2_rt":660,"outcome":0,"rocket_colors":["#48a782","#955db9"],"planet_colors":["#7f5d5d","#5f6f81"],"screen_resolution":[1280,720],"minimum_resolution":1,"trial":39,"drifts":[0.491,0.414,0.381,0.251],"drift_ix":0,"trial_type":"two-step-trial","trial_index":70,"time_elapsed":517306,"internal_node_id":"0.0-52.0-0.0","task_version":"1.0","jspsych_version":"6.3.1","browser_interactions":0,"missing":false},{"state_1_ids":[1,0],"state_1_key":1,"state_1_choice":0,"state_1_rt":543,"transition":1,"state":0,"state_2_ids":[0,1],"state_2_key":1,"state_2_choice":1,"state_2_rt":530,"outcome":0,"rocket_colors":["#48a782","#955db9"],"planet_colors":["#7f5d5d","#5f6f81"],"screen_resolution":[1280,720],"minimum_resolution":1,"trial":40,"drifts":[0.46,0.404,0.375,0.267],"drift_ix":0,"trial_type":"two-step-trial","trial_index":71,"time_elapsed":520392,"internal_node_id":"0.0-53.0-0.0","task_version":"1.0","jspsych_version":"6.3.1","browser_interactions":0,"missing":false},{"state_1_ids":[0,1],"state_1_key":0,"state_1_choice":0,"state_1_rt":1194,"transition":1,"state":0,"state_2_ids":[0,1],"state_2_key":1,"state_2_choice":1,"state_2_rt":606,"outcome":0,"rocket_colors":["#48a782","#955db9"],"planet_colors":["#7f5d5d","#5f6f81"],"screen_resolution":[1280,720],"minimum_resolution":1,"trial":41,"drifts":[0.47,0.46,0.37,0.279],"drift_ix":0,"trial_type":"two-step-trial","trial_index":72,"time_elapsed":524204,"internal_node_id":"0.0-54.0-0.0","task_version":"1.0","jspsych_version":"6.3.1","browser_interactions":0,"missing":false},{"state_1_ids":[0,1],"state_1_key":1,"state_1_choice":1,"state_1_rt":471,"transition":0,"state":0,"state_2_ids":[0,1],"state_2_key":0,"state_2_choice":0,"state_2_rt":769,"outcome":0,"rocket_colors":["#48a782","#955db9"],"planet_colors":["#7f5d5d","#5f6f81"],"screen_resolution":[1280,720],"minimum_resolution":1,"trial":42,"drifts":[0.454,0.461,0.369,0.275],"drift_ix":0,"trial_type":"two-step-trial","trial_index":73,"time_elapsed":527463,"internal_node_id":"0.0-55.0-0.0","task_version":"1.0","jspsych_version":"6.3.1","browser_interactions":0,"missing":false},{"state_1_ids":[0,1],"state_1_key":0,"state_1_choice":0,"state_1_rt":516,"transition":1,"state":0,"state_2_ids":[0,1],"state_2_key":1,"state_2_choice":1,"state_2_rt":820,"outcome":1,"rocket_colors":["#48a782","#955db9"],"planet_colors":["#7f5d5d","#5f6f81"],"screen_resolution":[1280,720],"minimum_resolution":1,"trial":43,"drifts":[0.452,0.459,0.392,0.293],"drift_ix":0,"trial_type":"two-step-trial","trial_index":74,"time_elapsed":530811,"internal_node_id":"0.0-56.0-0.0","task_version":"1.0","jspsych_version":"6.3.1","browser_interactions":0,"missing":false},{"state_1_ids":[1,0],"state_1_key":1,"state_1_choice":0,"state_1_rt":522,"transition":1,"state":0,"state_2_ids":[0,1],"state_2_key":1,"state_2_choice":1,"state_2_rt":547,"outcome":0,"rocket_colors":["#48a782","#955db9"],"planet_colors":["#7f5d5d","#5f6f81"],"screen_resolution":[1280,720],"minimum_resolution":1,"trial":44,"drifts":[0.439,0.428,0.412,0.329],"drift_ix":0,"trial_type":"two-step-trial","trial_index":75,"time_elapsed":533906,"internal_node_id":"0.0-57.0-0.0","task_version":"1.0","jspsych_version":"6.3.1","browser_interactions":0,"missing":false},{"state_1_ids":[1,0],"state_1_key":1,"state_1_choice":0,"state_1_rt":514,"transition":1,"state":0,"state_2_ids":[0,1],"state_2_key":1,"state_2_choice":1,"state_2_rt":536,"outcome":1,"rocket_colors":["#48a782","#955db9"],"planet_colors":["#7f5d5d","#5f6f81"],"screen_resolution":[1280,720],"minimum_resolution":1,"trial":45,"drifts":[0.455,0.384,0.41,0.354],"drift_ix":0,"trial_type":"two-step-trial","trial_index":76,"time_elapsed":536971,"internal_node_id":"0.0-58.0-0.0","task_version":"1.0","jspsych_version":"6.3.1","browser_interactions":0,"missing":false},{"state_1_ids":[1,0],"state_1_key":0,"state_1_choice":1,"state_1_rt":770,"transition":1,"state":1,"state_2_ids":[2,3],"state_2_key":1,"state_2_choice":3,"state_2_rt":826,"outcome":1,"rocket_colors":["#48a782","#955db9"],"planet_colors":["#7f5d5d","#5f6f81"],"screen_resolution":[1280,720],"minimum_resolution":1,"trial":46,"drifts":[0.471,0.375,0.394,0.336],"drift_ix":0,"trial_type":"two-step-trial","trial_index":77,"time_elapsed":540596,"internal_node_id":"0.0-59.0-0.0","task_version":"1.0","jspsych_version":"6.3.1","browser_interactions":0,"missing":false},{"state_1_ids":[1,0],"state_1_key":0,"state_1_choice":1,"state_1_rt":506,"transition":1,"state":1,"state_2_ids":[2,3],"state_2_key":1,"state_2_choice":3,"state_2_rt":530,"outcome":1,"rocket_colors":["#48a782","#955db9"],"planet_colors":["#7f5d5d","#5f6f81"],"screen_resolution":[1280,720],"minimum_resolution":1,"trial":47,"drifts":[0.423,0.325,0.351,0.294],"drift_ix":0,"trial_type":"two-step-trial","trial_index":78,"time_elapsed":543646,"internal_node_id":"0.0-60.0-0.0","task_version":"1.0","jspsych_version":"6.3.1","browser_interactions":0,"missing":false},{"state_1_ids":[0,1],"state_1_key":1,"state_1_choice":1,"state_1_rt":528,"transition":1,"state":1,"state_2_ids":[2,3],"state_2_key":1,"state_2_choice":3,"state_2_rt":659,"outcome":1,"rocket_colors":["#48a782","#955db9"],"planet_colors":["#7f5d5d","#5f6f81"],"screen_resolution":[1280,720],"minimum_resolution":1,"trial":48,"drifts":[0.458,0.334,0.355,0.324],"drift_ix":0,"trial_type":"two-step-trial","trial_index":79,"time_elapsed":546861,"internal_node_id":"0.0-61.0-0.0","task_version":"1.0","jspsych_version":"6.3.1","browser_interactions":0,"missing":false},{"state_1_ids":[0,1],"state_1_key":1,"state_1_choice":1,"state_1_rt":522,"transition":1,"state":1,"state_2_ids":[2,3],"state_2_key":1,"state_2_choice":3,"state_2_rt":567,"outcome":1,"rocket_colors":["#48a782","#955db9"],"planet_colors":["#7f5d5d","#5f6f81"],"screen_resolution":[1280,720],"minimum_resolution":1,"trial":49,"drifts":[0.502,0.353,0.35,0.322],"drift_ix":0,"trial_type":"two-step-trial","trial_index":80,"time_elapsed":549961,"internal_node_id":"0.0-62.0-0.0","task_version":"1.0","jspsych_version":"6.3.1","browser_interactions":0,"missing":false},{"state_1_ids":[0,1],"state_1_key":1,"state_1_choice":1,"state_1_rt":510,"transition":1,"state":1,"state_2_ids":[2,3],"state_2_key":1,"state_2_choice":3,"state_2_rt":540,"outcome":1,"rocket_colors":["#48a782","#955db9"],"planet_colors":["#7f5d5d","#5f6f81"],"screen_resolution":[1280,720],"minimum_resolution":1,"trial":50,"drifts":[0.464,0.368,0.367,0.351],"drift_ix":0,"trial_type":"two-step-trial","trial_index":81,"time_elapsed":553035,"internal_node_id":"0.0-63.0-0.0","task_version":"1.0","jspsych_version":"6.3.1","browser_interactions":0,"missing":false},{"state_1_ids":[1,0],"state_1_key":0,"state_1_choice":1,"state_1_rt":452,"transition":1,"state":1,"state_2_ids":[2,3],"state_2_key":1,"state_2_choice":3,"state_2_rt":534,"outcome":0,"rocket_colors":["#48a782","#955db9"],"planet_colors":["#7f5d5d","#5f6f81"],"screen_resolution":[1280,720],"minimum_resolution":1,"trial":51,"drifts":[0.459,0.421,0.341,0.301],"drift_ix":0,"trial_type":"two-step-trial","trial_index":82,"time_elapsed":556040,"internal_node_id":"0.0-64.0-0.0","task_version":"1.0","jspsych_version":"6.3.1","browser_interactions":0,"missing":false},{"state_1_ids":[1,0],"state_1_key":0,"state_1_choice":1,"state_1_rt":560,"transition":1,"state":1,"state_2_ids":[2,3],"state_2_key":1,"state_2_choice":3,"state_2_rt":489,"outcome":1,"rocket_colors":["#48a782","#955db9"],"planet_colors":["#7f5d5d","#5f6f81"],"screen_resolution":[1280,720],"minimum_resolution":1,"trial":52,"drifts":[0.496,0.401,0.388,0.295],"drift_ix":0,"trial_type":"two-step-trial","trial_index":83,"time_elapsed":559109,"internal_node_id":"0.0-65.0-0.0","task_version":"1.0","jspsych_version":"6.3.1","browser_interactions":0,"missing":false},{"state_1_ids":[0,1],"state_1_key":1,"state_1_choice":1,"state_1_rt":492,"transition":1,"state":1,"state_2_ids":[2,3],"state_2_key":1,"state_2_choice":3,"state_2_rt":570,"outcome":0,"rocket_colors":["#48a782","#955db9"],"planet_colors":["#7f5d5d","#5f6f81"],"screen_resolution":[1280,720],"minimum_resolution":1,"trial":53,"drifts":[0.476,0.391,0.373,0.273],"drift_ix":0,"trial_type":"two-step-trial","trial_index":84,"time_elapsed":562185,"internal_node_id":"0.0-66.0-0.0","task_version":"1.0","jspsych_version":"6.3.1","browser_interactions":0,"missing":false},{"state_1_ids":[0,1],"state_1_key":1,"state_1_choice":1,"state_1_rt":513,"transition":1,"state":1,"state_2_ids":[2,3],"state_2_key":1,"state_2_choice":3,"state_2_rt":480,"outcome":1,"rocket_colors":["#48a782","#955db9"],"planet_colors":["#7f5d5d","#5f6f81"],"screen_resolution":[1280,720],"minimum_resolution":1,"trial":54,"drifts":[0.452,0.379,0.383,0.272],"drift_ix":0,"trial_type":"two-step-trial","trial_index":85,"time_elapsed":565186,"internal_node_id":"0.0-67.0-0.0","task_version":"1.0","jspsych_version":"6.3.1","browser_interactions":0,"missing":false},{"state_1_ids":[0,1],"state_1_key":1,"state_1_choice":1,"state_1_rt":504,"transition":0,"state":0,"state_2_ids":[0,1],"state_2_key":1,"state_2_choice":1,"state_2_rt":761,"outcome":1,"rocket_colors":["#48a782","#955db9"],"planet_colors":["#7f5d5d","#5f6f81"],"screen_resolution":[1280,720],"minimum_resolution":1,"trial":55,"drifts":[0.448,0.393,0.401,0.289],"drift_ix":0,"trial_type":"two-step-trial","trial_index":86,"time_elapsed":568462,"internal_node_id":"0.0-68.0-0.0","task_version":"1.0","jspsych_version":"6.3.1","browser_interactions":0,"missing":false},{"state_1_ids":[0,1],"state_1_key":0,"state_1_choice":0,"state_1_rt":629,"transition":1,"state":0,"state_2_ids":[0,1],"state_2_key":1,"state_2_choice":1,"state_2_rt":444,"outcome":0,"rocket_colors":["#48a782","#955db9"],"planet_colors":["#7f5d5d","#5f6f81"],"screen_resolution":[1280,720],"minimum_resolution":1,"trial":56,"drifts":[0.435,0.368,0.433,0.291],"drift_ix":0,"trial_type":"two-step-trial","trial_index":87,"time_elapsed":571558,"internal_node_id":"0.0-69.0-0.0","task_version":"1.0","jspsych_version":"6.3.1","browser_interactions":0,"missing":false},{"state_1_ids":[1,0],"state_1_key":1,"state_1_choice":0,"state_1_rt":676,"transition":1,"state":0,"state_2_ids":[0,1],"state_2_key":1,"state_2_choice":1,"state_2_rt":479,"outcome":0,"rocket_colors":["#48a782","#955db9"],"planet_colors":["#7f5d5d","#5f6f81"],"screen_resolution":[1280,720],"minimum_resolution":1,"trial":57,"drifts":[0.441,0.373,0.443,0.285],"drift_ix":0,"trial_type":"two-step-trial","trial_index":88,"time_elapsed":574729,"internal_node_id":"0.0-70.0-0.0","task_version":"1.0","jspsych_version":"6.3.1","browser_interactions":0,"missing":false},{"state_1_ids":[1,0],"state_1_key":0,"state_1_choice":1,"state_1_rt":426,"transition":0,"state":0,"state_2_ids":[0,1],"state_2_key":0,"state_2_choice":0,"state_2_rt":831,"outcome":1,"rocket_colors":["#48a782","#955db9"],"planet_colors":["#7f5d5d","#5f6f81"],"screen_resolution":[1280,720],"minimum_resolution":1,"trial":58,"drifts":[0.418,0.389,0.42,0.282],"drift_ix":0,"trial_type":"two-step-trial","trial_index":89,"time_elapsed":578010,"internal_node_id":"0.0-71.0-0.0","task_version":"1.0","jspsych_version":"6.3.1","browser_interactions":0,"missing":false},{"state_1_ids":[1,0],"state_1_key":0,"state_1_choice":1,"state_1_rt":530,"transition":1,"state":1,"state_2_ids":[2,3],"state_2_key":1,"state_2_choice":3,"state_2_rt":618,"outcome":1,"rocket_colors":["#48a782","#955db9"],"planet_colors":["#7f5d5d","#5f6f81"],"screen_resolution":[1280,720],"minimum_resolution":1,"trial":59,"drifts":[0.41,0.383,0.392,0.255],"drift_ix":0,"trial_type":"two-step-trial","trial_index":90,"time_elapsed":581174,"internal_node_id":"0.0-72.0-0.0","task_version":"1.0","jspsych_version":"6.3.1","browser_interactions":0,"missing":false},{"state_1_ids":[1,0],"state_1_key":0,"state_1_choice":1,"state_1_rt":478,"transition":1,"state":1,"state_2_ids":[2,3],"state_2_key":1,"state_2_choice":3,"state_2_rt":512,"outcome":0,"rocket_colors":["#48a782","#955db9"],"planet_colors":["#7f5d5d","#5f6f81"],"screen_resolution":[1280,720],"minimum_resolution":1,"trial":60,"drifts":[0.426,0.384,0.354,0.267],"drift_ix":0,"trial_type":"two-step-trial","trial_index":91,"time_elapsed":584186,"internal_node_id":"0.0-73.0-0.0","task_version":"1.0","jspsych_version":"6.3.1","browser_interactions":0,"missing":false},{"state_1_ids":[0,1],"state_1_key":1,"state_1_choice":1,"state_1_rt":733,"transition":1,"state":1,"state_2_ids":[2,3],"state_2_key":1,"state_2_choice":3,"state_2_rt":859,"outcome":0,"rocket_colors":["#48a782","#955db9"],"planet_colors":["#7f5d5d","#5f6f81"],"screen_resolution":[1280,720],"minimum_resolution":1,"trial":61,"drifts":[0.416,0.414,0.379,0.254],"drift_ix":0,"trial_type":"two-step-trial","trial_index":92,"time_elapsed":587792,"internal_node_id":"0.0-74.0-0.0","task_version":"1.0","jspsych_version":"6.3.1","browser_interactions":0,"missing":false},{"state_1_ids":[0,1],"state_1_key":0,"state_1_choice":0,"state_1_rt":477,"transition":1,"state":0,"state_2_ids":[0,1],"state_2_key":0,"state_2_choice":0,"state_2_rt":389,"outcome":1,"rocket_colors":["#48a782","#955db9"],"planet_colors":["#7f5d5d","#5f6f81"],"screen_resolution":[1280,720],"minimum_resolution":1,"trial":62,"drifts":[0.353,0.414,0.383,0.26],"drift_ix":0,"trial_type":"two-step-trial","trial_index":93,"time_elapsed":590685,"internal_node_id":"0.0-75.0-0.0","task_version":"1.0","jspsych_version":"6.3.1","browser_interactions":0,"missing":false},{"state_1_ids":[1,0],"state_1_key":1,"state_1_choice":0,"state_1_rt":530,"transition":1,"state":0,"state_2_ids":[0,1],"state_2_key":0,"state_2_choice":0,"state_2_rt":556,"outcome":0,"rocket_colors":["#48a782","#955db9"],"planet_colors":["#7f5d5d","#5f6f81"],"screen_resolution":[1280,720],"minimum_resolution":1,"trial":63,"drifts":[0.293,0.383,0.425,0.266],"drift_ix":0,"trial_type":"two-step-trial","trial_index":94,"time_elapsed":593796,"internal_node_id":"0.0-76.0-0.0","task_version":"1.0","jspsych_version":"6.3.1","browser_interactions":0,"missing":false},{"state_1_ids":[0,1],"state_1_key":0,"state_1_choice":0,"state_1_rt":499,"transition":0,"state":1,"state_2_ids":[2,3],"state_2_key":0,"state_2_choice":2,"state_2_rt":454,"outcome":0,"rocket_colors":["#48a782","#955db9"],"planet_colors":["#7f5d5d","#5f6f81"],"screen_resolution":[1280,720],"minimum_resolution":1,"trial":64,"drifts":[0.288,0.362,0.432,0.275],"drift_ix":0,"trial_type":"two-step-trial","trial_index":95,"time_elapsed":596764,"internal_node_id":"0.0-77.0-0.0","task_version":"1.0","jspsych_version":"6.3.1","browser_interactions":0,"missing":false},{"state_1_ids":[0,1],"state_1_key":0,"state_1_choice":0,"state_1_rt":516,"transition":1,"state":0,"state_2_ids":[0,1],"state_2_key":0,"state_2_choice":0,"state_2_rt":672,"outcome":1,"rocket_colors":["#48a782","#955db9"],"planet_colors":["#7f5d5d","#5f6f81"],"screen_resolution":[1280,720],"minimum_resolution":1,"trial":65,"drifts":[0.297,0.363,0.457,0.29],"drift_ix":0,"trial_type":"two-step-trial","trial_index":96,"time_elapsed":599964,"internal_node_id":"0.0-78.0-0.0","task_version":"1.0","jspsych_version":"6.3.1","browser_interactions":0,"missing":false},{"state_1_ids":[1,0],"state_1_key":1,"state_1_choice":0,"state_1_rt":556,"transition":0,"state":1,"state_2_ids":[2,3],"state_2_key":1,"state_2_choice":3,"state_2_rt":884,"outcome":1,"rocket_colors":["#48a782","#955db9"],"planet_colors":["#7f5d5d","#5f6f81"],"screen_resolution":[1280,720],"minimum_resolution":1,"trial":66,"drifts":[0.25,0.333,0.451,0.284],"drift_ix":0,"trial_type":"two-step-trial","trial_index":97,"time_elapsed":603425,"internal_node_id":"0.0-79.0-0.0","task_version":"1.0","jspsych_version":"6.3.1","browser_interactions":0,"missing":false},{"state_1_ids":[1,0],"state_1_key":1,"state_1_choice":0,"state_1_rt":688,"transition":1,"state":0,"state_2_ids":[0,1],"state_2_key":0,"state_2_choice":0,"state_2_rt":616,"outcome":0,"rocket_colors":["#48a782","#955db9"],"planet_colors":["#7f5d5d","#5f6f81"],"screen_resolution":[1280,720],"minimum_resolution":1,"trial":67,"drifts":[0.255,0.331,0.425,0.278],"drift_ix":0,"trial_type":"two-step-trial","trial_index":98,"time_elapsed":606746,"internal_node_id":"0.0-80.0-0.0","task_version":"1.0","jspsych_version":"6.3.1","browser_interactions":0,"missing":false},{"state_1_ids":[1,0],"state_1_key":1,"state_1_choice":0,"state_1_rt":681,"transition":0,"state":1,"state_2_ids":[2,3],"state_2_key":0,"state_2_choice":2,"state_2_rt":448,"outcome":0,"rocket_colors":["#48a782","#955db9"],"planet_colors":["#7f5d5d","#5f6f81"],"screen_resolution":[1280,720],"minimum_resolution":1,"trial":68,"drifts":[0.281,0.326,0.434,0.261],"drift_ix":0,"trial_type":"two-step-trial","trial_index":99,"time_elapsed":609891,"internal_node_id":"0.0-81.0-0.0","task_version":"1.0","jspsych_version":"6.3.1","browser_interactions":0,"missing":false},{"state_1_ids":[0,1],"state_1_key":0,"state_1_choice":0,"state_1_rt":814,"transition":1,"state":0,"state_2_ids":[0,1],"state_2_key":0,"state_2_choice":0,"state_2_rt":378,"outcome":0,"rocket_colors":["#48a782","#955db9"],"planet_colors":["#7f5d5d","#5f6f81"],"screen_resolution":[1280,720],"minimum_resolution":1,"trial":69,"drifts":[0.277,0.319,0.434,0.286],"drift_ix":0,"trial_type":"two-step-trial","trial_index":100,"time_elapsed":613094,"internal_node_id":"0.0-82.0-0.0","task_version":"1.0","jspsych_version":"6.3.1","browser_interactions":0,"missing":false},{"state_1_ids":[0,1],"state_1_key":1,"state_1_choice":1,"state_1_rt":477,"transition":1,"state":1,"state_2_ids":[2,3],"state_2_key":1,"state_2_choice":3,"state_2_rt":439,"outcome":0,"rocket_colors":["#48a782","#955db9"],"planet_colors":["#7f5d5d","#5f6f81"],"screen_resolution":[1280,720],"minimum_resolution":1,"trial":70,"drifts":[0.318,0.351,0.474,0.272],"drift_ix":0,"trial_type":"two-step-trial","trial_index":101,"time_elapsed":616030,"internal_node_id":"0.0-83.0-0.0","task_version":"1.0","jspsych_version":"6.3.1","browser_interactions":0,"missing":false},{"state_1_ids":[1,0],"state_1_key":0,"state_1_choice":1,"state_1_rt":685,"transition":1,"state":1,"state_2_ids":[2,3],"state_2_key":0,"state_2_choice":2,"state_2_rt":481,"outcome":0,"rocket_colors":["#48a782","#955db9"],"planet_colors":["#7f5d5d","#5f6f81"],"screen_resolution":[1280,720],"minimum_resolution":1,"trial":71,"drifts":[0.306,0.331,0.46,0.274],"drift_ix":0,"trial_type":"two-step-trial","trial_index":102,"time_elapsed":619220,"internal_node_id":"0.0-84.0-0.0","task_version":"1.0","jspsych_version":"6.3.1","browser_interactions":0,"missing":false},{"state_1_ids":[0,1],"state_1_key":0,"state_1_choice":0,"state_1_rt":535,"transition":1,"state":0,"state_2_ids":[0,1],"state_2_key":1,"state_2_choice":1,"state_2_rt":453,"outcome":0,"rocket_colors":["#48a782","#955db9"],"planet_colors":["#7f5d5d","#5f6f81"],"screen_resolution":[1280,720],"minimum_resolution":1,"trial":72,"drifts":[0.35,0.329,0.432,0.251],"drift_ix":0,"trial_type":"two-step-trial","trial_index":103,"time_elapsed":622226,"internal_node_id":"0.0-85.0-0.0","task_version":"1.0","jspsych_version":"6.3.1","browser_interactions":0,"missing":false},{"state_1_ids":[0,1],"state_1_key":0,"state_1_choice":0,"state_1_rt":612,"transition":1,"state":0,"state_2_ids":[0,1],"state_2_key":1,"state_2_choice":1,"state_2_rt":403,"outcome":0,"rocket_colors":["#48a782","#955db9"],"planet_colors":["#7f5d5d","#5f6f81"],"screen_resolution":[1280,720],"minimum_resolution":1,"trial":73,"drifts":[0.352,0.318,0.461,0.257],"drift_ix":0,"trial_type":"two-step-trial","trial_index":104,"time_elapsed":625267,"internal_node_id":"0.0-86.0-0.0","task_version":"1.0","jspsych_version":"6.3.1","browser_interactions":0,"missing":false},{"state_1_ids":[0,1],"state_1_key":1,"state_1_choice":1,"state_1_rt":449,"transition":0,"state":0,"state_2_ids":[0,1],"state_2_key":1,"state_2_choice":1,"state_2_rt":868,"outcome":1,"rocket_colors":["#48a782","#955db9"],"planet_colors":["#7f5d5d","#5f6f81"],"screen_resolution":[1280,720],"minimum_resolution":1,"trial":74,"drifts":[0.374,0.315,0.514,0.262],"drift_ix":0,"trial_type":"two-step-trial","trial_index":105,"time_elapsed":628608,"internal_node_id":"0.0-87.0-0.0","task_version":"1.0","jspsych_version":"6.3.1","browser_interactions":0,"missing":false},{"state_1_ids":[0,1],"state_1_key":0,"state_1_choice":0,"state_1_rt":638,"transition":0,"state":1,"state_2_ids":[2,3],"state_2_key":0,"state_2_choice":2,"state_2_rt":818,"outcome":1,"rocket_colors":["#48a782","#955db9"],"planet_colors":["#7f5d5d","#5f6f81"],"screen_resolution":[1280,720],"minimum_resolution":1,"trial":75,"drifts":[0.405,0.348,0.504,0.256],"drift_ix":0,"trial_type":"two-step-trial","trial_index":106,"time_elapsed":632091,"internal_node_id":"0.0-88.0-0.0","task_version":"1.0","jspsych_version":"6.3.1","browser_interactions":0,"missing":false},{"state_1_ids":[0,1],"state_1_key":0,"state_1_choice":0,"state_1_rt":483,"transition":0,"state":1,"state_2_ids":[2,3],"state_2_key":0,"state_2_choice":2,"state_2_rt":645,"outcome":1,"rocket_colors":["#48a782","#955db9"],"planet_colors":["#7f5d5d","#5f6f81"],"screen_resolution":[1280,720],"minimum_resolution":1,"trial":76,"drifts":[0.43,0.367,0.513,0.251],"drift_ix":0,"trial_type":"two-step-trial","trial_index":107,"time_elapsed":635237,"internal_node_id":"0.0-89.0-0.0","task_version":"1.0","jspsych_version":"6.3.1","browser_interactions":0,"missing":false},{"state_1_ids":[1,0],"state_1_key":1,"state_1_choice":0,"state_1_rt":617,"transition":1,"state":0,"state_2_ids":[0,1],"state_2_key":0,"state_2_choice":0,"state_2_rt":977,"outcome":0,"rocket_colors":["#48a782","#955db9"],"planet_colors":["#7f5d5d","#5f6f81"],"screen_resolution":[1280,720],"minimum_resolution":1,"trial":77,"drifts":[0.426,0.365,0.523,0.279],"drift_ix":0,"trial_type":"two-step-trial","trial_index":108,"time_elapsed":638837,"internal_node_id":"0.0-90.0-0.0","task_version":"1.0","jspsych_version":"6.3.1","browser_interactions":0,"missing":false},{"state_1_ids":[0,1],"state_1_key":1,"state_1_choice":1,"state_1_rt":507,"transition":1,"state":1,"state_2_ids":[2,3],"state_2_key":0,"state_2_choice":2,"state_2_rt":796,"outcome":0,"rocket_colors":["#48a782","#955db9"],"planet_colors":["#7f5d5d","#5f6f81"],"screen_resolution":[1280,720],"minimum_resolution":1,"trial":78,"drifts":[0.411,0.377,0.525,0.29],"drift_ix":0,"trial_type":"two-step-trial","trial_index":109,"time_elapsed":642157,"internal_node_id":"0.0-91.0-0.0","task_version":"1.0","jspsych_version":"6.3.1","browser_interactions":0,"missing":false},{"state_1_ids":[0,1],"state_1_key":1,"state_1_choice":1,"state_1_rt":555,"transition":0,"state":0,"state_2_ids":[0,1],"state_2_key":1,"state_2_choice":1,"state_2_rt":752,"outcome":0,"rocket_colors":["#48a782","#955db9"],"planet_colors":["#7f5d5d","#5f6f81"],"screen_resolution":[1280,720],"minimum_resolution":1,"trial":79,"drifts":[0.413,0.36,0.538,0.31],"drift_ix":0,"trial_type":"two-step-trial","trial_index":110,"time_elapsed":645478,"internal_node_id":"0.0-92.0-0.0","task_version":"1.0","jspsych_version":"6.3.1","browser_interactions":0,"missing":false},{"state_1_ids":[0,1],"state_1_key":1,"state_1_choice":1,"state_1_rt":1010,"transition":1,"state":1,"state_2_ids":[2,3],"state_2_key":1,"state_2_choice":3,"state_2_rt":774,"outcome":0,"rocket_colors":["#48a782","#955db9"],"planet_colors":["#7f5d5d","#5f6f81"],"screen_resolution":[1280,720],"minimum_resolution":1,"trial":80,"drifts":[0.394,0.383,0.524,0.282],"drift_ix":0,"trial_type":"two-step-trial","trial_index":111,"time_elapsed":649279,"internal_node_id":"0.0-93.0-0.0","task_version":"1.0","jspsych_version":"6.3.1","browser_interactions":0,"missing":false},{"state_1_ids":[0,1],"state_1_key":1,"state_1_choice":1,"state_1_rt":515,"transition":1,"state":1,"state_2_ids":[2,3],"state_2_key":0,"state_2_choice":2,"state_2_rt":592,"outcome":1,"rocket_colors":["#48a782","#955db9"],"planet_colors":["#7f5d5d","#5f6f81"],"screen_resolution":[1280,720],"minimum_resolution":1,"trial":81,"drifts":[0.361,0.391,0.524,0.269],"drift_ix":0,"trial_type":"two-step-trial","trial_index":112,"time_elapsed":652389,"internal_node_id":"0.0-94.0-0.0","task_version":"1.0","jspsych_version":"6.3.1","browser_interactions":0,"missing":false},{"state_1_ids":[1,0],"state_1_key":0,"state_1_choice":1,"state_1_rt":549,"transition":1,"state":1,"state_2_ids":[2,3],"state_2_key":0,"state_2_choice":2,"state_2_rt":498,"outcome":1,"rocket_colors":["#48a782","#955db9"],"planet_colors":["#7f5d5d","#5f6f81"],"screen_resolution":[1280,720],"minimum_resolution":1,"trial":82,"drifts":[0.354,0.377,0.535,0.274],"drift_ix":0,"trial_type":"two-step-trial","trial_index":113,"time_elapsed":655459,"internal_node_id":"0.0-95.0-0.0","task_version":"1.0","jspsych_version":"6.3.1","browser_interactions":0,"missing":false},{"state_1_ids":[1,0],"state_1_key":0,"state_1_choice":1,"state_1_rt":575,"transition":0,"state":0,"state_2_ids":[0,1],"state_2_key":1,"state_2_choice":1,"state_2_rt":872,"outcome":1,"rocket_colors":["#48a782","#955db9"],"planet_colors":["#7f5d5d","#5f6f81"],"screen_resolution":[1280,720],"minimum_resolution":1,"trial":83,"drifts":[0.353,0.363,0.504,0.307],"drift_ix":0,"trial_type":"two-step-trial","trial_index":114,"time_elapsed":658923,"internal_node_id":"0.0-96.0-0.0","task_version":"1.0","jspsych_version":"6.3.1","browser_interactions":0,"missing":false},{"state_1_ids":[1,0],"state_1_key":0,"state_1_choice":1,"state_1_rt":625,"transition":1,"state":1,"state_2_ids":[2,3],"state_2_key":0,"state_2_choice":2,"state_2_rt":519,"outcome":1,"rocket_colors":["#48a782","#955db9"],"planet_colors":["#7f5d5d","#5f6f81"],"screen_resolution":[1280,720],"minimum_resolution":1,"trial":84,"drifts":[0.361,0.317,0.485,0.273],"drift_ix":0,"trial_type":"two-step-trial","trial_index":115,"time_elapsed":662084,"internal_node_id":"0.0-97.0-0.0","task_version":"1.0","jspsych_version":"6.3.1","browser_interactions":0,"missing":false},{"state_1_ids":[1,0],"state_1_key":0,"state_1_choice":1,"state_1_rt":495,"transition":0,"state":0,"state_2_ids":[0,1],"state_2_key":0,"state_2_choice":0,"state_2_rt":588,"outcome":0,"rocket_colors":["#48a782","#955db9"],"planet_colors":["#7f5d5d","#5f6f81"],"screen_resolution":[1280,720],"minimum_resolution":1,"trial":85,"drifts":[0.295,0.332,0.47,0.26],"drift_ix":0,"trial_type":"two-step-trial","trial_index":116,"time_elapsed":665195,"internal_node_id":"0.0-98.0-0.0","task_version":"1.0","jspsych_version":"6.3.1","browser_interactions":0,"missing":false},{"state_1_ids":[0,1],"state_1_key":1,"state_1_choice":1,"state_1_rt":721,"transition":1,"state":1,"state_2_ids":[2,3],"state_2_key":0,"state_2_choice":2,"state_2_rt":589,"outcome":0,"rocket_colors":["#48a782","#955db9"],"planet_colors":["#7f5d5d","#5f6f81"],"screen_resolution":[1280,720],"minimum_resolution":1,"trial":86,"drifts":[0.287,0.344,0.46,0.32],"drift_ix":0,"trial_type":"two-step-trial","trial_index":117,"time_elapsed":668510,"internal_node_id":"0.0-99.0-0.0","task_version":"1.0","jspsych_version":"6.3.1","browser_interactions":0,"missing":false},{"state_1_ids":[1,0],"state_1_key":0,"state_1_choice":1,"state_1_rt":559,"transition":1,"state":1,"state_2_ids":[2,3],"state_2_key":0,"state_2_choice":2,"state_2_rt":488,"outcome":1,"rocket_colors":["#48a782","#955db9"],"planet_colors":["#7f5d5d","#5f6f81"],"screen_resolution":[1280,720],"minimum_resolution":1,"trial":87,"drifts":[0.278,0.373,0.46,0.351],"drift_ix":0,"trial_type":"two-step-trial","trial_index":118,"time_elapsed":671579,"internal_node_id":"0.0-100.0-0.0","task_version":"1.0","jspsych_version":"6.3.1","browser_interactions":0,"missing":false},{"state_1_ids":[0,1],"state_1_key":1,"state_1_choice":1,"state_1_rt":475,"transition":1,"state":1,"state_2_ids":[2,3],"state_2_key":0,"state_2_choice":2,"state_2_rt":771,"outcome":0,"rocket_colors":["#48a782","#955db9"],"planet_colors":["#7f5d5d","#5f6f81"],"screen_resolution":[1280,720],"minimum_resolution":1,"trial":88,"drifts":[0.277,0.355,0.459,0.358],"drift_ix":0,"trial_type":"two-step-trial","trial_index":119,"time_elapsed":674841,"internal_node_id":"0.0-101.0-0.0","task_version":"1.0","jspsych_version":"6.3.1","browser_interactions":0,"missing":false},{"state_1_ids":[1,0],"state_1_key":1,"state_1_choice":0,"state_1_rt":781,"transition":0,"state":1,"state_2_ids":[2,3],"state_2_key":1,"state_2_choice":3,"state_2_rt":858,"outcome":1,"rocket_colors":["#48a782","#955db9"],"planet_colors":["#7f5d5d","#5f6f81"],"screen_resolution":[1280,720],"minimum_resolution":1,"trial":89,"drifts":[0.264,0.395,0.47,0.338],"drift_ix":0,"trial_type":"two-step-trial","trial_index":120,"time_elapsed":678506,"internal_node_id":"0.0-102.0-0.0","task_version":"1.0","jspsych_version":"6.3.1","browser_interactions":0,"missing":false},{"state_1_ids":[1,0],"state_1_key":0,"state_1_choice":1,"state_1_rt":587,"transition":0,"state":0,"state_2_ids":[0,1],"state_2_key":0,"state_2_choice":0,"state_2_rt":946,"outcome":0,"rocket_colors":["#48a782","#955db9"],"planet_colors":["#7f5d5d","#5f6f81"],"screen_resolution":[1280,720],"minimum_resolution":1,"trial":90,"drifts":[0.258,0.389,0.495,0.348],"drift_ix":0,"trial_type":"two-step-trial","trial_index":121,"time_elapsed":682056,"internal_node_id":"0.0-103.0-0.0","task_version":"1.0","jspsych_version":"6.3.1","browser_interactions":0,"missing":false},{"state_1_ids":[0,1],"state_1_key":1,"state_1_choice":1,"state_1_rt":1017,"transition":1,"state":1,"state_2_ids":[2,3],"state_2_key":1,"state_2_choice":3,"state_2_rt":502,"outcome":0,"rocket_colors":["#48a782","#955db9"],"planet_colors":["#7f5d5d","#5f6f81"],"screen_resolution":[1280,720],"minimum_resolution":1,"trial":91,"drifts":[0.325,0.363,0.524,0.356],"drift_ix":0,"trial_type":"two-step-trial","trial_index":122,"time_elapsed":685588,"internal_node_id":"0.0-104.0-0.0","task_version":"1.0","jspsych_version":"6.3.1","browser_interactions":0,"missing":false},{"state_1_ids":[1,0],"state_1_key":0,"state_1_choice":1,"state_1_rt":556,"transition":0,"state":0,"state_2_ids":[0,1],"state_2_key":0,"state_2_choice":0,"state_2_rt":914,"outcome":1,"rocket_colors":["#48a782","#955db9"],"planet_colors":["#7f5d5d","#5f6f81"],"screen_resolution":[1280,720],"minimum_resolution":1,"trial":92,"drifts":[0.29,0.354,0.524,0.361],"drift_ix":0,"trial_type":"two-step-trial","trial_index":123,"time_elapsed":689069,"internal_node_id":"0.0-105.0-0.0","task_version":"1.0","jspsych_version":"6.3.1","browser_interactions":0,"missing":false},{"state_1_ids":[1,0],"state_1_key":0,"state_1_choice":1,"state_1_rt":764,"transition":1,"state":1,"state_2_ids":[2,3],"state_2_key":1,"state_2_choice":3,"state_2_rt":454,"outcome":0,"rocket_colors":["#48a782","#955db9"],"planet_colors":["#7f5d5d","#5f6f81"],"screen_resolution":[1280,720],"minimum_resolution":1,"trial":93,"drifts":[0.318,0.353,0.542,0.336],"drift_ix":0,"trial_type":"two-step-trial","trial_index":124,"time_elapsed":692295,"internal_node_id":"0.0-106.0-0.0","task_version":"1.0","jspsych_version":"6.3.1","browser_interactions":0,"missing":false},{"state_1_ids":[1,0],"state_1_key":1,"state_1_choice":0,"state_1_rt":459,"transition":1,"state":0,"state_2_ids":[0,1],"state_2_key":0,"state_2_choice":0,"state_2_rt":468,"outcome":0,"rocket_colors":["#48a782","#955db9"],"planet_colors":["#7f5d5d","#5f6f81"],"screen_resolution":[1280,720],"minimum_resolution":1,"trial":94,"drifts":[0.329,0.367,0.542,0.302],"drift_ix":0,"trial_type":"two-step-trial","trial_index":125,"time_elapsed":695240,"internal_node_id":"0.0-107.0-0.0","task_version":"1.0","jspsych_version":"6.3.1","browser_interactions":0,"missing":false},{"state_1_ids":[1,0],"state_1_key":1,"state_1_choice":0,"state_1_rt":561,"transition":1,"state":0,"state_2_ids":[0,1],"state_2_key":0,"state_2_choice":0,"state_2_rt":427,"outcome":0,"rocket_colors":["#48a782","#955db9"],"planet_colors":["#7f5d5d","#5f6f81"],"screen_resolution":[1280,720],"minimum_resolution":1,"trial":95,"drifts":[0.348,0.33,0.586,0.265],"drift_ix":0,"trial_type":"two-step-trial","trial_index":126,"time_elapsed":698248,"internal_node_id":"0.0-108.0-0.0","task_version":"1.0","jspsych_version":"6.3.1","browser_interactions":0,"missing":false},{"state_1_ids":[1,0],"state_1_key":1,"state_1_choice":0,"state_1_rt":474,"transition":0,"state":1,"state_2_ids":[2,3],"state_2_key":1,"state_2_choice":3,"state_2_rt":868,"outcome":0,"rocket_colors":["#48a782","#955db9"],"planet_colors":["#7f5d5d","#5f6f81"],"screen_resolution":[1280,720],"minimum_resolution":1,"trial":96,"drifts":[0.348,0.348,0.591,0.304],"drift_ix":0,"trial_type":"two-step-trial","trial_index":127,"time_elapsed":701608,"internal_node_id":"0.0-109.0-0.0","task_version":"1.0","jspsych_version":"6.3.1","browser_interactions":0,"missing":false},{"state_1_ids":[1,0],"state_1_key":1,"state_1_choice":0,"state_1_rt":770,"transition":1,"state":0,"state_2_ids":[0,1],"state_2_key":1,"state_2_choice":1,"state_2_rt":467,"outcome":0,"rocket_colors":["#48a782","#955db9"],"planet_colors":["#7f5d5d","#5f6f81"],"screen_resolution":[1280,720],"minimum_resolution":1,"trial":97,"drifts":[0.328,0.258,0.639,0.303],"drift_ix":0,"trial_type":"two-step-trial","trial_index":128,"time_elapsed":704854,"internal_node_id":"0.0-110.0-0.0","task_version":"1.0","jspsych_version":"6.3.1","browser_interactions":0,"missing":false},{"state_1_ids":[0,1],"state_1_key":1,"state_1_choice":1,"state_1_rt":614,"transition":1,"state":1,"state_2_ids":[2,3],"state_2_key":0,"state_2_choice":2,"state_2_rt":869,"outcome":1,"rocket_colors":["#48a782","#955db9"],"planet_colors":["#7f5d5d","#5f6f81"],"screen_resolution":[1280,720],"minimum_resolution":1,"trial":98,"drifts":[0.381,0.256,0.661,0.29],"drift_ix":0,"trial_type":"two-step-trial","trial_index":129,"time_elapsed":708345,"internal_node_id":"0.0-111.0-0.0","task_version":"1.0","jspsych_version":"6.3.1","browser_interactions":0,"missing":false},{"state_1_ids":[0,1],"state_1_key":1,"state_1_choice":1,"state_1_rt":459,"transition":1,"state":1,"state_2_ids":[2,3],"state_2_key":0,"state_2_choice":2,"state_2_rt":538,"outcome":0,"rocket_colors":["#48a782","#955db9"],"planet_colors":["#7f5d5d","#5f6f81"],"screen_resolution":[1280,720],"minimum_resolution":1,"trial":99,"drifts":[0.423,0.312,0.659,0.319],"drift_ix":0,"trial_type":"two-step-trial","trial_index":130,"time_elapsed":711356,"internal_node_id":"0.0-112.0-0.0","task_version":"1.0","jspsych_version":"6.3.1","browser_interactions":0,"missing":false},{"state_1_ids":[1,0],"state_1_key":1,"state_1_choice":0,"state_1_rt":482,"transition":0,"state":1,"state_2_ids":[2,3],"state_2_key":0,"state_2_choice":2,"state_2_rt":674,"outcome":0,"rocket_colors":["#48a782","#955db9"],"planet_colors":["#7f5d5d","#5f6f81"],"screen_resolution":[1280,720],"minimum_resolution":1,"trial":100,"drifts":[0.419,0.326,0.615,0.332],"drift_ix":0,"trial_type":"two-step-trial","trial_index":131,"time_elapsed":714535,"internal_node_id":"0.0-113.0-0.0","task_version":"1.0","jspsych_version":"6.3.1","browser_interactions":0,"missing":false},{"view_history":"[{\"page_index\":0,\"viewing_time\":4094},{\"page_index\":1,\"viewing_time\":4089}]","rt":8183,"trial_type":"two-step-instructions","trial_index":132,"time_elapsed":722720,"internal_node_id":"0.0-114.0","task_version":"1.0","jspsych_version":"6.3.1"},{"state_1_ids":[0,1],"state_1_key":0,"state_1_choice":0,"state_1_rt":829,"transition":1,"state":0,"state_2_ids":[0,1],"state_2_key":0,"state_2_choice":0,"state_2_rt":490,"outcome":1,"rocket_colors":["#48a782","#955db9"],"planet_colors":["#7f5d5d","#5f6f81"],"screen_resolution":[1280,720],"minimum_resolution":1,"trial":101,"drifts":[0.406,0.305,0.562,0.356],"drift_ix":0,"trial_type":"two-step-trial","trial_index":133,"time_elapsed":726065,"internal_node_id":"0.0-115.0-0.0","task_version":"1.0","jspsych_version":"6.3.1","browser_interactions":0,"missing":false},{"state_1_ids":[0,1],"state_1_key":0,"state_1_choice":0,"state_1_rt":494,"transition":0,"state":1,"state_2_ids":[2,3],"state_2_key":1,"state_2_choice":3,"state_2_rt":877,"outcome":0,"rocket_colors":["#48a782","#955db9"],"planet_colors":["#7f5d5d","#5f6f81"],"screen_resolution":[1280,720],"minimum_resolution":1,"trial":102,"drifts":[0.412,0.303,0.532,0.328],"drift_ix":0,"trial_type":"two-step-trial","trial_index":134,"time_elapsed":729457,"internal_node_id":"0.0-116.0-0.0","task_version":"1.0","jspsych_version":"6.3.1","browser_interactions":0,"missing":false},{"state_1_ids":[0,1],"state_1_key":0,"state_1_choice":0,"state_1_rt":534,"transition":1,"state":0,"state_2_ids":[0,1],"state_2_key":0,"state_2_choice":0,"state_2_rt":632,"outcome":0,"rocket_colors":["#48a782","#955db9"],"planet_colors":["#7f5d5d","#5f6f81"],"screen_resolution":[1280,720],"minimum_resolution":1,"trial":103,"drifts":[0.399,0.326,0.531,0.314],"drift_ix":0,"trial_type":"two-step-trial","trial_index":135,"time_elapsed":732645,"internal_node_id":"0.0-117.0-0.0","task_version":"1.0","jspsych_version":"6.3.1","browser_interactions":0,"missing":false},{"state_1_ids":[0,1],"state_1_key":0,"state_1_choice":0,"state_1_rt":891,"transition":1,"state":0,"state_2_ids":[0,1],"state_2_key":0,"state_2_choice":0,"state_2_rt":705,"outcome":0,"rocket_colors":["#48a782","#955db9"],"planet_colors":["#7f5d5d","#5f6f81"],"screen_resolution":[1280,720],"minimum_resolution":1,"trial":104,"drifts":[0.398,0.313,0.576,0.303],"drift_ix":0,"trial_type":"two-step-trial","trial_index":136,"time_elapsed":736251,"internal_node_id":"0.0-118.0-0.0","task_version":"1.0","jspsych_version":"6.3.1","browser_interactions":0,"missing":false},{"state_1_ids":[1,0],"state_1_key":0,"state_1_choice":1,"state_1_rt":566,"transition":0,"state":0,"state_2_ids":[0,1],"state_2_key":1,"state_2_choice":1,"state_2_rt":718,"outcome":0,"rocket_colors":["#48a782","#955db9"],"planet_colors":["#7f5d5d","#5f6f81"],"screen_resolution":[1280,720],"minimum_resolution":1,"trial":105,"drifts":[0.41,0.34,0.593,0.316],"drift_ix":0,"trial_type":"two-step-trial","trial_index":137,"time_elapsed":739541,"internal_node_id":"0.0-119.0-0.0","task_version":"1.0","jspsych_version":"6.3.1","browser_interactions":0,"missing":false},{"state_1_ids":[1,0],"state_1_key":0,"state_1_choice":1,"state_1_rt":548,"transition":1,"state":1,"state_2_ids":[2,3],"state_2_key":1,"state_2_choice":3,"state_2_rt":552,"outcome":1,"rocket_colors":["#48a782","#955db9"],"planet_colors":["#7f5d5d","#5f6f81"],"screen_resolution":[1280,720],"minimum_resolution":1,"trial":106,"drifts":[0.402,0.333,0.57,0.322],"drift_ix":0,"trial_type":"two-step-trial","trial_index":138,"time_elapsed":742665,"internal_node_id":"0.0-120.0-0.0","task_version":"1.0","jspsych_version":"6.3.1","browser_interactions":0,"missing":false},{"state_1_ids":[0,1],"state_1_key":1,"state_1_choice":1,"state_1_rt":489,"transition":1,"state":1,"state_2_ids":[2,3],"state_2_key":1,"state_2_choice":3,"state_2_rt":525,"outcome":0,"rocket_colors":["#48a782","#955db9"],"planet_colors":["#7f5d5d","#5f6f81"],"screen_resolution":[1280,720],"minimum_resolution":1,"trial":107,"drifts":[0.408,0.274,0.566,0.316],"drift_ix":0,"trial_type":"two-step-trial","trial_index":139,"time_elapsed":745691,"internal_node_id":"0.0-121.0-0.0","task_version":"1.0","jspsych_version":"6.3.1","browser_interactions":0,"missing":false},{"state_1_ids":[1,0],"state_1_key":0,"state_1_choice":1,"state_1_rt":592,"transition":0,"state":0,"state_2_ids":[0,1],"state_2_key":1,"state_2_choice":1,"state_2_rt":500,"outcome":0,"rocket_colors":["#48a782","#955db9"],"planet_colors":["#7f5d5d","#5f6f81"],"screen_resolution":[1280,720],"minimum_resolution":1,"trial":108,"drifts":[0.426,0.262,0.552,0.283],"drift_ix":0,"trial_type":"two-step-trial","trial_index":140,"time_elapsed":748799,"internal_node_id":"0.0-122.0-0.0","task_version":"1.0","jspsych_version":"6.3.1","browser_interactions":0,"missing":false},{"state_1_ids":[1,0],"state_1_key":0,"state_1_choice":1,"state_1_rt":516,"transition":1,"state":1,"state_2_ids":[2,3],"state_2_key":0,"state_2_choice":2,"state_2_rt":802,"outcome":1,"rocket_colors":["#48a782","#955db9"],"planet_colors":["#7f5d5d","#5f6f81"],"screen_resolution":[1280,720],"minimum_resolution":1,"trial":109,"drifts":[0.4,0.265,0.503,0.284],"drift_ix":0,"trial_type":"two-step-trial","trial_index":141,"time_elapsed":752146,"internal_node_id":"0.0-123.0-0.0","task_version":"1.0","jspsych_version":"6.3.1","browser_interactions":0,"missing":false},{"state_1_ids":[0,1],"state_1_key":1,"state_1_choice":1,"state_1_rt":625,"transition":1,"state":1,"state_2_ids":[2,3],"state_2_key":0,"state_2_choice":2,"state_2_rt":549,"outcome":1,"rocket_colors":["#48a782","#955db9"],"planet_colors":["#7f5d5d","#5f6f81"],"screen_resolution":[1280,720],"minimum_resolution":1,"trial":110,"drifts":[0.389,0.286,0.517,0.318],"drift_ix":0,"trial_type":"two-step-trial","trial_index":142,"time_elapsed":755330,"internal_node_id":"0.0-124.0-0.0","task_version":"1.0","jspsych_version":"6.3.1","browser_interactions":0,"missing":false},{"state_1_ids":[1,0],"state_1_key":0,"state_1_choice":1,"state_1_rt":795,"transition":1,"state":1,"state_2_ids":[2,3],"state_2_key":0,"state_2_choice":2,"state_2_rt":521,"outcome":0,"rocket_colors":["#48a782","#955db9"],"planet_colors":["#7f5d5d","#5f6f81"],"screen_resolution":[1280,720],"minimum_resolution":1,"trial":111,"drifts":[0.389,0.289,0.505,0.348],"drift_ix":0,"trial_type":"two-step-trial","trial_index":143,"time_elapsed":758665,"internal_node_id":"0.0-125.0-0.0","task_version":"1.0","jspsych_version":"6.3.1","browser_interactions":0,"missing":false},{"state_1_ids":[1,0],"state_1_key":0,"state_1_choice":1,"state_1_rt":676,"transition":1,"state":1,"state_2_ids":[2,3],"state_2_key":0,"state_2_choice":2,"state_2_rt":482,"outcome":0,"rocket_colors":["#48a782","#955db9"],"planet_colors":["#7f5d5d","#5f6f81"],"screen_resolution":[1280,720],"minimum_resolution":1,"trial":112,"drifts":[0.387,0.265,0.506,0.329],"drift_ix":0,"trial_type":"two-step-trial","trial_index":144,"time_elapsed":761851,"internal_node_id":"0.0-126.0-0.0","task_version":"1.0","jspsych_version":"6.3.1","browser_interactions":0,"missing":false},{"state_1_ids":[0,1],"state_1_key":0,"state_1_choice":0,"state_1_rt":626,"transition":1,"state":0,"state_2_ids":[0,1],"state_2_key":0,"state_2_choice":0,"state_2_rt":484,"outcome":0,"rocket_colors":["#48a782","#955db9"],"planet_colors":["#7f5d5d","#5f6f81"],"screen_resolution":[1280,720],"minimum_resolution":1,"trial":113,"drifts":[0.384,0.256,0.524,0.353],"drift_ix":0,"trial_type":"two-step-trial","trial_index":145,"time_elapsed":764969,"internal_node_id":"0.0-127.0-0.0","task_version":"1.0","jspsych_version":"6.3.1","browser_interactions":0,"missing":false},{"state_1_ids":[0,1],"state_1_key":0,"state_1_choice":0,"state_1_rt":517,"transition":1,"state":0,"state_2_ids":[0,1],"state_2_key":1,"state_2_choice":1,"state_2_rt":517,"outcome":0,"rocket_colors":["#48a782","#955db9"],"planet_colors":["#7f5d5d","#5f6f81"],"screen_resolution":[1280,720],"minimum_resolution":1,"trial":114,"drifts":[0.367,0.273,0.512,0.348],"drift_ix":0,"trial_type":"two-step-trial","trial_index":146,"time_elapsed":768029,"internal_node_id":"0.0-128.0-0.0","task_version":"1.0","jspsych_version":"6.3.1","browser_interactions":0,"missing":false},{"state_1_ids":[1,0],"state_1_key":0,"state_1_choice":1,"state_1_rt":971,"transition":1,"state":1,"state_2_ids":[2,3],"state_2_key":1,"state_2_choice":3,"state_2_rt":425,"outcome":0,"rocket_colors":["#48a782","#955db9"],"planet_colors":["#7f5d5d","#5f6f81"],"screen_resolution":[1280,720],"minimum_resolution":1,"trial":115,"drifts":[0.323,0.276,0.502,0.358],"drift_ix":0,"trial_type":"two-step-trial","trial_index":147,"time_elapsed":771450,"internal_node_id":"0.0-129.0-0.0","task_version":"1.0","jspsych_version":"6.3.1","browser_interactions":0,"missing":false},{"state_1_ids":[1,0],"state_1_key":0,"state_1_choice":1,"state_1_rt":550,"transition":1,"state":1,"state_2_ids":[2,3],"state_2_key":1,"state_2_choice":3,"state_2_rt":418,"outcome":0,"rocket_colors":["#48a782","#955db9"],"planet_colors":["#7f5d5d","#5f6f81"],"screen_resolution":[1280,720],"minimum_resolution":1,"trial":116,"drifts":[0.327,0.301,0.482,0.366],"drift_ix":0,"trial_type":"two-step-trial","trial_index":148,"time_elapsed":774439,"internal_node_id":"0.0-130.0-0.0","task_version":"1.0","jspsych_version":"6.3.1","browser_interactions":0,"missing":false},{"state_1_ids":[1,0],"state_1_key":1,"state_1_choice":0,"state_1_rt":497,"transition":1,"state":0,"state_2_ids":[0,1],"state_2_key":0,"state_2_choice":0,"state_2_rt":445,"outcome":0,"rocket_colors":["#48a782","#955db9"],"planet_colors":["#7f5d5d","#5f6f81"],"screen_resolution":[1280,720],"minimum_resolution":1,"trial":117,"drifts":[0.356,0.324,0.447,0.405],"drift_ix":0,"trial_type":"two-step-trial","trial_index":149,"time_elapsed":777399,"internal_node_id":"0.0-131.0-0.0","task_version":"1.0","jspsych_version":"6.3.1","browser_interactions":0,"missing":false},{"state_1_ids":[0,1],"state_1_key":1,"state_1_choice":1,"state_1_rt":626,"transition":1,"state":1,"state_2_ids":[2,3],"state_2_key":0,"state_2_choice":2,"state_2_rt":346,"outcome":0,"rocket_colors":["#48a782","#955db9"],"planet_colors":["#7f5d5d","#5f6f81"],"screen_resolution":[1280,720],"minimum_resolution":1,"trial":118,"drifts":[0.346,0.346,0.451,0.456],"drift_ix":0,"trial_type":"two-step-trial","trial_index":150,"time_elapsed":780396,"internal_node_id":"0.0-132.0-0.0","task_version":"1.0","jspsych_version":"6.3.1","browser_interactions":0,"missing":false},{"state_1_ids":[0,1],"state_1_key":0,"state_1_choice":0,"state_1_rt":476,"transition":1,"state":0,"state_2_ids":[0,1],"state_2_key":1,"state_2_choice":1,"state_2_rt":724,"outcome":0,"rocket_colors":["#48a782","#955db9"],"planet_colors":["#7f5d5d","#5f6f81"],"screen_resolution":[1280,720],"minimum_resolution":1,"trial":119,"drifts":[0.307,0.341,0.511,0.496],"drift_ix":0,"trial_type":"two-step-trial","trial_index":151,"time_elapsed":783617,"internal_node_id":"0.0-133.0-0.0","task_version":"1.0","jspsych_version":"6.3.1","browser_interactions":0,"missing":false},{"state_1_ids":[0,1],"state_1_key":0,"state_1_choice":0,"state_1_rt":448,"transition":0,"state":1,"state_2_ids":[2,3],"state_2_key":0,"state_2_choice":2,"state_2_rt":836,"outcome":1,"rocket_colors":["#48a782","#955db9"],"planet_colors":["#7f5d5d","#5f6f81"],"screen_resolution":[1280,720],"minimum_resolution":1,"trial":120,"drifts":[0.301,0.307,0.523,0.5],"drift_ix":0,"trial_type":"two-step-trial","trial_index":152,"time_elapsed":786926,"internal_node_id":"0.0-134.0-0.0","task_version":"1.0","jspsych_version":"6.3.1","browser_interactions":0,"missing":false},{"state_1_ids":[1,0],"state_1_key":0,"state_1_choice":1,"state_1_rt":517,"transition":0,"state":0,"state_2_ids":[0,1],"state_2_key":0,"state_2_choice":0,"state_2_rt":831,"outcome":0,"rocket_colors":["#48a782","#955db9"],"planet_colors":["#7f5d5d","#5f6f81"],"screen_resolution":[1280,720],"minimum_resolution":1,"trial":121,"drifts":[0.288,0.297,0.519,0.491],"drift_ix":0,"trial_type":"two-step-trial","trial_index":153,"time_elapsed":790291,"internal_node_id":"0.0-135.0-0.0","task_version":"1.0","jspsych_version":"6.3.1","browser_interactions":0,"missing":false},{"state_1_ids":[0,1],"state_1_key":1,"state_1_choice":1,"state_1_rt":976,"transition":1,"state":1,"state_2_ids":[2,3],"state_2_key":0,"state_2_choice":2,"state_2_rt":408,"outcome":0,"rocket_colors":["#48a782","#955db9"],"planet_colors":["#7f5d5d","#5f6f81"],"screen_resolution":[1280,720],"minimum_resolution":1,"trial":122,"drifts":[0.275,0.313,0.525,0.507],"drift_ix":0,"trial_type":"two-step-trial","trial_index":154,"time_elapsed":793678,"internal_node_id":"0.0-136.0-0.0","task_version":"1.0","jspsych_version":"6.3.1","browser_interactions":0,"missing":false},{"state_1_ids":[1,0],"state_1_key":0,"state_1_choice":1,"state_1_rt":613,"transition":1,"state":1,"state_2_ids":[2,3],"state_2_key":1,"state_2_choice":3,"state_2_rt":954,"outcome":0,"rocket_colors":["#48a782","#955db9"],"planet_colors":["#7f5d5d","#5f6f81"],"screen_resolution":[1280,720],"minimum_resolution":1,"trial":123,"drifts":[0.288,0.279,0.473,0.464],"drift_ix":0,"trial_type":"two-step-trial","trial_index":155,"time_elapsed":797263,"internal_node_id":"0.0-137.0-0.0","task_version":"1.0","jspsych_version":"6.3.1","browser_interactions":0,"missing":false},{"state_1_ids":[0,1],"state_1_key":0,"state_1_choice":0,"state_1_rt":606,"transition":0,"state":1,"state_2_ids":[2,3],"state_2_key":1,"state_2_choice":3,"state_2_rt":908,"outcome":0,"rocket_colors":["#48a782","#955db9"],"planet_colors":["#7f5d5d","#5f6f81"],"screen_resolution":[1280,720],"minimum_resolution":1,"trial":124,"drifts":[0.287,0.296,0.496,0.443],"drift_ix":0,"trial_type":"two-step-trial","trial_index":156,"time_elapsed":800784,"internal_node_id":"0.0-138.0-0.0","task_version":"1.0","jspsych_version":"6.3.1","browser_interactions":0,"missing":false},{"state_1_ids":[1,0],"state_1_key":1,"state_1_choice":0,"state_1_rt":1332,"transition":1,"state":0,"state_2_ids":[0,1],"state_2_key":0,"state_2_choice":0,"state_2_rt":419,"outcome":0,"rocket_colors":["#48a782","#955db9"],"planet_colors":["#7f5d5d","#5f6f81"],"screen_resolution":[1280,720],"minimum_resolution":1,"trial":125,"drifts":[0.26,0.276,0.477,0.451],"drift_ix":0,"trial_type":"two-step-trial","trial_index":157,"time_elapsed":804560,"internal_node_id":"0.0-139.0-0.0","task_version":"1.0","jspsych_version":"6.3.1","browser_interactions":0,"missing":false},{"state_1_ids":[1,0],"state_1_key":1,"state_1_choice":0,"state_1_rt":910,"transition":1,"state":0,"state_2_ids":[0,1],"state_2_key":1,"state_2_choice":1,"state_2_rt":374,"outcome":0,"rocket_colors":["#48a782","#955db9"],"planet_colors":["#7f5d5d","#5f6f81"],"screen_resolution":[1280,720],"minimum_resolution":1,"trial":126,"drifts":[0.283,0.285,0.494,0.477],"drift_ix":0,"trial_type":"two-step-trial","trial_index":158,"time_elapsed":807865,"internal_node_id":"0.0-140.0-0.0","task_version":"1.0","jspsych_version":"6.3.1","browser_interactions":0,"missing":false},{"state_1_ids":[1,0],"state_1_key":1,"state_1_choice":0,"state_1_rt":421,"transition":1,"state":0,"state_2_ids":[0,1],"state_2_key":1,"state_2_choice":1,"state_2_rt":475,"outcome":1,"rocket_colors":["#48a782","#955db9"],"planet_colors":["#7f5d5d","#5f6f81"],"screen_resolution":[1280,720],"minimum_resolution":1,"trial":127,"drifts":[0.285,0.251,0.493,0.518],"drift_ix":0,"trial_type":"two-step-trial","trial_index":159,"time_elapsed":810784,"internal_node_id":"0.0-141.0-0.0","task_version":"1.0","jspsych_version":"6.3.1","browser_interactions":0,"missing":false},{"state_1_ids":[1,0],"state_1_key":1,"state_1_choice":0,"state_1_rt":431,"transition":1,"state":0,"state_2_ids":[0,1],"state_2_key":1,"state_2_choice":1,"state_2_rt":425,"outcome":1,"rocket_colors":["#48a782","#955db9"],"planet_colors":["#7f5d5d","#5f6f81"],"screen_resolution":[1280,720],"minimum_resolution":1,"trial":128,"drifts":[0.285,0.278,0.495,0.479],"drift_ix":0,"trial_type":"two-step-trial","trial_index":160,"time_elapsed":813656,"internal_node_id":"0.0-142.0-0.0","task_version":"1.0","jspsych_version":"6.3.1","browser_interactions":0,"missing":false},{"state_1_ids":[0,1],"state_1_key":0,"state_1_choice":0,"state_1_rt":503,"transition":1,"state":0,"state_2_ids":[0,1],"state_2_key":1,"state_2_choice":1,"state_2_rt":462,"outcome":1,"rocket_colors":["#48a782","#955db9"],"planet_colors":["#7f5d5d","#5f6f81"],"screen_resolution":[1280,720],"minimum_resolution":1,"trial":129,"drifts":[0.304,0.316,0.486,0.459],"drift_ix":0,"trial_type":"two-step-trial","trial_index":161,"time_elapsed":816636,"internal_node_id":"0.0-143.0-0.0","task_version":"1.0","jspsych_version":"6.3.1","browser_interactions":0,"missing":false},{"state_1_ids":[0,1],"state_1_key":0,"state_1_choice":0,"state_1_rt":524,"transition":1,"state":0,"state_2_ids":[0,1],"state_2_key":1,"state_2_choice":1,"state_2_rt":477,"outcome":0,"rocket_colors":["#48a782","#955db9"],"planet_colors":["#7f5d5d","#5f6f81"],"screen_resolution":[1280,720],"minimum_resolution":1,"trial":130,"drifts":[0.279,0.291,0.485,0.452],"drift_ix":0,"trial_type":"two-step-trial","trial_index":162,"time_elapsed":819650,"internal_node_id":"0.0-144.0-0.0","task_version":"1.0","jspsych_version":"6.3.1","browser_interactions":0,"missing":false},{"state_1_ids":[0,1],"state_1_key":0,"state_1_choice":0,"state_1_rt":494,"transition":1,"state":0,"state_2_ids":[0,1],"state_2_key":1,"state_2_choice":1,"state_2_rt":517,"outcome":0,"rocket_colors":["#48a782","#955db9"],"planet_colors":["#7f5d5d","#5f6f81"],"screen_resolution":[1280,720],"minimum_resolution":1,"trial":131,"drifts":[0.257,0.293,0.476,0.442],"drift_ix":0,"trial_type":"two-step-trial","trial_index":163,"time_elapsed":822687,"internal_node_id":"0.0-145.0-0.0","task_version":"1.0","jspsych_version":"6.3.1","browser_interactions":0,"missing":false},{"state_1_ids":[0,1],"state_1_key":0,"state_1_choice":0,"state_1_rt":561,"transition":1,"state":0,"state_2_ids":[0,1],"state_2_key":0,"state_2_choice":0,"state_2_rt":561,"outcome":0,"rocket_colors":["#48a782","#955db9"],"planet_colors":["#7f5d5d","#5f6f81"],"screen_resolution":[1280,720],"minimum_resolution":1,"trial":132,"drifts":[0.267,0.335,0.408,0.456],"drift_ix":0,"trial_type":"two-step-trial","trial_index":164,"time_elapsed":825834,"internal_node_id":"0.0-146.0-0.0","task_version":"1.0","jspsych_version":"6.3.1","browser_interactions":0,"missing":false},{"state_1_ids":[0,1],"state_1_key":0,"state_1_choice":0,"state_1_rt":464,"transition":0,"state":1,"state_2_ids":[2,3],"state_2_key":1,"state_2_choice":3,"state_2_rt":869,"outcome":0,"rocket_colors":["#48a782","#955db9"],"planet_colors":["#7f5d5d","#5f6f81"],"screen_resolution":[1280,720],"minimum_resolution":1,"trial":133,"drifts":[0.254,0.359,0.444,0.42],"drift_ix":0,"trial_type":"two-step-trial","trial_index":165,"time_elapsed":829176,"internal_node_id":"0.0-147.0-0.0","task_version":"1.0","jspsych_version":"6.3.1","browser_interactions":0,"missing":false},{"state_1_ids":[0,1],"state_1_key":1,"state_1_choice":1,"state_1_rt":627,"transition":0,"state":0,"state_2_ids":[0,1],"state_2_key":0,"state_2_choice":0,"state_2_rt":950,"outcome":0,"rocket_colors":["#48a782","#955db9"],"planet_colors":["#7f5d5d","#5f6f81"],"screen_resolution":[1280,720],"minimum_resolution":1,"trial":134,"drifts":[0.265,0.371,0.443,0.419],"drift_ix":0,"trial_type":"two-step-trial","trial_index":166,"time_elapsed":832756,"internal_node_id":"0.0-148.0-0.0","task_version":"1.0","jspsych_version":"6.3.1","browser_interactions":0,"missing":false},{"state_1_ids":[0,1],"state_1_key":0,"state_1_choice":0,"state_1_rt":511,"transition":1,"state":0,"state_2_ids":[0,1],"state_2_key":1,"state_2_choice":1,"state_2_rt":767,"outcome":0,"rocket_colors":["#48a782","#955db9"],"planet_colors":["#7f5d5d","#5f6f81"],"screen_resolution":[1280,720],"minimum_resolution":1,"trial":135,"drifts":[0.272,0.34,0.465,0.386],"drift_ix":0,"trial_type":"two-step-trial","trial_index":167,"time_elapsed":836055,"internal_node_id":"0.0-149.0-0.0","task_version":"1.0","jspsych_version":"6.3.1","browser_interactions":0,"missing":false},{"state_1_ids":[1,0],"state_1_key":0,"state_1_choice":1,"state_1_rt":523,"transition":1,"state":1,"state_2_ids":[2,3],"state_2_key":1,"state_2_choice":3,"state_2_rt":669,"outcome":0,"rocket_colors":["#48a782","#955db9"],"planet_colors":["#7f5d5d","#5f6f81"],"screen_resolution":[1280,720],"minimum_resolution":1,"trial":136,"drifts":[0.291,0.34,0.503,0.372],"drift_ix":0,"trial_type":"two-step-trial","trial_index":168,"time_elapsed":839261,"internal_node_id":"0.0-150.0-0.0","task_version":"1.0","jspsych_version":"6.3.1","browser_interactions":0,"missing":false},{"state_1_ids":[1,0],"state_1_key":0,"state_1_choice":1,"state_1_rt":510,"transition":1,"state":1,"state_2_ids":[2,3],"state_2_key":0,"state_2_choice":2,"state_2_rt":546,"outcome":0,"rocket_colors":["#48a782","#955db9"],"planet_colors":["#7f5d5d","#5f6f81"],"screen_resolution":[1280,720],"minimum_resolution":1,"trial":137,"drifts":[0.25,0.307,0.498,0.357],"drift_ix":0,"trial_type":"two-step-trial","trial_index":169,"time_elapsed":842330,"internal_node_id":"0.0-151.0-0.0","task_version":"1.0","jspsych_version":"6.3.1","browser_interactions":0,"missing":false},{"state_1_ids":[0,1],"state_1_key":1,"state_1_choice":1,"state_1_rt":538,"transition":1,"state":1,"state_2_ids":[2,3],"state_2_key":0,"state_2_choice":2,"state_2_rt":484,"outcome":1,"rocket_colors":["#48a782","#955db9"],"planet_colors":["#7f5d5d","#5f6f81"],"screen_resolution":[1280,720],"minimum_resolution":1,"trial":138,"drifts":[0.265,0.293,0.462,0.319],"drift_ix":0,"trial_type":"two-step-trial","trial_index":170,"time_elapsed":845372,"internal_node_id":"0.0-152.0-0.0","task_version":"1.0","jspsych_version":"6.3.1","browser_interactions":0,"missing":false},{"state_1_ids":[0,1],"state_1_key":1,"state_1_choice":1,"state_1_rt":473,"transition":1,"state":1,"state_2_ids":[2,3],"state_2_key":0,"state_2_choice":2,"state_2_rt":522,"outcome":0,"rocket_colors":["#48a782","#955db9"],"planet_colors":["#7f5d5d","#5f6f81"],"screen_resolution":[1280,720],"minimum_resolution":1,"trial":139,"drifts":[0.268,0.317,0.494,0.325],"drift_ix":0,"trial_type":"two-step-trial","trial_index":171,"time_elapsed":848396,"internal_node_id":"0.0-153.0-0.0","task_version":"1.0","jspsych_version":"6.3.1","browser_interactions":0,"missing":false},{"state_1_ids":[1,0],"state_1_key":1,"state_1_choice":0,"state_1_rt":370,"transition":1,"state":0,"state_2_ids":[0,1],"state_2_key":0,"state_2_choice":0,"state_2_rt":499,"outcome":0,"rocket_colors":["#48a782","#955db9"],"planet_colors":["#7f5d5d","#5f6f81"],"screen_resolution":[1280,720],"minimum_resolution":1,"trial":140,"drifts":[0.276,0.319,0.471,0.343],"drift_ix":0,"trial_type":"two-step-trial","trial_index":172,"time_elapsed":851280,"internal_node_id":"0.0-154.0-0.0","task_version":"1.0","jspsych_version":"6.3.1","browser_interactions":0,"missing":false},{"state_1_ids":[1,0],"state_1_key":1,"state_1_choice":0,"state_1_rt":470,"transition":1,"state":0,"state_2_ids":[0,1],"state_2_key":0,"state_2_choice":0,"state_2_rt":683,"outcome":0,"rocket_colors":["#48a782","#955db9"],"planet_colors":["#7f5d5d","#5f6f81"],"screen_resolution":[1280,720],"minimum_resolution":1,"trial":141,"drifts":[0.261,0.318,0.465,0.338],"drift_ix":0,"trial_type":"two-step-trial","trial_index":173,"time_elapsed":854454,"internal_node_id":"0.0-155.0-0.0","task_version":"1.0","jspsych_version":"6.3.1","browser_interactions":0,"missing":false},{"state_1_ids":[1,0],"state_1_key":1,"state_1_choice":0,"state_1_rt":481,"transition":1,"state":0,"state_2_ids":[0,1],"state_2_key":1,"state_2_choice":1,"state_2_rt":455,"outcome":0,"rocket_colors":["#48a782","#955db9"],"planet_colors":["#7f5d5d","#5f6f81"],"screen_resolution":[1280,720],"minimum_resolution":1,"trial":142,"drifts":[0.269,0.269,0.465,0.359],"drift_ix":0,"trial_type":"two-step-trial","trial_index":174,"time_elapsed":857397,"internal_node_id":"0.0-156.0-0.0","task_version":"1.0","jspsych_version":"6.3.1","browser_interactions":0,"missing":false},{"state_1_ids":[1,0],"state_1_key":0,"state_1_choice":1,"state_1_rt":458,"transition":1,"state":1,"state_2_ids":[2,3],"state_2_key":1,"state_2_choice":3,"state_2_rt":370,"outcome":0,"rocket_colors":["#48a782","#955db9"],"planet_colors":["#7f5d5d","#5f6f81"],"screen_resolution":[1280,720],"minimum_resolution":1,"trial":143,"drifts":[0.288,0.255,0.464,0.364],"drift_ix":0,"trial_type":"two-step-trial","trial_index":175,"time_elapsed":860246,"internal_node_id":"0.0-157.0-0.0","task_version":"1.0","jspsych_version":"6.3.1","browser_interactions":0,"missing":false},{"state_1_ids":[0,1],"state_1_key":1,"state_1_choice":1,"state_1_rt":522,"transition":1,"state":1,"state_2_ids":[2,3],"state_2_key":0,"state_2_choice":2,"state_2_rt":458,"outcome":0,"rocket_colors":["#48a782","#955db9"],"planet_colors":["#7f5d5d","#5f6f81"],"screen_resolution":[1280,720],"minimum_resolution":1,"trial":144,"drifts":[0.311,0.284,0.439,0.335],"drift_ix":0,"trial_type":"two-step-trial","trial_index":176,"time_elapsed":863255,"internal_node_id":"0.0-158.0-0.0","task_version":"1.0","jspsych_version":"6.3.1","browser_interactions":0,"missing":false},{"state_1_ids":[1,0],"state_1_key":0,"state_1_choice":1,"state_1_rt":578,"transition":1,"state":1,"state_2_ids":[2,3],"state_2_key":0,"state_2_choice":2,"state_2_rt":446,"outcome":0,"rocket_colors":["#48a782","#955db9"],"planet_colors":["#7f5d5d","#5f6f81"],"screen_resolution":[1280,720],"minimum_resolution":1,"trial":145,"drifts":[0.291,0.284,0.413,0.345],"drift_ix":0,"trial_type":"two-step-trial","trial_index":177,"time_elapsed":866305,"internal_node_id":"0.0-159.0-0.0","task_version":"1.0","jspsych_version":"6.3.1","browser_interactions":0,"missing":false},{"state_1_ids":[0,1],"state_1_key":0,"state_1_choice":0,"state_1_rt":560,"transition":1,"state":0,"state_2_ids":[0,1],"state_2_key":0,"state_2_choice":0,"state_2_rt":294,"outcome":0,"rocket_colors":["#48a782","#955db9"],"planet_colors":["#7f5d5d","#5f6f81"],"screen_resolution":[1280,720],"minimum_resolution":1,"trial":146,"drifts":[0.289,0.292,0.421,0.344],"drift_ix":0,"trial_type":"two-step-trial","trial_index":178,"time_elapsed":869170,"internal_node_id":"0.0-160.0-0.0","task_version":"1.0","jspsych_version":"6.3.1","browser_interactions":0,"missing":false},{"state_1_ids":[0,1],"state_1_key":0,"state_1_choice":0,"state_1_rt":448,"transition":1,"state":0,"state_2_ids":[0,1],"state_2_key":0,"state_2_choice":0,"state_2_rt":483,"outcome":0,"rocket_colors":["#48a782","#955db9"],"planet_colors":["#7f5d5d","#5f6f81"],"screen_resolution":[1280,720],"minimum_resolution":1,"trial":147,"drifts":[0.299,0.296,0.457,0.356],"drift_ix":0,"trial_type":"two-step-trial","trial_index":179,"time_elapsed":872112,"internal_node_id":"0.0-161.0-0.0","task_version":"1.0","jspsych_version":"6.3.1","browser_interactions":0,"missing":false},{"state_1_ids":[1,0],"state_1_key":0,"state_1_choice":1,"state_1_rt":370,"transition":1,"state":1,"state_2_ids":[2,3],"state_2_key":0,"state_2_choice":2,"state_2_rt":451,"outcome":1,"rocket_colors":["#48a782","#955db9"],"planet_colors":["#7f5d5d","#5f6f81"],"screen_resolution":[1280,720],"minimum_resolution":1,"trial":148,"drifts":[0.264,0.313,0.451,0.366],"drift_ix":0,"trial_type":"two-step-trial","trial_index":180,"time_elapsed":874940,"internal_node_id":"0.0-162.0-0.0","task_version":"1.0","jspsych_version":"6.3.1","browser_interactions":0,"missing":false},{"state_1_ids":[0,1],"state_1_key":1,"state_1_choice":1,"state_1_rt":494,"transition":1,"state":1,"state_2_ids":[2,3],"state_2_key":0,"state_2_choice":2,"state_2_rt":512,"outcome":0,"rocket_colors":["#48a782","#955db9"],"planet_colors":["#7f5d5d","#5f6f81"],"screen_resolution":[1280,720],"minimum_resolution":1,"trial":149,"drifts":[0.272,0.36,0.455,0.385],"drift_ix":0,"trial_type":"two-step-trial","trial_index":181,"time_elapsed":877971,"internal_node_id":"0.0-163.0-0.0","task_version":"1.0","jspsych_version":"6.3.1","browser_interactions":0,"missing":false},{"state_1_ids":[1,0],"state_1_key":0,"state_1_choice":1,"state_1_rt":497,"transition":1,"state":1,"state_2_ids":[2,3],"state_2_key":1,"state_2_choice":3,"state_2_rt":603,"outcome":0,"rocket_colors":["#48a782","#955db9"],"planet_colors":["#7f5d5d","#5f6f81"],"screen_resolution":[1280,720],"minimum_resolution":1,"trial":150,"drifts":[0.282,0.392,0.477,0.39],"drift_ix":0,"trial_type":"two-step-trial","trial_index":182,"time_elapsed":881095,"internal_node_id":"0.0-164.0-0.0","task_version":"1.0","jspsych_version":"6.3.1","browser_interactions":0,"missing":false},{"state_1_ids":[0,1],"state_1_key":1,"state_1_choice":1,"state_1_rt":638,"transition":1,"state":1,"state_2_ids":[2,3],"state_2_key":0,"state_2_choice":2,"state_2_rt":403,"outcome":1,"rocket_colors":["#48a782","#955db9"],"planet_colors":["#7f5d5d","#5f6f81"],"screen_resolution":[1280,720],"minimum_resolution":1,"trial":151,"drifts":[0.287,0.367,0.491,0.353],"drift_ix":0,"trial_type":"two-step-trial","trial_index":183,"time_elapsed":884158,"internal_node_id":"0.0-165.0-0.0","task_version":"1.0","jspsych_version":"6.3.1","browser_interactions":0,"missing":false},{"state_1_ids":[1,0],"state_1_key":0,"state_1_choice":1,"state_1_rt":558,"transition":0,"state":0,"state_2_ids":[0,1],"state_2_key":1,"state_2_choice":1,"state_2_rt":931,"outcome":0,"rocket_colors":["#48a782","#955db9"],"planet_colors":["#7f5d5d","#5f6f81"],"screen_resolution":[1280,720],"minimum_resolution":1,"trial":152,"drifts":[0.308,0.389,0.483,0.367],"drift_ix":0,"trial_type":"two-step-trial","trial_index":184,"time_elapsed":887672,"internal_node_id":"0.0-166.0-0.0","task_version":"1.0","jspsych_version":"6.3.1","browser_interactions":0,"missing":false},{"state_1_ids":[0,1],"state_1_key":1,"state_1_choice":1,"state_1_rt":518,"transition":1,"state":1,"state_2_ids":[2,3],"state_2_key":0,"state_2_choice":2,"state_2_rt":324,"outcome":0,"rocket_colors":["#48a782","#955db9"],"planet_colors":["#7f5d5d","#5f6f81"],"screen_resolution":[1280,720],"minimum_resolution":1,"trial":153,"drifts":[0.327,0.366,0.487,0.408],"drift_ix":0,"trial_type":"two-step-trial","trial_index":185,"time_elapsed":890529,"internal_node_id":"0.0-167.0-0.0","task_version":"1.0","jspsych_version":"6.3.1","browser_interactions":0,"missing":false},{"state_1_ids":[0,1],"state_1_key":0,"state_1_choice":0,"state_1_rt":484,"transition":1,"state":0,"state_2_ids":[0,1],"state_2_key":0,"state_2_choice":0,"state_2_rt":355,"outcome":0,"rocket_colors":["#48a782","#955db9"],"planet_colors":["#7f5d5d","#5f6f81"],"screen_resolution":[1280,720],"minimum_resolution":1,"trial":154,"drifts":[0.355,0.38,0.49,0.467],"drift_ix":0,"trial_type":"two-step-trial","trial_index":186,"time_elapsed":893387,"internal_node_id":"0.0-168.0-0.0","task_version":"1.0","jspsych_version":"6.3.1","browser_interactions":0,"missing":false},{"state_1_ids":[1,0],"state_