[{"responses":{"Q08":"1","Q06":"0","Q10":"0","Q03":"0","Q14":"0","Q07":"0","Q04":"0","Q05":"2","Q01":"0","Q15":"0","Q02":"1","Q12":"0","Q09":"1","Q11":"1","Q13":"0"},"rt":80320.52999996813,"survey":"7up7down","trial_type":"survey-template","trial_index":0,"time_elapsed":80329,"internal_node_id":"0.0-0.0","task_version":"screening-mturk"},{"responses":{"Q01":"2","Q02":"3","Q06":"2","Q08":"0","Q03":"0","Q05":"1","Q07":"2","Q04":"1"},"rt":35395.62999998452,"survey":"gad7","trial_type":"survey-template","trial_index":1,"time_elapsed":115727,"internal_node_id":"0.0-1.0","task_version":"screening-mturk"},{"responses":{"Q08":"2","Q02":"3","Q06":"2","Q03":"2","Q07":"3","Q09":"2","Q12":"1","Q10":"1","Q11":"2","Q05":"2","Q13":"3","Q04":"3","Q01":"3"},"rt":59573.489999980666,"survey":"bisbas","trial_type":"survey-template","trial_index":2,"time_elapsed":175303,"internal_node_id":"0.0-2.0","task_version":"screening-mturk"},{"responses":{"Q08":"2","Q01":"2","Q11":"2","Q03":"2","Q02":"2","Q15":"3","Q09":"3","Q14":"3","Q06":"3","Q04":"2","Q10":"2","Q13":"2","Q12":"3","Q07":"2","Q05":"2"},"rt":74197.82000000123,"survey":"shaps","trial_type":"survey-template","trial_index":3,"time_elapsed":249503,"internal_node_id":"0.0-3.0","task_version":"screening-mturk"},{"responses":{"Q01":"3","Q02":"2","Q03":"2"},"rt":10684.95999998413,"survey":"pswq","trial_type":"survey-template","trial_index":4,"time_elapsed":260190,"internal_node_id":"0.0-4.0","task_version":"screening-mturk"},{"view_history":"[{\"page_index\":0,\"viewing_time\":4150.495000008959},{\"page_index\":1,\"viewing_time\":6057.640000013635},{\"page_index\":2,\"viewing_time\":7133.764999976847},{\"page_index\":3,\"viewing_time\":2536.064999992959},{\"page_index\":4,\"viewing_time\":3026.6650000121444},{\"page_index\":5,\"viewing_time\":2077.3000000044703},{\"page_index\":6,\"viewing_time\":3600.0849999836646},{\"page_index\":7,\"viewing_time\":3435.1449999958277}]","rt":32018.09000002686,"trial_type":"instructions","trial_index":5,"time_elapsed":292209,"internal_node_id":"0.0-5.0-0.0","task_version":"screening-mturk"},{"responses":["True","True","False","False","True"],"num_errors":0,"rt":26089.780000038445,"trial_type":"three-arm-comprehension","trial_index":6,"time_elapsed":318302,"internal_node_id":"0.0-5.0-1.0","task_version":"screening-mturk"},{"view_history":"[{\"page_index\":0,\"viewing_time\":1699.5849999948405}]","rt":1699.7649999684654,"trial_type":"instructions","trial_index":7,"time_elapsed":320005,"internal_node_id":"0.0-6.0","task_version":"screening-mturk"},{"contexts":["red","blue","green"],"outcomes":[0,1,1],"key":null,"rt":null,"trial":1,"correct":1,"trial_type":"three-arm-trial","trial_index":8,"time_elapsed":335012,"internal_node_id":"0.0-7.0-0.0","task_version":"screening-mturk","missing":true},{"contexts":["red","blue","green"],"outcomes":[0,1,1],"key":38,"choice":1,"rt":922.0900000073016,"outcome":1,"trial":1,"correct":1,"trial_type":"three-arm-trial","trial_index":9,"time_elapsed":337137,"internal_node_id":"0.0-7.1-0.1","task_version":"screening-mturk","missing":false,"accuracy":1},{"contexts":["red","blue","green"],"outcomes":[0,1,0],"key":37,"choice":0,"rt":1044.7549999807961,"outcome":0,"trial":2,"correct":1,"trial_type":"three-arm-trial","trial_index":10,"time_elapsed":339385,"internal_node_id":"0.0-8.0-0.0","task_version":"screening-mturk","missing":false,"accuracy":0},{"contexts":["red","blue","green"],"outcomes":[0,1,1],"key":39,"choice":2,"rt":929.1899999952875,"outcome":1,"trial":3,"correct":1,"trial_type":"three-arm-trial","trial_index":11,"time_elapsed":341519,"internal_node_id":"0.0-9.0-0.0","task_version":"screening-mturk","missing":false,"accuracy":0},{"contexts":["red","blue","green"],"outcomes":[0,1,0],"key":38,"choice":1,"rt":662.3050000052899,"outcome":1,"trial":4,"correct":1,"trial_type":"three-arm-trial","trial_index":12,"time_elapsed":343385,"internal_node_id":"0.0-10.0-0.0","task_version":"screening-mturk","missing":false,"accuracy":1},{"contexts":["red","blue","green"],"outcomes":[1,1,0],"key":39,"choice":2,"rt":489.73000003024936,"outcome":0,"trial":5,"correct":1,"trial_type":"three-arm-trial","trial_index":13,"time_elapsed":345080,"internal_node_id":"0.0-11.0-0.0","task_version":"screening-mturk","missing":false,"accuracy":0},{"contexts":["red","blue","green"],"outcomes":[0,1,1],"key":38,"choice":1,"rt":402.3799999849871,"outcome":1,"trial":6,"correct":1,"trial_type":"three-arm-trial","trial_index":14,"time_elapsed":346687,"internal_node_id":"0.0-12.0-0.0","task_version":"screening-mturk","missing":false,"accuracy":1},{"contexts":["red","blue","green"],"outcomes":[0,1,0],"key":38,"choice":1,"rt":436.3650000304915,"outcome":1,"trial":7,"correct":1,"trial_type":"three-arm-trial","trial_index":15,"time_elapsed":348329,"internal_node_id":"0.0-13.0-0.0","task_version":"screening-mturk","missing":false,"accuracy":1},{"contexts":["red","blue","green"],"outcomes":[0,1,0],"key":38,"choice":1,"rt":811.5600000019185,"outcome":1,"trial":8,"correct":1,"trial_type":"three-arm-trial","trial_index":16,"time_elapsed":350346,"internal_node_id":"0.0-14.0-0.0","task_version":"screening-mturk","missing":false,"accuracy":1},{"contexts":["red","blue","green"],"outcomes":[0,1,0],"key":38,"choice":1,"rt":768.804999999702,"outcome":1,"trial":9,"correct":1,"trial_type":"three-arm-trial","trial_index":17,"time_elapsed":352319,"internal_node_id":"0.0-15.0-0.0","task_version":"screening-mturk","missing":false,"accuracy":1},{"contexts":["red","blue","green"],"outcomes":[1,1,1],"key":38,"choice":1,"rt":661.2299999687821,"outcome":1,"trial":10,"correct":1,"trial_type":"three-arm-trial","trial_index":18,"time_elapsed":354185,"internal_node_id":"0.0-16.0-0.0","task_version":"screening-mturk","missing":false,"accuracy":1},{"contexts":["red","blue","green"],"outcomes":[0,1,0],"key":38,"choice":1,"rt":568.8350000418723,"outcome":1,"trial":11,"correct":1,"trial_type":"three-arm-trial","trial_index":19,"time_elapsed":355959,"internal_node_id":"0.0-17.0-0.0","task_version":"screening-mturk","missing":false,"accuracy":1},{"contexts":["red","blue","green"],"outcomes":[0,1,0],"key":38,"choice":1,"rt":483.2099999766797,"outcome":1,"trial":12,"correct":1,"trial_type":"three-arm-trial","trial_index":20,"time_elapsed":357647,"internal_node_id":"0.0-18.0-0.0","task_version":"screening-mturk","missing":false,"accuracy":1},{"contexts":["red","blue","green"],"outcomes":[0,1,1],"key":38,"choice":1,"rt":461.77500003250316,"outcome":1,"trial":13,"correct":1,"trial_type":"three-arm-trial","trial_index":21,"time_elapsed":359312,"internal_node_id":"0.0-19.0-0.0","task_version":"screening-mturk","missing":false,"accuracy":1},{"contexts":["red","blue","green"],"outcomes":[0,1,0],"key":38,"choice":1,"rt":347.27000002749264,"outcome":1,"trial":14,"correct":1,"trial_type":"three-arm-trial","trial_index":22,"time_elapsed":360875,"internal_node_id":"0.0-20.0-0.0","task_version":"screening-mturk","missing":false,"accuracy":1},{"contexts":["red","blue","green"],"outcomes":[0,1,0],"key":38,"choice":1,"rt":384.5600000349805,"outcome":1,"trial":15,"correct":1,"trial_type":"three-arm-trial","trial_index":23,"time_elapsed":362464,"internal_node_id":"0.0-21.0-0.0","task_version":"screening-mturk","missing":false,"accuracy":1},{"contexts":["red","blue","green"],"outcomes":[1,0,0],"key":38,"choice":1,"rt":547.7649999666028,"outcome":0,"trial":16,"correct":0,"trial_type":"three-arm-trial","trial_index":24,"time_elapsed":364214,"internal_node_id":"0.0-22.0-0.0","task_version":"screening-mturk","missing":false,"accuracy":0},{"contexts":["red","blue","green"],"outcomes":[0,0,0],"key":38,"choice":1,"rt":814.7350000217557,"outcome":0,"trial":17,"correct":0,"trial_type":"three-arm-trial","trial_index":25,"time_elapsed":366233,"internal_node_id":"0.0-23.0-0.0","task_version":"screening-mturk","missing":false,"accuracy":0},{"contexts":["red","blue","green"],"outcomes":[1,1,1],"key":39,"choice":2,"rt":291.36500001186505,"outcome":1,"trial":18,"correct":0,"trial_type":"three-arm-trial","trial_index":26,"time_elapsed":367729,"internal_node_id":"0.0-24.0-0.0","task_version":"screening-mturk","missing":false,"accuracy":0},{"contexts":["red","blue","green"],"outcomes":[1,0,0],"key":39,"choice":2,"rt":713.9850000385195,"outcome":0,"trial":19,"correct":0,"trial_type":"three-arm-trial","trial_index":27,"time_elapsed":369645,"internal_node_id":"0.0-25.0-0.0","task_version":"screening-mturk","missing":false,"accuracy":0},{"contexts":["red","blue","green"],"outcomes":[1,0,0],"key":37,"choice":0,"rt":231.96000000461936,"outcome":1,"trial":20,"correct":0,"trial_type":"three-arm-trial","trial_index":28,"time_elapsed":371080,"internal_node_id":"0.0-26.0-0.0","task_version":"screening-mturk","missing":false,"accuracy":1},{"contexts":["red","blue","green"],"outcomes":[1,1,0],"key":37,"choice":0,"rt":386.0799999674782,"outcome":1,"trial":21,"correct":0,"trial_type":"three-arm-trial","trial_index":29,"time_elapsed":372670,"internal_node_id":"0.0-27.0-0.0","task_version":"screening-mturk","missing":false,"accuracy":1},{"contexts":["red","blue","green"],"outcomes":[1,0,0],"key":37,"choice":0,"rt":471.35499998694286,"outcome":1,"trial":22,"correct":0,"trial_type":"three-arm-trial","trial_index":30,"time_elapsed":374344,"internal_node_id":"0.0-28.0-0.0","task_version":"screening-mturk","missing":false,"accuracy":1},{"contexts":["red","blue","green"],"outcomes":[1,0,0],"key":37,"choice":0,"rt":604.6949999872595,"outcome":1,"trial":23,"correct":0,"trial_type":"three-arm-trial","trial_index":31,"time_elapsed":376155,"internal_node_id":"0.0-29.0-0.0","task_version":"screening-mturk","missing":false,"accuracy":1},{"contexts":["red","blue","green"],"outcomes":[1,0,0],"key":37,"choice":0,"rt":367.84999998053536,"outcome":1,"trial":24,"correct":0,"trial_type":"three-arm-trial","trial_index":32,"time_elapsed":377729,"internal_node_id":"0.0-30.0-0.0","task_version":"screening-mturk","missing":false,"accuracy":1},{"contexts":["red","blue","green"],"outcomes":[1,1,0],"key":37,"choice":0,"rt":330.85500000743195,"outcome":1,"trial":25,"correct":0,"trial_type":"three-arm-trial","trial_index":33,"time_elapsed":379264,"internal_node_id":"0.0-31.0-0.0","task_version":"screening-mturk","missing":false,"accuracy":1},{"contexts":["red","blue","green"],"outcomes":[0,0,1],"key":37,"choice":0,"rt":332.98000000650063,"outcome":0,"trial":26,"correct":0,"trial_type":"three-arm-trial","trial_index":34,"time_elapsed":380799,"internal_node_id":"0.0-32.0-0.0","task_version":"screening-mturk","missing":false,"accuracy":1},{"contexts":["red","blue","green"],"outcomes":[1,0,0],"key":38,"choice":1,"rt":207.76000001933426,"outcome":0,"trial":27,"correct":0,"trial_type":"three-arm-trial","trial_index":35,"time_elapsed":382210,"internal_node_id":"0.0-33.0-0.0","task_version":"screening-mturk","missing":false,"accuracy":0},{"contexts":["red","blue","green"],"outcomes":[0,0,0],"key":39,"choice":2,"rt":560.4549999698065,"outcome":0,"trial":28,"correct":0,"trial_type":"three-arm-trial","trial_index":36,"time_elapsed":383978,"internal_node_id":"0.0-34.0-0.0","task_version":"screening-mturk","missing":false,"accuracy":0},{"contexts":["red","blue","green"],"outcomes":[1,0,1],"key":37,"choice":0,"rt":609.1000000014901,"outcome":1,"trial":29,"correct":0,"trial_type":"three-arm-trial","trial_index":37,"time_elapsed":385792,"internal_node_id":"0.0-35.0-0.0","task_version":"screening-mturk","missing":false,"accuracy":1},{"contexts":["red","blue","green"],"outcomes":[1,0,0],"key":37,"choice":0,"rt":449.9400000204332,"outcome":1,"trial":30,"correct":0,"trial_type":"three-arm-trial","trial_index":38,"time_elapsed":387447,"internal_node_id":"0.0-36.0-0.0","task_version":"screening-mturk","missing":false,"accuracy":1},{"contexts":["red","blue","green"],"outcomes":[0,0,0],"key":37,"choice":0,"rt":380.2900000009686,"outcome":0,"trial":31,"correct":2,"trial_type":"three-arm-trial","trial_index":39,"time_elapsed":389033,"internal_node_id":"0.0-37.0-0.0","task_version":"screening-mturk","missing":false,"accuracy":0},{"contexts":["red","blue","green"],"outcomes":[0,0,1],"key":38,"choice":1,"rt":283.20999996503815,"outcome":0,"trial":32,"correct":2,"trial_type":"three-arm-trial","trial_index":40,"time_elapsed":390520,"internal_node_id":"0.0-38.0-0.0","task_version":"screening-mturk","missing":false,"accuracy":0},{"contexts":["red","blue","green"],"outcomes":[0,1,1],"key":39,"choice":2,"rt":322.56000000052154,"outcome":1,"trial":33,"correct":2,"trial_type":"three-arm-trial","trial_index":41,"time_elapsed":392049,"internal_node_id":"0.0-39.0-0.0","task_version":"screening-mturk","missing":false,"accuracy":1},{"contexts":["red","blue","green"],"outcomes":[1,0,1],"key":39,"choice":2,"rt":322.28999998187646,"outcome":1,"trial":34,"correct":2,"trial_type":"three-arm-trial","trial_index":42,"time_elapsed":393577,"internal_node_id":"0.0-40.0-0.0","task_version":"screening-mturk","missing":false,"accuracy":1},{"contexts":["red","blue","green"],"outcomes":[0,0,1],"key":39,"choice":2,"rt":281.7899999790825,"outcome":1,"trial":35,"correct":2,"trial_type":"three-arm-trial","trial_index":43,"time_elapsed":395064,"internal_node_id":"0.0-41.0-0.0","task_version":"screening-mturk","missing":false,"accuracy":1},{"contexts":["red","blue","green"],"outcomes":[0,0,1],"key":39,"choice":2,"rt":355.10000004433095,"outcome":1,"trial":36,"correct":2,"trial_type":"three-arm-trial","trial_index":44,"time_elapsed":396626,"internal_node_id":"0.0-42.0-0.0","task_version":"screening-mturk","missing":false,"accuracy":1},{"contexts":["red","blue","green"],"outcomes":[0,0,1],"key":39,"choice":2,"rt":336.37000003363937,"outcome":1,"trial":37,"correct":2,"trial_type":"three-arm-trial","trial_index":45,"time_elapsed":398170,"internal_node_id":"0.0-43.0-0.0","task_version":"screening-mturk","missing":false,"accuracy":1},{"contexts":["red","blue","green"],"outcomes":[0,0,1],"key":39,"choice":2,"rt":32.605000014882535,"outcome":1,"trial":38,"correct":2,"trial_type":"three-arm-trial","trial_index":46,"time_elapsed":399407,"internal_node_id":"0.0-44.0-0.0","task_version":"screening-mturk","missing":false,"accuracy":1},{"contexts":["red","blue","green"],"outcomes":[0,0,0],"key":39,"choice":2,"rt":301.0350000113249,"outcome":0,"trial":39,"correct":2,"trial_type":"three-arm-trial","trial_index":47,"time_elapsed":400911,"internal_node_id":"0.0-45.0-0.0","task_version":"screening-mturk","missing":false,"accuracy":1},{"contexts":["red","blue","green"],"outcomes":[1,0,1],"key":37,"choice":0,"rt":333.31499999621883,"outcome":1,"trial":40,"correct":2,"trial_type":"three-arm-trial","trial_index":48,"time_elapsed":402448,"internal_node_id":"0.0-46.0-0.0","task_version":"screening-mturk","missing":false,"accuracy":0},{"contexts":["red","blue","green"],"outcomes":[0,0,1],"key":37,"choice":0,"rt":482.43999999249354,"outcome":0,"trial":41,"correct":2,"trial_type":"three-arm-trial","trial_index":49,"time_elapsed":404136,"internal_node_id":"0.0-47.0-0.0","task_version":"screening-mturk","missing":false,"accuracy":0},{"contexts":["red","blue","green"],"outcomes":[1,0,1],"key":38,"choice":1,"rt":379.8100000130944,"outcome":0,"trial":42,"correct":2,"trial_type":"three-arm-trial","trial_index":50,"time_elapsed":405722,"internal_node_id":"0.0-48.0-0.0","task_version":"screening-mturk","missing":false,"accuracy":0},{"contexts":["red","blue","green"],"outcomes":[0,0,1],"key":39,"choice":2,"rt":569.5349999587052,"outcome":1,"trial":43,"correct":2,"trial_type":"three-arm-trial","trial_index":51,"time_elapsed":407498,"internal_node_id":"0.0-49.0-0.0","task_version":"screening-mturk","missing":false,"accuracy":1},{"contexts":["red","blue","green"],"outcomes":[0,1,1],"key":39,"choice":2,"rt":464.159999974072,"outcome":1,"trial":44,"correct":2,"trial_type":"three-arm-trial","trial_index":52,"time_elapsed":409169,"internal_node_id":"0.0-50.0-0.0","task_version":"screening-mturk","missing":false,"accuracy":1},{"contexts":["red","blue","green"],"outcomes":[0,0,0],"key":39,"choice":2,"rt":513.619999983348,"outcome":0,"trial":45,"correct":2,"trial_type":"three-arm-trial","trial_index":53,"time_elapsed":410889,"internal_node_id":"0.0-51.0-0.0","task_version":"screening-mturk","missing":false,"accuracy":1},{"contexts":["red","blue","green"],"outcomes":[1,1,1],"key":37,"choice":0,"rt":380.4099999833852,"outcome":1,"trial":46,"correct":0,"trial_type":"three-arm-trial","trial_index":54,"time_elapsed":412474,"internal_node_id":"0.0-52.0-0.0","task_version":"screening-mturk","missing":false,"accuracy":1},{"contexts":["red","blue","green"],"outcomes":[1,0,0],"key":37,"choice":0,"rt":705.6950000114739,"outcome":1,"trial":47,"correct":0,"trial_type":"three-arm-trial","trial_index":55,"time_elapsed":414385,"internal_node_id":"0.0-53.0-0.0","task_version":"screening-mturk","missing":false,"accuracy":1},{"contexts":["red","blue","green"],"outcomes":[1,0,0],"key":37,"choice":0,"rt":498.7649999675341,"outcome":1,"trial":48,"correct":0,"trial_type":"three-arm-trial","trial_index":56,"time_elapsed":416089,"internal_node_id":"0.0-54.0-0.0","task_version":"screening-mturk","missing":false,"accuracy":1},{"contexts":["red","blue","green"],"outcomes":[1,1,0],"key":37,"choice":0,"rt":402.6999999769032,"outcome":1,"trial":49,"correct":0,"trial_type":"three-arm-trial","trial_index":57,"time_elapsed":417697,"internal_node_id":"0.0-55.0-0.0","task_version":"screening-mturk","missing":false,"accuracy":1},{"contexts":["red","blue","green"],"outcomes":[0,0,0],"key":37,"choice":0,"rt":971.0849999682978,"outcome":0,"trial":50,"correct":0,"trial_type":"three-arm-trial","trial_index":58,"time_elapsed":419873,"internal_node_id":"0.0-56.0-0.0","task_version":"screening-mturk","missing":false,"accuracy":1},{"contexts":["red","blue","green"],"outcomes":[1,0,0],"key":38,"choice":1,"rt":811.4099999656901,"outcome":0,"trial":51,"correct":0,"trial_type":"three-arm-trial","trial_index":59,"time_elapsed":421889,"internal_node_id":"0.0-57.0-0.0","task_version":"screening-mturk","missing":false,"accuracy":0},{"contexts":["red","blue","green"],"outcomes":[1,0,0],"key":39,"choice":2,"rt":435.00500003574416,"outcome":0,"trial":52,"correct":0,"trial_type":"three-arm-trial","trial_index":60,"time_elapsed":423529,"internal_node_id":"0.0-58.0-0.0","task_version":"screening-mturk","missing":false,"accuracy":0},{"contexts":["red","blue","green"],"outcomes":[1,0,1],"key":37,"choice":0,"rt":387.2199999750592,"outcome":1,"trial":53,"correct":0,"trial_type":"three-arm-trial","trial_index":61,"time_elapsed":425121,"internal_node_id":"0.0-59.0-0.0","task_version":"screening-mturk","missing":false,"accuracy":1},{"contexts":["red","blue","green"],"outcomes":[1,0,0],"key":37,"choice":0,"rt":682.3100000037812,"outcome":1,"trial":54,"correct":0,"trial_type":"three-arm-trial","trial_index":62,"time_elapsed":427007,"internal_node_id":"0.0-60.0-0.0","task_version":"screening-mturk","missing":false,"accuracy":1},{"contexts":["red","blue","green"],"outcomes":[1,0,0],"key":37,"choice":0,"rt":557.8899999964051,"outcome":1,"trial":55,"correct":0,"trial_type":"three-arm-trial","trial_index":63,"time_elapsed":428768,"internal_node_id":"0.0-61.0-0.0","task_version":"screening-mturk","missing":false,"accuracy":1},{"contexts":["red","blue","green"],"outcomes":[1,0,0],"key":37,"choice":0,"rt":433.98999999044463,"outcome":1,"trial":56,"correct":0,"trial_type":"three-arm-trial","trial_index":64,"time_elapsed":430409,"internal_node_id":"0.0-62.0-0.0","task_version":"screening-mturk","missing":false,"accuracy":1},{"contexts":["red","blue","green"],"outcomes":[1,0,1],"key":37,"choice":0,"rt":361.56000004848465,"outcome":1,"trial":57,"correct":0,"trial_type":"three-arm-trial","trial_index":65,"time_elapsed":431976,"internal_node_id":"0.0-63.0-0.0","task_version":"screening-mturk","missing":false,"accuracy":1},{"contexts":["red","blue","green"],"outcomes":[1,1,0],"key":37,"choice":0,"rt":868.1099999812432,"outcome":1,"trial":58,"correct":0,"trial_type":"three-arm-trial","trial_index":66,"time_elapsed":434048,"internal_node_id":"0.0-64.0-0.0","task_version":"screening-mturk","missing":false,"accuracy":1},{"contexts":["red","blue","green"],"outcomes":[1,0,1],"key":37,"choice":0,"rt":166.25499998917803,"outcome":1,"trial":59,"correct":0,"trial_type":"three-arm-trial","trial_index":67,"time_elapsed":435417,"internal_node_id":"0.0-65.0-0.0","task_version":"screening-mturk","missing":false,"accuracy":1},{"contexts":["red","blue","green"],"outcomes":[1,0,0],"key":37,"choice":0,"rt":556.1149999848567,"outcome":1,"trial":60,"correct":0,"trial_type":"three-arm-trial","trial_index":68,"time_elapsed":437176,"internal_node_id":"0.0-66.0-0.0","task_version":"screening-mturk","missing":false,"accuracy":1},{"contexts":["red","blue","green"],"outcomes":[0,1,0],"key":37,"choice":0,"rt":467.0349999796599,"outcome":0,"trial":61,"correct":1,"trial_type":"three-arm-trial","trial_index":69,"time_elapsed":438852,"internal_node_id":"0.0-67.0-0.0","task_version":"screening-mturk","missing":false,"accuracy":0},{"contexts":["red","blue","green"],"outcomes":[1,1,0],"key":38,"choice":1,"rt":247.95499996980652,"outcome":1,"trial":62,"correct":1,"trial_type":"three-arm-trial","trial_index":70,"time_elapsed":440305,"internal_node_id":"0.0-68.0-0.0","task_version":"screening-mturk","missing":false,"accuracy":1},{"contexts":["red","blue","green"],"outcomes":[0,1,0],"key":38,"choice":1,"rt":418.2149999542162,"outcome":1,"trial":63,"correct":1,"trial_type":"three-arm-trial","trial_index":71,"time_elapsed":441927,"internal_node_id":"0.0-69.0-0.0","task_version":"screening-mturk","missing":false,"accuracy":1},{"contexts":["red","blue","green"],"outcomes":[0,1,0],"key":38,"choice":1,"rt":1196.8150000320747,"outcome":1,"trial":64,"correct":1,"trial_type":"three-arm-trial","trial_index":72,"time_elapsed":444327,"internal_node_id":"0.0-70.0-0.0","task_version":"screening-mturk","missing":false,"accuracy":1},{"contexts":["red","blue","green"],"outcomes":[0,1,0],"key":38,"choice":1,"rt":766.8000000412576,"outcome":1,"trial":65,"correct":1,"trial_type":"three-arm-trial","trial_index":73,"time_elapsed":446297,"internal_node_id":"0.0-71.0-0.0","task_version":"screening-mturk","missing":false,"accuracy":1},{"contexts":["red","blue","green"],"outcomes":[1,1,0],"key":38,"choice":1,"rt":580.130000016652,"outcome":1,"trial":66,"correct":1,"trial_type":"three-arm-trial","trial_index":74,"time_elapsed":448080,"internal_node_id":"0.0-72.0-0.0","task_version":"screening-mturk","missing":false,"accuracy":1},{"contexts":["red","blue","green"],"outcomes":[0,1,0],"key":38,"choice":1,"rt":555.1849999465048,"outcome":1,"trial":67,"correct":1,"trial_type":"three-arm-trial","trial_index":75,"time_elapsed":449840,"internal_node_id":"0.0-73.0-0.0","task_version":"screening-mturk","missing":false,"accuracy":1},{"contexts":["red","blue","green"],"outcomes":[1,1,1],"key":38,"choice":1,"rt":371.854999975767,"outcome":1,"trial":68,"correct":1,"trial_type":"three-arm-trial","trial_index":76,"time_elapsed":451416,"internal_node_id":"0.0-74.0-0.0","task_version":"screening-mturk","missing":false,"accuracy":1},{"contexts":["red","blue","green"],"outcomes":[1,1,0],"key":38,"choice":1,"rt":379.4700000435114,"outcome":1,"trial":69,"correct":1,"trial_type":"three-arm-trial","trial_index":77,"time_elapsed":453001,"internal_node_id":"0.0-75.0-0.0","task_version":"screening-mturk","missing":false,"accuracy":1},{"contexts":["red","blue","green"],"outcomes":[1,1,0],"key":38,"choice":1,"rt":427.17999999877065,"outcome":1,"trial":70,"correct":1,"trial_type":"three-arm-trial","trial_index":78,"time_elapsed":454634,"internal_node_id":"0.0-76.0-0.0","task_version":"screening-mturk","missing":false,"accuracy":1},{"contexts":["red","blue","green"],"outcomes":[1,1,0],"key":38,"choice":1,"rt":747.0150000299327,"outcome":1,"trial":71,"correct":1,"trial_type":"three-arm-trial","trial_index":79,"time_elapsed":456586,"internal_node_id":"0.0-77.0-0.0","task_version":"screening-mturk","missing":false,"accuracy":1},{"contexts":["red","blue","green"],"outcomes":[0,1,1],"key":38,"choice":1,"rt":433.7449999875389,"outcome":1,"trial":72,"correct":1,"trial_type":"three-arm-trial","trial_index":80,"time_elapsed":458226,"internal_node_id":"0.0-78.0-0.0","task_version":"screening-mturk","missing":false,"accuracy":1},{"contexts":["red","blue","green"],"outcomes":[0,1,0],"key":38,"choice":1,"rt":434.49499999405816,"outcome":1,"trial":73,"correct":1,"trial_type":"three-arm-trial","trial_index":81,"time_elapsed":459865,"internal_node_id":"0.0-79.0-0.0","task_version":"screening-mturk","missing":false,"accuracy":1},{"contexts":["red","blue","green"],"outcomes":[0,1,1],"key":38,"choice":1,"rt":404.54500005580485,"outcome":1,"trial":74,"correct":1,"trial_type":"three-arm-trial","trial_index":82,"time_elapsed":461473,"internal_node_id":"0.0-80.0-0.0","task_version":"screening-mturk","missing":false,"accuracy":1},{"contexts":["red","blue","green"],"outcomes":[1,1,0],"key":38,"choice":1,"rt":330.85999998729676,"outcome":1,"trial":75,"correct":1,"trial_type":"three-arm-trial","trial_index":83,"time_elapsed":463008,"internal_node_id":"0.0-81.0-0.0","task_version":"screening-mturk","missing":false,"accuracy":1},{"contexts":["red","blue","green"],"outcomes":[0,1,0],"key":38,"choice":1,"rt":315.37500000558794,"outcome":1,"trial":76,"correct":2,"trial_type":"three-arm-trial","trial_index":84,"time_elapsed":464528,"internal_node_id":"0.0-82.0-0.0","task_version":"screening-mturk","missing":false,"accuracy":0},{"contexts":["red","blue","green"],"outcomes":[0,0,1],"key":38,"choice":1,"rt":340.7949999673292,"outcome":0,"trial":77,"correct":2,"trial_type":"three-arm-trial","trial_index":85,"time_elapsed":466072,"internal_node_id":"0.0-83.0-0.0","task_version":"screening-mturk","missing":false,"accuracy":0},{"contexts":["red","blue","green"],"outcomes":[0,0,1],"key":39,"choice":2,"rt":60.63500000163913,"outcome":1,"trial":78,"correct":2,"trial_type":"three-arm-trial","trial_index":86,"time_elapsed":467336,"internal_node_id":"0.0-84.0-0.0","task_version":"screening-mturk","missing":false,"accuracy":1},{"contexts":["red","blue","green"],"outcomes":[0,0,1],"key":39,"choice":2,"rt":394.15499998722225,"outcome":1,"trial":79,"correct":2,"trial_type":"three-arm-trial","trial_index":87,"time_elapsed":468936,"internal_node_id":"0.0-85.0-0.0","task_version":"screening-mturk","missing":false,"accuracy":1},{"contexts":["red","blue","green"],"outcomes":[0,0,0],"key":39,"choice":2,"rt":364.69999997643754,"outcome":0,"trial":80,"correct":2,"trial_type":"three-arm-trial","trial_index":88,"time_elapsed":470503,"internal_node_id":"0.0-86.0-0.0","task_version":"screening-mturk","missing":false,"accuracy":1},{"contexts":["red","blue","green"],"outcomes":[0,1,1],"key":37,"choice":0,"rt":573.1099999975413,"outcome":0,"trial":81,"correct":2,"trial_type":"three-arm-trial","trial_index":89,"time_elapsed":472280,"internal_node_id":"0.0-87.0-0.0","task_version":"screening-mturk","missing":false,"accuracy":0},{"contexts":["red","blue","green"],"outcomes":[0,0,0],"key":38,"choice":1,"rt":1095.4199999687262,"outcome":0,"trial":82,"correct":2,"trial_type":"three-arm-trial","trial_index":90,"time_elapsed":474578,"internal_node_id":"0.0-88.0-0.0","task_version":"screening-mturk","missing":false,"accuracy":0},{"contexts":["red","blue","green"],"outcomes":[0,0,1],"key":39,"choice":2,"rt":577.5699999649078,"outcome":1,"trial":83,"correct":2,"trial_type":"three-arm-trial","trial_index":91,"time_elapsed":476361,"internal_node_id":"0.0-89.0-0.0","task_version":"screening-mturk","missing":false,"accuracy":1},{"contexts":["red","blue","green"],"outcomes":[1,0,1],"key":39,"choice":2,"rt":323.86000000406057,"outcome":1,"trial":84,"correct":2,"trial_type":"three-arm-trial","trial_index":92,"time_elapsed":477887,"internal_node_id":"0.0-90.0-0.0","task_version":"screening-mturk","missing":false,"accuracy":1},{"contexts":["red","blue","green"],"outcomes":[0,0,1],"key":39,"choice":2,"rt":917.1600000117905,"outcome":1,"trial":85,"correct":2,"trial_type":"three-arm-trial","trial_index":93,"time_elapsed":480008,"internal_node_id":"0.0-91.0-0.0","task_version":"screening-mturk","missing":false,"accuracy":1},{"contexts":["red","blue","green"],"outcomes":[0,0,1],"key":39,"choice":2,"rt":693.1099999928847,"outcome":1,"trial":86,"correct":2,"trial_type":"three-arm-trial","trial_index":94,"time_elapsed":481906,"internal_node_id":"0.0-92.0-0.0","task_version":"screening-mturk","missing":false,"accuracy":1},{"contexts":["red","blue","green"],"outcomes":[0,0,1],"key":39,"choice":2,"rt":400.81500000087544,"outcome":1,"trial":87,"correct":2,"trial_type":"three-arm-trial","trial_index":95,"time_elapsed":483514,"internal_node_id":"0.0-93.0-0.0","task_version":"screening-mturk","missing":false,"accuracy":1},{"contexts":["red","blue","green"],"outcomes":[0,1,1],"key":39,"choice":2,"rt":3219.944999960717,"outcome":1,"trial":88,"correct":2,"trial_type":"three-arm-trial","trial_index":96,"time_elapsed":487937,"internal_node_id":"0.0-94.0-0.0","task_version":"screening-mturk","missing":false,"accuracy":1},{"contexts":["red","blue","green"],"outcomes":[0,0,1],"key":39,"choice":2,"rt":540.2950000134297,"outcome":1,"trial":89,"correct":2,"trial_type":"three-arm-trial","trial_index":97,"time_elapsed":489680,"internal_node_id":"0.0-95.0-0.0","task_version":"screening-mturk","missing":false,"accuracy":1},{"contexts":["red","blue","green"],"outcomes":[0,1,1],"key":39,"choice":2,"rt":611.0200000111945,"outcome":1,"trial":90,"correct":2,"trial_type":"three-arm-trial","trial_index":98,"time_elapsed":491496,"internal_node_id":"0.0-96.0-0.0","task_version":"screening-mturk","missing":false,"accuracy":1},{"rt":21536.05500003323,"responses":{"age":"48","gender-categorical":"Female","gender-free-response":"","ethnicity":"Not Hispanic or Latino","race":["White"],"language":"Yes","fluency":"Very well","prolific":"No","prolific-this-study":"No"},"survey":"demographics","trial_type":"survey-demo","trial_index":99,"time_elapsed":513041,"internal_node_id":"0.0-97.0","task_version":"screening-mturk","interactions":"[]"}]