[{"responses":{"Q09":"0","Q13":"1","Q07":"2","Q08":"1","Q12":"2","Q01":"2","Q05":"1","Q02":"1","Q15":"1","Q11":"2","Q14":"0","Q03":"2","Q04":"1","Q10":"1","Q06":"1"},"rt":129328.13000003807,"survey":"7up7down","trial_type":"survey-template","trial_index":0,"time_elapsed":129349,"internal_node_id":"0.0-0.0","task_version":"screening-mturk"},{"responses":{"Q02":"1","Q07":"1","Q01":"2","Q05":"1","Q06":"1","Q08":"0","Q03":"1","Q04":"1"},"rt":44096.09499992803,"survey":"gad7","trial_type":"survey-template","trial_index":1,"time_elapsed":173449,"internal_node_id":"0.0-1.0","task_version":"screening-mturk"},{"responses":{"Q02":"2","Q03":"2","Q11":"3","Q04":"2","Q06":"2","Q07":"3","Q15":"2","Q01":"1","Q14":"2","Q08":"2","Q05":"3","Q09":"2","Q13":"2","Q12":"3","Q10":"2"},"rt":57486.5900001023,"survey":"shaps","trial_type":"survey-template","trial_index":2,"time_elapsed":230942,"internal_node_id":"0.0-2.0","task_version":"screening-mturk"},{"responses":{"Q03":"1","Q01":"2","Q02":"1"},"rt":19849.329999880865,"survey":"pswq","trial_type":"survey-template","trial_index":3,"time_elapsed":250795,"internal_node_id":"0.0-3.0","task_version":"screening-mturk"},{"responses":{"Q02":"2","Q01":"1","Q12":"2","Q07":"2","Q13":"1","Q09":"2","Q08":"2","Q06":"2","Q03":"1","Q04":"2","Q11":"1","Q10":"2","Q05":"2"},"rt":70220.10500007309,"survey":"bisbas","trial_type":"survey-template","trial_index":4,"time_elapsed":321019,"internal_node_id":"0.0-4.0","task_version":"screening-mturk"},{"view_history":"[{\"page_index\":0,\"viewing_time\":9788.670000154525},{\"page_index\":1,\"viewing_time\":8375.164999859408},{\"page_index\":2,\"viewing_time\":13871.455000014976},{\"page_index\":3,\"viewing_time\":10880.540000041947},{\"page_index\":4,\"viewing_time\":4008.200000040233},{\"page_index\":5,\"viewing_time\":4696.119999978691},{\"page_index\":6,\"viewing_time\":4959.83500010334},{\"page_index\":7,\"viewing_time\":6975.659999996424}]","rt":63557.02000018209,"trial_type":"instructions","trial_index":5,"time_elapsed":384577,"internal_node_id":"0.0-5.0-0.0","task_version":"screening-mturk"},{"responses":["True","False","True","False","False"],"num_errors":3,"rt":37950.18499996513,"trial_type":"three-arm-comprehension","trial_index":6,"time_elapsed":422533,"internal_node_id":"0.0-5.0-1.0","task_version":"screening-mturk"},{"view_history":"[{\"page_index\":0,\"viewing_time\":3567.00999988243},{\"page_index\":1,\"viewing_time\":3488.4450000245124},{\"page_index\":2,\"viewing_time\":1944.039999973029},{\"page_index\":3,\"viewing_time\":2345.265000127256},{\"page_index\":4,\"viewing_time\":6422.634999966249},{\"page_index\":5,\"viewing_time\":4855.745000066236},{\"page_index\":6,\"viewing_time\":1855.6399999652058},{\"page_index\":7,\"viewing_time\":2456.1600000597537}]","rt":26935.38499996066,"trial_type":"instructions","trial_index":7,"time_elapsed":449473,"internal_node_id":"0.0-5.1-0.1","task_version":"screening-mturk"},{"responses":["True","True","False","True","True"],"num_errors":1,"rt":22726.950000040233,"trial_type":"three-arm-comprehension","trial_index":8,"time_elapsed":472203,"internal_node_id":"0.0-5.1-1.1","task_version":"screening-mturk"},{"view_history":"[{\"page_index\":0,\"viewing_time\":3524.4849999435246},{\"page_index\":1,\"viewing_time\":7815.030000172555},{\"page_index\":2,\"viewing_time\":4360.004999907687},{\"page_index\":3,\"viewing_time\":9864.439999917522},{\"page_index\":4,\"viewing_time\":9767.710000043735},{\"page_index\":5,\"viewing_time\":4527.5900000706315},{\"page_index\":6,\"viewing_time\":3641.1800000350922},{\"page_index\":7,\"viewing_time\":4039.009999949485}]","rt":47539.93500000797,"trial_type":"instructions","trial_index":9,"time_elapsed":519746,"internal_node_id":"0.0-5.2-0.2","task_version":"screening-mturk"},{"responses":["True","True","True","True","True"],"num_errors":2,"rt":23389.69499990344,"trial_type":"three-arm-comprehension","trial_index":10,"time_elapsed":543139,"internal_node_id":"0.0-5.2-1.2","task_version":"screening-mturk"},{"view_history":"[{\"page_index\":0,\"viewing_time\":2267.435000045225},{\"page_index\":1,\"viewing_time\":488.69499983265996},{\"page_index\":2,\"viewing_time\":759.4400001689792},{\"page_index\":3,\"viewing_time\":1040.149999782443},{\"page_index\":4,\"viewing_time\":1026.5150000341237},{\"page_index\":5,\"viewing_time\":716.8750001583248},{\"page_index\":6,\"viewing_time\":859.4349999912083},{\"page_index\":7,\"viewing_time\":812.5350000336766}]","rt":7971.464999951422,"trial_type":"instructions","trial_index":11,"time_elapsed":551114,"internal_node_id":"0.0-5.3-0.3","task_version":"screening-mturk"},{"responses":["True","False","False","False","False"],"num_errors":2,"rt":14350.35500000231,"trial_type":"three-arm-comprehension","trial_index":12,"time_elapsed":565467,"internal_node_id":"0.0-5.3-1.3","task_version":"screening-mturk"},{"view_history":"[{\"page_index\":0,\"viewing_time\":2052.5699998252094},{\"page_index\":1,\"viewing_time\":801.0400000493973},{\"page_index\":2,\"viewing_time\":1639.4500001333654},{\"page_index\":3,\"viewing_time\":1071.4399998541921},{\"page_index\":4,\"viewing_time\":784.8100000992417},{\"page_index\":5,\"viewing_time\":767.2599998768419},{\"page_index\":6,\"viewing_time\":822.9900000151247},{\"page_index\":7,\"viewing_time\":818.7250001356006}]","rt":8758.669999893755,"trial_type":"instructions","trial_index":13,"time_elapsed":574228,"internal_node_id":"0.0-5.4-0.4","task_version":"screening-mturk"},{"responses":["False","False","False","False","False"],"num_errors":3,"rt":9805.674999952316,"trial_type":"three-arm-comprehension","trial_index":14,"time_elapsed":584036,"internal_node_id":"0.0-5.4-1.4","task_version":"screening-mturk"},{"view_history":"[{\"page_index\":0,\"viewing_time\":2347.5450000260025},{\"page_index\":1,\"viewing_time\":1303.9649999700487},{\"page_index\":2,\"viewing_time\":1694.8850001208484},{\"page_index\":3,\"viewing_time\":544.9599998537451},{\"page_index\":4,\"viewing_time\":696.239999961108},{\"page_index\":5,\"viewing_time\":728.025000076741},{\"page_index\":6,\"viewing_time\":720.0800001155585},{\"page_index\":7,\"viewing_time\":799.6749999001622}]","rt":8835.835000034422,"trial_type":"instructions","trial_index":15,"time_elapsed":592874,"internal_node_id":"0.0-5.5-0.5","task_version":"screening-mturk"},{"responses":["True","True","False","False","True"],"num_errors":0,"rt":18727.455000160262,"trial_type":"three-arm-comprehension","trial_index":16,"time_elapsed":611605,"internal_node_id":"0.0-5.5-1.5","task_version":"screening-mturk"},{"view_history":"[{\"page_index\":0,\"viewing_time\":3090.3999998699874}]","rt":3090.844999998808,"trial_type":"instructions","trial_index":17,"time_elapsed":614699,"internal_node_id":"0.0-6.0","task_version":"screening-mturk"},{"contexts":["blue","red","green"],"outcomes":[1,1,0],"key":null,"rt":null,"trial":1,"correct":1,"trial_type":"three-arm-trial","trial_index":18,"time_elapsed":629705,"internal_node_id":"0.0-7.0-0.0","task_version":"screening-mturk","missing":true},{"contexts":["blue","red","green"],"outcomes":[1,1,0],"key":39,"choice":2,"rt":1222.7000000420958,"outcome":0,"trial":1,"correct":1,"trial_type":"three-arm-trial","trial_index":19,"time_elapsed":632131,"internal_node_id":"0.0-7.1-0.1","task_version":"screening-mturk","missing":false,"accuracy":0},{"contexts":["blue","red","green"],"outcomes":[1,1,1],"key":37,"choice":0,"rt":1173.9999998826534,"outcome":1,"trial":2,"correct":1,"trial_type":"three-arm-trial","trial_index":20,"time_elapsed":634508,"internal_node_id":"0.0-8.0-0.0","task_version":"screening-mturk","missing":false,"accuracy":0},{"contexts":["blue","red","green"],"outcomes":[0,1,0],"key":38,"choice":1,"rt":2162.2150000184774,"outcome":1,"trial":3,"correct":1,"trial_type":"three-arm-trial","trial_index":21,"time_elapsed":637874,"internal_node_id":"0.0-9.0-0.0","task_version":"screening-mturk","missing":false,"accuracy":1},{"contexts":["blue","red","green"],"outcomes":[0,1,1],"key":37,"choice":0,"rt":1702.95500010252,"outcome":0,"trial":4,"correct":1,"trial_type":"three-arm-trial","trial_index":22,"time_elapsed":640782,"internal_node_id":"0.0-10.0-0.0","task_version":"screening-mturk","missing":false,"accuracy":0},{"contexts":["blue","red","green"],"outcomes":[0,1,0],"key":38,"choice":1,"rt":1177.0399999804795,"outcome":1,"trial":5,"correct":1,"trial_type":"three-arm-trial","trial_index":23,"time_elapsed":643163,"internal_node_id":"0.0-11.0-0.0","task_version":"screening-mturk","missing":false,"accuracy":1},{"contexts":["blue","red","green"],"outcomes":[0,1,0],"key":39,"choice":2,"rt":1329.0450000204146,"outcome":0,"trial":6,"correct":1,"trial_type":"three-arm-trial","trial_index":24,"time_elapsed":645695,"internal_node_id":"0.0-12.0-0.0","task_version":"screening-mturk","missing":false,"accuracy":0},{"contexts":["blue","red","green"],"outcomes":[0,1,1],"key":38,"choice":1,"rt":1118.1850000284612,"outcome":1,"trial":7,"correct":1,"trial_type":"three-arm-trial","trial_index":25,"time_elapsed":648017,"internal_node_id":"0.0-13.0-0.0","task_version":"screening-mturk","missing":false,"accuracy":1},{"contexts":["blue","red","green"],"outcomes":[0,1,0],"key":39,"choice":2,"rt":1668.7300000339746,"outcome":0,"trial":8,"correct":1,"trial_type":"three-arm-trial","trial_index":26,"time_elapsed":650891,"internal_node_id":"0.0-14.0-0.0","task_version":"screening-mturk","missing":false,"accuracy":0},{"contexts":["blue","red","green"],"outcomes":[0,1,0],"key":37,"choice":0,"rt":1135.4000000283122,"outcome":0,"trial":9,"correct":1,"trial_type":"three-arm-trial","trial_index":27,"time_elapsed":653230,"internal_node_id":"0.0-15.0-0.0","task_version":"screening-mturk","missing":false,"accuracy":0},{"contexts":["blue","red","green"],"outcomes":[0,1,1],"key":38,"choice":1,"rt":996.0600000340492,"outcome":1,"trial":10,"correct":1,"trial_type":"three-arm-trial","trial_index":28,"time_elapsed":655429,"internal_node_id":"0.0-16.0-0.0","task_version":"screening-mturk","missing":false,"accuracy":1},{"contexts":["blue","red","green"],"outcomes":[0,1,1],"key":39,"choice":2,"rt":702.4900000542402,"outcome":1,"trial":11,"correct":1,"trial_type":"three-arm-trial","trial_index":29,"time_elapsed":657336,"internal_node_id":"0.0-17.0-0.0","task_version":"screening-mturk","missing":false,"accuracy":0},{"contexts":["blue","red","green"],"outcomes":[0,1,0],"key":38,"choice":1,"rt":2209.2049999628216,"outcome":1,"trial":12,"correct":1,"trial_type":"three-arm-trial","trial_index":30,"time_elapsed":660749,"internal_node_id":"0.0-18.0-0.0","task_version":"screening-mturk","missing":false,"accuracy":1},{"contexts":["blue","red","green"],"outcomes":[0,1,0],"key":39,"choice":2,"rt":1456.5500000026077,"outcome":0,"trial":13,"correct":1,"trial_type":"three-arm-trial","trial_index":31,"time_elapsed":663408,"internal_node_id":"0.0-19.0-0.0","task_version":"screening-mturk","missing":false,"accuracy":0},{"contexts":["blue","red","green"],"outcomes":[0,1,0],"key":37,"choice":0,"rt":2840.7649998553097,"outcome":0,"trial":14,"correct":1,"trial_type":"three-arm-trial","trial_index":32,"time_elapsed":667452,"internal_node_id":"0.0-20.0-0.0","task_version":"screening-mturk","missing":false,"accuracy":0},{"contexts":["blue","red","green"],"outcomes":[0,1,0],"key":38,"choice":1,"rt":905.7849999517202,"outcome":1,"trial":15,"correct":1,"trial_type":"three-arm-trial","trial_index":33,"time_elapsed":669564,"internal_node_id":"0.0-21.0-0.0","task_version":"screening-mturk","missing":false,"accuracy":1},{"contexts":["blue","red","green"],"outcomes":[0,0,1],"key":39,"choice":2,"rt":878.3950000070035,"outcome":1,"trial":16,"correct":2,"trial_type":"three-arm-trial","trial_index":34,"time_elapsed":671645,"internal_node_id":"0.0-22.0-0.0","task_version":"screening-mturk","missing":false,"accuracy":1},{"contexts":["blue","red","green"],"outcomes":[0,0,1],"key":38,"choice":1,"rt":849.1450001019984,"outcome":0,"trial":17,"correct":2,"trial_type":"three-arm-trial","trial_index":35,"time_elapsed":673698,"internal_node_id":"0.0-23.0-0.0","task_version":"screening-mturk","missing":false,"accuracy":0},{"contexts":["blue","red","green"],"outcomes":[1,0,1],"key":39,"choice":2,"rt":729.0600000414997,"outcome":1,"trial":18,"correct":2,"trial_type":"three-arm-trial","trial_index":36,"time_elapsed":675630,"internal_node_id":"0.0-24.0-0.0","task_version":"screening-mturk","missing":false,"accuracy":1},{"contexts":["blue","red","green"],"outcomes":[0,0,1],"key":38,"choice":1,"rt":2290.2899999171495,"outcome":0,"trial":19,"correct":2,"trial_type":"three-arm-trial","trial_index":37,"time_elapsed":679124,"internal_node_id":"0.0-25.0-0.0","task_version":"screening-mturk","missing":false,"accuracy":0},{"contexts":["blue","red","green"],"outcomes":[1,0,1],"key":37,"choice":0,"rt":1293.16999996081,"outcome":1,"trial":20,"correct":2,"trial_type":"three-arm-trial","trial_index":38,"time_elapsed":681620,"internal_node_id":"0.0-26.0-0.0","task_version":"screening-mturk","missing":false,"accuracy":0},{"contexts":["blue","red","green"],"outcomes":[1,1,1],"key":39,"choice":2,"rt":781.3350001815706,"outcome":1,"trial":21,"correct":2,"trial_type":"three-arm-trial","trial_index":39,"time_elapsed":683608,"internal_node_id":"0.0-27.0-0.0","task_version":"screening-mturk","missing":false,"accuracy":1},{"contexts":["blue","red","green"],"outcomes":[0,0,1],"key":38,"choice":1,"rt":1060.9149998053908,"outcome":0,"trial":22,"correct":2,"trial_type":"three-arm-trial","trial_index":40,"time_elapsed":685872,"internal_node_id":"0.0-28.0-0.0","task_version":"screening-mturk","missing":false,"accuracy":0},{"contexts":["blue","red","green"],"outcomes":[0,0,1],"key":37,"choice":0,"rt":816.4849998429418,"outcome":0,"trial":23,"correct":2,"trial_type":"three-arm-trial","trial_index":41,"time_elapsed":687892,"internal_node_id":"0.0-29.0-0.0","task_version":"screening-mturk","missing":false,"accuracy":0},{"contexts":["blue","red","green"],"outcomes":[0,0,1],"key":39,"choice":2,"rt":775.5799998994917,"outcome":1,"trial":24,"correct":2,"trial_type":"three-arm-trial","trial_index":42,"time_elapsed":689871,"internal_node_id":"0.0-30.0-0.0","task_version":"screening-mturk","missing":false,"accuracy":1},{"contexts":["blue","red","green"],"outcomes":[0,0,1],"key":38,"choice":1,"rt":516.8350001331419,"outcome":0,"trial":25,"correct":2,"trial_type":"three-arm-trial","trial_index":43,"time_elapsed":691592,"internal_node_id":"0.0-31.0-0.0","task_version":"screening-mturk","missing":false,"accuracy":0},{"contexts":["blue","red","green"],"outcomes":[0,0,1],"key":37,"choice":0,"rt":707.4800000991672,"outcome":0,"trial":26,"correct":2,"trial_type":"three-arm-trial","trial_index":44,"time_elapsed":693503,"internal_node_id":"0.0-32.0-0.0","task_version":"screening-mturk","missing":false,"accuracy":0},{"contexts":["blue","red","green"],"outcomes":[0,0,1],"key":39,"choice":2,"rt":601.8399999011308,"outcome":1,"trial":27,"correct":2,"trial_type":"three-arm-trial","trial_index":45,"time_elapsed":695308,"internal_node_id":"0.0-33.0-0.0","task_version":"screening-mturk","missing":false,"accuracy":1},{"contexts":["blue","red","green"],"outcomes":[0,0,1],"key":38,"choice":1,"rt":1100.4050001502037,"outcome":0,"trial":28,"correct":2,"trial_type":"three-arm-trial","trial_index":46,"time_elapsed":697609,"internal_node_id":"0.0-34.0-0.0","task_version":"screening-mturk","missing":false,"accuracy":0},{"contexts":["blue","red","green"],"outcomes":[0,0,0],"key":39,"choice":2,"rt":662.3849999159575,"outcome":0,"trial":29,"correct":2,"trial_type":"three-arm-trial","trial_index":47,"time_elapsed":699474,"internal_node_id":"0.0-35.0-0.0","task_version":"screening-mturk","missing":false,"accuracy":1},{"contexts":["blue","red","green"],"outcomes":[1,1,1],"key":37,"choice":0,"rt":799.4299998972565,"outcome":1,"trial":30,"correct":2,"trial_type":"three-arm-trial","trial_index":48,"time_elapsed":701477,"internal_node_id":"0.0-36.0-0.0","task_version":"screening-mturk","missing":false,"accuracy":0},{"contexts":["blue","red","green"],"outcomes":[0,1,0],"key":38,"choice":1,"rt":625.0400000717491,"outcome":1,"trial":31,"correct":1,"trial_type":"three-arm-trial","trial_index":49,"time_elapsed":703305,"internal_node_id":"0.0-37.0-0.0","task_version":"screening-mturk","missing":false,"accuracy":1},{"contexts":["blue","red","green"],"outcomes":[0,1,0],"key":39,"choice":2,"rt":1126.9600000232458,"outcome":0,"trial":32,"correct":1,"trial_type":"three-arm-trial","trial_index":50,"time_elapsed":705635,"internal_node_id":"0.0-38.0-0.0","task_version":"screening-mturk","missing":false,"accuracy":0},{"contexts":["blue","red","green"],"outcomes":[1,1,0],"key":38,"choice":1,"rt":645.8099998999387,"outcome":1,"trial":33,"correct":1,"trial_type":"three-arm-trial","trial_index":51,"time_elapsed":707485,"internal_node_id":"0.0-39.0-0.0","task_version":"screening-mturk","missing":false,"accuracy":1},{"contexts":["blue","red","green"],"outcomes":[0,1,0],"key":39,"choice":2,"rt":842.7450000308454,"outcome":0,"trial":34,"correct":1,"trial_type":"three-arm-trial","trial_index":52,"time_elapsed":709530,"internal_node_id":"0.0-40.0-0.0","task_version":"screening-mturk","missing":false,"accuracy":0},{"contexts":["blue","red","green"],"outcomes":[0,0,0],"key":37,"choice":0,"rt":786.0350001137704,"outcome":0,"trial":35,"correct":1,"trial_type":"three-arm-trial","trial_index":53,"time_elapsed":711519,"internal_node_id":"0.0-41.0-0.0","task_version":"screening-mturk","missing":false,"accuracy":0},{"contexts":["blue","red","green"],"outcomes":[0,1,0],"key":38,"choice":1,"rt":1300.2599999308586,"outcome":1,"trial":36,"correct":1,"trial_type":"three-arm-trial","trial_index":54,"time_elapsed":714023,"internal_node_id":"0.0-42.0-0.0","task_version":"screening-mturk","missing":false,"accuracy":1},{"contexts":["blue","red","green"],"outcomes":[0,1,0],"key":39,"choice":2,"rt":648.4350000973791,"outcome":0,"trial":37,"correct":1,"trial_type":"three-arm-trial","trial_index":55,"time_elapsed":715875,"internal_node_id":"0.0-43.0-0.0","task_version":"screening-mturk","missing":false,"accuracy":0},{"contexts":["blue","red","green"],"outcomes":[0,1,0],"key":38,"choice":1,"rt":929.3749998323619,"outcome":1,"trial":38,"correct":1,"trial_type":"three-arm-trial","trial_index":56,"time_elapsed":718008,"internal_node_id":"0.0-44.0-0.0","task_version":"screening-mturk","missing":false,"accuracy":1},{"contexts":["blue","red","green"],"outcomes":[0,0,0],"key":37,"choice":0,"rt":683.1450001336634,"outcome":0,"trial":39,"correct":1,"trial_type":"three-arm-trial","trial_index":57,"time_elapsed":719894,"internal_node_id":"0.0-45.0-0.0","task_version":"screening-mturk","missing":false,"accuracy":0},{"contexts":["blue","red","green"],"outcomes":[1,1,0],"key":38,"choice":1,"rt":980.0499998964369,"outcome":1,"trial":40,"correct":1,"trial_type":"three-arm-trial","trial_index":58,"time_elapsed":722078,"internal_node_id":"0.0-46.0-0.0","task_version":"screening-mturk","missing":false,"accuracy":1},{"contexts":["blue","red","green"],"outcomes":[0,1,0],"key":37,"choice":0,"rt":758.204999845475,"outcome":0,"trial":41,"correct":1,"trial_type":"three-arm-trial","trial_index":59,"time_elapsed":724038,"internal_node_id":"0.0-47.0-0.0","task_version":"screening-mturk","missing":false,"accuracy":0},{"contexts":["blue","red","green"],"outcomes":[0,1,0],"key":39,"choice":2,"rt":909.4700000714511,"outcome":0,"trial":42,"correct":1,"trial_type":"three-arm-trial","trial_index":60,"time_elapsed":726153,"internal_node_id":"0.0-48.0-0.0","task_version":"screening-mturk","missing":false,"accuracy":0},{"contexts":["blue","red","green"],"outcomes":[1,1,0],"key":37,"choice":0,"rt":102.35500009730458,"outcome":1,"trial":43,"correct":1,"trial_type":"three-arm-trial","trial_index":61,"time_elapsed":727459,"internal_node_id":"0.0-49.0-0.0","task_version":"screening-mturk","missing":false,"accuracy":0},{"contexts":["blue","red","green"],"outcomes":[0,1,0],"key":38,"choice":1,"rt":705.0100001506507,"outcome":1,"trial":44,"correct":1,"trial_type":"three-arm-trial","trial_index":62,"time_elapsed":729367,"internal_node_id":"0.0-50.0-0.0","task_version":"screening-mturk","missing":false,"accuracy":1},{"contexts":["blue","red","green"],"outcomes":[1,0,0],"key":39,"choice":2,"rt":1227.9049998614937,"outcome":0,"trial":45,"correct":1,"trial_type":"three-arm-trial","trial_index":63,"time_elapsed":731798,"internal_node_id":"0.0-51.0-0.0","task_version":"screening-mturk","missing":false,"accuracy":0},{"contexts":["blue","red","green"],"outcomes":[0,0,0],"key":37,"choice":0,"rt":485.9800001140684,"outcome":0,"trial":46,"correct":2,"trial_type":"three-arm-trial","trial_index":64,"time_elapsed":733488,"internal_node_id":"0.0-52.0-0.0","task_version":"screening-mturk","missing":false,"accuracy":0},{"contexts":["blue","red","green"],"outcomes":[1,0,1],"key":39,"choice":2,"rt":81.44000009633601,"outcome":1,"trial":47,"correct":2,"trial_type":"three-arm-trial","trial_index":65,"time_elapsed":734773,"internal_node_id":"0.0-53.0-0.0","task_version":"screening-mturk","missing":false,"accuracy":1},{"contexts":["blue","red","green"],"outcomes":[0,0,0],"key":38,"choice":1,"rt":216.72999998554587,"outcome":0,"trial":48,"correct":2,"trial_type":"three-arm-trial","trial_index":66,"time_elapsed":736193,"internal_node_id":"0.0-54.0-0.0","task_version":"screening-mturk","missing":false,"accuracy":0},{"contexts":["blue","red","green"],"outcomes":[0,0,0],"key":39,"choice":2,"rt":772.6199999451637,"outcome":0,"trial":49,"correct":2,"trial_type":"three-arm-trial","trial_index":67,"time_elapsed":738170,"internal_node_id":"0.0-55.0-0.0","task_version":"screening-mturk","missing":false,"accuracy":1},{"contexts":["blue","red","green"],"outcomes":[0,0,0],"key":37,"choice":0,"rt":1249.589999904856,"outcome":0,"trial":50,"correct":2,"trial_type":"three-arm-trial","trial_index":68,"time_elapsed":740623,"internal_node_id":"0.0-56.0-0.0","task_version":"screening-mturk","missing":false,"accuracy":0},{"contexts":["blue","red","green"],"outcomes":[1,0,1],"key":38,"choice":1,"rt":251.37499999254942,"outcome":0,"trial":51,"correct":2,"trial_type":"three-arm-trial","trial_index":69,"time_elapsed":742077,"internal_node_id":"0.0-57.0-0.0","task_version":"screening-mturk","missing":false,"accuracy":0},{"contexts":["blue","red","green"],"outcomes":[0,0,1],"key":39,"choice":2,"rt":1109.334999928251,"outcome":1,"trial":52,"correct":2,"trial_type":"three-arm-trial","trial_index":70,"time_elapsed":744390,"internal_node_id":"0.0-58.0-0.0","task_version":"screening-mturk","missing":false,"accuracy":1},{"contexts":["blue","red","green"],"outcomes":[0,0,0],"key":37,"choice":0,"rt":974.309999961406,"outcome":0,"trial":53,"correct":2,"trial_type":"three-arm-trial","trial_index":71,"time_elapsed":746567,"internal_node_id":"0.0-59.0-0.0","task_version":"screening-mturk","missing":false,"accuracy":0},{"contexts":["blue","red","green"],"outcomes":[1,0,1],"key":38,"choice":1,"rt":991.3800000213087,"outcome":0,"trial":54,"correct":2,"trial_type":"three-arm-trial","trial_index":72,"time_elapsed":748761,"internal_node_id":"0.0-60.0-0.0","task_version":"screening-mturk","missing":false,"accuracy":0},{"contexts":["blue","red","green"],"outcomes":[0,0,1],"key":39,"choice":2,"rt":653.5900000017136,"outcome":1,"trial":55,"correct":2,"trial_type":"three-arm-trial","trial_index":73,"time_elapsed":750618,"internal_node_id":"0.0-61.0-0.0","task_version":"screening-mturk","missing":false,"accuracy":1},{"contexts":["blue","red","green"],"outcomes":[0,0,1],"key":39,"choice":2,"rt":872.9449999518692,"outcome":1,"trial":56,"correct":2,"trial_type":"three-arm-trial","trial_index":74,"time_elapsed":752695,"internal_node_id":"0.0-62.0-0.0","task_version":"screening-mturk","missing":false,"accuracy":1},{"contexts":["blue","red","green"],"outcomes":[0,0,1],"key":39,"choice":2,"rt":832.6250000391155,"outcome":1,"trial":57,"correct":2,"trial_type":"three-arm-trial","trial_index":75,"time_elapsed":754731,"internal_node_id":"0.0-63.0-0.0","task_version":"screening-mturk","missing":false,"accuracy":1},{"contexts":["blue","red","green"],"outcomes":[0,0,1],"key":37,"choice":0,"rt":859.1499999165535,"outcome":0,"trial":58,"correct":2,"trial_type":"three-arm-trial","trial_index":76,"time_elapsed":756792,"internal_node_id":"0.0-64.0-0.0","task_version":"screening-mturk","missing":false,"accuracy":0},{"contexts":["blue","red","green"],"outcomes":[1,0,1],"key":39,"choice":2,"rt":993.6100000049919,"outcome":1,"trial":59,"correct":2,"trial_type":"three-arm-trial","trial_index":77,"time_elapsed":758991,"internal_node_id":"0.0-65.0-0.0","task_version":"screening-mturk","missing":false,"accuracy":1},{"contexts":["blue","red","green"],"outcomes":[0,0,1],"key":38,"choice":1,"rt":824.9999999534339,"outcome":0,"trial":60,"correct":2,"trial_type":"three-arm-trial","trial_index":78,"time_elapsed":761019,"internal_node_id":"0.0-66.0-0.0","task_version":"screening-mturk","missing":false,"accuracy":0},{"contexts":["blue","red","green"],"outcomes":[1,0,0],"key":39,"choice":2,"rt":685.5199998244643,"outcome":0,"trial":61,"correct":0,"trial_type":"three-arm-trial","trial_index":79,"time_elapsed":762908,"internal_node_id":"0.0-67.0-0.0","task_version":"screening-mturk","missing":false,"accuracy":0},{"contexts":["blue","red","green"],"outcomes":[0,1,1],"key":37,"choice":0,"rt":240.1850000023842,"outcome":0,"trial":62,"correct":0,"trial_type":"three-arm-trial","trial_index":80,"time_elapsed":764353,"internal_node_id":"0.0-68.0-0.0","task_version":"screening-mturk","missing":false,"accuracy":1},{"contexts":["blue","red","green"],"outcomes":[1,0,0],"key":38,"choice":1,"rt":41.265000123530626,"outcome":0,"trial":63,"correct":0,"trial_type":"three-arm-trial","trial_index":81,"time_elapsed":765597,"internal_node_id":"0.0-69.0-0.0","task_version":"screening-mturk","missing":false,"accuracy":0},{"contexts":["blue","red","green"],"outcomes":[1,0,0],"key":39,"choice":2,"rt":1169.5049998816103,"outcome":0,"trial":64,"correct":0,"trial_type":"three-arm-trial","trial_index":82,"time_elapsed":767970,"internal_node_id":"0.0-70.0-0.0","task_version":"screening-mturk","missing":false,"accuracy":0},{"contexts":["blue","red","green"],"outcomes":[0,0,0],"key":37,"choice":0,"rt":148.40500010177493,"outcome":0,"trial":65,"correct":0,"trial_type":"three-arm-trial","trial_index":83,"time_elapsed":769323,"internal_node_id":"0.0-71.0-0.0","task_version":"screening-mturk","missing":false,"accuracy":1},{"contexts":["blue","red","green"],"outcomes":[0,0,0],"key":39,"choice":2,"rt":472.065000096336,"outcome":0,"trial":66,"correct":0,"trial_type":"three-arm-trial","trial_index":84,"time_elapsed":770999,"internal_node_id":"0.0-72.0-0.0","task_version":"screening-mturk","missing":false,"accuracy":0},{"contexts":["blue","red","green"],"outcomes":[0,0,1],"key":38,"choice":1,"rt":591.139999916777,"outcome":0,"trial":67,"correct":0,"trial_type":"three-arm-trial","trial_index":85,"time_elapsed":772794,"internal_node_id":"0.0-73.0-0.0","task_version":"screening-mturk","missing":false,"accuracy":0},{"contexts":["blue","red","green"],"outcomes":[1,0,0],"key":37,"choice":0,"rt":505.8899999130517,"outcome":1,"trial":68,"correct":0,"trial_type":"three-arm-trial","trial_index":86,"time_elapsed":774506,"internal_node_id":"0.0-74.0-0.0","task_version":"screening-mturk","missing":false,"accuracy":1},{"contexts":["blue","red","green"],"outcomes":[1,0,0],"key":37,"choice":0,"rt":848.3649999834597,"outcome":1,"trial":69,"correct":0,"trial_type":"three-arm-trial","trial_index":87,"time_elapsed":776557,"internal_node_id":"0.0-75.0-0.0","task_version":"screening-mturk","missing":false,"accuracy":1},{"contexts":["blue","red","green"],"outcomes":[1,0,0],"key":37,"choice":0,"rt":703.1950000673532,"outcome":1,"trial":70,"correct":0,"trial_type":"three-arm-trial","trial_index":88,"time_elapsed":778468,"internal_node_id":"0.0-76.0-0.0","task_version":"screening-mturk","missing":false,"accuracy":1},{"contexts":["blue","red","green"],"outcomes":[1,0,0],"key":37,"choice":0,"rt":783.07000012137,"outcome":1,"trial":71,"correct":0,"trial_type":"three-arm-trial","trial_index":89,"time_elapsed":780454,"internal_node_id":"0.0-77.0-0.0","task_version":"screening-mturk","missing":false,"accuracy":1},{"contexts":["blue","red","green"],"outcomes":[1,0,0],"key":37,"choice":0,"rt":1330.0550000276417,"outcome":1,"trial":72,"correct":0,"trial_type":"three-arm-trial","trial_index":90,"time_elapsed":782989,"internal_node_id":"0.0-78.0-0.0","task_version":"screening-mturk","missing":false,"accuracy":1},{"contexts":["blue","red","green"],"outcomes":[1,0,0],"key":37,"choice":0,"rt":1199.8250000178814,"outcome":1,"trial":73,"correct":0,"trial_type":"three-arm-trial","trial_index":91,"time_elapsed":785392,"internal_node_id":"0.0-79.0-0.0","task_version":"screening-mturk","missing":false,"accuracy":1},{"contexts":["blue","red","green"],"outcomes":[1,1,0],"key":37,"choice":0,"rt":1080.335000064224,"outcome":1,"trial":74,"correct":0,"trial_type":"three-arm-trial","trial_index":92,"time_elapsed":787677,"internal_node_id":"0.0-80.0-0.0","task_version":"screening-mturk","missing":false,"accuracy":1},{"contexts":["blue","red","green"],"outcomes":[1,1,0],"key":38,"choice":1,"rt":869.7850001044571,"outcome":1,"trial":75,"correct":0,"trial_type":"three-arm-trial","trial_index":93,"time_elapsed":789750,"internal_node_id":"0.0-81.0-0.0","task_version":"screening-mturk","missing":false,"accuracy":0},{"contexts":["blue","red","green"],"outcomes":[0,0,1],"key":37,"choice":0,"rt":790.1350001338869,"outcome":0,"trial":76,"correct":2,"trial_type":"three-arm-trial","trial_index":94,"time_elapsed":791744,"internal_node_id":"0.0-82.0-0.0","task_version":"screening-mturk","missing":false,"accuracy":0},{"contexts":["blue","red","green"],"outcomes":[1,0,1],"key":38,"choice":1,"rt":511.76000013947487,"outcome":0,"trial":77,"correct":2,"trial_type":"three-arm-trial","trial_index":95,"time_elapsed":793461,"internal_node_id":"0.0-83.0-0.0","task_version":"screening-mturk","missing":false,"accuracy":0},{"contexts":["blue","red","green"],"outcomes":[1,0,0],"key":39,"choice":2,"rt":929.7650000080466,"outcome":0,"trial":78,"correct":2,"trial_type":"three-arm-trial","trial_index":96,"time_elapsed":795595,"internal_node_id":"0.0-84.0-0.0","task_version":"screening-mturk","missing":false,"accuracy":1},{"contexts":["blue","red","green"],"outcomes":[0,0,1],"key":37,"choice":0,"rt":423.41999989002943,"outcome":0,"trial":79,"correct":2,"trial_type":"three-arm-trial","trial_index":97,"time_elapsed":797222,"internal_node_id":"0.0-85.0-0.0","task_version":"screening-mturk","missing":false,"accuracy":0},{"contexts":["blue","red","green"],"outcomes":[0,0,1],"key":38,"choice":1,"rt":1557.035000063479,"outcome":0,"trial":80,"correct":2,"trial_type":"three-arm-trial","trial_index":98,"time_elapsed":799983,"internal_node_id":"0.0-86.0-0.0","task_version":"screening-mturk","missing":false,"accuracy":0},{"contexts":["blue","red","green"],"outcomes":[1,0,1],"key":39,"choice":2,"rt":745.7399999257177,"outcome":1,"trial":81,"correct":2,"trial_type":"three-arm-trial","trial_index":99,"time_elapsed":801934,"internal_node_id":"0.0-87.0-0.0","task_version":"screening-mturk","missing":false,"accuracy":1},{"contexts":["blue","red","green"],"outcomes":[0,0,0],"key":39,"choice":2,"rt":744.8100000619888,"outcome":0,"trial":82,"correct":2,"trial_type":"three-arm-trial","trial_index":100,"time_elapsed":803883,"internal_node_id":"0.0-88.0-0.0","task_version":"screening-mturk","missing":false,"accuracy":1},{"contexts":["blue","red","green"],"outcomes":[1,0,1],"key":37,"choice":0,"rt":1041.3649999536574,"outcome":1,"trial":83,"correct":2,"trial_type":"three-arm-trial","trial_index":101,"time_elapsed":806127,"internal_node_id":"0.0-89.0-0.0","task_version":"screening-mturk","missing":false,"accuracy":0},{"contexts":["blue","red","green"],"outcomes":[0,0,1],"key":37,"choice":0,"rt":624.6150000952184,"outcome":0,"trial":84,"correct":2,"trial_type":"three-arm-trial","trial_index":102,"time_elapsed":807955,"internal_node_id":"0.0-90.0-0.0","task_version":"screening-mturk","missing":false,"accuracy":0},{"contexts":["blue","red","green"],"outcomes":[1,1,1],"key":38,"choice":1,"rt":242.78500000946224,"outcome":1,"trial":85,"correct":2,"trial_type":"three-arm-trial","trial_index":103,"time_elapsed":809401,"internal_node_id":"0.0-91.0-0.0","task_version":"screening-mturk","missing":false,"accuracy":0},{"contexts":["blue","red","green"],"outcomes":[0,0,1],"key":38,"choice":1,"rt":644.3199999630451,"outcome":0,"trial":86,"correct":2,"trial_type":"three-arm-trial","trial_index":104,"time_elapsed":811249,"internal_node_id":"0.0-92.0-0.0","task_version":"screening-mturk","missing":false,"accuracy":0},{"contexts":["blue","red","green"],"outcomes":[0,1,1],"key":37,"choice":0,"rt":40.73500004597008,"outcome":0,"trial":87,"correct":2,"trial_type":"three-arm-trial","trial_index":105,"time_elapsed":812493,"internal_node_id":"0.0-93.0-0.0","task_version":"screening-mturk","missing":false,"accuracy":0},{"contexts":["blue","red","green"],"outcomes":[0,1,1],"key":39,"choice":2,"rt":1183.225000044331,"outcome":1,"trial":88,"correct":2,"trial_type":"three-arm-trial","trial_index":106,"time_elapsed":814879,"internal_node_id":"0.0-94.0-0.0","task_version":"screening-mturk","missing":false,"accuracy":1},{"contexts":["blue","red","green"],"outcomes":[1,0,1],"key":39,"choice":2,"rt":706.9600000977516,"outcome":1,"trial":89,"correct":2,"trial_type":"three-arm-trial","trial_index":107,"time_elapsed":816789,"internal_node_id":"0.0-95.0-0.0","task_version":"screening-mturk","missing":false,"accuracy":1},{"contexts":["blue","red","green"],"outcomes":[1,0,1],"key":39,"choice":2,"rt":719.5949999149889,"outcome":1,"trial":90,"correct":2,"trial_type":"three-arm-trial","trial_index":108,"time_elapsed":818713,"internal_node_id":"0.0-96.0-0.0","task_version":"screening-mturk","missing":false,"accuracy":1},{"rt":35785.48999992199,"responses":{"age":"30","gender-categorical":"Male","gender-free-response":"","ethnicity":"Unknown","race":["White"],"language":"Yes","fluency":"Very well","prolific":"Yes","prolific-this-study":"No"},"survey":"demographics","trial_type":"survey-demo","trial_index":109,"time_elapsed":854506,"internal_node_id":"0.0-97.0","task_version":"screening-mturk","interactions":"[]"}]