[{"responses":{"Q03":"1","Q01":"1","Q02":"1"},"rt":28785.60500004096,"survey":"pswq","trial_type":"survey-template","trial_index":0,"time_elapsed":28804,"internal_node_id":"0.0-0.0","task_version":"screening-mturk"},{"responses":{"Q03":"2","Q08":"1","Q02":"2","Q01":"3","Q06":"3","Q10":"0","Q12":"0","Q13":"0","Q09":"0","Q14":"0","Q05":"0","Q15":"0","Q11":"0","Q07":"2","Q04":"3"},"rt":272358.47499995725,"survey":"7up7down","trial_type":"survey-template","trial_index":1,"time_elapsed":301171,"internal_node_id":"0.0-1.0","task_version":"screening-mturk"},{"responses":{"Q03":"2","Q05":"2","Q07":"2","Q11":"2","Q04":"2","Q06":"3","Q01":"2","Q02":"2","Q13":"3","Q12":"3","Q09":"3","Q08":"3","Q10":"2"},"rt":133742.85999999847,"survey":"bisbas","trial_type":"survey-template","trial_index":2,"time_elapsed":434923,"internal_node_id":"0.0-2.0","task_version":"screening-mturk"},{"responses":{"Q04":"0","Q02":"0","Q08":"0","Q03":"0","Q06":"0","Q01":"0","Q05":"0","Q07":"0"},"rt":18682.515000051353,"survey":"gad7","trial_type":"survey-template","trial_index":3,"time_elapsed":453613,"internal_node_id":"0.0-3.0","task_version":"screening-mturk"},{"responses":{"Q10":"2","Q08":"2","Q01":"2","Q03":"2","Q11":"2","Q07":"2","Q04":"2","Q09":"2","Q12":"2","Q14":"2","Q15":"2","Q02":"2","Q13":"2","Q05":"2","Q06":"2"},"rt":36055.5699999677,"survey":"shaps","trial_type":"survey-template","trial_index":4,"time_elapsed":489676,"internal_node_id":"0.0-4.0","task_version":"screening-mturk"},{"view_history":"[{\"page_index\":0,\"viewing_time\":12957.379999978002},{\"page_index\":1,\"viewing_time\":18515.030000009574},{\"page_index\":2,\"viewing_time\":12632.205000030808},{\"page_index\":3,\"viewing_time\":11601.324999995995},{\"page_index\":4,\"viewing_time\":5231.154999986757},{\"page_index\":5,\"viewing_time\":6491.915000020526},{\"page_index\":6,\"viewing_time\":4576.494999986608},{\"page_index\":7,\"viewing_time\":6816.545000008773}]","rt":78823.2849999913,"trial_type":"instructions","trial_index":5,"time_elapsed":568503,"internal_node_id":"0.0-5.0-0.0","task_version":"screening-mturk"},{"responses":["True","True","True","True","True"],"num_errors":2,"rt":26538.734999950975,"trial_type":"three-arm-comprehension","trial_index":6,"time_elapsed":595048,"internal_node_id":"0.0-5.0-1.0","task_version":"screening-mturk"},{"view_history":"[{\"page_index\":0,\"viewing_time\":6723.065000027418},{\"page_index\":1,\"viewing_time\":2094.775000005029},{\"page_index\":2,\"viewing_time\":1416.834999981802},{\"page_index\":3,\"viewing_time\":799.7249999898486},{\"page_index\":4,\"viewing_time\":1077.7150000212714},{\"page_index\":5,\"viewing_time\":811.5949999773875},{\"page_index\":6,\"viewing_time\":1707.7799999970011},{\"page_index\":7,\"viewing_time\":761.4950000424869}]","rt":15393.425000016578,"trial_type":"instructions","trial_index":7,"time_elapsed":610449,"internal_node_id":"0.0-5.1-0.1","task_version":"screening-mturk"},{"responses":["True","True","True","False","True"],"num_errors":1,"rt":12905.869999958668,"trial_type":"three-arm-comprehension","trial_index":8,"time_elapsed":623359,"internal_node_id":"0.0-5.1-1.1","task_version":"screening-mturk"},{"view_history":"[{\"page_index\":0,\"viewing_time\":1749.649999954272},{\"page_index\":1,\"viewing_time\":751.4599999994971},{\"page_index\":2,\"viewing_time\":436.15000002318993},{\"page_index\":3,\"viewing_time\":192.67999997828156},{\"page_index\":4,\"viewing_time\":666.0150000243448},{\"page_index\":5,\"viewing_time\":497.4999999976717},{\"page_index\":6,\"viewing_time\":726.6400000080466},{\"page_index\":7,\"viewing_time\":763.074999966193}]","rt":5783.704999950714,"trial_type":"instructions","trial_index":9,"time_elapsed":629148,"internal_node_id":"0.0-5.2-0.2","task_version":"screening-mturk"},{"responses":["True","True","True","True","False"],"num_errors":3,"rt":15776.43500000704,"trial_type":"three-arm-comprehension","trial_index":10,"time_elapsed":644928,"internal_node_id":"0.0-5.2-1.2","task_version":"screening-mturk"},{"view_history":"[{\"page_index\":0,\"viewing_time\":1410.5650000274181},{\"page_index\":1,\"viewing_time\":607.1799999917857},{\"page_index\":2,\"viewing_time\":203.83499999297783},{\"page_index\":3,\"viewing_time\":351.8199999816716},{\"page_index\":4,\"viewing_time\":799.1400000173599},{\"page_index\":5,\"viewing_time\":570.80499996664},{\"page_index\":6,\"viewing_time\":603.9750000345521},{\"page_index\":7,\"viewing_time\":787.1649999869987}]","rt":5334.894999978133,"trial_type":"instructions","trial_index":11,"time_elapsed":650267,"internal_node_id":"0.0-5.3-0.3","task_version":"screening-mturk"},{"responses":["True","True","False","False","False"],"num_errors":1,"rt":6586.4699999801815,"trial_type":"three-arm-comprehension","trial_index":12,"time_elapsed":656857,"internal_node_id":"0.0-5.3-1.3","task_version":"screening-mturk"},{"view_history":"[{\"page_index\":0,\"viewing_time\":1155.5800000205636},{\"page_index\":1,\"viewing_time\":6251.470000017434},{\"page_index\":2,\"viewing_time\":3802.029999962542},{\"page_index\":3,\"viewing_time\":3221.185000031255},{\"page_index\":4,\"viewing_time\":9205.205000005662},{\"page_index\":5,\"viewing_time\":5718.029999989085},{\"page_index\":6,\"viewing_time\":4417.829999991227},{\"page_index\":7,\"viewing_time\":2748.5449999803677}]","rt":36520.35000000615,"trial_type":"instructions","trial_index":13,"time_elapsed":693382,"internal_node_id":"0.0-5.4-0.4","task_version":"screening-mturk"},{"responses":["True","True","False","True","True"],"num_errors":1,"rt":17399.67999997316,"trial_type":"three-arm-comprehension","trial_index":14,"time_elapsed":710785,"internal_node_id":"0.0-5.4-1.4","task_version":"screening-mturk"},{"view_history":"[{\"page_index\":0,\"viewing_time\":1821.3200000463985},{\"page_index\":1,\"viewing_time\":557.0449999650009},{\"page_index\":2,\"viewing_time\":460.5800000135787},{\"page_index\":3,\"viewing_time\":798.8149999873713},{\"page_index\":4,\"viewing_time\":654.4899999862537},{\"page_index\":5,\"viewing_time\":652.730000030715},{\"page_index\":6,\"viewing_time\":812.5550000113435},{\"page_index\":7,\"viewing_time\":605.0349999568425}]","rt":6362.965000036638,"trial_type":"instructions","trial_index":15,"time_elapsed":717152,"internal_node_id":"0.0-5.5-0.5","task_version":"screening-mturk"},{"responses":["True","True","False","True","False"],"num_errors":2,"rt":7759.21000004746,"trial_type":"three-arm-comprehension","trial_index":16,"time_elapsed":724916,"internal_node_id":"0.0-5.5-1.5","task_version":"screening-mturk"},{"view_history":"[{\"page_index\":0,\"viewing_time\":1251.7900000093505},{\"page_index\":1,\"viewing_time\":521.5750000206754},{\"page_index\":2,\"viewing_time\":169.20499998377636},{\"page_index\":3,\"viewing_time\":194.06000000890344},{\"page_index\":4,\"viewing_time\":156.5849999897182},{\"page_index\":5,\"viewing_time\":557.7400000183843},{\"page_index\":6,\"viewing_time\":483.88499999418855},{\"page_index\":7,\"viewing_time\":496.5949999750592}]","rt":3831.845000036992,"trial_type":"instructions","trial_index":17,"time_elapsed":728752,"internal_node_id":"0.0-5.6-0.6","task_version":"screening-mturk"},{"responses":["True","True","True","False","False"],"num_errors":2,"rt":9744.635000010021,"trial_type":"three-arm-comprehension","trial_index":18,"time_elapsed":738500,"internal_node_id":"0.0-5.6-1.6","task_version":"screening-mturk"},{"view_history":"[{\"page_index\":0,\"viewing_time\":2186.4000000059605},{\"page_index\":1,\"viewing_time\":568.9300000085495},{\"page_index\":2,\"viewing_time\":399.7449999442324},{\"page_index\":3,\"viewing_time\":471.87000000849366},{\"page_index\":4,\"viewing_time\":569.7300000465475},{\"page_index\":5,\"viewing_time\":410.63499997835606},{\"page_index\":6,\"viewing_time\":594.1299999831244},{\"page_index\":7,\"viewing_time\":556.8949999869801}]","rt":5758.884999959264,"trial_type":"instructions","trial_index":19,"time_elapsed":744264,"internal_node_id":"0.0-5.7-0.7","task_version":"screening-mturk"},{"responses":["True","False","False","True","True"],"num_errors":2,"rt":34130.59499999508,"trial_type":"three-arm-comprehension","trial_index":20,"time_elapsed":778400,"internal_node_id":"0.0-5.7-1.7","task_version":"screening-mturk"},{"view_history":"[{\"page_index\":0,\"viewing_time\":1385.9950000187382},{\"page_index\":1,\"viewing_time\":1368.3999999775551},{\"page_index\":2,\"viewing_time\":689.5900000235997},{\"page_index\":3,\"viewing_time\":3099.5249999687076},{\"page_index\":4,\"viewing_time\":5329.525000008289},{\"page_index\":5,\"viewing_time\":9903.684999968391},{\"page_index\":6,\"viewing_time\":1053.9900000439957},{\"page_index\":7,\"viewing_time\":641.6999999783002}]","rt":23472.850000020117,"trial_type":"instructions","trial_index":21,"time_elapsed":801877,"internal_node_id":"0.0-5.8-0.8","task_version":"screening-mturk"},{"responses":["True","True","True","False","True"],"num_errors":1,"rt":20151.94499999052,"trial_type":"three-arm-comprehension","trial_index":22,"time_elapsed":822032,"internal_node_id":"0.0-5.8-1.8","task_version":"screening-mturk"},{"view_history":"[{\"page_index\":0,\"viewing_time\":1276.9549999502487},{\"page_index\":1,\"viewing_time\":872.6050000404939},{\"page_index\":2,\"viewing_time\":3220.005000010133},{\"page_index\":3,\"viewing_time\":678.574999968987},{\"page_index\":4,\"viewing_time\":569.9449999956414},{\"page_index\":5,\"viewing_time\":532.3400000343099},{\"page_index\":6,\"viewing_time\":471.68999997666106},{\"page_index\":7,\"viewing_time\":569.8250000132248}]","rt":8192.534999980126,"trial_type":"instructions","trial_index":23,"time_elapsed":830230,"internal_node_id":"0.0-5.9-0.9","task_version":"screening-mturk"},{"responses":["True","True","False","False","False"],"num_errors":1,"rt":7955.360000021756,"trial_type":"three-arm-comprehension","trial_index":24,"time_elapsed":838188,"internal_node_id":"0.0-5.9-1.9","task_version":"screening-mturk"},{"view_history":"[{\"page_index\":0,\"viewing_time\":1263.2499999599531},{\"page_index\":1,\"viewing_time\":655.1399999880232},{\"page_index\":2,\"viewing_time\":302.95500002102926},{\"page_index\":3,\"viewing_time\":182.24500003270805},{\"page_index\":4,\"viewing_time\":144.0500000026077},{\"page_index\":5,\"viewing_time\":508.5849999450147},{\"page_index\":6,\"viewing_time\":497.32000002404675},{\"page_index\":7,\"viewing_time\":496.1500000208616}]","rt":4050.099999993108,"trial_type":"instructions","trial_index":25,"time_elapsed":842243,"internal_node_id":"0.0-5.10-0.10","task_version":"screening-mturk"},{"responses":["True","False","True","False","True"],"num_errors":2,"rt":18588.730000017677,"trial_type":"three-arm-comprehension","trial_index":26,"time_elapsed":860836,"internal_node_id":"0.0-5.10-1.10","task_version":"screening-mturk"},{"view_history":"[{\"page_index\":0,\"viewing_time\":1204.4500000192784},{\"page_index\":1,\"viewing_time\":665.3950000181794},{\"page_index\":2,\"viewing_time\":230.53000000072643},{\"page_index\":3,\"viewing_time\":147.1699999528937},{\"page_index\":4,\"viewing_time\":348.8399999914691},{\"page_index\":5,\"viewing_time\":460.4500000132248},{\"page_index\":6,\"viewing_time\":508.5700000054203},{\"page_index\":7,\"viewing_time\":569.6849999949336}]","rt":4135.505000012927,"trial_type":"instructions","trial_index":27,"time_elapsed":864976,"internal_node_id":"0.0-5.11-0.11","task_version":"screening-mturk"},{"responses":["True","True","True","False","True"],"num_errors":1,"rt":12206.654999987222,"trial_type":"three-arm-comprehension","trial_index":28,"time_elapsed":877186,"internal_node_id":"0.0-5.11-1.11","task_version":"screening-mturk"},{"view_history":"[{\"page_index\":0,\"viewing_time\":1459.3999999924563},{\"page_index\":1,\"viewing_time\":9991.655000019819},{\"page_index\":2,\"viewing_time\":581.1049999902025},{\"page_index\":3,\"viewing_time\":521.0249999654479},{\"page_index\":4,\"viewing_time\":424.3050000513904},{\"page_index\":5,\"viewing_time\":666.0299999639392},{\"page_index\":6,\"viewing_time\":786.9749999954365},{\"page_index\":7,\"viewing_time\":1113.965000025928}]","rt":15544.839999987744,"trial_type":"instructions","trial_index":29,"time_elapsed":892736,"internal_node_id":"0.0-5.12-0.12","task_version":"screening-mturk"},{"responses":["False","False","False","False","False"],"num_errors":3,"rt":7168.215000012424,"trial_type":"three-arm-comprehension","trial_index":30,"time_elapsed":899908,"internal_node_id":"0.0-5.12-1.12","task_version":"screening-mturk"},{"view_history":"[{\"page_index\":0,\"viewing_time\":1578.0150000355206},{\"page_index\":1,\"viewing_time\":436.47999997483566},{\"page_index\":2,\"viewing_time\":375.89500000467524},{\"page_index\":3,\"viewing_time\":266.330000013113},{\"page_index\":4,\"viewing_time\":556.6000000108033},{\"page_index\":5,\"viewing_time\":679.3399999733083},{\"page_index\":6,\"viewing_time\":579.825000022538},{\"page_index\":7,\"viewing_time\":751.494999974966}]","rt":5224.410000024363,"trial_type":"instructions","trial_index":31,"time_elapsed":905137,"internal_node_id":"0.0-5.13-0.13","task_version":"screening-mturk"},{"responses":["True","False","False","False","True"],"num_errors":1,"rt":15306.809999980032,"trial_type":"three-arm-comprehension","trial_index":32,"time_elapsed":920448,"internal_node_id":"0.0-5.13-1.13","task_version":"screening-mturk"},{"view_history":"[{\"page_index\":0,\"viewing_time\":1154.9699999741279},{\"page_index\":1,\"viewing_time\":485.370000009425},{\"page_index\":2,\"viewing_time\":508.26500001130626},{\"page_index\":3,\"viewing_time\":798.4500000020489},{\"page_index\":4,\"viewing_time\":884.9799999734387},{\"page_index\":5,\"viewing_time\":399.245000036899},{\"page_index\":6,\"viewing_time\":448.08999996166676},{\"page_index\":7,\"viewing_time\":557.2050000191666}]","rt":5237.649999966379,"trial_type":"instructions","trial_index":33,"time_elapsed":925691,"internal_node_id":"0.0-5.14-0.14","task_version":"screening-mturk"},{"responses":["True","False","False","False","False"],"num_errors":2,"rt":7128.885000012815,"trial_type":"three-arm-comprehension","trial_index":34,"time_elapsed":932826,"internal_node_id":"0.0-5.14-1.14","task_version":"screening-mturk"},{"view_history":"[{\"page_index\":0,\"viewing_time\":1192.1550000552088},{\"page_index\":1,\"viewing_time\":339.31999997003004},{\"page_index\":2,\"viewing_time\":169.3049999885261},{\"page_index\":3,\"viewing_time\":193.65500001003966},{\"page_index\":4,\"viewing_time\":170.0750000309199},{\"page_index\":5,\"viewing_time\":471.68499999679625},{\"page_index\":6,\"viewing_time\":435.49499998334795},{\"page_index\":7,\"viewing_time\":533.2499999785796}]","rt":3505.3049999987707,"trial_type":"instructions","trial_index":35,"time_elapsed":936336,"internal_node_id":"0.0-5.15-0.15","task_version":"screening-mturk"},{"responses":["True","False","True","True","True"],"num_errors":3,"rt":12628.634999971837,"trial_type":"three-arm-comprehension","trial_index":36,"time_elapsed":948970,"internal_node_id":"0.0-5.15-1.15","task_version":"screening-mturk"},{"view_history":"[{\"page_index\":0,\"viewing_time\":1264.5100000081584},{\"page_index\":1,\"viewing_time\":43056.66499998188},{\"page_index\":2,\"viewing_time\":1465.7250000163913},{\"page_index\":3,\"viewing_time\":3538.1000000052154},{\"page_index\":4,\"viewing_time\":9034.150000021327},{\"page_index\":5,\"viewing_time\":7688.934999983758},{\"page_index\":6,\"viewing_time\":1551.7150000086986},{\"page_index\":5,\"viewing_time\":1621.4349999791011},{\"page_index\":6,\"viewing_time\":2205.11500001885},{\"page_index\":7,\"viewing_time\":5703.459999989718}]","rt":77130.2250000299,"trial_type":"instructions","trial_index":37,"time_elapsed":1026105,"internal_node_id":"0.0-5.16-0.16","task_version":"screening-mturk"},{"responses":["True","False","True","False","False"],"num_errors":3,"rt":31677.160000021104,"trial_type":"three-arm-comprehension","trial_index":38,"time_elapsed":1057785,"internal_node_id":"0.0-5.16-1.16","task_version":"screening-mturk"},{"view_history":"[{\"page_index\":0,\"viewing_time\":1458.649999985937},{\"page_index\":1,\"viewing_time\":1294.869999983348},{\"page_index\":2,\"viewing_time\":726.569999998901},{\"page_index\":3,\"viewing_time\":377.99000000813976},{\"page_index\":4,\"viewing_time\":397.6000000257045},{\"page_index\":5,\"viewing_time\":629.9099999596365},{\"page_index\":6,\"viewing_time\":653.7200000020675},{\"page_index\":7,\"viewing_time\":883.8349999859929}]","rt":6423.59999998007,"trial_type":"instructions","trial_index":39,"time_elapsed":1064214,"internal_node_id":"0.0-5.17-0.17","task_version":"screening-mturk"},{"responses":["True","True","False","False","True"],"num_errors":0,"rt":13659.180000016931,"trial_type":"three-arm-comprehension","trial_index":40,"time_elapsed":1077877,"internal_node_id":"0.0-5.17-1.17","task_version":"screening-mturk"},{"view_history":"[{\"page_index\":0,\"viewing_time\":3977.2050000028685}]","rt":3977.790000033565,"trial_type":"instructions","trial_index":41,"time_elapsed":1081859,"internal_node_id":"0.0-6.0","task_version":"screening-mturk"},{"contexts":["red","blue","green"],"outcomes":[1,1,0],"key":39,"choice":2,"rt":5150.0750000122935,"outcome":0,"trial":1,"correct":1,"trial_type":"three-arm-trial","trial_index":42,"time_elapsed":1088217,"internal_node_id":"0.0-7.0-0.0","task_version":"screening-mturk","missing":false,"accuracy":0},{"contexts":["red","blue","green"],"outcomes":[0,1,0],"key":38,"choice":1,"rt":783.8700000429526,"outcome":1,"trial":2,"correct":1,"trial_type":"three-arm-trial","trial_index":43,"time_elapsed":1090206,"internal_node_id":"0.0-8.0-0.0","task_version":"screening-mturk","missing":false,"accuracy":1},{"contexts":["red","blue","green"],"outcomes":[0,1,0],"key":37,"choice":0,"rt":534.5250000245869,"outcome":0,"trial":3,"correct":1,"trial_type":"three-arm-trial","trial_index":44,"time_elapsed":1091946,"internal_node_id":"0.0-9.0-0.0","task_version":"screening-mturk","missing":false,"accuracy":0},{"contexts":["red","blue","green"],"outcomes":[0,1,0],"key":38,"choice":1,"rt":409.0199999627657,"outcome":1,"trial":4,"correct":1,"trial_type":"three-arm-trial","trial_index":45,"time_elapsed":1093561,"internal_node_id":"0.0-10.0-0.0","task_version":"screening-mturk","missing":false,"accuracy":1},{"contexts":["red","blue","green"],"outcomes":[0,1,0],"key":38,"choice":1,"rt":4454.2850000434555,"outcome":1,"trial":5,"correct":1,"trial_type":"three-arm-trial","trial_index":46,"time_elapsed":1099224,"internal_node_id":"0.0-11.0-0.0","task_version":"screening-mturk","missing":false,"accuracy":1},{"contexts":["red","blue","green"],"outcomes":[1,1,0],"key":38,"choice":1,"rt":352.88999998010695,"outcome":1,"trial":6,"correct":1,"trial_type":"three-arm-trial","trial_index":47,"time_elapsed":1100783,"internal_node_id":"0.0-12.0-0.0","task_version":"screening-mturk","missing":false,"accuracy":1},{"contexts":["red","blue","green"],"outcomes":[0,1,0],"key":38,"choice":1,"rt":271.1700000218116,"outcome":1,"trial":7,"correct":1,"trial_type":"three-arm-trial","trial_index":48,"time_elapsed":1102259,"internal_node_id":"0.0-13.0-0.0","task_version":"screening-mturk","missing":false,"accuracy":1},{"contexts":["red","blue","green"],"outcomes":[0,1,0],"key":38,"choice":1,"rt":134.28499997826293,"outcome":1,"trial":8,"correct":1,"trial_type":"three-arm-trial","trial_index":49,"time_elapsed":1103601,"internal_node_id":"0.0-14.0-0.0","task_version":"screening-mturk","missing":false,"accuracy":1},{"contexts":["red","blue","green"],"outcomes":[0,1,0],"key":38,"choice":1,"rt":999.5750000234693,"outcome":1,"trial":9,"correct":1,"trial_type":"three-arm-trial","trial_index":50,"time_elapsed":1105805,"internal_node_id":"0.0-15.0-0.0","task_version":"screening-mturk","missing":false,"accuracy":1},{"contexts":["red","blue","green"],"outcomes":[1,1,0],"key":38,"choice":1,"rt":392.22999999765307,"outcome":1,"trial":10,"correct":1,"trial_type":"three-arm-trial","trial_index":51,"time_elapsed":1107401,"internal_node_id":"0.0-16.0-0.0","task_version":"screening-mturk","missing":false,"accuracy":1},{"contexts":["red","blue","green"],"outcomes":[0,1,0],"key":38,"choice":1,"rt":232.82999999355525,"outcome":1,"trial":11,"correct":1,"trial_type":"three-arm-trial","trial_index":52,"time_elapsed":1108840,"internal_node_id":"0.0-17.0-0.0","task_version":"screening-mturk","missing":false,"accuracy":1},{"contexts":["red","blue","green"],"outcomes":[0,1,0],"key":38,"choice":1,"rt":639.1849999781698,"outcome":1,"trial":12,"correct":1,"trial_type":"three-arm-trial","trial_index":53,"time_elapsed":1110683,"internal_node_id":"0.0-18.0-0.0","task_version":"screening-mturk","missing":false,"accuracy":1},{"contexts":["red","blue","green"],"outcomes":[1,1,0],"key":38,"choice":1,"rt":304.0599999949336,"outcome":1,"trial":13,"correct":1,"trial_type":"three-arm-trial","trial_index":54,"time_elapsed":1112191,"internal_node_id":"0.0-19.0-0.0","task_version":"screening-mturk","missing":false,"accuracy":1},{"contexts":["red","blue","green"],"outcomes":[1,1,0],"key":38,"choice":1,"rt":48.11999999219552,"outcome":1,"trial":14,"correct":1,"trial_type":"three-arm-trial","trial_index":55,"time_elapsed":1113444,"internal_node_id":"0.0-20.0-0.0","task_version":"screening-mturk","missing":false,"accuracy":1},{"contexts":["red","blue","green"],"outcomes":[0,0,0],"key":38,"choice":1,"rt":179.33000001357868,"outcome":0,"trial":15,"correct":1,"trial_type":"three-arm-trial","trial_index":56,"time_elapsed":1114828,"internal_node_id":"0.0-21.0-0.0","task_version":"screening-mturk","missing":false,"accuracy":1},{"contexts":["red","blue","green"],"outcomes":[1,1,0],"key":39,"choice":2,"rt":69.5500000147149,"outcome":0,"trial":16,"correct":0,"trial_type":"three-arm-trial","trial_index":57,"time_elapsed":1116103,"internal_node_id":"0.0-22.0-0.0","task_version":"screening-mturk","missing":false,"accuracy":0},{"contexts":["red","blue","green"],"outcomes":[0,0,0],"key":37,"choice":0,"rt":97.73499995935708,"outcome":0,"trial":17,"correct":0,"trial_type":"three-arm-trial","trial_index":58,"time_elapsed":1117406,"internal_node_id":"0.0-23.0-0.0","task_version":"screening-mturk","missing":false,"accuracy":1},{"contexts":["red","blue","green"],"outcomes":[1,1,0],"key":38,"choice":1,"rt":23.834999999962747,"outcome":1,"trial":18,"correct":0,"trial_type":"three-arm-trial","trial_index":59,"time_elapsed":1118634,"internal_node_id":"0.0-24.0-0.0","task_version":"screening-mturk","missing":false,"accuracy":0},{"contexts":["red","blue","green"],"outcomes":[1,0,0],"key":38,"choice":1,"rt":140.964999969583,"outcome":0,"trial":19,"correct":0,"trial_type":"three-arm-trial","trial_index":60,"time_elapsed":1119980,"internal_node_id":"0.0-25.0-0.0","task_version":"screening-mturk","missing":false,"accuracy":0},{"contexts":["red","blue","green"],"outcomes":[1,0,1],"key":38,"choice":1,"rt":288.2399999652989,"outcome":0,"trial":20,"correct":0,"trial_type":"three-arm-trial","trial_index":61,"time_elapsed":1121476,"internal_node_id":"0.0-26.0-0.0","task_version":"screening-mturk","missing":false,"accuracy":0},{"contexts":["red","blue","green"],"outcomes":[1,1,0],"key":38,"choice":1,"rt":419.07999996328726,"outcome":1,"trial":21,"correct":0,"trial_type":"three-arm-trial","trial_index":62,"time_elapsed":1123101,"internal_node_id":"0.0-27.0-0.0","task_version":"screening-mturk","missing":false,"accuracy":0},{"contexts":["red","blue","green"],"outcomes":[1,0,0],"key":38,"choice":1,"rt":255.36000001011416,"outcome":0,"trial":22,"correct":0,"trial_type":"three-arm-trial","trial_index":63,"time_elapsed":1124561,"internal_node_id":"0.0-28.0-0.0","task_version":"screening-mturk","missing":false,"accuracy":0},{"contexts":["red","blue","green"],"outcomes":[1,1,0],"key":39,"choice":2,"rt":14.340000052470714,"outcome":0,"trial":23,"correct":0,"trial_type":"three-arm-trial","trial_index":64,"time_elapsed":1125780,"internal_node_id":"0.0-29.0-0.0","task_version":"screening-mturk","missing":false,"accuracy":0},{"contexts":["red","blue","green"],"outcomes":[1,0,1],"key":37,"choice":0,"rt":257.28999997954816,"outcome":1,"trial":24,"correct":0,"trial_type":"three-arm-trial","trial_index":65,"time_elapsed":1127242,"internal_node_id":"0.0-30.0-0.0","task_version":"screening-mturk","missing":false,"accuracy":1},{"contexts":["red","blue","green"],"outcomes":[1,0,0],"key":37,"choice":0,"rt":399.5100000174716,"outcome":1,"trial":25,"correct":0,"trial_type":"three-arm-trial","trial_index":66,"time_elapsed":1128845,"internal_node_id":"0.0-31.0-0.0","task_version":"screening-mturk","missing":false,"accuracy":1},{"contexts":["red","blue","green"],"outcomes":[1,0,0],"key":37,"choice":0,"rt":281.09499998390675,"outcome":1,"trial":26,"correct":0,"trial_type":"three-arm-trial","trial_index":67,"time_elapsed":1130331,"internal_node_id":"0.0-32.0-0.0","task_version":"screening-mturk","missing":false,"accuracy":1},{"contexts":["red","blue","green"],"outcomes":[1,1,1],"key":37,"choice":0,"rt":275.290000019595,"outcome":1,"trial":27,"correct":0,"trial_type":"three-arm-trial","trial_index":68,"time_elapsed":1131811,"internal_node_id":"0.0-33.0-0.0","task_version":"screening-mturk","missing":false,"accuracy":1},{"contexts":["red","blue","green"],"outcomes":[1,0,0],"key":37,"choice":0,"rt":229.65499997371808,"outcome":1,"trial":28,"correct":0,"trial_type":"three-arm-trial","trial_index":69,"time_elapsed":1133245,"internal_node_id":"0.0-34.0-0.0","task_version":"screening-mturk","missing":false,"accuracy":1},{"contexts":["red","blue","green"],"outcomes":[1,1,0],"key":37,"choice":0,"rt":310.15000003390014,"outcome":1,"trial":29,"correct":0,"trial_type":"three-arm-trial","trial_index":70,"time_elapsed":1134761,"internal_node_id":"0.0-35.0-0.0","task_version":"screening-mturk","missing":false,"accuracy":1},{"contexts":["red","blue","green"],"outcomes":[1,0,1],"key":37,"choice":0,"rt":61.30000000121072,"outcome":1,"trial":30,"correct":0,"trial_type":"three-arm-trial","trial_index":71,"time_elapsed":1136027,"internal_node_id":"0.0-36.0-0.0","task_version":"screening-mturk","missing":false,"accuracy":1},{"contexts":["red","blue","green"],"outcomes":[1,0,1],"key":37,"choice":0,"rt":371.2750000413507,"outcome":1,"trial":31,"correct":2,"trial_type":"three-arm-trial","trial_index":72,"time_elapsed":1137601,"internal_node_id":"0.0-37.0-0.0","task_version":"screening-mturk","missing":false,"accuracy":0},{"contexts":["red","blue","green"],"outcomes":[0,0,1],"key":37,"choice":0,"rt":184.8699999973178,"outcome":0,"trial":32,"correct":2,"trial_type":"three-arm-trial","trial_index":73,"time_elapsed":1138991,"internal_node_id":"0.0-38.0-0.0","task_version":"screening-mturk","missing":false,"accuracy":0},{"contexts":["red","blue","green"],"outcomes":[0,0,1],"key":38,"choice":1,"rt":166.31000000052154,"outcome":0,"trial":33,"correct":2,"trial_type":"three-arm-trial","trial_index":74,"time_elapsed":1140360,"internal_node_id":"0.0-39.0-0.0","task_version":"screening-mturk","missing":false,"accuracy":0},{"contexts":["red","blue","green"],"outcomes":[0,0,0],"key":39,"choice":2,"rt":315.9299999824725,"outcome":0,"trial":34,"correct":2,"trial_type":"three-arm-trial","trial_index":75,"time_elapsed":1141880,"internal_node_id":"0.0-40.0-0.0","task_version":"screening-mturk","missing":false,"accuracy":1},{"contexts":["red","blue","green"],"outcomes":[0,0,0],"key":38,"choice":1,"rt":215.34500003326684,"outcome":0,"trial":35,"correct":2,"trial_type":"three-arm-trial","trial_index":76,"time_elapsed":1143299,"internal_node_id":"0.0-41.0-0.0","task_version":"screening-mturk","missing":false,"accuracy":0},{"contexts":["red","blue","green"],"outcomes":[0,0,1],"key":37,"choice":0,"rt":313.4200000204146,"outcome":0,"trial":36,"correct":2,"trial_type":"three-arm-trial","trial_index":77,"time_elapsed":1144816,"internal_node_id":"0.0-42.0-0.0","task_version":"screening-mturk","missing":false,"accuracy":0},{"contexts":["red","blue","green"],"outcomes":[0,0,0],"key":38,"choice":1,"rt":70.76999999117106,"outcome":0,"trial":37,"correct":2,"trial_type":"three-arm-trial","trial_index":78,"time_elapsed":1146092,"internal_node_id":"0.0-43.0-0.0","task_version":"screening-mturk","missing":false,"accuracy":0},{"contexts":["red","blue","green"],"outcomes":[0,0,1],"key":39,"choice":2,"rt":585.6950000161305,"outcome":1,"trial":38,"correct":2,"trial_type":"three-arm-trial","trial_index":79,"time_elapsed":1147881,"internal_node_id":"0.0-44.0-0.0","task_version":"screening-mturk","missing":false,"accuracy":1},{"contexts":["red","blue","green"],"outcomes":[0,0,1],"key":39,"choice":2,"rt":221.90999996382743,"outcome":1,"trial":39,"correct":2,"trial_type":"three-arm-trial","trial_index":80,"time_elapsed":1149310,"internal_node_id":"0.0-45.0-0.0","task_version":"screening-mturk","missing":false,"accuracy":1},{"contexts":["red","blue","green"],"outcomes":[0,0,1],"key":39,"choice":2,"rt":334.4449999858625,"outcome":1,"trial":40,"correct":2,"trial_type":"three-arm-trial","trial_index":81,"time_elapsed":1150848,"internal_node_id":"0.0-46.0-0.0","task_version":"screening-mturk","missing":false,"accuracy":1},{"contexts":["red","blue","green"],"outcomes":[0,1,1],"key":39,"choice":2,"rt":550.8949999930337,"outcome":1,"trial":41,"correct":2,"trial_type":"three-arm-trial","trial_index":82,"time_elapsed":1152603,"internal_node_id":"0.0-47.0-0.0","task_version":"screening-mturk","missing":false,"accuracy":1},{"contexts":["red","blue","green"],"outcomes":[0,1,1],"key":39,"choice":2,"rt":374.1300000110641,"outcome":1,"trial":42,"correct":2,"trial_type":"three-arm-trial","trial_index":83,"time_elapsed":1154181,"internal_node_id":"0.0-48.0-0.0","task_version":"screening-mturk","missing":false,"accuracy":1},{"contexts":["red","blue","green"],"outcomes":[0,0,0],"key":39,"choice":2,"rt":341.8999999994412,"outcome":0,"trial":43,"correct":2,"trial_type":"three-arm-trial","trial_index":84,"time_elapsed":1155727,"internal_node_id":"0.0-49.0-0.0","task_version":"screening-mturk","missing":false,"accuracy":1},{"contexts":["red","blue","green"],"outcomes":[0,0,1],"key":39,"choice":2,"rt":278.6949999863282,"outcome":1,"trial":44,"correct":2,"trial_type":"three-arm-trial","trial_index":85,"time_elapsed":1157210,"internal_node_id":"0.0-50.0-0.0","task_version":"screening-mturk","missing":false,"accuracy":1},{"contexts":["red","blue","green"],"outcomes":[0,0,1],"key":39,"choice":2,"rt":478.2850000192411,"outcome":1,"trial":45,"correct":2,"trial_type":"three-arm-trial","trial_index":86,"time_elapsed":1158892,"internal_node_id":"0.0-51.0-0.0","task_version":"screening-mturk","missing":false,"accuracy":1},{"contexts":["red","blue","green"],"outcomes":[1,1,1],"key":39,"choice":2,"rt":390.8899999805726,"outcome":1,"trial":46,"correct":0,"trial_type":"three-arm-trial","trial_index":87,"time_elapsed":1160488,"internal_node_id":"0.0-52.0-0.0","task_version":"screening-mturk","missing":false,"accuracy":0},{"contexts":["red","blue","green"],"outcomes":[1,0,0],"key":39,"choice":2,"rt":556.990000011865,"outcome":0,"trial":47,"correct":0,"trial_type":"three-arm-trial","trial_index":88,"time_elapsed":1162249,"internal_node_id":"0.0-53.0-0.0","task_version":"screening-mturk","missing":false,"accuracy":0},{"contexts":["red","blue","green"],"outcomes":[1,0,0],"key":38,"choice":1,"rt":4.90999995963648,"outcome":0,"trial":48,"correct":0,"trial_type":"three-arm-trial","trial_index":89,"time_elapsed":1163458,"internal_node_id":"0.0-54.0-0.0","task_version":"screening-mturk","missing":false,"accuracy":0},{"contexts":["red","blue","green"],"outcomes":[1,0,0],"key":37,"choice":0,"rt":209.0049999533221,"outcome":1,"trial":49,"correct":0,"trial_type":"three-arm-trial","trial_index":90,"time_elapsed":1164872,"internal_node_id":"0.0-55.0-0.0","task_version":"screening-mturk","missing":false,"accuracy":1},{"contexts":["red","blue","green"],"outcomes":[1,0,0],"key":37,"choice":0,"rt":31.510000000707805,"outcome":1,"trial":50,"correct":0,"trial_type":"three-arm-trial","trial_index":91,"time_elapsed":1166110,"internal_node_id":"0.0-56.0-0.0","task_version":"screening-mturk","missing":false,"accuracy":1},{"contexts":["red","blue","green"],"outcomes":[1,0,0],"key":37,"choice":0,"rt":280.655000009574,"outcome":1,"trial":51,"correct":0,"trial_type":"three-arm-trial","trial_index":92,"time_elapsed":1167596,"internal_node_id":"0.0-57.0-0.0","task_version":"screening-mturk","missing":false,"accuracy":1},{"contexts":["red","blue","green"],"outcomes":[1,0,0],"key":37,"choice":0,"rt":218.89500005636364,"outcome":1,"trial":52,"correct":0,"trial_type":"three-arm-trial","trial_index":93,"time_elapsed":1169020,"internal_node_id":"0.0-58.0-0.0","task_version":"screening-mturk","missing":false,"accuracy":1},{"contexts":["red","blue","green"],"outcomes":[1,1,0],"key":37,"choice":0,"rt":203.4099999582395,"outcome":1,"trial":53,"correct":0,"trial_type":"three-arm-trial","trial_index":94,"time_elapsed":1170428,"internal_node_id":"0.0-59.0-0.0","task_version":"screening-mturk","missing":false,"accuracy":1},{"contexts":["red","blue","green"],"outcomes":[1,0,0],"key":37,"choice":0,"rt":188.39999998454005,"outcome":1,"trial":54,"correct":0,"trial_type":"three-arm-trial","trial_index":95,"time_elapsed":1171820,"internal_node_id":"0.0-60.0-0.0","task_version":"screening-mturk","missing":false,"accuracy":1},{"contexts":["red","blue","green"],"outcomes":[1,0,0],"key":37,"choice":0,"rt":315.9999999916181,"outcome":1,"trial":55,"correct":0,"trial_type":"three-arm-trial","trial_index":96,"time_elapsed":1173341,"internal_node_id":"0.0-61.0-0.0","task_version":"screening-mturk","missing":false,"accuracy":1},{"contexts":["red","blue","green"],"outcomes":[0,0,0],"key":37,"choice":0,"rt":451.4600000111386,"outcome":0,"trial":56,"correct":0,"trial_type":"three-arm-trial","trial_index":97,"time_elapsed":1174997,"internal_node_id":"0.0-62.0-0.0","task_version":"screening-mturk","missing":false,"accuracy":1},{"contexts":["red","blue","green"],"outcomes":[0,0,0],"key":39,"choice":2,"rt":363.87500003911555,"outcome":0,"trial":57,"correct":0,"trial_type":"three-arm-trial","trial_index":98,"time_elapsed":1176566,"internal_node_id":"0.0-63.0-0.0","task_version":"screening-mturk","missing":false,"accuracy":0},{"contexts":["red","blue","green"],"outcomes":[0,1,0],"key":37,"choice":0,"rt":301.21999996481463,"outcome":0,"trial":58,"correct":0,"trial_type":"three-arm-trial","trial_index":99,"time_elapsed":1178071,"internal_node_id":"0.0-64.0-0.0","task_version":"screening-mturk","missing":false,"accuracy":1},{"contexts":["red","blue","green"],"outcomes":[1,0,1],"key":38,"choice":1,"rt":324.59500001277775,"outcome":0,"trial":59,"correct":0,"trial_type":"three-arm-trial","trial_index":100,"time_elapsed":1179600,"internal_node_id":"0.0-65.0-0.0","task_version":"screening-mturk","missing":false,"accuracy":0},{"contexts":["red","blue","green"],"outcomes":[1,0,0],"key":37,"choice":0,"rt":37.2499999939464,"outcome":1,"trial":60,"correct":0,"trial_type":"three-arm-trial","trial_index":101,"time_elapsed":1180842,"internal_node_id":"0.0-66.0-0.0","task_version":"screening-mturk","missing":false,"accuracy":1},{"contexts":["red","blue","green"],"outcomes":[0,0,0],"key":37,"choice":0,"rt":94.6750000002794,"outcome":0,"trial":61,"correct":1,"trial_type":"three-arm-trial","trial_index":102,"time_elapsed":1182140,"internal_node_id":"0.0-67.0-0.0","task_version":"screening-mturk","missing":false,"accuracy":0},{"contexts":["red","blue","green"],"outcomes":[0,1,0],"key":39,"choice":2,"rt":141.89500000793487,"outcome":0,"trial":62,"correct":1,"trial_type":"three-arm-trial","trial_index":103,"time_elapsed":1183485,"internal_node_id":"0.0-68.0-0.0","task_version":"screening-mturk","missing":false,"accuracy":0},{"contexts":["red","blue","green"],"outcomes":[0,0,0],"key":38,"choice":1,"rt":335.94499999890104,"outcome":0,"trial":63,"correct":1,"trial_type":"three-arm-trial","trial_index":104,"time_elapsed":1185026,"internal_node_id":"0.0-69.0-0.0","task_version":"screening-mturk","missing":false,"accuracy":1},{"contexts":["red","blue","green"],"outcomes":[0,1,0],"key":37,"choice":0,"rt":54.27999998209998,"outcome":0,"trial":64,"correct":1,"trial_type":"three-arm-trial","trial_index":105,"time_elapsed":1186284,"internal_node_id":"0.0-70.0-0.0","task_version":"screening-mturk","missing":false,"accuracy":0},{"contexts":["red","blue","green"],"outcomes":[0,1,0],"key":39,"choice":2,"rt":299.0950000239536,"outcome":0,"trial":65,"correct":1,"trial_type":"three-arm-trial","trial_index":106,"time_elapsed":1187787,"internal_node_id":"0.0-71.0-0.0","task_version":"screening-mturk","missing":false,"accuracy":0},{"contexts":["red","blue","green"],"outcomes":[0,1,0],"key":38,"choice":1,"rt":141.48499997099862,"outcome":1,"trial":66,"correct":1,"trial_type":"three-arm-trial","trial_index":107,"time_elapsed":1189135,"internal_node_id":"0.0-72.0-0.0","task_version":"screening-mturk","missing":false,"accuracy":1},{"contexts":["red","blue","green"],"outcomes":[0,1,0],"key":38,"choice":1,"rt":101.88500001095235,"outcome":1,"trial":67,"correct":1,"trial_type":"three-arm-trial","trial_index":108,"time_elapsed":1190440,"internal_node_id":"0.0-73.0-0.0","task_version":"screening-mturk","missing":false,"accuracy":1},{"contexts":["red","blue","green"],"outcomes":[0,0,0],"key":38,"choice":1,"rt":287.34999999869615,"outcome":0,"trial":68,"correct":1,"trial_type":"three-arm-trial","trial_index":109,"time_elapsed":1191932,"internal_node_id":"0.0-74.0-0.0","task_version":"screening-mturk","missing":false,"accuracy":1},{"contexts":["red","blue","green"],"outcomes":[1,0,0],"key":37,"choice":0,"rt":106.32999998051673,"outcome":1,"trial":69,"correct":1,"trial_type":"three-arm-trial","trial_index":110,"time_elapsed":1193243,"internal_node_id":"0.0-75.0-0.0","task_version":"screening-mturk","missing":false,"accuracy":0},{"contexts":["red","blue","green"],"outcomes":[0,0,1],"key":37,"choice":0,"rt":9.870000008959323,"outcome":0,"trial":70,"correct":1,"trial_type":"three-arm-trial","trial_index":111,"time_elapsed":1194458,"internal_node_id":"0.0-76.0-0.0","task_version":"screening-mturk","missing":false,"accuracy":0},{"contexts":["red","blue","green"],"outcomes":[0,1,0],"key":39,"choice":2,"rt":96.72500001033768,"outcome":0,"trial":71,"correct":1,"trial_type":"three-arm-trial","trial_index":112,"time_elapsed":1195759,"internal_node_id":"0.0-77.0-0.0","task_version":"screening-mturk","missing":false,"accuracy":0},{"contexts":["red","blue","green"],"outcomes":[0,0,0],"key":38,"choice":1,"rt":39.825000043492764,"outcome":0,"trial":72,"correct":1,"trial_type":"three-arm-trial","trial_index":113,"time_elapsed":1197004,"internal_node_id":"0.0-78.0-0.0","task_version":"screening-mturk","missing":false,"accuracy":1},{"contexts":["red","blue","green"],"outcomes":[0,1,0],"key":37,"choice":0,"rt":76.66000002063811,"outcome":0,"trial":73,"correct":1,"trial_type":"three-arm-trial","trial_index":114,"time_elapsed":1198285,"internal_node_id":"0.0-79.0-0.0","task_version":"screening-mturk","missing":false,"accuracy":0},{"contexts":["red","blue","green"],"outcomes":[0,1,0],"key":38,"choice":1,"rt":99.05000001890585,"outcome":1,"trial":74,"correct":1,"trial_type":"three-arm-trial","trial_index":115,"time_elapsed":1199589,"internal_node_id":"0.0-80.0-0.0","task_version":"screening-mturk","missing":false,"accuracy":1},{"contexts":["red","blue","green"],"outcomes":[0,0,0],"key":38,"choice":1,"rt":100.79999995650724,"outcome":0,"trial":75,"correct":1,"trial_type":"three-arm-trial","trial_index":116,"time_elapsed":1200894,"internal_node_id":"0.0-81.0-0.0","task_version":"screening-mturk","missing":false,"accuracy":1},{"contexts":["red","blue","green"],"outcomes":[1,0,1],"key":39,"choice":2,"rt":173.1150000123307,"outcome":1,"trial":76,"correct":2,"trial_type":"three-arm-trial","trial_index":117,"time_elapsed":1202271,"internal_node_id":"0.0-82.0-0.0","task_version":"screening-mturk","missing":false,"accuracy":1},{"contexts":["red","blue","green"],"outcomes":[0,0,1],"key":39,"choice":2,"rt":31.94499999517575,"outcome":1,"trial":77,"correct":2,"trial_type":"three-arm-trial","trial_index":118,"time_elapsed":1203509,"internal_node_id":"0.0-83.0-0.0","task_version":"screening-mturk","missing":false,"accuracy":1},{"contexts":["red","blue","green"],"outcomes":[0,0,1],"key":39,"choice":2,"rt":191.61000003805384,"outcome":1,"trial":78,"correct":2,"trial_type":"three-arm-trial","trial_index":119,"time_elapsed":1204908,"internal_node_id":"0.0-84.0-0.0","task_version":"screening-mturk","missing":false,"accuracy":1},{"contexts":["red","blue","green"],"outcomes":[0,0,1],"key":39,"choice":2,"rt":309.9849999998696,"outcome":1,"trial":79,"correct":2,"trial_type":"three-arm-trial","trial_index":120,"time_elapsed":1206423,"internal_node_id":"0.0-85.0-0.0","task_version":"screening-mturk","missing":false,"accuracy":1},{"contexts":["red","blue","green"],"outcomes":[0,0,1],"key":39,"choice":2,"rt":405.2599999704398,"outcome":1,"trial":80,"correct":2,"trial_type":"three-arm-trial","trial_index":121,"time_elapsed":1208032,"internal_node_id":"0.0-86.0-0.0","task_version":"screening-mturk","missing":false,"accuracy":1},{"contexts":["red","blue","green"],"outcomes":[0,0,1],"key":39,"choice":2,"rt":398.64999998826534,"outcome":1,"trial":81,"correct":2,"trial_type":"three-arm-trial","trial_index":122,"time_elapsed":1209635,"internal_node_id":"0.0-87.0-0.0","task_version":"screening-mturk","missing":false,"accuracy":1},{"contexts":["red","blue","green"],"outcomes":[0,1,1],"key":39,"choice":2,"rt":16.3450000109151,"outcome":1,"trial":82,"correct":2,"trial_type":"three-arm-trial","trial_index":123,"time_elapsed":1210857,"internal_node_id":"0.0-88.0-0.0","task_version":"screening-mturk","missing":false,"accuracy":1},{"contexts":["red","blue","green"],"outcomes":[0,0,0],"key":39,"choice":2,"rt":5.889999971259385,"outcome":0,"trial":83,"correct":2,"trial_type":"three-arm-trial","trial_index":124,"time_elapsed":1212068,"internal_node_id":"0.0-89.0-0.0","task_version":"screening-mturk","missing":false,"accuracy":1},{"contexts":["red","blue","green"],"outcomes":[0,0,0],"key":38,"choice":1,"rt":71.06500002555549,"outcome":0,"trial":84,"correct":2,"trial_type":"three-arm-trial","trial_index":125,"time_elapsed":1213346,"internal_node_id":"0.0-90.0-0.0","task_version":"screening-mturk","missing":false,"accuracy":0},{"contexts":["red","blue","green"],"outcomes":[1,0,0],"key":37,"choice":0,"rt":309.4699999783188,"outcome":1,"trial":85,"correct":2,"trial_type":"three-arm-trial","trial_index":126,"time_elapsed":1214861,"internal_node_id":"0.0-91.0-0.0","task_version":"screening-mturk","missing":false,"accuracy":0},{"contexts":["red","blue","green"],"outcomes":[0,0,1],"key":37,"choice":0,"rt":179.3199999956414,"outcome":0,"trial":86,"correct":2,"trial_type":"three-arm-trial","trial_index":127,"time_elapsed":1216248,"internal_node_id":"0.0-92.0-0.0","task_version":"screening-mturk","missing":false,"accuracy":0},{"contexts":["red","blue","green"],"outcomes":[1,0,1],"key":39,"choice":2,"rt":0.31999999191612005,"outcome":1,"trial":87,"correct":2,"trial_type":"three-arm-trial","trial_index":128,"time_elapsed":1217452,"internal_node_id":"0.0-93.0-0.0","task_version":"screening-mturk","missing":false,"accuracy":1},{"contexts":["red","blue","green"],"outcomes":[0,0,1],"key":39,"choice":2,"rt":5.324999976437539,"outcome":1,"trial":88,"correct":2,"trial_type":"three-arm-trial","trial_index":129,"time_elapsed":1218661,"internal_node_id":"0.0-94.0-0.0","task_version":"screening-mturk","missing":false,"accuracy":1},{"contexts":["red","blue","green"],"outcomes":[0,1,1],"key":39,"choice":2,"rt":670.1900000334717,"outcome":1,"trial":89,"correct":2,"trial_type":"three-arm-trial","trial_index":130,"time_elapsed":1220536,"internal_node_id":"0.0-95.0-0.0","task_version":"screening-mturk","missing":false,"accuracy":1},{"contexts":["red","blue","green"],"outcomes":[0,0,0],"key":39,"choice":2,"rt":389.80000000447035,"outcome":0,"trial":90,"correct":2,"trial_type":"three-arm-trial","trial_index":131,"time_elapsed":1222129,"internal_node_id":"0.0-96.0-0.0","task_version":"screening-mturk","missing":false,"accuracy":1},{"rt":39887.29000004241,"responses":{"age":"57","gender-categorical":"Male","gender-free-response":"","ethnicity":"Not Hispanic or Latino","race":["White"],"language":"Yes","fluency":"Very well","prolific":"Yes","prolific-this-study":"No"},"survey":"demographics","trial_type":"survey-demo","trial_index":132,"time_elapsed":1262030,"internal_node_id":"0.0-97.0","task_version":"screening-mturk","interactions":"[{\"event\":\"blur\",\"trial\":1,\"time\":161649},{\"event\":\"focus\",\"trial\":1,\"time\":161771},{\"event\":\"blur\",\"trial\":2,\"time\":307972},{\"event\":\"focus\",\"trial\":2,\"time\":310610},{\"event\":\"blur\",\"trial\":29,\"time\":879815},{\"event\":\"focus\",\"trial\":29,\"time\":886048},{\"event\":\"blur\",\"trial\":37,\"time\":975459},{\"event\":\"focus\",\"trial\":37,\"time\":978845},{\"event\":\"blur\",\"trial\":37,\"time\":981168},{\"event\":\"focus\",\"trial\":37,\"time\":981243},{\"event\":\"blur\",\"trial\":37,\"time\":988756},{\"event\":\"focus\",\"trial\":37,\"time\":990996}]"}]