[{"responses":{"Q07":"3","Q08":"3","Q15":"3","Q02":"3","Q14":"3","Q12":"2","Q09":"2","Q10":"2","Q11":"2","Q13":"2","Q03":"2","Q01":"2","Q04":"2","Q06":"3","Q05":"3"},"rt":64783.05500000715,"survey":"shaps","trial_type":"survey-template","trial_index":0,"time_elapsed":64798,"internal_node_id":"0.0-0.0","task_version":"screening-mturk"},{"responses":{"Q03":"3","Q01":"2","Q02":"2"},"rt":13128.225000109524,"survey":"pswq","trial_type":"survey-template","trial_index":1,"time_elapsed":77930,"internal_node_id":"0.0-1.0","task_version":"screening-mturk"},{"responses":{"Q03":"3","Q06":"2","Q01":"3","Q04":"3","Q08":"0","Q02":"2","Q05":"2","Q07":"3"},"rt":25390.419999836013,"survey":"gad7","trial_type":"survey-template","trial_index":2,"time_elapsed":103324,"internal_node_id":"0.0-2.0","task_version":"screening-mturk"},{"responses":{"Q12":"1","Q10":"1","Q03":"2","Q02":"0","Q06":"2","Q09":"1","Q13":"3","Q05":"2","Q08":"2","Q01":"3","Q07":"3","Q11":"1","Q04":"2"},"rt":63557.18000000343,"survey":"bisbas","trial_type":"survey-template","trial_index":3,"time_elapsed":166886,"internal_node_id":"0.0-3.0","task_version":"screening-mturk"},{"responses":{"Q06":"1","Q01":"2","Q13":"3","Q02":"2","Q08":"2","Q05":"2","Q11":"1","Q09":"1","Q03":"1","Q10":"2","Q15":"0","Q07":"3","Q14":"1","Q04":"2","Q12":"1"},"rt":126376.41000002623,"survey":"7up7down","trial_type":"survey-template","trial_index":4,"time_elapsed":293268,"internal_node_id":"0.0-4.0","task_version":"screening-mturk"},{"view_history":"[{\"page_index\":0,\"viewing_time\":5081.939999945462},{\"page_index\":1,\"viewing_time\":7732.725000008941},{\"page_index\":2,\"viewing_time\":6776.539999991655},{\"page_index\":3,\"viewing_time\":4070.860000094399},{\"page_index\":4,\"viewing_time\":6048.534999834374},{\"page_index\":5,\"viewing_time\":3768.3350001461804},{\"page_index\":6,\"viewing_time\":2568.0249999277294},{\"page_index\":7,\"viewing_time\":3608.3199998829514}]","rt":39655.58999986388,"trial_type":"instructions","trial_index":5,"time_elapsed":332924,"internal_node_id":"0.0-5.0-0.0","task_version":"screening-mturk"},{"responses":["True","True","False","False","True"],"num_errors":0,"rt":14147.555000148714,"trial_type":"three-arm-comprehension","trial_index":6,"time_elapsed":347075,"internal_node_id":"0.0-5.0-1.0","task_version":"screening-mturk"},{"view_history":"[{\"page_index\":0,\"viewing_time\":1670.3749999869615}]","rt":1670.4899999313056,"trial_type":"instructions","trial_index":7,"time_elapsed":348751,"internal_node_id":"0.0-6.0","task_version":"screening-mturk"},{"contexts":["red","green","blue"],"outcomes":[0,0,1],"key":38,"choice":1,"rt":2606.2500001862645,"outcome":0,"trial":1,"correct":2,"trial_type":"three-arm-trial","trial_index":8,"time_elapsed":352561,"internal_node_id":"0.0-7.0-0.0","task_version":"screening-mturk","missing":false,"accuracy":0},{"contexts":["red","green","blue"],"outcomes":[0,0,1],"key":39,"choice":2,"rt":2707.7099999878556,"outcome":1,"trial":2,"correct":2,"trial_type":"three-arm-trial","trial_index":9,"time_elapsed":356473,"internal_node_id":"0.0-8.0-0.0","task_version":"screening-mturk","missing":false,"accuracy":1},{"contexts":["red","green","blue"],"outcomes":[0,0,1],"key":39,"choice":2,"rt":723.3549999073148,"outcome":1,"trial":3,"correct":2,"trial_type":"three-arm-trial","trial_index":10,"time_elapsed":358402,"internal_node_id":"0.0-9.0-0.0","task_version":"screening-mturk","missing":false,"accuracy":1},{"contexts":["red","green","blue"],"outcomes":[0,1,1],"key":39,"choice":2,"rt":594.3750001024455,"outcome":1,"trial":4,"correct":2,"trial_type":"three-arm-trial","trial_index":11,"time_elapsed":360203,"internal_node_id":"0.0-10.0-0.0","task_version":"screening-mturk","missing":false,"accuracy":1},{"contexts":["red","green","blue"],"outcomes":[1,0,1],"key":39,"choice":2,"rt":474.44000001996756,"outcome":1,"trial":5,"correct":2,"trial_type":"three-arm-trial","trial_index":12,"time_elapsed":361882,"internal_node_id":"0.0-11.0-0.0","task_version":"screening-mturk","missing":false,"accuracy":1},{"contexts":["red","green","blue"],"outcomes":[0,0,1],"key":39,"choice":2,"rt":445.6050000153482,"outcome":1,"trial":6,"correct":2,"trial_type":"three-arm-trial","trial_index":13,"time_elapsed":363539,"internal_node_id":"0.0-12.0-0.0","task_version":"screening-mturk","missing":false,"accuracy":1},{"contexts":["red","green","blue"],"outcomes":[1,0,1],"key":39,"choice":2,"rt":932.024999987334,"outcome":1,"trial":7,"correct":2,"trial_type":"three-arm-trial","trial_index":14,"time_elapsed":365674,"internal_node_id":"0.0-13.0-0.0","task_version":"screening-mturk","missing":false,"accuracy":1},{"contexts":["red","green","blue"],"outcomes":[0,1,0],"key":39,"choice":2,"rt":422.44000011123717,"outcome":0,"trial":8,"correct":2,"trial_type":"three-arm-trial","trial_index":15,"time_elapsed":367301,"internal_node_id":"0.0-14.0-0.0","task_version":"screening-mturk","missing":false,"accuracy":1},{"contexts":["red","green","blue"],"outcomes":[0,0,1],"key":37,"choice":0,"rt":425.31000007875264,"outcome":0,"trial":9,"correct":2,"trial_type":"three-arm-trial","trial_index":16,"time_elapsed":368930,"internal_node_id":"0.0-15.0-0.0","task_version":"screening-mturk","missing":false,"accuracy":0},{"contexts":["red","green","blue"],"outcomes":[0,0,1],"key":38,"choice":1,"rt":469.25500012002885,"outcome":0,"trial":10,"correct":2,"trial_type":"three-arm-trial","trial_index":17,"time_elapsed":370603,"internal_node_id":"0.0-16.0-0.0","task_version":"screening-mturk","missing":false,"accuracy":0},{"contexts":["red","green","blue"],"outcomes":[1,0,1],"key":37,"choice":0,"rt":373.1800001114607,"outcome":1,"trial":11,"correct":2,"trial_type":"three-arm-trial","trial_index":18,"time_elapsed":372180,"internal_node_id":"0.0-17.0-0.0","task_version":"screening-mturk","missing":false,"accuracy":0},{"contexts":["red","green","blue"],"outcomes":[0,0,1],"key":37,"choice":0,"rt":338.3749998174608,"outcome":0,"trial":12,"correct":2,"trial_type":"three-arm-trial","trial_index":19,"time_elapsed":373723,"internal_node_id":"0.0-18.0-0.0","task_version":"screening-mturk","missing":false,"accuracy":0},{"contexts":["red","green","blue"],"outcomes":[0,0,1],"key":38,"choice":1,"rt":347.2249999176711,"outcome":0,"trial":13,"correct":2,"trial_type":"three-arm-trial","trial_index":20,"time_elapsed":375275,"internal_node_id":"0.0-19.0-0.0","task_version":"screening-mturk","missing":false,"accuracy":0},{"contexts":["red","green","blue"],"outcomes":[0,0,1],"key":38,"choice":1,"rt":389.2900000791997,"outcome":0,"trial":14,"correct":2,"trial_type":"three-arm-trial","trial_index":21,"time_elapsed":376868,"internal_node_id":"0.0-20.0-0.0","task_version":"screening-mturk","missing":false,"accuracy":0},{"contexts":["red","green","blue"],"outcomes":[1,0,1],"key":37,"choice":0,"rt":252.08999984897673,"outcome":1,"trial":15,"correct":2,"trial_type":"three-arm-trial","trial_index":22,"time_elapsed":378325,"internal_node_id":"0.0-21.0-0.0","task_version":"screening-mturk","missing":false,"accuracy":0},{"contexts":["red","green","blue"],"outcomes":[0,1,0],"key":37,"choice":0,"rt":323.8699999637902,"outcome":0,"trial":16,"correct":1,"trial_type":"three-arm-trial","trial_index":23,"time_elapsed":379852,"internal_node_id":"0.0-22.0-0.0","task_version":"screening-mturk","missing":false,"accuracy":0},{"contexts":["red","green","blue"],"outcomes":[1,0,0],"key":39,"choice":2,"rt":293.4949998743832,"outcome":0,"trial":17,"correct":1,"trial_type":"three-arm-trial","trial_index":24,"time_elapsed":381349,"internal_node_id":"0.0-23.0-0.0","task_version":"screening-mturk","missing":false,"accuracy":0},{"contexts":["red","green","blue"],"outcomes":[0,1,0],"key":39,"choice":2,"rt":55.96500006504357,"outcome":0,"trial":18,"correct":1,"trial_type":"three-arm-trial","trial_index":25,"time_elapsed":382613,"internal_node_id":"0.0-24.0-0.0","task_version":"screening-mturk","missing":false,"accuracy":0},{"contexts":["red","green","blue"],"outcomes":[0,0,1],"key":37,"choice":0,"rt":211.37499995529652,"outcome":0,"trial":19,"correct":1,"trial_type":"three-arm-trial","trial_index":26,"time_elapsed":384029,"internal_node_id":"0.0-25.0-0.0","task_version":"screening-mturk","missing":false,"accuracy":0},{"contexts":["red","green","blue"],"outcomes":[0,0,0],"key":38,"choice":1,"rt":292.80000017024577,"outcome":0,"trial":20,"correct":1,"trial_type":"three-arm-trial","trial_index":27,"time_elapsed":385526,"internal_node_id":"0.0-26.0-0.0","task_version":"screening-mturk","missing":false,"accuracy":1},{"contexts":["red","green","blue"],"outcomes":[0,1,0],"key":37,"choice":0,"rt":274.8000000137836,"outcome":0,"trial":21,"correct":1,"trial_type":"three-arm-trial","trial_index":28,"time_elapsed":387006,"internal_node_id":"0.0-27.0-0.0","task_version":"screening-mturk","missing":false,"accuracy":0},{"contexts":["red","green","blue"],"outcomes":[0,0,0],"key":38,"choice":1,"rt":59.11500006914139,"outcome":0,"trial":22,"correct":1,"trial_type":"three-arm-trial","trial_index":29,"time_elapsed":388270,"internal_node_id":"0.0-28.0-0.0","task_version":"screening-mturk","missing":false,"accuracy":1},{"contexts":["red","green","blue"],"outcomes":[1,1,0],"key":39,"choice":2,"rt":314.7599999792874,"outcome":0,"trial":23,"correct":1,"trial_type":"three-arm-trial","trial_index":30,"time_elapsed":389790,"internal_node_id":"0.0-29.0-0.0","task_version":"screening-mturk","missing":false,"accuracy":0},{"contexts":["red","green","blue"],"outcomes":[0,1,0],"key":37,"choice":0,"rt":204.63500008918345,"outcome":0,"trial":24,"correct":1,"trial_type":"three-arm-trial","trial_index":31,"time_elapsed":391198,"internal_node_id":"0.0-30.0-0.0","task_version":"screening-mturk","missing":false,"accuracy":0},{"contexts":["red","green","blue"],"outcomes":[0,0,1],"key":38,"choice":1,"rt":547.3049997817725,"outcome":0,"trial":25,"correct":1,"trial_type":"three-arm-trial","trial_index":32,"time_elapsed":392951,"internal_node_id":"0.0-31.0-0.0","task_version":"screening-mturk","missing":false,"accuracy":1},{"contexts":["red","green","blue"],"outcomes":[1,1,1],"key":39,"choice":2,"rt":257.4849999509752,"outcome":1,"trial":26,"correct":1,"trial_type":"three-arm-trial","trial_index":33,"time_elapsed":394415,"internal_node_id":"0.0-32.0-0.0","task_version":"screening-mturk","missing":false,"accuracy":0},{"contexts":["red","green","blue"],"outcomes":[0,1,0],"key":39,"choice":2,"rt":307.19500011764467,"outcome":0,"trial":27,"correct":1,"trial_type":"three-arm-trial","trial_index":34,"time_elapsed":395929,"internal_node_id":"0.0-33.0-0.0","task_version":"screening-mturk","missing":false,"accuracy":0},{"contexts":["red","green","blue"],"outcomes":[0,1,0],"key":37,"choice":0,"rt":305.1650000270456,"outcome":0,"trial":28,"correct":1,"trial_type":"three-arm-trial","trial_index":35,"time_elapsed":397439,"internal_node_id":"0.0-34.0-0.0","task_version":"screening-mturk","missing":false,"accuracy":0},{"contexts":["red","green","blue"],"outcomes":[1,1,0],"key":38,"choice":1,"rt":221.01500001735985,"outcome":1,"trial":29,"correct":1,"trial_type":"three-arm-trial","trial_index":36,"time_elapsed":398865,"internal_node_id":"0.0-35.0-0.0","task_version":"screening-mturk","missing":false,"accuracy":1},{"contexts":["red","green","blue"],"outcomes":[0,1,1],"key":38,"choice":1,"rt":274.55500001087785,"outcome":1,"trial":30,"correct":1,"trial_type":"three-arm-trial","trial_index":37,"time_elapsed":400343,"internal_node_id":"0.0-36.0-0.0","task_version":"screening-mturk","missing":false,"accuracy":1},{"contexts":["red","green","blue"],"outcomes":[1,1,1],"key":38,"choice":1,"rt":325.35500009544194,"outcome":1,"trial":31,"correct":2,"trial_type":"three-arm-trial","trial_index":38,"time_elapsed":401872,"internal_node_id":"0.0-37.0-0.0","task_version":"screening-mturk","missing":false,"accuracy":0},{"contexts":["red","green","blue"],"outcomes":[0,0,1],"key":38,"choice":1,"rt":355.14000011608005,"outcome":0,"trial":32,"correct":2,"trial_type":"three-arm-trial","trial_index":39,"time_elapsed":403432,"internal_node_id":"0.0-38.0-0.0","task_version":"screening-mturk","missing":false,"accuracy":0},{"contexts":["red","green","blue"],"outcomes":[0,0,1],"key":38,"choice":1,"rt":330.2100000437349,"outcome":0,"trial":33,"correct":2,"trial_type":"three-arm-trial","trial_index":40,"time_elapsed":404968,"internal_node_id":"0.0-39.0-0.0","task_version":"screening-mturk","missing":false,"accuracy":0},{"contexts":["red","green","blue"],"outcomes":[0,0,1],"key":39,"choice":2,"rt":226.98499984107912,"outcome":1,"trial":34,"correct":2,"trial_type":"three-arm-trial","trial_index":41,"time_elapsed":406400,"internal_node_id":"0.0-40.0-0.0","task_version":"screening-mturk","missing":false,"accuracy":1},{"contexts":["red","green","blue"],"outcomes":[0,0,1],"key":39,"choice":2,"rt":243.0249999742955,"outcome":1,"trial":35,"correct":2,"trial_type":"three-arm-trial","trial_index":42,"time_elapsed":407849,"internal_node_id":"0.0-41.0-0.0","task_version":"screening-mturk","missing":false,"accuracy":1},{"contexts":["red","green","blue"],"outcomes":[0,0,1],"key":39,"choice":2,"rt":307.49500007368624,"outcome":1,"trial":36,"correct":2,"trial_type":"three-arm-trial","trial_index":43,"time_elapsed":409361,"internal_node_id":"0.0-42.0-0.0","task_version":"screening-mturk","missing":false,"accuracy":1},{"contexts":["red","green","blue"],"outcomes":[0,1,1],"key":39,"choice":2,"rt":292.41500003263354,"outcome":1,"trial":37,"correct":2,"trial_type":"three-arm-trial","trial_index":44,"time_elapsed":410858,"internal_node_id":"0.0-43.0-0.0","task_version":"screening-mturk","missing":false,"accuracy":1},{"contexts":["red","green","blue"],"outcomes":[0,0,1],"key":39,"choice":2,"rt":290.19999993033707,"outcome":1,"trial":38,"correct":2,"trial_type":"three-arm-trial","trial_index":45,"time_elapsed":412352,"internal_node_id":"0.0-44.0-0.0","task_version":"screening-mturk","missing":false,"accuracy":1},{"contexts":["red","green","blue"],"outcomes":[1,0,1],"key":39,"choice":2,"rt":318.3349999599159,"outcome":1,"trial":39,"correct":2,"trial_type":"three-arm-trial","trial_index":46,"time_elapsed":413874,"internal_node_id":"0.0-45.0-0.0","task_version":"screening-mturk","missing":false,"accuracy":1},{"contexts":["red","green","blue"],"outcomes":[0,0,1],"key":39,"choice":2,"rt":325.1699998509139,"outcome":1,"trial":40,"correct":2,"trial_type":"three-arm-trial","trial_index":47,"time_elapsed":415403,"internal_node_id":"0.0-46.0-0.0","task_version":"screening-mturk","missing":false,"accuracy":1},{"contexts":["red","green","blue"],"outcomes":[0,0,1],"key":39,"choice":2,"rt":297.9049999266863,"outcome":1,"trial":41,"correct":2,"trial_type":"three-arm-trial","trial_index":48,"time_elapsed":416905,"internal_node_id":"0.0-47.0-0.0","task_version":"screening-mturk","missing":false,"accuracy":1},{"contexts":["red","green","blue"],"outcomes":[0,1,0],"key":39,"choice":2,"rt":316.7600000742823,"outcome":0,"trial":42,"correct":2,"trial_type":"three-arm-trial","trial_index":49,"time_elapsed":418425,"internal_node_id":"0.0-48.0-0.0","task_version":"screening-mturk","missing":false,"accuracy":1},{"contexts":["red","green","blue"],"outcomes":[0,0,0],"key":39,"choice":2,"rt":238.09999995864928,"outcome":0,"trial":43,"correct":2,"trial_type":"three-arm-trial","trial_index":50,"time_elapsed":419867,"internal_node_id":"0.0-49.0-0.0","task_version":"screening-mturk","missing":false,"accuracy":1},{"contexts":["red","green","blue"],"outcomes":[0,0,0],"key":37,"choice":0,"rt":188.13000014051795,"outcome":0,"trial":44,"correct":2,"trial_type":"three-arm-trial","trial_index":51,"time_elapsed":421258,"internal_node_id":"0.0-50.0-0.0","task_version":"screening-mturk","missing":false,"accuracy":0},{"contexts":["red","green","blue"],"outcomes":[1,0,1],"key":38,"choice":1,"rt":275.5249999463558,"outcome":0,"trial":45,"correct":2,"trial_type":"three-arm-trial","trial_index":52,"time_elapsed":422740,"internal_node_id":"0.0-51.0-0.0","task_version":"screening-mturk","missing":false,"accuracy":0},{"contexts":["red","green","blue"],"outcomes":[0,0,0],"key":39,"choice":2,"rt":497.75999994017184,"outcome":0,"trial":46,"correct":1,"trial_type":"three-arm-trial","trial_index":53,"time_elapsed":424442,"internal_node_id":"0.0-52.0-0.0","task_version":"screening-mturk","missing":false,"accuracy":0},{"contexts":["red","green","blue"],"outcomes":[0,1,1],"key":37,"choice":0,"rt":253.76499979756773,"outcome":0,"trial":47,"correct":1,"trial_type":"three-arm-trial","trial_index":54,"time_elapsed":425899,"internal_node_id":"0.0-53.0-0.0","task_version":"screening-mturk","missing":false,"accuracy":0},{"contexts":["red","green","blue"],"outcomes":[0,1,0],"key":38,"choice":1,"rt":188.8150000013411,"outcome":1,"trial":48,"correct":1,"trial_type":"three-arm-trial","trial_index":55,"time_elapsed":427292,"internal_node_id":"0.0-54.0-0.0","task_version":"screening-mturk","missing":false,"accuracy":1},{"contexts":["red","green","blue"],"outcomes":[0,1,0],"key":38,"choice":1,"rt":75.95500000752509,"outcome":1,"trial":49,"correct":1,"trial_type":"three-arm-trial","trial_index":56,"time_elapsed":428572,"internal_node_id":"0.0-55.0-0.0","task_version":"screening-mturk","missing":false,"accuracy":1},{"contexts":["red","green","blue"],"outcomes":[0,0,0],"key":38,"choice":1,"rt":299.34500018134713,"outcome":0,"trial":50,"correct":1,"trial_type":"three-arm-trial","trial_index":57,"time_elapsed":430076,"internal_node_id":"0.0-56.0-0.0","task_version":"screening-mturk","missing":false,"accuracy":1},{"contexts":["red","green","blue"],"outcomes":[0,1,0],"key":38,"choice":1,"rt":274.4199999142438,"outcome":1,"trial":51,"correct":1,"trial_type":"three-arm-trial","trial_index":58,"time_elapsed":431556,"internal_node_id":"0.0-57.0-0.0","task_version":"screening-mturk","missing":false,"accuracy":1},{"contexts":["red","green","blue"],"outcomes":[0,1,0],"key":38,"choice":1,"rt":243.83000005036592,"outcome":1,"trial":52,"correct":1,"trial_type":"three-arm-trial","trial_index":59,"time_elapsed":433004,"internal_node_id":"0.0-58.0-0.0","task_version":"screening-mturk","missing":false,"accuracy":1},{"contexts":["red","green","blue"],"outcomes":[0,1,0],"key":38,"choice":1,"rt":300.47000013291836,"outcome":1,"trial":53,"correct":1,"trial_type":"three-arm-trial","trial_index":60,"time_elapsed":434509,"internal_node_id":"0.0-59.0-0.0","task_version":"screening-mturk","missing":false,"accuracy":1},{"contexts":["red","green","blue"],"outcomes":[0,1,1],"key":38,"choice":1,"rt":305.9400001075119,"outcome":1,"trial":54,"correct":1,"trial_type":"three-arm-trial","trial_index":61,"time_elapsed":436022,"internal_node_id":"0.0-60.0-0.0","task_version":"screening-mturk","missing":false,"accuracy":1},{"contexts":["red","green","blue"],"outcomes":[1,1,0],"key":38,"choice":1,"rt":202.9399999883026,"outcome":1,"trial":55,"correct":1,"trial_type":"three-arm-trial","trial_index":62,"time_elapsed":437429,"internal_node_id":"0.0-61.0-0.0","task_version":"screening-mturk","missing":false,"accuracy":1},{"contexts":["red","green","blue"],"outcomes":[0,1,0],"key":38,"choice":1,"rt":268.4450000524521,"outcome":1,"trial":56,"correct":1,"trial_type":"three-arm-trial","trial_index":63,"time_elapsed":438901,"internal_node_id":"0.0-62.0-0.0","task_version":"screening-mturk","missing":false,"accuracy":1},{"contexts":["red","green","blue"],"outcomes":[0,1,0],"key":38,"choice":1,"rt":299.75000000558794,"outcome":1,"trial":57,"correct":1,"trial_type":"three-arm-trial","trial_index":64,"time_elapsed":440406,"internal_node_id":"0.0-63.0-0.0","task_version":"screening-mturk","missing":false,"accuracy":1},{"contexts":["red","green","blue"],"outcomes":[0,1,0],"key":38,"choice":1,"rt":269.59999999962747,"outcome":1,"trial":58,"correct":1,"trial_type":"three-arm-trial","trial_index":65,"time_elapsed":441879,"internal_node_id":"0.0-64.0-0.0","task_version":"screening-mturk","missing":false,"accuracy":1},{"contexts":["red","green","blue"],"outcomes":[0,0,1],"key":38,"choice":1,"rt":217.814999865368,"outcome":0,"trial":59,"correct":1,"trial_type":"three-arm-trial","trial_index":66,"time_elapsed":443302,"internal_node_id":"0.0-65.0-0.0","task_version":"screening-mturk","missing":false,"accuracy":1},{"contexts":["red","green","blue"],"outcomes":[0,1,0],"key":38,"choice":1,"rt":258.67000012658536,"outcome":1,"trial":60,"correct":1,"trial_type":"three-arm-trial","trial_index":67,"time_elapsed":444767,"internal_node_id":"0.0-66.0-0.0","task_version":"screening-mturk","missing":false,"accuracy":1},{"contexts":["red","green","blue"],"outcomes":[0,0,1],"key":38,"choice":1,"rt":274.184999987483,"outcome":0,"trial":61,"correct":0,"trial_type":"three-arm-trial","trial_index":68,"time_elapsed":446246,"internal_node_id":"0.0-67.0-0.0","task_version":"screening-mturk","missing":false,"accuracy":0},{"contexts":["red","green","blue"],"outcomes":[1,0,0],"key":39,"choice":2,"rt":126.35000003501773,"outcome":0,"trial":62,"correct":0,"trial_type":"three-arm-trial","trial_index":69,"time_elapsed":447582,"internal_node_id":"0.0-68.0-0.0","task_version":"screening-mturk","missing":false,"accuracy":0},{"contexts":["red","green","blue"],"outcomes":[1,0,1],"key":37,"choice":0,"rt":197.2550000064075,"outcome":1,"trial":63,"correct":0,"trial_type":"three-arm-trial","trial_index":70,"time_elapsed":448983,"internal_node_id":"0.0-69.0-0.0","task_version":"screening-mturk","missing":false,"accuracy":1},{"contexts":["red","green","blue"],"outcomes":[0,0,0],"key":37,"choice":0,"rt":276.5549998730421,"outcome":0,"trial":64,"correct":0,"trial_type":"three-arm-trial","trial_index":71,"time_elapsed":450462,"internal_node_id":"0.0-70.0-0.0","task_version":"screening-mturk","missing":false,"accuracy":1},{"contexts":["red","green","blue"],"outcomes":[0,0,0],"key":37,"choice":0,"rt":221.95999999530613,"outcome":0,"trial":65,"correct":0,"trial_type":"three-arm-trial","trial_index":72,"time_elapsed":451887,"internal_node_id":"0.0-71.0-0.0","task_version":"screening-mturk","missing":false,"accuracy":1},{"contexts":["red","green","blue"],"outcomes":[1,0,0],"key":39,"choice":2,"rt":237.070000031963,"outcome":0,"trial":66,"correct":0,"trial_type":"three-arm-trial","trial_index":73,"time_elapsed":453329,"internal_node_id":"0.0-72.0-0.0","task_version":"screening-mturk","missing":false,"accuracy":0},{"contexts":["red","green","blue"],"outcomes":[0,0,0],"key":38,"choice":1,"rt":81.84000011533499,"outcome":0,"trial":67,"correct":0,"trial_type":"three-arm-trial","trial_index":74,"time_elapsed":454616,"internal_node_id":"0.0-73.0-0.0","task_version":"screening-mturk","missing":false,"accuracy":0},{"contexts":["red","green","blue"],"outcomes":[0,0,0],"key":39,"choice":2,"rt":282.8849998768419,"outcome":0,"trial":68,"correct":0,"trial_type":"three-arm-trial","trial_index":75,"time_elapsed":456106,"internal_node_id":"0.0-74.0-0.0","task_version":"screening-mturk","missing":false,"accuracy":0},{"contexts":["red","green","blue"],"outcomes":[1,0,0],"key":37,"choice":0,"rt":161.56999999657273,"outcome":1,"trial":69,"correct":0,"trial_type":"three-arm-trial","trial_index":76,"time_elapsed":457472,"internal_node_id":"0.0-75.0-0.0","task_version":"screening-mturk","missing":false,"accuracy":1},{"contexts":["red","green","blue"],"outcomes":[0,0,0],"key":37,"choice":0,"rt":115.83000002428889,"outcome":0,"trial":70,"correct":0,"trial_type":"three-arm-trial","trial_index":77,"time_elapsed":458792,"internal_node_id":"0.0-76.0-0.0","task_version":"screening-mturk","missing":false,"accuracy":1},{"contexts":["red","green","blue"],"outcomes":[1,0,0],"key":37,"choice":0,"rt":197.53000000491738,"outcome":1,"trial":71,"correct":0,"trial_type":"three-arm-trial","trial_index":78,"time_elapsed":460193,"internal_node_id":"0.0-77.0-0.0","task_version":"screening-mturk","missing":false,"accuracy":1},{"contexts":["red","green","blue"],"outcomes":[1,0,1],"key":37,"choice":0,"rt":218.70500012300909,"outcome":1,"trial":72,"correct":0,"trial_type":"three-arm-trial","trial_index":79,"time_elapsed":461616,"internal_node_id":"0.0-78.0-0.0","task_version":"screening-mturk","missing":false,"accuracy":1},{"contexts":["red","green","blue"],"outcomes":[1,1,0],"key":37,"choice":0,"rt":276.01999999023974,"outcome":1,"trial":73,"correct":0,"trial_type":"three-arm-trial","trial_index":80,"time_elapsed":463096,"internal_node_id":"0.0-79.0-0.0","task_version":"screening-mturk","missing":false,"accuracy":1},{"contexts":["red","green","blue"],"outcomes":[1,0,0],"key":37,"choice":0,"rt":270.3650000039488,"outcome":1,"trial":74,"correct":0,"trial_type":"three-arm-trial","trial_index":81,"time_elapsed":464570,"internal_node_id":"0.0-80.0-0.0","task_version":"screening-mturk","missing":false,"accuracy":1},{"contexts":["red","green","blue"],"outcomes":[1,0,0],"key":37,"choice":0,"rt":196.0650000255555,"outcome":1,"trial":75,"correct":0,"trial_type":"three-arm-trial","trial_index":82,"time_elapsed":465971,"internal_node_id":"0.0-81.0-0.0","task_version":"screening-mturk","missing":false,"accuracy":1},{"contexts":["red","green","blue"],"outcomes":[0,1,0],"key":37,"choice":0,"rt":314.47999994270504,"outcome":0,"trial":76,"correct":1,"trial_type":"three-arm-trial","trial_index":83,"time_elapsed":467489,"internal_node_id":"0.0-82.0-0.0","task_version":"screening-mturk","missing":false,"accuracy":0},{"contexts":["red","green","blue"],"outcomes":[0,1,0],"key":37,"choice":0,"rt":100.82999989390373,"outcome":0,"trial":77,"correct":1,"trial_type":"three-arm-trial","trial_index":84,"time_elapsed":468795,"internal_node_id":"0.0-83.0-0.0","task_version":"screening-mturk","missing":false,"accuracy":0},{"contexts":["red","green","blue"],"outcomes":[0,0,0],"key":38,"choice":1,"rt":186.54499994590878,"outcome":0,"trial":78,"correct":1,"trial_type":"three-arm-trial","trial_index":85,"time_elapsed":470187,"internal_node_id":"0.0-84.0-0.0","task_version":"screening-mturk","missing":false,"accuracy":1},{"contexts":["red","green","blue"],"outcomes":[0,1,0],"key":39,"choice":2,"rt":10.464999824762344,"outcome":0,"trial":79,"correct":1,"trial_type":"three-arm-trial","trial_index":86,"time_elapsed":471404,"internal_node_id":"0.0-85.0-0.0","task_version":"screening-mturk","missing":false,"accuracy":0},{"contexts":["red","green","blue"],"outcomes":[0,1,0],"key":38,"choice":1,"rt":80.42499981820583,"outcome":1,"trial":80,"correct":1,"trial_type":"three-arm-trial","trial_index":87,"time_elapsed":472692,"internal_node_id":"0.0-86.0-0.0","task_version":"screening-mturk","missing":false,"accuracy":1},{"contexts":["red","green","blue"],"outcomes":[0,0,0],"key":38,"choice":1,"rt":3.5050001461058855,"outcome":0,"trial":81,"correct":1,"trial_type":"three-arm-trial","trial_index":88,"time_elapsed":473899,"internal_node_id":"0.0-87.0-0.0","task_version":"screening-mturk","missing":false,"accuracy":1},{"contexts":["red","green","blue"],"outcomes":[0,1,0],"key":38,"choice":1,"rt":667.5049997866154,"outcome":1,"trial":82,"correct":1,"trial_type":"three-arm-trial","trial_index":89,"time_elapsed":475772,"internal_node_id":"0.0-88.0-0.0","task_version":"screening-mturk","missing":false,"accuracy":1},{"contexts":["red","green","blue"],"outcomes":[0,0,0],"key":38,"choice":1,"rt":274.69999995082617,"outcome":0,"trial":83,"correct":1,"trial_type":"three-arm-trial","trial_index":90,"time_elapsed":477252,"internal_node_id":"0.0-89.0-0.0","task_version":"screening-mturk","missing":false,"accuracy":1},{"contexts":["red","green","blue"],"outcomes":[0,1,0],"key":38,"choice":1,"rt":188.18999989889562,"outcome":1,"trial":84,"correct":1,"trial_type":"three-arm-trial","trial_index":91,"time_elapsed":478642,"internal_node_id":"0.0-90.0-0.0","task_version":"screening-mturk","missing":false,"accuracy":1},{"contexts":["red","green","blue"],"outcomes":[0,1,0],"key":38,"choice":1,"rt":261.75000006332994,"outcome":1,"trial":85,"correct":1,"trial_type":"three-arm-trial","trial_index":92,"time_elapsed":480108,"internal_node_id":"0.0-91.0-0.0","task_version":"screening-mturk","missing":false,"accuracy":1},{"contexts":["red","green","blue"],"outcomes":[0,1,0],"key":38,"choice":1,"rt":219.10500014200807,"outcome":1,"trial":86,"correct":1,"trial_type":"three-arm-trial","trial_index":93,"time_elapsed":481532,"internal_node_id":"0.0-92.0-0.0","task_version":"screening-mturk","missing":false,"accuracy":1},{"contexts":["red","green","blue"],"outcomes":[0,1,0],"key":38,"choice":1,"rt":180.7099999859929,"outcome":1,"trial":87,"correct":1,"trial_type":"three-arm-trial","trial_index":94,"time_elapsed":482917,"internal_node_id":"0.0-93.0-0.0","task_version":"screening-mturk","missing":false,"accuracy":1},{"contexts":["red","green","blue"],"outcomes":[0,1,0],"key":38,"choice":1,"rt":225.01499997451901,"outcome":1,"trial":88,"correct":1,"trial_type":"three-arm-trial","trial_index":95,"time_elapsed":484348,"internal_node_id":"0.0-94.0-0.0","task_version":"screening-mturk","missing":false,"accuracy":1},{"contexts":["red","green","blue"],"outcomes":[0,1,0],"key":38,"choice":1,"rt":189.00499981828034,"outcome":1,"trial":89,"correct":1,"trial_type":"three-arm-trial","trial_index":96,"time_elapsed":485740,"internal_node_id":"0.0-95.0-0.0","task_version":"screening-mturk","missing":false,"accuracy":1},{"contexts":["red","green","blue"],"outcomes":[1,1,0],"key":38,"choice":1,"rt":291.399999987334,"outcome":1,"trial":90,"correct":1,"trial_type":"three-arm-trial","trial_index":97,"time_elapsed":487237,"internal_node_id":"0.0-96.0-0.0","task_version":"screening-mturk","missing":false,"accuracy":1},{"rt":22390.650000190362,"responses":{"age":"32","gender-categorical":"Male","gender-free-response":"","ethnicity":"Not Hispanic or Latino","race":["White"],"language":"Yes","fluency":"Very well","prolific":"No","prolific-this-study":"No"},"survey":"demographics","trial_type":"survey-demo","trial_index":98,"time_elapsed":509635,"internal_node_id":"0.0-97.0","task_version":"screening-mturk","interactions":"[]"}]