[{"responses":{"Q05":"3","Q02":"1","Q10":"2","Q07":"1","Q03":"1","Q11":"2","Q13":"1","Q04":"1","Q15":"0","Q09":"2","Q08":"1","Q12":"2","Q14":"1","Q01":"1","Q06":"0"},"rt":73342.75500001968,"survey":"7up7down","trial_type":"survey-template","trial_index":0,"time_elapsed":73459,"internal_node_id":"0.0-0.0","task_version":"screening-mturk"},{"responses":{"Q01":"3","Q03":"2","Q02":"1"},"rt":8178.849999996601,"survey":"pswq","trial_type":"survey-template","trial_index":1,"time_elapsed":81643,"internal_node_id":"0.0-1.0","task_version":"screening-mturk"},{"responses":{"Q10":"1","Q03":"1","Q02":"2","Q04":"1","Q14":"1","Q11":"2","Q12":"2","Q05":"1","Q09":"1","Q06":"1","Q15":"3","Q08":"2","Q13":"2","Q01":"2","Q07":"1"},"rt":136074.22499998938,"survey":"shaps","trial_type":"survey-template","trial_index":2,"time_elapsed":217726,"internal_node_id":"0.0-2.0","task_version":"screening-mturk"},{"responses":{"Q02":"0","Q03":"2","Q06":"0","Q07":"0","Q04":"0","Q08":"0","Q05":"0","Q01":"2"},"rt":21917.179999989457,"survey":"gad7","trial_type":"survey-template","trial_index":3,"time_elapsed":239648,"internal_node_id":"0.0-3.0","task_version":"screening-mturk"},{"responses":{"Q13":"3","Q10":"1","Q04":"3","Q06":"2","Q02":"2","Q08":"2","Q05":"2","Q03":"3","Q01":"2","Q07":"2","Q11":"1","Q09":"1","Q12":"1"},"rt":39145.67499997793,"survey":"bisbas","trial_type":"survey-template","trial_index":4,"time_elapsed":278802,"internal_node_id":"0.0-4.0","task_version":"screening-mturk"},{"view_history":"[{\"page_index\":0,\"viewing_time\":5199.909999995725},{\"page_index\":1,\"viewing_time\":20734.630000020843},{\"page_index\":2,\"viewing_time\":5437.164999981178},{\"page_index\":3,\"viewing_time\":3648.459999996703},{\"page_index\":4,\"viewing_time\":5023.385000007693},{\"page_index\":5,\"viewing_time\":2556.845000013709},{\"page_index\":6,\"viewing_time\":2830.3049999813084},{\"page_index\":7,\"viewing_time\":1825.6750000000466}]","rt":47258.8350000151,"trial_type":"instructions","trial_index":5,"time_elapsed":326062,"internal_node_id":"0.0-5.0-0.0","task_version":"screening-mturk"},{"responses":["True","True","False","False","True"],"num_errors":0,"rt":12498.234999977285,"trial_type":"three-arm-comprehension","trial_index":6,"time_elapsed":338567,"internal_node_id":"0.0-5.0-1.0","task_version":"screening-mturk"},{"view_history":"[{\"page_index\":0,\"viewing_time\":2417.184999998426}]","rt":2418.184999987716,"trial_type":"instructions","trial_index":7,"time_elapsed":340995,"internal_node_id":"0.0-6.0","task_version":"screening-mturk"},{"contexts":["green","blue","red"],"outcomes":[0,0,1],"key":38,"choice":1,"rt":2305.5349999922328,"outcome":0,"trial":1,"correct":2,"trial_type":"three-arm-trial","trial_index":8,"time_elapsed":344506,"internal_node_id":"0.0-7.0-0.0","task_version":"screening-mturk","missing":false,"accuracy":0},{"contexts":["green","blue","red"],"outcomes":[0,0,1],"key":38,"choice":1,"rt":553.5349999845494,"outcome":0,"trial":2,"correct":2,"trial_type":"three-arm-trial","trial_index":9,"time_elapsed":346264,"internal_node_id":"0.0-8.0-0.0","task_version":"screening-mturk","missing":false,"accuracy":0},{"contexts":["green","blue","red"],"outcomes":[0,0,1],"key":38,"choice":1,"rt":429.2799999821,"outcome":0,"trial":3,"correct":2,"trial_type":"three-arm-trial","trial_index":10,"time_elapsed":347898,"internal_node_id":"0.0-9.0-0.0","task_version":"screening-mturk","missing":false,"accuracy":0},{"contexts":["green","blue","red"],"outcomes":[1,0,1],"key":37,"choice":0,"rt":490.38000000291504,"outcome":1,"trial":4,"correct":2,"trial_type":"three-arm-trial","trial_index":11,"time_elapsed":349595,"internal_node_id":"0.0-10.0-0.0","task_version":"screening-mturk","missing":false,"accuracy":0},{"contexts":["green","blue","red"],"outcomes":[0,0,1],"key":37,"choice":0,"rt":396.67000001645647,"outcome":0,"trial":5,"correct":2,"trial_type":"three-arm-trial","trial_index":12,"time_elapsed":351196,"internal_node_id":"0.0-11.0-0.0","task_version":"screening-mturk","missing":false,"accuracy":0},{"contexts":["green","blue","red"],"outcomes":[0,0,0],"key":37,"choice":0,"rt":435.9450000047218,"outcome":0,"trial":6,"correct":2,"trial_type":"three-arm-trial","trial_index":13,"time_elapsed":352837,"internal_node_id":"0.0-12.0-0.0","task_version":"screening-mturk","missing":false,"accuracy":0},{"contexts":["green","blue","red"],"outcomes":[0,1,1],"key":39,"choice":2,"rt":363.6199999891687,"outcome":1,"trial":7,"correct":2,"trial_type":"three-arm-trial","trial_index":14,"time_elapsed":354406,"internal_node_id":"0.0-13.0-0.0","task_version":"screening-mturk","missing":false,"accuracy":1},{"contexts":["green","blue","red"],"outcomes":[0,0,0],"key":39,"choice":2,"rt":386.0699999786448,"outcome":0,"trial":8,"correct":2,"trial_type":"three-arm-trial","trial_index":15,"time_elapsed":355996,"internal_node_id":"0.0-14.0-0.0","task_version":"screening-mturk","missing":false,"accuracy":1},{"contexts":["green","blue","red"],"outcomes":[1,1,1],"key":39,"choice":2,"rt":398.0649999866728,"outcome":1,"trial":9,"correct":2,"trial_type":"three-arm-trial","trial_index":16,"time_elapsed":357598,"internal_node_id":"0.0-15.0-0.0","task_version":"screening-mturk","missing":false,"accuracy":1},{"contexts":["green","blue","red"],"outcomes":[0,0,1],"key":39,"choice":2,"rt":348.6750000156462,"outcome":1,"trial":10,"correct":2,"trial_type":"three-arm-trial","trial_index":17,"time_elapsed":359152,"internal_node_id":"0.0-16.0-0.0","task_version":"screening-mturk","missing":false,"accuracy":1},{"contexts":["green","blue","red"],"outcomes":[0,0,1],"key":39,"choice":2,"rt":362.40499999257736,"outcome":1,"trial":11,"correct":2,"trial_type":"three-arm-trial","trial_index":18,"time_elapsed":360721,"internal_node_id":"0.0-17.0-0.0","task_version":"screening-mturk","missing":false,"accuracy":1},{"contexts":["green","blue","red"],"outcomes":[0,0,1],"key":39,"choice":2,"rt":378.39500000700355,"outcome":1,"trial":12,"correct":2,"trial_type":"three-arm-trial","trial_index":19,"time_elapsed":362307,"internal_node_id":"0.0-18.0-0.0","task_version":"screening-mturk","missing":false,"accuracy":1},{"contexts":["green","blue","red"],"outcomes":[1,0,1],"key":39,"choice":2,"rt":444.54500000574626,"outcome":1,"trial":13,"correct":2,"trial_type":"three-arm-trial","trial_index":20,"time_elapsed":363956,"internal_node_id":"0.0-19.0-0.0","task_version":"screening-mturk","missing":false,"accuracy":1},{"contexts":["green","blue","red"],"outcomes":[0,0,1],"key":39,"choice":2,"rt":298.7399999983609,"outcome":1,"trial":14,"correct":2,"trial_type":"three-arm-trial","trial_index":21,"time_elapsed":365459,"internal_node_id":"0.0-20.0-0.0","task_version":"screening-mturk","missing":false,"accuracy":1},{"contexts":["green","blue","red"],"outcomes":[0,0,1],"key":39,"choice":2,"rt":429.2600000044331,"outcome":1,"trial":15,"correct":2,"trial_type":"three-arm-trial","trial_index":22,"time_elapsed":367092,"internal_node_id":"0.0-21.0-0.0","task_version":"screening-mturk","missing":false,"accuracy":1},{"contexts":["green","blue","red"],"outcomes":[0,1,0],"key":39,"choice":2,"rt":374.80000001960434,"outcome":0,"trial":16,"correct":1,"trial_type":"three-arm-trial","trial_index":23,"time_elapsed":368671,"internal_node_id":"0.0-22.0-0.0","task_version":"screening-mturk","missing":false,"accuracy":0},{"contexts":["green","blue","red"],"outcomes":[1,1,0],"key":39,"choice":2,"rt":298.32999999052845,"outcome":0,"trial":17,"correct":1,"trial_type":"three-arm-trial","trial_index":24,"time_elapsed":370174,"internal_node_id":"0.0-23.0-0.0","task_version":"screening-mturk","missing":false,"accuracy":0},{"contexts":["green","blue","red"],"outcomes":[0,1,0],"key":39,"choice":2,"rt":365.34000001847744,"outcome":0,"trial":18,"correct":1,"trial_type":"three-arm-trial","trial_index":25,"time_elapsed":371745,"internal_node_id":"0.0-24.0-0.0","task_version":"screening-mturk","missing":false,"accuracy":0},{"contexts":["green","blue","red"],"outcomes":[0,1,0],"key":37,"choice":0,"rt":396.05999999912456,"outcome":0,"trial":19,"correct":1,"trial_type":"three-arm-trial","trial_index":26,"time_elapsed":373347,"internal_node_id":"0.0-25.0-0.0","task_version":"screening-mturk","missing":false,"accuracy":0},{"contexts":["green","blue","red"],"outcomes":[1,1,0],"key":37,"choice":0,"rt":377.295000012964,"outcome":1,"trial":20,"correct":1,"trial_type":"three-arm-trial","trial_index":27,"time_elapsed":374930,"internal_node_id":"0.0-26.0-0.0","task_version":"screening-mturk","missing":false,"accuracy":0},{"contexts":["green","blue","red"],"outcomes":[0,1,0],"key":37,"choice":0,"rt":461.1000000149943,"outcome":0,"trial":21,"correct":1,"trial_type":"three-arm-trial","trial_index":28,"time_elapsed":376597,"internal_node_id":"0.0-27.0-0.0","task_version":"screening-mturk","missing":false,"accuracy":0},{"contexts":["green","blue","red"],"outcomes":[0,1,0],"key":37,"choice":0,"rt":449.5249999745283,"outcome":0,"trial":22,"correct":1,"trial_type":"three-arm-trial","trial_index":29,"time_elapsed":378254,"internal_node_id":"0.0-28.0-0.0","task_version":"screening-mturk","missing":false,"accuracy":0},{"contexts":["green","blue","red"],"outcomes":[0,1,0],"key":38,"choice":1,"rt":363.79000000306405,"outcome":1,"trial":23,"correct":1,"trial_type":"three-arm-trial","trial_index":30,"time_elapsed":379822,"internal_node_id":"0.0-29.0-0.0","task_version":"screening-mturk","missing":false,"accuracy":1},{"contexts":["green","blue","red"],"outcomes":[1,1,0],"key":38,"choice":1,"rt":349.5249999978114,"outcome":1,"trial":24,"correct":1,"trial_type":"three-arm-trial","trial_index":31,"time_elapsed":381376,"internal_node_id":"0.0-30.0-0.0","task_version":"screening-mturk","missing":false,"accuracy":1},{"contexts":["green","blue","red"],"outcomes":[0,0,0],"key":38,"choice":1,"rt":371.01000000257045,"outcome":0,"trial":25,"correct":1,"trial_type":"three-arm-trial","trial_index":32,"time_elapsed":382952,"internal_node_id":"0.0-31.0-0.0","task_version":"screening-mturk","missing":false,"accuracy":1},{"contexts":["green","blue","red"],"outcomes":[0,1,0],"key":38,"choice":1,"rt":348.33000000799075,"outcome":1,"trial":26,"correct":1,"trial_type":"three-arm-trial","trial_index":33,"time_elapsed":384506,"internal_node_id":"0.0-32.0-0.0","task_version":"screening-mturk","missing":false,"accuracy":1},{"contexts":["green","blue","red"],"outcomes":[1,1,1],"key":38,"choice":1,"rt":331.1999999859836,"outcome":1,"trial":27,"correct":1,"trial_type":"three-arm-trial","trial_index":34,"time_elapsed":386043,"internal_node_id":"0.0-33.0-0.0","task_version":"screening-mturk","missing":false,"accuracy":1},{"contexts":["green","blue","red"],"outcomes":[0,0,1],"key":38,"choice":1,"rt":427.15500001213513,"outcome":0,"trial":28,"correct":1,"trial_type":"three-arm-trial","trial_index":35,"time_elapsed":387676,"internal_node_id":"0.0-34.0-0.0","task_version":"screening-mturk","missing":false,"accuracy":1},{"contexts":["green","blue","red"],"outcomes":[0,1,0],"key":38,"choice":1,"rt":337.6599999901373,"outcome":1,"trial":29,"correct":1,"trial_type":"three-arm-trial","trial_index":36,"time_elapsed":389222,"internal_node_id":"0.0-35.0-0.0","task_version":"screening-mturk","missing":false,"accuracy":1},{"contexts":["green","blue","red"],"outcomes":[0,1,0],"key":38,"choice":1,"rt":306.7050000245217,"outcome":1,"trial":30,"correct":1,"trial_type":"three-arm-trial","trial_index":37,"time_elapsed":390734,"internal_node_id":"0.0-36.0-0.0","task_version":"screening-mturk","missing":false,"accuracy":1},{"contexts":["green","blue","red"],"outcomes":[0,1,0],"key":38,"choice":1,"rt":115.25999999139458,"outcome":1,"trial":31,"correct":0,"trial_type":"three-arm-trial","trial_index":38,"time_elapsed":392056,"internal_node_id":"0.0-37.0-0.0","task_version":"screening-mturk","missing":false,"accuracy":0},{"contexts":["green","blue","red"],"outcomes":[1,0,0],"key":38,"choice":1,"rt":219.04499997617677,"outcome":0,"trial":32,"correct":0,"trial_type":"three-arm-trial","trial_index":39,"time_elapsed":393480,"internal_node_id":"0.0-38.0-0.0","task_version":"screening-mturk","missing":false,"accuracy":0},{"contexts":["green","blue","red"],"outcomes":[1,0,0],"key":38,"choice":1,"rt":259.5499999879394,"outcome":0,"trial":33,"correct":0,"trial_type":"three-arm-trial","trial_index":40,"time_elapsed":394945,"internal_node_id":"0.0-39.0-0.0","task_version":"screening-mturk","missing":false,"accuracy":0},{"contexts":["green","blue","red"],"outcomes":[0,0,0],"key":38,"choice":1,"rt":308.66000000969507,"outcome":0,"trial":34,"correct":0,"trial_type":"three-arm-trial","trial_index":41,"time_elapsed":396458,"internal_node_id":"0.0-40.0-0.0","task_version":"screening-mturk","missing":false,"accuracy":0},{"contexts":["green","blue","red"],"outcomes":[1,0,0],"key":37,"choice":0,"rt":325.39000001270324,"outcome":1,"trial":35,"correct":0,"trial_type":"three-arm-trial","trial_index":42,"time_elapsed":397989,"internal_node_id":"0.0-41.0-0.0","task_version":"screening-mturk","missing":false,"accuracy":1},{"contexts":["green","blue","red"],"outcomes":[1,0,1],"key":37,"choice":0,"rt":363.2499999948777,"outcome":1,"trial":36,"correct":0,"trial_type":"three-arm-trial","trial_index":43,"time_elapsed":399558,"internal_node_id":"0.0-42.0-0.0","task_version":"screening-mturk","missing":false,"accuracy":1},{"contexts":["green","blue","red"],"outcomes":[1,1,0],"key":37,"choice":0,"rt":474.2700000060722,"outcome":1,"trial":37,"correct":0,"trial_type":"three-arm-trial","trial_index":44,"time_elapsed":401237,"internal_node_id":"0.0-43.0-0.0","task_version":"screening-mturk","missing":false,"accuracy":1},{"contexts":["green","blue","red"],"outcomes":[1,0,0],"key":37,"choice":0,"rt":490.6499999924563,"outcome":1,"trial":38,"correct":0,"trial_type":"three-arm-trial","trial_index":45,"time_elapsed":402935,"internal_node_id":"0.0-44.0-0.0","task_version":"screening-mturk","missing":false,"accuracy":1},{"contexts":["green","blue","red"],"outcomes":[1,0,0],"key":37,"choice":0,"rt":354.269999981625,"outcome":1,"trial":39,"correct":0,"trial_type":"three-arm-trial","trial_index":46,"time_elapsed":404494,"internal_node_id":"0.0-45.0-0.0","task_version":"screening-mturk","missing":false,"accuracy":1},{"contexts":["green","blue","red"],"outcomes":[1,0,0],"key":37,"choice":0,"rt":365.49499997636303,"outcome":1,"trial":40,"correct":0,"trial_type":"three-arm-trial","trial_index":47,"time_elapsed":406063,"internal_node_id":"0.0-46.0-0.0","task_version":"screening-mturk","missing":false,"accuracy":1},{"contexts":["green","blue","red"],"outcomes":[1,0,1],"key":null,"rt":null,"trial":41,"correct":0,"trial_type":"three-arm-trial","trial_index":48,"time_elapsed":421355,"internal_node_id":"0.0-47.0-0.0","task_version":"screening-mturk","missing":true},{"contexts":["green","blue","red"],"outcomes":[1,0,1],"key":39,"choice":2,"rt":2079.310000000987,"outcome":1,"trial":41,"correct":0,"trial_type":"three-arm-trial","trial_index":49,"time_elapsed":424639,"internal_node_id":"0.0-47.1-0.1","task_version":"screening-mturk","missing":false,"accuracy":0},{"contexts":["green","blue","red"],"outcomes":[1,0,1],"key":39,"choice":2,"rt":364.449999993667,"outcome":1,"trial":42,"correct":0,"trial_type":"three-arm-trial","trial_index":50,"time_elapsed":426211,"internal_node_id":"0.0-48.0-0.0","task_version":"screening-mturk","missing":false,"accuracy":0},{"contexts":["green","blue","red"],"outcomes":[1,0,0],"key":39,"choice":2,"rt":432.0350000052713,"outcome":0,"trial":43,"correct":0,"trial_type":"three-arm-trial","trial_index":51,"time_elapsed":427850,"internal_node_id":"0.0-49.0-0.0","task_version":"screening-mturk","missing":false,"accuracy":0},{"contexts":["green","blue","red"],"outcomes":[1,1,0],"key":39,"choice":2,"rt":325.0949999783188,"outcome":0,"trial":44,"correct":0,"trial_type":"three-arm-trial","trial_index":52,"time_elapsed":429380,"internal_node_id":"0.0-50.0-0.0","task_version":"screening-mturk","missing":false,"accuracy":0},{"contexts":["green","blue","red"],"outcomes":[1,0,0],"key":39,"choice":2,"rt":315.6299999973271,"outcome":0,"trial":45,"correct":0,"trial_type":"three-arm-trial","trial_index":53,"time_elapsed":430900,"internal_node_id":"0.0-51.0-0.0","task_version":"screening-mturk","missing":false,"accuracy":0},{"contexts":["green","blue","red"],"outcomes":[0,1,0],"key":37,"choice":0,"rt":439.78000001516193,"outcome":0,"trial":46,"correct":1,"trial_type":"three-arm-trial","trial_index":54,"time_elapsed":432544,"internal_node_id":"0.0-52.0-0.0","task_version":"screening-mturk","missing":false,"accuracy":0},{"contexts":["green","blue","red"],"outcomes":[0,0,0],"key":37,"choice":0,"rt":307.17499999445863,"outcome":0,"trial":47,"correct":1,"trial_type":"three-arm-trial","trial_index":55,"time_elapsed":434056,"internal_node_id":"0.0-53.0-0.0","task_version":"screening-mturk","missing":false,"accuracy":0},{"contexts":["green","blue","red"],"outcomes":[1,0,0],"key":38,"choice":1,"rt":66.67500000912696,"outcome":0,"trial":48,"correct":1,"trial_type":"three-arm-trial","trial_index":56,"time_elapsed":435329,"internal_node_id":"0.0-54.0-0.0","task_version":"screening-mturk","missing":false,"accuracy":1},{"contexts":["green","blue","red"],"outcomes":[0,1,0],"key":38,"choice":1,"rt":420.3900000138674,"outcome":1,"trial":49,"correct":1,"trial_type":"three-arm-trial","trial_index":57,"time_elapsed":436954,"internal_node_id":"0.0-55.0-0.0","task_version":"screening-mturk","missing":false,"accuracy":1},{"contexts":["green","blue","red"],"outcomes":[0,1,0],"key":38,"choice":1,"rt":356.5400000079535,"outcome":1,"trial":50,"correct":1,"trial_type":"three-arm-trial","trial_index":58,"time_elapsed":438514,"internal_node_id":"0.0-56.0-0.0","task_version":"screening-mturk","missing":false,"accuracy":1},{"contexts":["green","blue","red"],"outcomes":[1,1,1],"key":38,"choice":1,"rt":380.6499999773223,"outcome":1,"trial":51,"correct":1,"trial_type":"three-arm-trial","trial_index":59,"time_elapsed":440099,"internal_node_id":"0.0-57.0-0.0","task_version":"screening-mturk","missing":false,"accuracy":1},{"contexts":["green","blue","red"],"outcomes":[0,0,0],"key":38,"choice":1,"rt":378.0499999993481,"outcome":0,"trial":52,"correct":1,"trial_type":"three-arm-trial","trial_index":60,"time_elapsed":441685,"internal_node_id":"0.0-58.0-0.0","task_version":"screening-mturk","missing":false,"accuracy":1},{"contexts":["green","blue","red"],"outcomes":[0,1,0],"key":38,"choice":1,"rt":316.5399999998044,"outcome":1,"trial":53,"correct":1,"trial_type":"three-arm-trial","trial_index":61,"time_elapsed":443206,"internal_node_id":"0.0-59.0-0.0","task_version":"screening-mturk","missing":false,"accuracy":1},{"contexts":["green","blue","red"],"outcomes":[0,1,0],"key":38,"choice":1,"rt":412.2499999939464,"outcome":1,"trial":54,"correct":1,"trial_type":"three-arm-trial","trial_index":62,"time_elapsed":444823,"internal_node_id":"0.0-60.0-0.0","task_version":"screening-mturk","missing":false,"accuracy":1},{"contexts":["green","blue","red"],"outcomes":[0,1,0],"key":38,"choice":1,"rt":314.93500000215136,"outcome":1,"trial":55,"correct":1,"trial_type":"three-arm-trial","trial_index":63,"time_elapsed":446343,"internal_node_id":"0.0-61.0-0.0","task_version":"screening-mturk","missing":false,"accuracy":1},{"contexts":["green","blue","red"],"outcomes":[0,1,0],"key":38,"choice":1,"rt":380.8549999957904,"outcome":1,"trial":56,"correct":1,"trial_type":"three-arm-trial","trial_index":64,"time_elapsed":447929,"internal_node_id":"0.0-62.0-0.0","task_version":"screening-mturk","missing":false,"accuracy":1},{"contexts":["green","blue","red"],"outcomes":[0,1,0],"key":38,"choice":1,"rt":388.8600000063889,"outcome":1,"trial":57,"correct":1,"trial_type":"three-arm-trial","trial_index":65,"time_elapsed":449522,"internal_node_id":"0.0-63.0-0.0","task_version":"screening-mturk","missing":false,"accuracy":1},{"contexts":["green","blue","red"],"outcomes":[0,1,0],"key":38,"choice":1,"rt":396.3400000066031,"outcome":1,"trial":58,"correct":1,"trial_type":"three-arm-trial","trial_index":66,"time_elapsed":451124,"internal_node_id":"0.0-64.0-0.0","task_version":"screening-mturk","missing":false,"accuracy":1},{"contexts":["green","blue","red"],"outcomes":[0,1,0],"key":38,"choice":1,"rt":314.0949999797158,"outcome":1,"trial":59,"correct":1,"trial_type":"three-arm-trial","trial_index":67,"time_elapsed":452643,"internal_node_id":"0.0-65.0-0.0","task_version":"screening-mturk","missing":false,"accuracy":1},{"contexts":["green","blue","red"],"outcomes":[0,1,1],"key":38,"choice":1,"rt":363.8149999896996,"outcome":1,"trial":60,"correct":1,"trial_type":"three-arm-trial","trial_index":68,"time_elapsed":454213,"internal_node_id":"0.0-66.0-0.0","task_version":"screening-mturk","missing":false,"accuracy":1},{"contexts":["green","blue","red"],"outcomes":[0,0,1],"key":38,"choice":1,"rt":342.96000000904314,"outcome":0,"trial":61,"correct":2,"trial_type":"three-arm-trial","trial_index":69,"time_elapsed":455767,"internal_node_id":"0.0-67.0-0.0","task_version":"screening-mturk","missing":false,"accuracy":0},{"contexts":["green","blue","red"],"outcomes":[0,1,1],"key":38,"choice":1,"rt":314.2799999914132,"outcome":1,"trial":62,"correct":2,"trial_type":"three-arm-trial","trial_index":70,"time_elapsed":457288,"internal_node_id":"0.0-68.0-0.0","task_version":"screening-mturk","missing":false,"accuracy":0},{"contexts":["green","blue","red"],"outcomes":[1,1,1],"key":38,"choice":1,"rt":299.12499999045394,"outcome":1,"trial":63,"correct":2,"trial_type":"three-arm-trial","trial_index":71,"time_elapsed":458791,"internal_node_id":"0.0-69.0-0.0","task_version":"screening-mturk","missing":false,"accuracy":0},{"contexts":["green","blue","red"],"outcomes":[0,1,1],"key":38,"choice":1,"rt":286.72000000369735,"outcome":1,"trial":64,"correct":2,"trial_type":"three-arm-trial","trial_index":72,"time_elapsed":460283,"internal_node_id":"0.0-70.0-0.0","task_version":"screening-mturk","missing":false,"accuracy":0},{"contexts":["green","blue","red"],"outcomes":[0,1,1],"key":38,"choice":1,"rt":326.52500001131557,"outcome":1,"trial":65,"correct":2,"trial_type":"three-arm-trial","trial_index":73,"time_elapsed":461819,"internal_node_id":"0.0-71.0-0.0","task_version":"screening-mturk","missing":false,"accuracy":0},{"contexts":["green","blue","red"],"outcomes":[0,0,1],"key":38,"choice":1,"rt":449.39000002341345,"outcome":0,"trial":66,"correct":2,"trial_type":"three-arm-trial","trial_index":74,"time_elapsed":463474,"internal_node_id":"0.0-72.0-0.0","task_version":"screening-mturk","missing":false,"accuracy":0},{"contexts":["green","blue","red"],"outcomes":[0,0,1],"key":38,"choice":1,"rt":332.6649999944493,"outcome":0,"trial":67,"correct":2,"trial_type":"three-arm-trial","trial_index":75,"time_elapsed":465011,"internal_node_id":"0.0-73.0-0.0","task_version":"screening-mturk","missing":false,"accuracy":0},{"contexts":["green","blue","red"],"outcomes":[0,0,0],"key":39,"choice":2,"rt":323.41000001179054,"outcome":0,"trial":68,"correct":2,"trial_type":"three-arm-trial","trial_index":76,"time_elapsed":466539,"internal_node_id":"0.0-74.0-0.0","task_version":"screening-mturk","missing":false,"accuracy":1},{"contexts":["green","blue","red"],"outcomes":[0,0,1],"key":37,"choice":0,"rt":150.79499999410473,"outcome":0,"trial":69,"correct":2,"trial_type":"three-arm-trial","trial_index":77,"time_elapsed":467894,"internal_node_id":"0.0-75.0-0.0","task_version":"screening-mturk","missing":false,"accuracy":0},{"contexts":["green","blue","red"],"outcomes":[0,1,1],"key":39,"choice":2,"rt":377.15499999467283,"outcome":1,"trial":70,"correct":2,"trial_type":"three-arm-trial","trial_index":78,"time_elapsed":469477,"internal_node_id":"0.0-76.0-0.0","task_version":"screening-mturk","missing":false,"accuracy":1},{"contexts":["green","blue","red"],"outcomes":[0,0,0],"key":39,"choice":2,"rt":354.95999999693595,"outcome":0,"trial":71,"correct":2,"trial_type":"three-arm-trial","trial_index":79,"time_elapsed":471037,"internal_node_id":"0.0-77.0-0.0","task_version":"screening-mturk","missing":false,"accuracy":1},{"contexts":["green","blue","red"],"outcomes":[0,0,1],"key":39,"choice":2,"rt":268.7599999771919,"outcome":1,"trial":72,"correct":2,"trial_type":"three-arm-trial","trial_index":80,"time_elapsed":472511,"internal_node_id":"0.0-78.0-0.0","task_version":"screening-mturk","missing":false,"accuracy":1},{"contexts":["green","blue","red"],"outcomes":[0,0,1],"key":39,"choice":2,"rt":370.78999998630024,"outcome":1,"trial":73,"correct":2,"trial_type":"three-arm-trial","trial_index":81,"time_elapsed":474087,"internal_node_id":"0.0-79.0-0.0","task_version":"screening-mturk","missing":false,"accuracy":1},{"contexts":["green","blue","red"],"outcomes":[1,1,1],"key":39,"choice":2,"rt":355.05499999271706,"outcome":1,"trial":74,"correct":2,"trial_type":"three-arm-trial","trial_index":82,"time_elapsed":475648,"internal_node_id":"0.0-80.0-0.0","task_version":"screening-mturk","missing":false,"accuracy":1},{"contexts":["green","blue","red"],"outcomes":[1,0,1],"key":39,"choice":2,"rt":330.76000001165085,"outcome":1,"trial":75,"correct":2,"trial_type":"three-arm-trial","trial_index":83,"time_elapsed":477184,"internal_node_id":"0.0-81.0-0.0","task_version":"screening-mturk","missing":false,"accuracy":1},{"contexts":["green","blue","red"],"outcomes":[0,1,1],"key":39,"choice":2,"rt":316.0900000075344,"outcome":1,"trial":76,"correct":1,"trial_type":"three-arm-trial","trial_index":84,"time_elapsed":478705,"internal_node_id":"0.0-82.0-0.0","task_version":"screening-mturk","missing":false,"accuracy":0},{"contexts":["green","blue","red"],"outcomes":[0,1,0],"key":39,"choice":2,"rt":382.2199999995064,"outcome":0,"trial":77,"correct":1,"trial_type":"three-arm-trial","trial_index":85,"time_elapsed":480291,"internal_node_id":"0.0-83.0-0.0","task_version":"screening-mturk","missing":false,"accuracy":0},{"contexts":["green","blue","red"],"outcomes":[0,1,0],"key":39,"choice":2,"rt":346.9749999931082,"outcome":0,"trial":78,"correct":1,"trial_type":"three-arm-trial","trial_index":86,"time_elapsed":481843,"internal_node_id":"0.0-84.0-0.0","task_version":"screening-mturk","missing":false,"accuracy":0},{"contexts":["green","blue","red"],"outcomes":[0,1,0],"key":37,"choice":0,"rt":372.9250000033062,"outcome":0,"trial":79,"correct":1,"trial_type":"three-arm-trial","trial_index":87,"time_elapsed":483423,"internal_node_id":"0.0-85.0-0.0","task_version":"screening-mturk","missing":false,"accuracy":0},{"contexts":["green","blue","red"],"outcomes":[0,0,0],"key":37,"choice":0,"rt":304.05000000610016,"outcome":0,"trial":80,"correct":1,"trial_type":"three-arm-trial","trial_index":88,"time_elapsed":484933,"internal_node_id":"0.0-86.0-0.0","task_version":"screening-mturk","missing":false,"accuracy":0},{"contexts":["green","blue","red"],"outcomes":[0,1,0],"key":38,"choice":1,"rt":324.76499999756925,"outcome":1,"trial":81,"correct":1,"trial_type":"three-arm-trial","trial_index":89,"time_elapsed":486463,"internal_node_id":"0.0-87.0-0.0","task_version":"screening-mturk","missing":false,"accuracy":1},{"contexts":["green","blue","red"],"outcomes":[0,0,0],"key":38,"choice":1,"rt":347.9100000113249,"outcome":0,"trial":82,"correct":1,"trial_type":"three-arm-trial","trial_index":90,"time_elapsed":488015,"internal_node_id":"0.0-88.0-0.0","task_version":"screening-mturk","missing":false,"accuracy":1},{"contexts":["green","blue","red"],"outcomes":[1,1,1],"key":38,"choice":1,"rt":204.9799999804236,"outcome":1,"trial":83,"correct":1,"trial_type":"three-arm-trial","trial_index":91,"time_elapsed":489426,"internal_node_id":"0.0-89.0-0.0","task_version":"screening-mturk","missing":false,"accuracy":1},{"contexts":["green","blue","red"],"outcomes":[0,1,1],"key":38,"choice":1,"rt":331.5850000071805,"outcome":1,"trial":84,"correct":1,"trial_type":"three-arm-trial","trial_index":92,"time_elapsed":490961,"internal_node_id":"0.0-90.0-0.0","task_version":"screening-mturk","missing":false,"accuracy":1},{"contexts":["green","blue","red"],"outcomes":[0,1,0],"key":38,"choice":1,"rt":286.0400000063237,"outcome":1,"trial":85,"correct":1,"trial_type":"three-arm-trial","trial_index":93,"time_elapsed":492451,"internal_node_id":"0.0-91.0-0.0","task_version":"screening-mturk","missing":false,"accuracy":1},{"contexts":["green","blue","red"],"outcomes":[0,1,0],"key":38,"choice":1,"rt":372.6199999800883,"outcome":1,"trial":86,"correct":1,"trial_type":"three-arm-trial","trial_index":94,"time_elapsed":494027,"internal_node_id":"0.0-92.0-0.0","task_version":"screening-mturk","missing":false,"accuracy":1},{"contexts":["green","blue","red"],"outcomes":[1,1,0],"key":38,"choice":1,"rt":340.68000002298504,"outcome":1,"trial":87,"correct":1,"trial_type":"three-arm-trial","trial_index":95,"time_elapsed":495572,"internal_node_id":"0.0-93.0-0.0","task_version":"screening-mturk","missing":false,"accuracy":1},{"contexts":["green","blue","red"],"outcomes":[1,0,0],"key":38,"choice":1,"rt":328.02499999525025,"outcome":0,"trial":88,"correct":1,"trial_type":"three-arm-trial","trial_index":96,"time_elapsed":497106,"internal_node_id":"0.0-94.0-0.0","task_version":"screening-mturk","missing":false,"accuracy":1},{"contexts":["green","blue","red"],"outcomes":[0,1,0],"key":38,"choice":1,"rt":296.07499999110587,"outcome":1,"trial":89,"correct":1,"trial_type":"three-arm-trial","trial_index":97,"time_elapsed":498607,"internal_node_id":"0.0-95.0-0.0","task_version":"screening-mturk","missing":false,"accuracy":1},{"contexts":["green","blue","red"],"outcomes":[0,0,0],"key":38,"choice":1,"rt":293.32500000600703,"outcome":0,"trial":90,"correct":1,"trial_type":"three-arm-trial","trial_index":98,"time_elapsed":500105,"internal_node_id":"0.0-96.0-0.0","task_version":"screening-mturk","missing":false,"accuracy":1},{"rt":14958.940000011353,"responses":{"age":"36","gender-categorical":"Male","gender-free-response":"","ethnicity":"Not Hispanic or Latino","race":["White"],"language":"Yes","fluency":"Very well","prolific":"No","prolific-this-study":"No"},"survey":"demographics","trial_type":"survey-demo","trial_index":99,"time_elapsed":515072,"internal_node_id":"0.0-97.0","task_version":"screening-mturk","interactions":"[{\"event\":\"focus\",\"trial\":0,\"time\":1071},{\"event\":\"blur\",\"trial\":2,\"time\":85703},{\"event\":\"focus\",\"trial\":2,\"time\":166764},{\"event\":\"blur\",\"trial\":2,\"time\":197697},{\"event\":\"focus\",\"trial\":2,\"time\":199175},{\"event\":\"blur\",\"trial\":2,\"time\":212576},{\"event\":\"focus\",\"trial\":2,\"time\":213970},{\"event\":\"blur\",\"trial\":3,\"time\":218716},{\"event\":\"focus\",\"trial\":3,\"time\":220243},{\"event\":\"blur\",\"trial\":3,\"time\":222233},{\"event\":\"focus\",\"trial\":3,\"time\":224917},{\"event\":\"blur\",\"trial\":3,\"time\":238192},{\"event\":\"focus\",\"trial\":3,\"time\":239505},{\"event\":\"blur\",\"trial\":4,\"time\":241618},{\"event\":\"focus\",\"trial\":4,\"time\":243835},{\"event\":\"blur\",\"trial\":5,\"time\":291054},{\"event\":\"focus\",\"trial\":5,\"time\":303127},{\"event\":\"blur\",\"trial\":48,\"time\":407008},{\"event\":\"focus\",\"trial\":48,\"time\":418418}]"}]