[{"responses":{"Q03":"1","Q01":"1","Q02":"0"},"rt":9717.759999999544,"survey":"pswq","trial_type":"survey-template","trial_index":0,"time_elapsed":9732,"internal_node_id":"0.0-0.0","task_version":"screening-mturk"},{"responses":{"Q12":"0","Q11":"0","Q07":"1","Q10":"0","Q13":"0","Q03":"0","Q14":"0","Q09":"0","Q04":"0","Q08":"0","Q06":"0","Q05":"1","Q15":"0","Q01":"0","Q02":"0"},"rt":54977.725000004284,"survey":"7up7down","trial_type":"survey-template","trial_index":1,"time_elapsed":64717,"internal_node_id":"0.0-1.0","task_version":"screening-mturk"},{"responses":{"Q14":"2","Q06":"2","Q03":"2","Q02":"3","Q12":"2","Q05":"2","Q08":"2","Q01":"2","Q11":"2","Q15":"2","Q04":"3","Q13":"2","Q10":"3","Q09":"3","Q07":"2"},"rt":35123.82000000798,"survey":"shaps","trial_type":"survey-template","trial_index":2,"time_elapsed":99847,"internal_node_id":"0.0-2.0","task_version":"screening-mturk"},{"responses":{"Q07":"1","Q04":"0","Q01":"1","Q03":"0","Q08":"0","Q02":"0","Q06":"1","Q05":"0"},"rt":13054.295000009006,"survey":"gad7","trial_type":"survey-template","trial_index":3,"time_elapsed":112906,"internal_node_id":"0.0-3.0","task_version":"screening-mturk"},{"responses":{"Q03":"2","Q04":"2","Q12":"1","Q11":"2","Q09":"1","Q01":"1","Q10":"2","Q06":"3","Q02":"1","Q05":"2","Q13":"3","Q07":"3","Q08":"2"},"rt":36403.12000000267,"survey":"bisbas","trial_type":"survey-template","trial_index":4,"time_elapsed":149315,"internal_node_id":"0.0-4.0","task_version":"screening-mturk"},{"view_history":"[{\"page_index\":0,\"viewing_time\":3397.1050000109244},{\"page_index\":1,\"viewing_time\":4075.505000000703},{\"page_index\":2,\"viewing_time\":5621.854999990319},{\"page_index\":3,\"viewing_time\":103.03500000736676},{\"page_index\":4,\"viewing_time\":3947.40499999898},{\"page_index\":5,\"viewing_time\":2318.364999999176},{\"page_index\":6,\"viewing_time\":1663.2949999911943},{\"page_index\":7,\"viewing_time\":1947.4850000115111}]","rt":23075.605000005453,"trial_type":"instructions","trial_index":5,"time_elapsed":172393,"internal_node_id":"0.0-5.0-0.0","task_version":"screening-mturk"},{"responses":["True","True","True","False","True"],"num_errors":1,"rt":16049.924999999348,"trial_type":"three-arm-comprehension","trial_index":6,"time_elapsed":188447,"internal_node_id":"0.0-5.0-1.0","task_version":"screening-mturk"},{"view_history":"[{\"page_index\":0,\"viewing_time\":2244.3900000071153},{\"page_index\":1,\"viewing_time\":941.2449999945238},{\"page_index\":2,\"viewing_time\":2339.9349999963306},{\"page_index\":3,\"viewing_time\":3441.8250000016997},{\"page_index\":4,\"viewing_time\":2688.959999999497},{\"page_index\":5,\"viewing_time\":585.0099999952363},{\"page_index\":6,\"viewing_time\":922.8950000106124},{\"page_index\":7,\"viewing_time\":572.0250000013039}]","rt":13736.684999996214,"trial_type":"instructions","trial_index":7,"time_elapsed":202191,"internal_node_id":"0.0-5.1-0.1","task_version":"screening-mturk"},{"responses":["True","True","False","False","True"],"num_errors":0,"rt":12546.880000008969,"trial_type":"three-arm-comprehension","trial_index":8,"time_elapsed":214741,"internal_node_id":"0.0-5.1-1.1","task_version":"screening-mturk"},{"view_history":"[{\"page_index\":0,\"viewing_time\":2927.575000008801}]","rt":2929.100000008475,"trial_type":"instructions","trial_index":9,"time_elapsed":217675,"internal_node_id":"0.0-6.0","task_version":"screening-mturk"},{"contexts":["green","red","blue"],"outcomes":[1,0,0],"key":38,"choice":1,"rt":2470.000000001164,"outcome":0,"trial":1,"correct":0,"trial_type":"three-arm-trial","trial_index":10,"time_elapsed":221353,"internal_node_id":"0.0-7.0-0.0","task_version":"screening-mturk","missing":false,"accuracy":0},{"contexts":["green","red","blue"],"outcomes":[1,1,0],"key":39,"choice":2,"rt":616.0549999913201,"outcome":0,"trial":2,"correct":0,"trial_type":"three-arm-trial","trial_index":11,"time_elapsed":223172,"internal_node_id":"0.0-8.0-0.0","task_version":"screening-mturk","missing":false,"accuracy":0},{"contexts":["green","red","blue"],"outcomes":[1,0,1],"key":37,"choice":0,"rt":412.994999991497,"outcome":1,"trial":3,"correct":0,"trial_type":"three-arm-trial","trial_index":12,"time_elapsed":224790,"internal_node_id":"0.0-9.0-0.0","task_version":"screening-mturk","missing":false,"accuracy":1},{"contexts":["green","red","blue"],"outcomes":[1,0,0],"key":37,"choice":0,"rt":435.84000000555534,"outcome":1,"trial":4,"correct":0,"trial_type":"three-arm-trial","trial_index":13,"time_elapsed":226430,"internal_node_id":"0.0-10.0-0.0","task_version":"screening-mturk","missing":false,"accuracy":1},{"contexts":["green","red","blue"],"outcomes":[1,0,0],"key":37,"choice":0,"rt":417.54999999830034,"outcome":1,"trial":5,"correct":0,"trial_type":"three-arm-trial","trial_index":14,"time_elapsed":228051,"internal_node_id":"0.0-11.0-0.0","task_version":"screening-mturk","missing":false,"accuracy":1},{"contexts":["green","red","blue"],"outcomes":[1,0,0],"key":37,"choice":0,"rt":445.09999999718275,"outcome":1,"trial":6,"correct":0,"trial_type":"three-arm-trial","trial_index":15,"time_elapsed":229700,"internal_node_id":"0.0-12.0-0.0","task_version":"screening-mturk","missing":false,"accuracy":1},{"contexts":["green","red","blue"],"outcomes":[0,0,0],"key":37,"choice":0,"rt":342.83500000310596,"outcome":0,"trial":7,"correct":0,"trial_type":"three-arm-trial","trial_index":16,"time_elapsed":231248,"internal_node_id":"0.0-13.0-0.0","task_version":"screening-mturk","missing":false,"accuracy":1},{"contexts":["green","red","blue"],"outcomes":[1,0,0],"key":37,"choice":0,"rt":336.2900000065565,"outcome":1,"trial":8,"correct":0,"trial_type":"three-arm-trial","trial_index":17,"time_elapsed":232789,"internal_node_id":"0.0-14.0-0.0","task_version":"screening-mturk","missing":false,"accuracy":1},{"contexts":["green","red","blue"],"outcomes":[0,1,0],"key":37,"choice":0,"rt":338.99999999266583,"outcome":0,"trial":9,"correct":0,"trial_type":"three-arm-trial","trial_index":18,"time_elapsed":234332,"internal_node_id":"0.0-15.0-0.0","task_version":"screening-mturk","missing":false,"accuracy":1},{"contexts":["green","red","blue"],"outcomes":[1,1,0],"key":37,"choice":0,"rt":362.27499999222346,"outcome":1,"trial":10,"correct":0,"trial_type":"three-arm-trial","trial_index":19,"time_elapsed":235898,"internal_node_id":"0.0-16.0-0.0","task_version":"screening-mturk","missing":false,"accuracy":1},{"contexts":["green","red","blue"],"outcomes":[1,0,0],"key":37,"choice":0,"rt":392.90500000061,"outcome":1,"trial":11,"correct":0,"trial_type":"three-arm-trial","trial_index":20,"time_elapsed":237496,"internal_node_id":"0.0-17.0-0.0","task_version":"screening-mturk","missing":false,"accuracy":1},{"contexts":["green","red","blue"],"outcomes":[0,0,0],"key":37,"choice":0,"rt":439.83999999181833,"outcome":0,"trial":12,"correct":0,"trial_type":"three-arm-trial","trial_index":21,"time_elapsed":239146,"internal_node_id":"0.0-18.0-0.0","task_version":"screening-mturk","missing":false,"accuracy":1},{"contexts":["green","red","blue"],"outcomes":[1,1,0],"key":37,"choice":0,"rt":343.89000000373926,"outcome":1,"trial":13,"correct":0,"trial_type":"three-arm-trial","trial_index":22,"time_elapsed":240695,"internal_node_id":"0.0-19.0-0.0","task_version":"screening-mturk","missing":false,"accuracy":1},{"contexts":["green","red","blue"],"outcomes":[1,0,0],"key":37,"choice":0,"rt":429.0999999939231,"outcome":1,"trial":14,"correct":0,"trial_type":"three-arm-trial","trial_index":23,"time_elapsed":242329,"internal_node_id":"0.0-20.0-0.0","task_version":"screening-mturk","missing":false,"accuracy":1},{"contexts":["green","red","blue"],"outcomes":[1,0,1],"key":37,"choice":0,"rt":344.83499999623746,"outcome":1,"trial":15,"correct":0,"trial_type":"three-arm-trial","trial_index":24,"time_elapsed":243878,"internal_node_id":"0.0-21.0-0.0","task_version":"screening-mturk","missing":false,"accuracy":1},{"contexts":["green","red","blue"],"outcomes":[1,1,1],"key":37,"choice":0,"rt":402.2499999991851,"outcome":1,"trial":16,"correct":2,"trial_type":"three-arm-trial","trial_index":25,"time_elapsed":245484,"internal_node_id":"0.0-22.0-0.0","task_version":"screening-mturk","missing":false,"accuracy":0},{"contexts":["green","red","blue"],"outcomes":[1,1,0],"key":37,"choice":0,"rt":292.8550000069663,"outcome":1,"trial":17,"correct":2,"trial_type":"three-arm-trial","trial_index":26,"time_elapsed":246980,"internal_node_id":"0.0-23.0-0.0","task_version":"screening-mturk","missing":false,"accuracy":0},{"contexts":["green","red","blue"],"outcomes":[0,0,1],"key":37,"choice":0,"rt":357.18500000075437,"outcome":0,"trial":18,"correct":2,"trial_type":"three-arm-trial","trial_index":27,"time_elapsed":248543,"internal_node_id":"0.0-24.0-0.0","task_version":"screening-mturk","missing":false,"accuracy":0},{"contexts":["green","red","blue"],"outcomes":[0,0,1],"key":37,"choice":0,"rt":369.2049999954179,"outcome":0,"trial":19,"correct":2,"trial_type":"three-arm-trial","trial_index":28,"time_elapsed":250115,"internal_node_id":"0.0-25.0-0.0","task_version":"screening-mturk","missing":false,"accuracy":0},{"contexts":["green","red","blue"],"outcomes":[0,0,1],"key":38,"choice":1,"rt":661.1699999921257,"outcome":0,"trial":20,"correct":2,"trial_type":"three-arm-trial","trial_index":29,"time_elapsed":251980,"internal_node_id":"0.0-26.0-0.0","task_version":"screening-mturk","missing":false,"accuracy":0},{"contexts":["green","red","blue"],"outcomes":[0,0,1],"key":38,"choice":1,"rt":380.43499999912456,"outcome":0,"trial":21,"correct":2,"trial_type":"three-arm-trial","trial_index":30,"time_elapsed":253564,"internal_node_id":"0.0-27.0-0.0","task_version":"screening-mturk","missing":false,"accuracy":0},{"contexts":["green","red","blue"],"outcomes":[0,0,1],"key":39,"choice":2,"rt":375.67999999737367,"outcome":1,"trial":22,"correct":2,"trial_type":"three-arm-trial","trial_index":31,"time_elapsed":255144,"internal_node_id":"0.0-28.0-0.0","task_version":"screening-mturk","missing":false,"accuracy":1},{"contexts":["green","red","blue"],"outcomes":[0,0,1],"key":39,"choice":2,"rt":241.15499999606982,"outcome":1,"trial":23,"correct":2,"trial_type":"three-arm-trial","trial_index":32,"time_elapsed":256588,"internal_node_id":"0.0-29.0-0.0","task_version":"screening-mturk","missing":false,"accuracy":1},{"contexts":["green","red","blue"],"outcomes":[0,0,1],"key":39,"choice":2,"rt":170.77500000596046,"outcome":1,"trial":24,"correct":2,"trial_type":"three-arm-trial","trial_index":33,"time_elapsed":257965,"internal_node_id":"0.0-30.0-0.0","task_version":"screening-mturk","missing":false,"accuracy":1},{"contexts":["green","red","blue"],"outcomes":[0,0,1],"key":39,"choice":2,"rt":252.30500000179745,"outcome":1,"trial":25,"correct":2,"trial_type":"three-arm-trial","trial_index":34,"time_elapsed":259421,"internal_node_id":"0.0-31.0-0.0","task_version":"screening-mturk","missing":false,"accuracy":1},{"contexts":["green","red","blue"],"outcomes":[0,0,1],"key":39,"choice":2,"rt":230.84999999264255,"outcome":1,"trial":26,"correct":2,"trial_type":"three-arm-trial","trial_index":35,"time_elapsed":260858,"internal_node_id":"0.0-32.0-0.0","task_version":"screening-mturk","missing":false,"accuracy":1},{"contexts":["green","red","blue"],"outcomes":[1,0,1],"key":39,"choice":2,"rt":53.49500000011176,"outcome":1,"trial":27,"correct":2,"trial_type":"three-arm-trial","trial_index":36,"time_elapsed":262118,"internal_node_id":"0.0-33.0-0.0","task_version":"screening-mturk","missing":false,"accuracy":1},{"contexts":["green","red","blue"],"outcomes":[0,0,1],"key":39,"choice":2,"rt":683.1549999915296,"outcome":1,"trial":28,"correct":2,"trial_type":"three-arm-trial","trial_index":37,"time_elapsed":264006,"internal_node_id":"0.0-34.0-0.0","task_version":"screening-mturk","missing":false,"accuracy":1},{"contexts":["green","red","blue"],"outcomes":[0,1,1],"key":39,"choice":2,"rt":185.97500000032596,"outcome":1,"trial":29,"correct":2,"trial_type":"three-arm-trial","trial_index":38,"time_elapsed":265396,"internal_node_id":"0.0-35.0-0.0","task_version":"screening-mturk","missing":false,"accuracy":1},{"contexts":["green","red","blue"],"outcomes":[0,1,1],"key":39,"choice":2,"rt":173.38999999628868,"outcome":1,"trial":30,"correct":2,"trial_type":"three-arm-trial","trial_index":39,"time_elapsed":266772,"internal_node_id":"0.0-36.0-0.0","task_version":"screening-mturk","missing":false,"accuracy":1},{"contexts":["green","red","blue"],"outcomes":[0,1,0],"key":39,"choice":2,"rt":68.34999998682179,"outcome":0,"trial":31,"correct":1,"trial_type":"three-arm-trial","trial_index":40,"time_elapsed":268045,"internal_node_id":"0.0-37.0-0.0","task_version":"screening-mturk","missing":false,"accuracy":0},{"contexts":["green","red","blue"],"outcomes":[1,1,0],"key":39,"choice":2,"rt":267.63500001106877,"outcome":0,"trial":32,"correct":1,"trial_type":"three-arm-trial","trial_index":41,"time_elapsed":269516,"internal_node_id":"0.0-38.0-0.0","task_version":"screening-mturk","missing":false,"accuracy":0},{"contexts":["green","red","blue"],"outcomes":[0,1,0],"key":39,"choice":2,"rt":148.26499999617226,"outcome":0,"trial":33,"correct":1,"trial_type":"three-arm-trial","trial_index":42,"time_elapsed":270872,"internal_node_id":"0.0-39.0-0.0","task_version":"screening-mturk","missing":false,"accuracy":0},{"contexts":["green","red","blue"],"outcomes":[0,0,0],"key":37,"choice":0,"rt":279.9150000064401,"outcome":0,"trial":34,"correct":1,"trial_type":"three-arm-trial","trial_index":43,"time_elapsed":272356,"internal_node_id":"0.0-40.0-0.0","task_version":"screening-mturk","missing":false,"accuracy":0},{"contexts":["green","red","blue"],"outcomes":[1,1,1],"key":38,"choice":1,"rt":228.05000000516884,"outcome":1,"trial":35,"correct":1,"trial_type":"three-arm-trial","trial_index":44,"time_elapsed":273787,"internal_node_id":"0.0-41.0-0.0","task_version":"screening-mturk","missing":false,"accuracy":1},{"contexts":["green","red","blue"],"outcomes":[0,1,0],"key":38,"choice":1,"rt":180.45499999425374,"outcome":1,"trial":36,"correct":1,"trial_type":"three-arm-trial","trial_index":45,"time_elapsed":275172,"internal_node_id":"0.0-42.0-0.0","task_version":"screening-mturk","missing":false,"accuracy":1},{"contexts":["green","red","blue"],"outcomes":[0,1,0],"key":38,"choice":1,"rt":8.144999999785796,"outcome":1,"trial":37,"correct":1,"trial_type":"three-arm-trial","trial_index":46,"time_elapsed":276385,"internal_node_id":"0.0-43.0-0.0","task_version":"screening-mturk","missing":false,"accuracy":1},{"contexts":["green","red","blue"],"outcomes":[0,0,0],"key":38,"choice":1,"rt":622.5149999954738,"outcome":0,"trial":38,"correct":1,"trial_type":"three-arm-trial","trial_index":47,"time_elapsed":278213,"internal_node_id":"0.0-44.0-0.0","task_version":"screening-mturk","missing":false,"accuracy":1},{"contexts":["green","red","blue"],"outcomes":[0,1,0],"key":38,"choice":1,"rt":242.46999999741092,"outcome":1,"trial":39,"correct":1,"trial_type":"three-arm-trial","trial_index":48,"time_elapsed":279659,"internal_node_id":"0.0-45.0-0.0","task_version":"screening-mturk","missing":false,"accuracy":1},{"contexts":["green","red","blue"],"outcomes":[0,1,1],"key":38,"choice":1,"rt":132.76500000210945,"outcome":1,"trial":40,"correct":1,"trial_type":"three-arm-trial","trial_index":49,"time_elapsed":280997,"internal_node_id":"0.0-46.0-0.0","task_version":"screening-mturk","missing":false,"accuracy":1},{"contexts":["green","red","blue"],"outcomes":[0,1,0],"key":38,"choice":1,"rt":42.310000004363246,"outcome":1,"trial":41,"correct":1,"trial_type":"three-arm-trial","trial_index":50,"time_elapsed":282243,"internal_node_id":"0.0-47.0-0.0","task_version":"screening-mturk","missing":false,"accuracy":1},{"contexts":["green","red","blue"],"outcomes":[0,1,1],"key":38,"choice":1,"rt":100.74999999778811,"outcome":1,"trial":42,"correct":1,"trial_type":"three-arm-trial","trial_index":51,"time_elapsed":283549,"internal_node_id":"0.0-48.0-0.0","task_version":"screening-mturk","missing":false,"accuracy":1},{"contexts":["green","red","blue"],"outcomes":[1,1,0],"key":38,"choice":1,"rt":628.9000000106171,"outcome":1,"trial":43,"correct":1,"trial_type":"three-arm-trial","trial_index":52,"time_elapsed":285382,"internal_node_id":"0.0-49.0-0.0","task_version":"screening-mturk","missing":false,"accuracy":1},{"contexts":["green","red","blue"],"outcomes":[0,1,0],"key":38,"choice":1,"rt":283.2100000086939,"outcome":1,"trial":44,"correct":1,"trial_type":"three-arm-trial","trial_index":53,"time_elapsed":286868,"internal_node_id":"0.0-50.0-0.0","task_version":"screening-mturk","missing":false,"accuracy":1},{"contexts":["green","red","blue"],"outcomes":[0,0,1],"key":38,"choice":1,"rt":219.8599999974249,"outcome":0,"trial":45,"correct":1,"trial_type":"three-arm-trial","trial_index":54,"time_elapsed":288293,"internal_node_id":"0.0-51.0-0.0","task_version":"screening-mturk","missing":false,"accuracy":1},{"contexts":["green","red","blue"],"outcomes":[0,0,1],"key":38,"choice":1,"rt":316.514999998617,"outcome":0,"trial":46,"correct":2,"trial_type":"three-arm-trial","trial_index":55,"time_elapsed":289816,"internal_node_id":"0.0-52.0-0.0","task_version":"screening-mturk","missing":false,"accuracy":0},{"contexts":["green","red","blue"],"outcomes":[1,0,1],"key":39,"choice":2,"rt":303.36499999975786,"outcome":1,"trial":47,"correct":2,"trial_type":"three-arm-trial","trial_index":56,"time_elapsed":291324,"internal_node_id":"0.0-53.0-0.0","task_version":"screening-mturk","missing":false,"accuracy":1},{"contexts":["green","red","blue"],"outcomes":[0,0,1],"key":39,"choice":2,"rt":146.22999999846797,"outcome":1,"trial":48,"correct":2,"trial_type":"three-arm-trial","trial_index":57,"time_elapsed":292677,"internal_node_id":"0.0-54.0-0.0","task_version":"screening-mturk","missing":false,"accuracy":1},{"contexts":["green","red","blue"],"outcomes":[0,0,1],"key":39,"choice":2,"rt":252.00500000210013,"outcome":1,"trial":49,"correct":2,"trial_type":"three-arm-trial","trial_index":58,"time_elapsed":294132,"internal_node_id":"0.0-55.0-0.0","task_version":"screening-mturk","missing":false,"accuracy":1},{"contexts":["green","red","blue"],"outcomes":[0,0,1],"key":39,"choice":2,"rt":83.37999999639578,"outcome":1,"trial":50,"correct":2,"trial_type":"three-arm-trial","trial_index":59,"time_elapsed":295419,"internal_node_id":"0.0-56.0-0.0","task_version":"screening-mturk","missing":false,"accuracy":1},{"contexts":["green","red","blue"],"outcomes":[0,1,0],"key":39,"choice":2,"rt":76.80000000982545,"outcome":0,"trial":51,"correct":2,"trial_type":"three-arm-trial","trial_index":60,"time_elapsed":296699,"internal_node_id":"0.0-57.0-0.0","task_version":"screening-mturk","missing":false,"accuracy":1},{"contexts":["green","red","blue"],"outcomes":[1,0,1],"key":39,"choice":2,"rt":156.64999998989515,"outcome":1,"trial":52,"correct":2,"trial_type":"three-arm-trial","trial_index":61,"time_elapsed":298060,"internal_node_id":"0.0-58.0-0.0","task_version":"screening-mturk","missing":false,"accuracy":1},{"contexts":["green","red","blue"],"outcomes":[0,0,1],"key":39,"choice":2,"rt":1122.0200000097975,"outcome":1,"trial":53,"correct":2,"trial_type":"three-arm-trial","trial_index":62,"time_elapsed":300386,"internal_node_id":"0.0-59.0-0.0","task_version":"screening-mturk","missing":false,"accuracy":1},{"contexts":["green","red","blue"],"outcomes":[1,0,1],"key":39,"choice":2,"rt":625.0699999945937,"outcome":1,"trial":54,"correct":2,"trial_type":"three-arm-trial","trial_index":63,"time_elapsed":302215,"internal_node_id":"0.0-60.0-0.0","task_version":"screening-mturk","missing":false,"accuracy":1},{"contexts":["green","red","blue"],"outcomes":[1,1,1],"key":39,"choice":2,"rt":49.05000000144355,"outcome":1,"trial":55,"correct":2,"trial_type":"three-arm-trial","trial_index":64,"time_elapsed":303467,"internal_node_id":"0.0-61.0-0.0","task_version":"screening-mturk","missing":false,"accuracy":1},{"contexts":["green","red","blue"],"outcomes":[0,0,1],"key":39,"choice":2,"rt":156.3400000013644,"outcome":1,"trial":56,"correct":2,"trial_type":"three-arm-trial","trial_index":65,"time_elapsed":304829,"internal_node_id":"0.0-62.0-0.0","task_version":"screening-mturk","missing":false,"accuracy":1},{"contexts":["green","red","blue"],"outcomes":[0,0,1],"key":39,"choice":2,"rt":641.7100000107894,"outcome":1,"trial":57,"correct":2,"trial_type":"three-arm-trial","trial_index":66,"time_elapsed":306676,"internal_node_id":"0.0-63.0-0.0","task_version":"screening-mturk","missing":false,"accuracy":1},{"contexts":["green","red","blue"],"outcomes":[0,0,1],"key":39,"choice":2,"rt":267.6050000009127,"outcome":1,"trial":58,"correct":2,"trial_type":"three-arm-trial","trial_index":67,"time_elapsed":308147,"internal_node_id":"0.0-64.0-0.0","task_version":"screening-mturk","missing":false,"accuracy":1},{"contexts":["green","red","blue"],"outcomes":[0,1,1],"key":39,"choice":2,"rt":300.8350000018254,"outcome":1,"trial":59,"correct":2,"trial_type":"three-arm-trial","trial_index":68,"time_elapsed":309651,"internal_node_id":"0.0-65.0-0.0","task_version":"screening-mturk","missing":false,"accuracy":1},{"contexts":["green","red","blue"],"outcomes":[1,1,1],"key":39,"choice":2,"rt":393.3099999994738,"outcome":1,"trial":60,"correct":2,"trial_type":"three-arm-trial","trial_index":69,"time_elapsed":311252,"internal_node_id":"0.0-66.0-0.0","task_version":"screening-mturk","missing":false,"accuracy":1},{"contexts":["green","red","blue"],"outcomes":[0,0,0],"key":39,"choice":2,"rt":337.59500000451226,"outcome":0,"trial":61,"correct":0,"trial_type":"three-arm-trial","trial_index":70,"time_elapsed":312794,"internal_node_id":"0.0-67.0-0.0","task_version":"screening-mturk","missing":false,"accuracy":0},{"contexts":["green","red","blue"],"outcomes":[1,0,0],"key":39,"choice":2,"rt":301.1100000003353,"outcome":0,"trial":62,"correct":0,"trial_type":"three-arm-trial","trial_index":71,"time_elapsed":314300,"internal_node_id":"0.0-68.0-0.0","task_version":"screening-mturk","missing":false,"accuracy":0},{"contexts":["green","red","blue"],"outcomes":[1,0,1],"key":37,"choice":0,"rt":355.2849999978207,"outcome":1,"trial":63,"correct":0,"trial_type":"three-arm-trial","trial_index":72,"time_elapsed":315859,"internal_node_id":"0.0-69.0-0.0","task_version":"screening-mturk","missing":false,"accuracy":1},{"contexts":["green","red","blue"],"outcomes":[0,0,0],"key":37,"choice":0,"rt":244.62499999208376,"outcome":0,"trial":64,"correct":0,"trial_type":"three-arm-trial","trial_index":73,"time_elapsed":317308,"internal_node_id":"0.0-70.0-0.0","task_version":"screening-mturk","missing":false,"accuracy":1},{"contexts":["green","red","blue"],"outcomes":[1,0,0],"key":37,"choice":0,"rt":251.52499999967404,"outcome":1,"trial":65,"correct":0,"trial_type":"three-arm-trial","trial_index":74,"time_elapsed":318764,"internal_node_id":"0.0-71.0-0.0","task_version":"screening-mturk","missing":false,"accuracy":1},{"contexts":["green","red","blue"],"outcomes":[1,0,0],"key":37,"choice":0,"rt":255.21000000298955,"outcome":1,"trial":66,"correct":0,"trial_type":"three-arm-trial","trial_index":75,"time_elapsed":320223,"internal_node_id":"0.0-72.0-0.0","task_version":"screening-mturk","missing":false,"accuracy":1},{"contexts":["green","red","blue"],"outcomes":[1,0,0],"key":37,"choice":0,"rt":152.91499999875668,"outcome":1,"trial":67,"correct":0,"trial_type":"three-arm-trial","trial_index":76,"time_elapsed":321581,"internal_node_id":"0.0-73.0-0.0","task_version":"screening-mturk","missing":false,"accuracy":1},{"contexts":["green","red","blue"],"outcomes":[1,0,0],"key":37,"choice":0,"rt":736.9100000069011,"outcome":1,"trial":68,"correct":0,"trial_type":"three-arm-trial","trial_index":77,"time_elapsed":323523,"internal_node_id":"0.0-74.0-0.0","task_version":"screening-mturk","missing":false,"accuracy":1},{"contexts":["green","red","blue"],"outcomes":[0,0,0],"key":37,"choice":0,"rt":172.27500000444707,"outcome":0,"trial":69,"correct":0,"trial_type":"three-arm-trial","trial_index":78,"time_elapsed":324900,"internal_node_id":"0.0-75.0-0.0","task_version":"screening-mturk","missing":false,"accuracy":1},{"contexts":["green","red","blue"],"outcomes":[1,0,0],"key":37,"choice":0,"rt":362.6749999966705,"outcome":1,"trial":70,"correct":0,"trial_type":"three-arm-trial","trial_index":79,"time_elapsed":326468,"internal_node_id":"0.0-76.0-0.0","task_version":"screening-mturk","missing":false,"accuracy":1},{"contexts":["green","red","blue"],"outcomes":[1,0,0],"key":37,"choice":0,"rt":234.77000001003034,"outcome":1,"trial":71,"correct":0,"trial_type":"three-arm-trial","trial_index":80,"time_elapsed":327907,"internal_node_id":"0.0-77.0-0.0","task_version":"screening-mturk","missing":false,"accuracy":1},{"contexts":["green","red","blue"],"outcomes":[1,0,0],"key":37,"choice":0,"rt":267.9150000039954,"outcome":1,"trial":72,"correct":0,"trial_type":"three-arm-trial","trial_index":81,"time_elapsed":329379,"internal_node_id":"0.0-78.0-0.0","task_version":"screening-mturk","missing":false,"accuracy":1},{"contexts":["green","red","blue"],"outcomes":[1,0,0],"key":37,"choice":0,"rt":188.49499999487307,"outcome":1,"trial":73,"correct":0,"trial_type":"three-arm-trial","trial_index":82,"time_elapsed":330773,"internal_node_id":"0.0-79.0-0.0","task_version":"screening-mturk","missing":false,"accuracy":1},{"contexts":["green","red","blue"],"outcomes":[0,1,0],"key":37,"choice":0,"rt":178.47999998775776,"outcome":0,"trial":74,"correct":0,"trial_type":"three-arm-trial","trial_index":83,"time_elapsed":332156,"internal_node_id":"0.0-80.0-0.0","task_version":"screening-mturk","missing":false,"accuracy":1},{"contexts":["green","red","blue"],"outcomes":[1,1,1],"key":38,"choice":1,"rt":282.31000000960194,"outcome":1,"trial":75,"correct":0,"trial_type":"three-arm-trial","trial_index":84,"time_elapsed":333643,"internal_node_id":"0.0-81.0-0.0","task_version":"screening-mturk","missing":false,"accuracy":0},{"contexts":["green","red","blue"],"outcomes":[0,0,1],"key":38,"choice":1,"rt":284.79499999957625,"outcome":0,"trial":76,"correct":2,"trial_type":"three-arm-trial","trial_index":85,"time_elapsed":335136,"internal_node_id":"0.0-82.0-0.0","task_version":"screening-mturk","missing":false,"accuracy":0},{"contexts":["green","red","blue"],"outcomes":[0,0,0],"key":38,"choice":1,"rt":344.4900000031339,"outcome":0,"trial":77,"correct":2,"trial_type":"three-arm-trial","trial_index":86,"time_elapsed":336684,"internal_node_id":"0.0-83.0-0.0","task_version":"screening-mturk","missing":false,"accuracy":0},{"contexts":["green","red","blue"],"outcomes":[0,0,0],"key":39,"choice":2,"rt":57.82500001078006,"outcome":0,"trial":78,"correct":2,"trial_type":"three-arm-trial","trial_index":87,"time_elapsed":337947,"internal_node_id":"0.0-84.0-0.0","task_version":"screening-mturk","missing":false,"accuracy":1},{"contexts":["green","red","blue"],"outcomes":[0,1,0],"key":39,"choice":2,"rt":68.02000000607222,"outcome":0,"trial":79,"correct":2,"trial_type":"three-arm-trial","trial_index":88,"time_elapsed":339220,"internal_node_id":"0.0-85.0-0.0","task_version":"screening-mturk","missing":false,"accuracy":1},{"contexts":["green","red","blue"],"outcomes":[0,0,1],"key":37,"choice":0,"rt":450.5849999986822,"outcome":0,"trial":80,"correct":2,"trial_type":"three-arm-trial","trial_index":89,"time_elapsed":340875,"internal_node_id":"0.0-86.0-0.0","task_version":"screening-mturk","missing":false,"accuracy":0},{"contexts":["green","red","blue"],"outcomes":[0,0,1],"key":37,"choice":0,"rt":391.02500000444707,"outcome":0,"trial":81,"correct":2,"trial_type":"three-arm-trial","trial_index":90,"time_elapsed":342471,"internal_node_id":"0.0-87.0-0.0","task_version":"screening-mturk","missing":false,"accuracy":0},{"contexts":["green","red","blue"],"outcomes":[0,0,0],"key":37,"choice":0,"rt":177.03500000061467,"outcome":0,"trial":82,"correct":2,"trial_type":"three-arm-trial","trial_index":91,"time_elapsed":343852,"internal_node_id":"0.0-88.0-0.0","task_version":"screening-mturk","missing":false,"accuracy":0},{"contexts":["green","red","blue"],"outcomes":[0,0,0],"key":38,"choice":1,"rt":155.35500000987668,"outcome":0,"trial":83,"correct":2,"trial_type":"three-arm-trial","trial_index":92,"time_elapsed":345210,"internal_node_id":"0.0-89.0-0.0","task_version":"screening-mturk","missing":false,"accuracy":0},{"contexts":["green","red","blue"],"outcomes":[0,0,1],"key":38,"choice":1,"rt":684.3549999903189,"outcome":0,"trial":84,"correct":2,"trial_type":"three-arm-trial","trial_index":93,"time_elapsed":347102,"internal_node_id":"0.0-90.0-0.0","task_version":"screening-mturk","missing":false,"accuracy":0},{"contexts":["green","red","blue"],"outcomes":[0,0,1],"key":38,"choice":1,"rt":504.9849999923026,"outcome":0,"trial":85,"correct":2,"trial_type":"three-arm-trial","trial_index":94,"time_elapsed":348817,"internal_node_id":"0.0-91.0-0.0","task_version":"screening-mturk","missing":false,"accuracy":0},{"contexts":["green","red","blue"],"outcomes":[0,1,0],"key":39,"choice":2,"rt":598.920000004,"outcome":0,"trial":86,"correct":2,"trial_type":"three-arm-trial","trial_index":95,"time_elapsed":350619,"internal_node_id":"0.0-92.0-0.0","task_version":"screening-mturk","missing":false,"accuracy":1},{"contexts":["green","red","blue"],"outcomes":[0,1,1],"key":39,"choice":2,"rt":541.7299999971874,"outcome":1,"trial":87,"correct":2,"trial_type":"three-arm-trial","trial_index":96,"time_elapsed":352365,"internal_node_id":"0.0-93.0-0.0","task_version":"screening-mturk","missing":false,"accuracy":1},{"contexts":["green","red","blue"],"outcomes":[0,0,1],"key":39,"choice":2,"rt":282.599999991362,"outcome":1,"trial":88,"correct":2,"trial_type":"three-arm-trial","trial_index":97,"time_elapsed":353852,"internal_node_id":"0.0-94.0-0.0","task_version":"screening-mturk","missing":false,"accuracy":1},{"contexts":["green","red","blue"],"outcomes":[0,0,1],"key":39,"choice":2,"rt":362.56999999750406,"outcome":1,"trial":89,"correct":2,"trial_type":"three-arm-trial","trial_index":98,"time_elapsed":355418,"internal_node_id":"0.0-95.0-0.0","task_version":"screening-mturk","missing":false,"accuracy":1},{"contexts":["green","red","blue"],"outcomes":[0,1,0],"key":39,"choice":2,"rt":348.20000000763685,"outcome":0,"trial":90,"correct":2,"trial_type":"three-arm-trial","trial_index":99,"time_elapsed":356971,"internal_node_id":"0.0-96.0-0.0","task_version":"screening-mturk","missing":false,"accuracy":1},{"rt":31634.269999995013,"responses":{"age":"57","gender-categorical":"Female","gender-free-response":"","ethnicity":"Not Hispanic or Latino","race":["White"],"language":"Yes","fluency":"Very well","prolific":"No","prolific-this-study":"No"},"survey":"demographics","trial_type":"survey-demo","trial_index":100,"time_elapsed":388625,"internal_node_id":"0.0-97.0","task_version":"screening-mturk","interactions":"[{\"event\":\"blur\",\"trial\":100,\"time\":381303},{\"event\":\"focus\",\"trial\":100,\"time\":382481}]"}]