[{"responses":{"Q14":"3","Q08":"3","Q12":"3","Q15":"3","Q04":"2","Q11":"2","Q09":"3","Q13":"3","Q01":"2","Q06":"2","Q07":"3","Q03":"2","Q10":"2","Q02":"3","Q05":"3"},"rt":26092.939999998634,"survey":"shaps","trial_type":"survey-template","trial_index":0,"time_elapsed":26119,"internal_node_id":"0.0-0.0","task_version":"screening-mturk"},{"responses":{"Q07":"0","Q04":"2","Q06":"1","Q15":"1","Q10":"2","Q02":"2","Q13":"1","Q09":"2","Q11":"3","Q12":"2","Q08":"1","Q01":"1","Q03":"2","Q14":"2","Q05":"1"},"rt":25979.475000000093,"survey":"7up7down","trial_type":"survey-template","trial_index":1,"time_elapsed":52107,"internal_node_id":"0.0-1.0","task_version":"screening-mturk"},{"responses":{"Q02":"3","Q03":"3","Q01":"2"},"rt":7259.8999999972875,"survey":"pswq","trial_type":"survey-template","trial_index":2,"time_elapsed":59370,"internal_node_id":"0.0-2.0","task_version":"screening-mturk"},{"responses":{"Q13":"3","Q07":"3","Q11":"3","Q03":"3","Q04":"3","Q02":"3","Q08":"3","Q05":"2","Q06":"2","Q09":"3","Q10":"3","Q12":"2","Q01":"1"},"rt":18182.925000000978,"survey":"bisbas","trial_type":"survey-template","trial_index":3,"time_elapsed":77557,"internal_node_id":"0.0-3.0","task_version":"screening-mturk"},{"responses":{"Q04":"0","Q06":"0","Q08":"0","Q07":"0","Q02":"0","Q01":"0","Q03":"0","Q05":"0"},"rt":11348.06000000026,"survey":"gad7","trial_type":"survey-template","trial_index":4,"time_elapsed":88909,"internal_node_id":"0.0-4.0","task_version":"screening-mturk"},{"view_history":"[{\"page_index\":0,\"viewing_time\":5089.355000000069},{\"page_index\":1,\"viewing_time\":8817.869999998948},{\"page_index\":2,\"viewing_time\":7041.915000001609},{\"page_index\":3,\"viewing_time\":5653.235000001587},{\"page_index\":4,\"viewing_time\":3703.0999999988126},{\"page_index\":5,\"viewing_time\":2243.510000000242},{\"page_index\":6,\"viewing_time\":2814.18499999927},{\"page_index\":7,\"viewing_time\":1998.9050000003772}]","rt":37365.48500000208,"trial_type":"instructions","trial_index":5,"time_elapsed":126278,"internal_node_id":"0.0-5.0-0.0","task_version":"screening-mturk"},{"responses":["True","False","True","False","True"],"num_errors":2,"rt":18014.04999999795,"trial_type":"three-arm-comprehension","trial_index":6,"time_elapsed":144296,"internal_node_id":"0.0-5.0-1.0","task_version":"screening-mturk"},{"view_history":"[{\"page_index\":0,\"viewing_time\":3130.14000000112},{\"page_index\":1,\"viewing_time\":3695.9249999999884},{\"page_index\":2,\"viewing_time\":1109.7999999983585},{\"page_index\":3,\"viewing_time\":916.2450000003446},{\"page_index\":4,\"viewing_time\":830.6799999991199},{\"page_index\":5,\"viewing_time\":347.8750000031141},{\"page_index\":6,\"viewing_time\":955.244999997376},{\"page_index\":7,\"viewing_time\":478.00000000279397}]","rt":11464.355000000069,"trial_type":"instructions","trial_index":7,"time_elapsed":155768,"internal_node_id":"0.0-5.1-0.1","task_version":"screening-mturk"},{"responses":["True","True","True","False","True"],"num_errors":1,"rt":15868.200000000797,"trial_type":"three-arm-comprehension","trial_index":8,"time_elapsed":171639,"internal_node_id":"0.0-5.1-1.1","task_version":"screening-mturk"},{"view_history":"[{\"page_index\":0,\"viewing_time\":2614.7150000033434},{\"page_index\":1,\"viewing_time\":7479.739999998856},{\"page_index\":2,\"viewing_time\":4338.690000000497},{\"page_index\":3,\"viewing_time\":6297.810000000027},{\"page_index\":4,\"viewing_time\":8887.98499999757},{\"page_index\":5,\"viewing_time\":10340.895000001183},{\"page_index\":6,\"viewing_time\":2523.075000000972},{\"page_index\":7,\"viewing_time\":1790.7500000001164}]","rt":44274.405000000115,"trial_type":"instructions","trial_index":9,"time_elapsed":215917,"internal_node_id":"0.0-5.2-0.2","task_version":"screening-mturk"},{"responses":["True","True","False","False","True"],"num_errors":0,"rt":13191.109999999753,"trial_type":"three-arm-comprehension","trial_index":10,"time_elapsed":229114,"internal_node_id":"0.0-5.2-1.2","task_version":"screening-mturk"},{"view_history":"[{\"page_index\":0,\"viewing_time\":2317.4849999995786}]","rt":2317.8899999984424,"trial_type":"instructions","trial_index":11,"time_elapsed":231438,"internal_node_id":"0.0-6.0","task_version":"screening-mturk"},{"contexts":["green","blue","red"],"outcomes":[0,0,0],"key":39,"choice":2,"rt":1663.5500000011234,"outcome":0,"trial":1,"correct":1,"trial_type":"three-arm-trial","trial_index":12,"time_elapsed":234308,"internal_node_id":"0.0-7.0-0.0","task_version":"screening-mturk","missing":false,"accuracy":0},{"contexts":["green","blue","red"],"outcomes":[0,1,0],"key":38,"choice":1,"rt":717.1300000009069,"outcome":1,"trial":2,"correct":1,"trial_type":"three-arm-trial","trial_index":13,"time_elapsed":236230,"internal_node_id":"0.0-8.0-0.0","task_version":"screening-mturk","missing":false,"accuracy":1},{"contexts":["green","blue","red"],"outcomes":[0,1,1],"key":38,"choice":1,"rt":307.6850000034028,"outcome":1,"trial":3,"correct":1,"trial_type":"three-arm-trial","trial_index":14,"time_elapsed":237741,"internal_node_id":"0.0-9.0-0.0","task_version":"screening-mturk","missing":false,"accuracy":1},{"contexts":["green","blue","red"],"outcomes":[0,1,0],"key":38,"choice":1,"rt":264.85500000126194,"outcome":1,"trial":4,"correct":1,"trial_type":"three-arm-trial","trial_index":15,"time_elapsed":239209,"internal_node_id":"0.0-10.0-0.0","task_version":"screening-mturk","missing":false,"accuracy":1},{"contexts":["green","blue","red"],"outcomes":[1,1,0],"key":38,"choice":1,"rt":250.8399999969697,"outcome":1,"trial":5,"correct":1,"trial_type":"three-arm-trial","trial_index":16,"time_elapsed":240664,"internal_node_id":"0.0-11.0-0.0","task_version":"screening-mturk","missing":false,"accuracy":1},{"contexts":["green","blue","red"],"outcomes":[0,0,0],"key":38,"choice":1,"rt":247.19000000186497,"outcome":0,"trial":6,"correct":1,"trial_type":"three-arm-trial","trial_index":17,"time_elapsed":242115,"internal_node_id":"0.0-12.0-0.0","task_version":"screening-mturk","missing":false,"accuracy":1},{"contexts":["green","blue","red"],"outcomes":[1,1,0],"key":38,"choice":1,"rt":235.1699999999255,"outcome":1,"trial":7,"correct":1,"trial_type":"three-arm-trial","trial_index":18,"time_elapsed":243554,"internal_node_id":"0.0-13.0-0.0","task_version":"screening-mturk","missing":false,"accuracy":1},{"contexts":["green","blue","red"],"outcomes":[0,1,0],"key":38,"choice":1,"rt":192.9950000012468,"outcome":1,"trial":8,"correct":1,"trial_type":"three-arm-trial","trial_index":19,"time_elapsed":244950,"internal_node_id":"0.0-14.0-0.0","task_version":"screening-mturk","missing":false,"accuracy":1},{"contexts":["green","blue","red"],"outcomes":[0,1,1],"key":38,"choice":1,"rt":198.16499999797088,"outcome":1,"trial":9,"correct":1,"trial_type":"three-arm-trial","trial_index":20,"time_elapsed":246351,"internal_node_id":"0.0-15.0-0.0","task_version":"screening-mturk","missing":false,"accuracy":1},{"contexts":["green","blue","red"],"outcomes":[0,1,0],"key":38,"choice":1,"rt":396.7799999991257,"outcome":1,"trial":10,"correct":1,"trial_type":"three-arm-trial","trial_index":21,"time_elapsed":247950,"internal_node_id":"0.0-16.0-0.0","task_version":"screening-mturk","missing":false,"accuracy":1},{"contexts":["green","blue","red"],"outcomes":[0,1,0],"key":38,"choice":1,"rt":187.64999999984866,"outcome":1,"trial":11,"correct":1,"trial_type":"three-arm-trial","trial_index":22,"time_elapsed":249342,"internal_node_id":"0.0-17.0-0.0","task_version":"screening-mturk","missing":false,"accuracy":1},{"contexts":["green","blue","red"],"outcomes":[0,1,0],"key":38,"choice":1,"rt":233.70999999679043,"outcome":1,"trial":12,"correct":1,"trial_type":"three-arm-trial","trial_index":23,"time_elapsed":250780,"internal_node_id":"0.0-18.0-0.0","task_version":"screening-mturk","missing":false,"accuracy":1},{"contexts":["green","blue","red"],"outcomes":[0,1,1],"key":38,"choice":1,"rt":176.9800000001851,"outcome":1,"trial":13,"correct":1,"trial_type":"three-arm-trial","trial_index":24,"time_elapsed":252161,"internal_node_id":"0.0-19.0-0.0","task_version":"screening-mturk","missing":false,"accuracy":1},{"contexts":["green","blue","red"],"outcomes":[0,1,0],"key":38,"choice":1,"rt":27.754999999160646,"outcome":1,"trial":14,"correct":1,"trial_type":"three-arm-trial","trial_index":25,"time_elapsed":253393,"internal_node_id":"0.0-20.0-0.0","task_version":"screening-mturk","missing":false,"accuracy":1},{"contexts":["green","blue","red"],"outcomes":[0,0,0],"key":38,"choice":1,"rt":22.76500000152737,"outcome":0,"trial":15,"correct":1,"trial_type":"three-arm-trial","trial_index":26,"time_elapsed":254619,"internal_node_id":"0.0-21.0-0.0","task_version":"screening-mturk","missing":false,"accuracy":1},{"contexts":["green","blue","red"],"outcomes":[1,0,0],"key":38,"choice":1,"rt":16.74500000081025,"outcome":0,"trial":16,"correct":0,"trial_type":"three-arm-trial","trial_index":27,"time_elapsed":255840,"internal_node_id":"0.0-22.0-0.0","task_version":"screening-mturk","missing":false,"accuracy":0},{"contexts":["green","blue","red"],"outcomes":[1,1,0],"key":37,"choice":0,"rt":242.19499999890104,"outcome":1,"trial":17,"correct":0,"trial_type":"three-arm-trial","trial_index":28,"time_elapsed":257287,"internal_node_id":"0.0-23.0-0.0","task_version":"screening-mturk","missing":false,"accuracy":1},{"contexts":["green","blue","red"],"outcomes":[1,0,0],"key":37,"choice":0,"rt":251.4599999994971,"outcome":1,"trial":18,"correct":0,"trial_type":"three-arm-trial","trial_index":29,"time_elapsed":258742,"internal_node_id":"0.0-24.0-0.0","task_version":"screening-mturk","missing":false,"accuracy":1},{"contexts":["green","blue","red"],"outcomes":[1,0,0],"key":37,"choice":0,"rt":113.164999998844,"outcome":1,"trial":19,"correct":0,"trial_type":"three-arm-trial","trial_index":30,"time_elapsed":260060,"internal_node_id":"0.0-25.0-0.0","task_version":"screening-mturk","missing":false,"accuracy":1},{"contexts":["green","blue","red"],"outcomes":[0,0,0],"key":37,"choice":0,"rt":213.13000000009197,"outcome":0,"trial":20,"correct":0,"trial_type":"three-arm-trial","trial_index":31,"time_elapsed":261483,"internal_node_id":"0.0-26.0-0.0","task_version":"screening-mturk","missing":false,"accuracy":1},{"contexts":["green","blue","red"],"outcomes":[1,0,0],"key":37,"choice":0,"rt":228.28999999910593,"outcome":1,"trial":21,"correct":0,"trial_type":"three-arm-trial","trial_index":32,"time_elapsed":262924,"internal_node_id":"0.0-27.0-0.0","task_version":"screening-mturk","missing":false,"accuracy":1},{"contexts":["green","blue","red"],"outcomes":[0,0,0],"key":37,"choice":0,"rt":182.6050000017858,"outcome":0,"trial":22,"correct":0,"trial_type":"three-arm-trial","trial_index":33,"time_elapsed":264310,"internal_node_id":"0.0-28.0-0.0","task_version":"screening-mturk","missing":false,"accuracy":1},{"contexts":["green","blue","red"],"outcomes":[0,1,0],"key":39,"choice":2,"rt":262.29500000050757,"outcome":0,"trial":23,"correct":0,"trial_type":"three-arm-trial","trial_index":34,"time_elapsed":265778,"internal_node_id":"0.0-29.0-0.0","task_version":"screening-mturk","missing":false,"accuracy":0},{"contexts":["green","blue","red"],"outcomes":[1,0,0],"key":38,"choice":1,"rt":2.1850000012200326,"outcome":0,"trial":24,"correct":0,"trial_type":"three-arm-trial","trial_index":35,"time_elapsed":266984,"internal_node_id":"0.0-30.0-0.0","task_version":"screening-mturk","missing":false,"accuracy":0},{"contexts":["green","blue","red"],"outcomes":[1,0,1],"key":37,"choice":0,"rt":226.4050000012503,"outcome":1,"trial":25,"correct":0,"trial_type":"three-arm-trial","trial_index":36,"time_elapsed":268416,"internal_node_id":"0.0-31.0-0.0","task_version":"screening-mturk","missing":false,"accuracy":1},{"contexts":["green","blue","red"],"outcomes":[1,0,0],"key":37,"choice":0,"rt":361.5800000006566,"outcome":1,"trial":26,"correct":0,"trial_type":"three-arm-trial","trial_index":37,"time_elapsed":269981,"internal_node_id":"0.0-32.0-0.0","task_version":"screening-mturk","missing":false,"accuracy":1},{"contexts":["green","blue","red"],"outcomes":[1,0,0],"key":37,"choice":0,"rt":150.11999999848194,"outcome":1,"trial":27,"correct":0,"trial_type":"three-arm-trial","trial_index":38,"time_elapsed":271336,"internal_node_id":"0.0-33.0-0.0","task_version":"screening-mturk","missing":false,"accuracy":1},{"contexts":["green","blue","red"],"outcomes":[0,0,1],"key":37,"choice":0,"rt":91.54999999736901,"outcome":0,"trial":28,"correct":0,"trial_type":"three-arm-trial","trial_index":39,"time_elapsed":272634,"internal_node_id":"0.0-34.0-0.0","task_version":"screening-mturk","missing":false,"accuracy":1},{"contexts":["green","blue","red"],"outcomes":[1,0,0],"key":38,"choice":1,"rt":77.95500000065658,"outcome":0,"trial":29,"correct":0,"trial_type":"three-arm-trial","trial_index":40,"time_elapsed":273920,"internal_node_id":"0.0-35.0-0.0","task_version":"screening-mturk","missing":false,"accuracy":0},{"contexts":["green","blue","red"],"outcomes":[1,0,0],"key":38,"choice":1,"rt":342.7499999998254,"outcome":0,"trial":30,"correct":0,"trial_type":"three-arm-trial","trial_index":41,"time_elapsed":275469,"internal_node_id":"0.0-36.0-0.0","task_version":"screening-mturk","missing":false,"accuracy":0},{"contexts":["green","blue","red"],"outcomes":[0,1,0],"key":39,"choice":2,"rt":186.0949999972945,"outcome":0,"trial":31,"correct":1,"trial_type":"three-arm-trial","trial_index":42,"time_elapsed":276861,"internal_node_id":"0.0-37.0-0.0","task_version":"screening-mturk","missing":false,"accuracy":0},{"contexts":["green","blue","red"],"outcomes":[0,1,0],"key":37,"choice":0,"rt":173.24500000179978,"outcome":0,"trial":32,"correct":1,"trial_type":"three-arm-trial","trial_index":43,"time_elapsed":278239,"internal_node_id":"0.0-38.0-0.0","task_version":"screening-mturk","missing":false,"accuracy":0},{"contexts":["green","blue","red"],"outcomes":[1,1,0],"key":39,"choice":2,"rt":109.6800000014482,"outcome":0,"trial":33,"correct":1,"trial_type":"three-arm-trial","trial_index":44,"time_elapsed":279553,"internal_node_id":"0.0-39.0-0.0","task_version":"screening-mturk","missing":false,"accuracy":0},{"contexts":["green","blue","red"],"outcomes":[0,1,0],"key":37,"choice":0,"rt":124.81499999924563,"outcome":0,"trial":34,"correct":1,"trial_type":"three-arm-trial","trial_index":45,"time_elapsed":280882,"internal_node_id":"0.0-40.0-0.0","task_version":"screening-mturk","missing":false,"accuracy":0},{"contexts":["green","blue","red"],"outcomes":[1,1,0],"key":38,"choice":1,"rt":202.40000000194414,"outcome":1,"trial":35,"correct":1,"trial_type":"three-arm-trial","trial_index":46,"time_elapsed":282288,"internal_node_id":"0.0-41.0-0.0","task_version":"screening-mturk","missing":false,"accuracy":1},{"contexts":["green","blue","red"],"outcomes":[0,1,0],"key":38,"choice":1,"rt":28.74499999958789,"outcome":1,"trial":36,"correct":1,"trial_type":"three-arm-trial","trial_index":47,"time_elapsed":283521,"internal_node_id":"0.0-42.0-0.0","task_version":"screening-mturk","missing":false,"accuracy":1},{"contexts":["green","blue","red"],"outcomes":[0,1,0],"key":38,"choice":1,"rt":85.3750000023283,"outcome":1,"trial":37,"correct":1,"trial_type":"three-arm-trial","trial_index":48,"time_elapsed":284816,"internal_node_id":"0.0-43.0-0.0","task_version":"screening-mturk","missing":false,"accuracy":1},{"contexts":["green","blue","red"],"outcomes":[0,1,0],"key":38,"choice":1,"rt":93.18500000156928,"outcome":1,"trial":38,"correct":1,"trial_type":"three-arm-trial","trial_index":49,"time_elapsed":286113,"internal_node_id":"0.0-44.0-0.0","task_version":"screening-mturk","missing":false,"accuracy":1},{"contexts":["green","blue","red"],"outcomes":[0,1,0],"key":38,"choice":1,"rt":23.639999999431893,"outcome":1,"trial":39,"correct":1,"trial_type":"three-arm-trial","trial_index":50,"time_elapsed":287341,"internal_node_id":"0.0-45.0-0.0","task_version":"screening-mturk","missing":false,"accuracy":1},{"contexts":["green","blue","red"],"outcomes":[0,1,0],"key":38,"choice":1,"rt":5.605000002135057,"outcome":1,"trial":40,"correct":1,"trial_type":"three-arm-trial","trial_index":51,"time_elapsed":288550,"internal_node_id":"0.0-46.0-0.0","task_version":"screening-mturk","missing":false,"accuracy":1},{"contexts":["green","blue","red"],"outcomes":[1,1,0],"key":38,"choice":1,"rt":433.984999999695,"outcome":1,"trial":41,"correct":1,"trial_type":"three-arm-trial","trial_index":52,"time_elapsed":290186,"internal_node_id":"0.0-47.0-0.0","task_version":"screening-mturk","missing":false,"accuracy":1},{"contexts":["green","blue","red"],"outcomes":[0,1,0],"key":38,"choice":1,"rt":151.74500000284752,"outcome":1,"trial":42,"correct":1,"trial_type":"three-arm-trial","trial_index":53,"time_elapsed":291542,"internal_node_id":"0.0-48.0-0.0","task_version":"screening-mturk","missing":false,"accuracy":1},{"contexts":["green","blue","red"],"outcomes":[0,1,0],"key":38,"choice":1,"rt":4.604999998235144,"outcome":1,"trial":43,"correct":1,"trial_type":"three-arm-trial","trial_index":54,"time_elapsed":292752,"internal_node_id":"0.0-49.0-0.0","task_version":"screening-mturk","missing":false,"accuracy":1},{"contexts":["green","blue","red"],"outcomes":[0,0,0],"key":38,"choice":1,"rt":389.97500000189757,"outcome":0,"trial":44,"correct":1,"trial_type":"three-arm-trial","trial_index":55,"time_elapsed":294347,"internal_node_id":"0.0-50.0-0.0","task_version":"screening-mturk","missing":false,"accuracy":1},{"contexts":["green","blue","red"],"outcomes":[0,0,0],"key":37,"choice":0,"rt":214.7000000004191,"outcome":0,"trial":45,"correct":1,"trial_type":"three-arm-trial","trial_index":56,"time_elapsed":295766,"internal_node_id":"0.0-51.0-0.0","task_version":"screening-mturk","missing":false,"accuracy":0},{"contexts":["green","blue","red"],"outcomes":[1,0,0],"key":39,"choice":2,"rt":117.26500000077067,"outcome":0,"trial":46,"correct":0,"trial_type":"three-arm-trial","trial_index":57,"time_elapsed":297086,"internal_node_id":"0.0-52.0-0.0","task_version":"screening-mturk","missing":false,"accuracy":0},{"contexts":["green","blue","red"],"outcomes":[0,1,1],"key":37,"choice":0,"rt":38.81499999988591,"outcome":0,"trial":47,"correct":0,"trial_type":"three-arm-trial","trial_index":58,"time_elapsed":298326,"internal_node_id":"0.0-53.0-0.0","task_version":"screening-mturk","missing":false,"accuracy":1},{"contexts":["green","blue","red"],"outcomes":[1,0,0],"key":38,"choice":1,"rt":68.50000000116415,"outcome":0,"trial":48,"correct":0,"trial_type":"three-arm-trial","trial_index":59,"time_elapsed":299597,"internal_node_id":"0.0-54.0-0.0","task_version":"screening-mturk","missing":false,"accuracy":0},{"contexts":["green","blue","red"],"outcomes":[1,0,0],"key":38,"choice":1,"rt":111.5749999989639,"outcome":0,"trial":49,"correct":0,"trial_type":"three-arm-trial","trial_index":60,"time_elapsed":300915,"internal_node_id":"0.0-55.0-0.0","task_version":"screening-mturk","missing":false,"accuracy":0},{"contexts":["green","blue","red"],"outcomes":[1,0,0],"key":37,"choice":0,"rt":94.6299999995972,"outcome":1,"trial":50,"correct":0,"trial_type":"three-arm-trial","trial_index":61,"time_elapsed":302214,"internal_node_id":"0.0-56.0-0.0","task_version":"screening-mturk","missing":false,"accuracy":1},{"contexts":["green","blue","red"],"outcomes":[1,1,0],"key":37,"choice":0,"rt":147.629999999539,"outcome":1,"trial":51,"correct":0,"trial_type":"three-arm-trial","trial_index":62,"time_elapsed":303565,"internal_node_id":"0.0-57.0-0.0","task_version":"screening-mturk","missing":false,"accuracy":1},{"contexts":["green","blue","red"],"outcomes":[1,0,0],"key":37,"choice":0,"rt":238.62000000005355,"outcome":1,"trial":52,"correct":0,"trial_type":"three-arm-trial","trial_index":63,"time_elapsed":305007,"internal_node_id":"0.0-58.0-0.0","task_version":"screening-mturk","missing":false,"accuracy":1},{"contexts":["green","blue","red"],"outcomes":[1,0,0],"key":37,"choice":0,"rt":139.33999999793014,"outcome":1,"trial":53,"correct":0,"trial_type":"three-arm-trial","trial_index":64,"time_elapsed":306351,"internal_node_id":"0.0-59.0-0.0","task_version":"screening-mturk","missing":false,"accuracy":1},{"contexts":["green","blue","red"],"outcomes":[1,0,1],"key":37,"choice":0,"rt":235.84499999927357,"outcome":1,"trial":54,"correct":0,"trial_type":"three-arm-trial","trial_index":65,"time_elapsed":307791,"internal_node_id":"0.0-60.0-0.0","task_version":"screening-mturk","missing":false,"accuracy":1},{"contexts":["green","blue","red"],"outcomes":[1,0,0],"key":37,"choice":0,"rt":144.51499999995576,"outcome":1,"trial":55,"correct":0,"trial_type":"three-arm-trial","trial_index":66,"time_elapsed":309140,"internal_node_id":"0.0-61.0-0.0","task_version":"screening-mturk","missing":false,"accuracy":1},{"contexts":["green","blue","red"],"outcomes":[1,0,0],"key":37,"choice":0,"rt":157.69499999802792,"outcome":1,"trial":56,"correct":0,"trial_type":"three-arm-trial","trial_index":67,"time_elapsed":310518,"internal_node_id":"0.0-62.0-0.0","task_version":"screening-mturk","missing":false,"accuracy":1},{"contexts":["green","blue","red"],"outcomes":[1,0,0],"key":37,"choice":0,"rt":17.195000000298023,"outcome":1,"trial":57,"correct":0,"trial_type":"three-arm-trial","trial_index":68,"time_elapsed":311741,"internal_node_id":"0.0-63.0-0.0","task_version":"screening-mturk","missing":false,"accuracy":1},{"contexts":["green","blue","red"],"outcomes":[1,1,0],"key":37,"choice":0,"rt":440.9249999989988,"outcome":1,"trial":58,"correct":0,"trial_type":"three-arm-trial","trial_index":69,"time_elapsed":313390,"internal_node_id":"0.0-64.0-0.0","task_version":"screening-mturk","missing":false,"accuracy":1},{"contexts":["green","blue","red"],"outcomes":[0,0,0],"key":37,"choice":0,"rt":156.7749999994994,"outcome":0,"trial":59,"correct":0,"trial_type":"three-arm-trial","trial_index":70,"time_elapsed":314750,"internal_node_id":"0.0-65.0-0.0","task_version":"screening-mturk","missing":false,"accuracy":1},{"contexts":["green","blue","red"],"outcomes":[0,0,0],"key":39,"choice":2,"rt":192.45000000228174,"outcome":0,"trial":60,"correct":0,"trial_type":"three-arm-trial","trial_index":71,"time_elapsed":316144,"internal_node_id":"0.0-66.0-0.0","task_version":"screening-mturk","missing":false,"accuracy":0},{"contexts":["green","blue","red"],"outcomes":[0,0,0],"key":38,"choice":1,"rt":71.50999999791384,"outcome":0,"trial":61,"correct":2,"trial_type":"three-arm-trial","trial_index":72,"time_elapsed":317420,"internal_node_id":"0.0-67.0-0.0","task_version":"screening-mturk","missing":false,"accuracy":0},{"contexts":["green","blue","red"],"outcomes":[0,0,1],"key":37,"choice":0,"rt":63.40500000078464,"outcome":0,"trial":62,"correct":2,"trial_type":"three-arm-trial","trial_index":73,"time_elapsed":318687,"internal_node_id":"0.0-68.0-0.0","task_version":"screening-mturk","missing":false,"accuracy":0},{"contexts":["green","blue","red"],"outcomes":[0,0,1],"key":37,"choice":0,"rt":162.83000000112224,"outcome":0,"trial":63,"correct":2,"trial_type":"three-arm-trial","trial_index":74,"time_elapsed":320054,"internal_node_id":"0.0-69.0-0.0","task_version":"screening-mturk","missing":false,"accuracy":0},{"contexts":["green","blue","red"],"outcomes":[1,0,1],"key":39,"choice":2,"rt":141.9449999994249,"outcome":1,"trial":64,"correct":2,"trial_type":"three-arm-trial","trial_index":75,"time_elapsed":321398,"internal_node_id":"0.0-70.0-0.0","task_version":"screening-mturk","missing":false,"accuracy":1},{"contexts":["green","blue","red"],"outcomes":[0,1,0],"key":39,"choice":2,"rt":94.10500000009779,"outcome":0,"trial":65,"correct":2,"trial_type":"three-arm-trial","trial_index":76,"time_elapsed":322696,"internal_node_id":"0.0-71.0-0.0","task_version":"screening-mturk","missing":false,"accuracy":1},{"contexts":["green","blue","red"],"outcomes":[0,0,1],"key":38,"choice":1,"rt":312.8850000030361,"outcome":0,"trial":66,"correct":2,"trial_type":"three-arm-trial","trial_index":77,"time_elapsed":324217,"internal_node_id":"0.0-72.0-0.0","task_version":"screening-mturk","missing":false,"accuracy":0},{"contexts":["green","blue","red"],"outcomes":[0,0,1],"key":39,"choice":2,"rt":59.44000000087544,"outcome":1,"trial":67,"correct":2,"trial_type":"three-arm-trial","trial_index":78,"time_elapsed":325481,"internal_node_id":"0.0-73.0-0.0","task_version":"screening-mturk","missing":false,"accuracy":1},{"contexts":["green","blue","red"],"outcomes":[1,0,0],"key":39,"choice":2,"rt":2.410000000963919,"outcome":0,"trial":68,"correct":2,"trial_type":"three-arm-trial","trial_index":79,"time_elapsed":326689,"internal_node_id":"0.0-74.0-0.0","task_version":"screening-mturk","missing":false,"accuracy":1},{"contexts":["green","blue","red"],"outcomes":[0,1,1],"key":39,"choice":2,"rt":60.129999998025596,"outcome":1,"trial":69,"correct":2,"trial_type":"three-arm-trial","trial_index":80,"time_elapsed":327953,"internal_node_id":"0.0-75.0-0.0","task_version":"screening-mturk","missing":false,"accuracy":1},{"contexts":["green","blue","red"],"outcomes":[1,0,1],"key":39,"choice":2,"rt":215.2799999967101,"outcome":1,"trial":70,"correct":2,"trial_type":"three-arm-trial","trial_index":81,"time_elapsed":329370,"internal_node_id":"0.0-76.0-0.0","task_version":"screening-mturk","missing":false,"accuracy":1},{"contexts":["green","blue","red"],"outcomes":[0,0,1],"key":39,"choice":2,"rt":380.9899999978952,"outcome":1,"trial":71,"correct":2,"trial_type":"three-arm-trial","trial_index":82,"time_elapsed":330954,"internal_node_id":"0.0-77.0-0.0","task_version":"screening-mturk","missing":false,"accuracy":1},{"contexts":["green","blue","red"],"outcomes":[0,0,1],"key":39,"choice":2,"rt":28.73000000178581,"outcome":1,"trial":72,"correct":2,"trial_type":"three-arm-trial","trial_index":83,"time_elapsed":332185,"internal_node_id":"0.0-78.0-0.0","task_version":"screening-mturk","missing":false,"accuracy":1},{"contexts":["green","blue","red"],"outcomes":[0,0,1],"key":39,"choice":2,"rt":307.6550000005518,"outcome":1,"trial":73,"correct":2,"trial_type":"three-arm-trial","trial_index":84,"time_elapsed":333695,"internal_node_id":"0.0-79.0-0.0","task_version":"screening-mturk","missing":false,"accuracy":1},{"contexts":["green","blue","red"],"outcomes":[0,0,1],"key":39,"choice":2,"rt":133.35499999811873,"outcome":1,"trial":74,"correct":2,"trial_type":"three-arm-trial","trial_index":85,"time_elapsed":335032,"internal_node_id":"0.0-80.0-0.0","task_version":"screening-mturk","missing":false,"accuracy":1},{"contexts":["green","blue","red"],"outcomes":[0,1,1],"key":39,"choice":2,"rt":77.44000000087544,"outcome":1,"trial":75,"correct":2,"trial_type":"three-arm-trial","trial_index":86,"time_elapsed":336314,"internal_node_id":"0.0-81.0-0.0","task_version":"screening-mturk","missing":false,"accuracy":1},{"contexts":["green","blue","red"],"outcomes":[0,1,0],"key":39,"choice":2,"rt":1.0249999976949766,"outcome":0,"trial":76,"correct":1,"trial_type":"three-arm-trial","trial_index":87,"time_elapsed":337519,"internal_node_id":"0.0-82.0-0.0","task_version":"screening-mturk","missing":false,"accuracy":0},{"contexts":["green","blue","red"],"outcomes":[0,1,0],"key":37,"choice":0,"rt":11.839999999210704,"outcome":0,"trial":77,"correct":1,"trial_type":"three-arm-trial","trial_index":88,"time_elapsed":338739,"internal_node_id":"0.0-83.0-0.0","task_version":"screening-mturk","missing":false,"accuracy":0},{"contexts":["green","blue","red"],"outcomes":[0,1,0],"key":38,"choice":1,"rt":253.86499999882653,"outcome":1,"trial":78,"correct":1,"trial_type":"three-arm-trial","trial_index":89,"time_elapsed":340197,"internal_node_id":"0.0-84.0-0.0","task_version":"screening-mturk","missing":false,"accuracy":1},{"contexts":["green","blue","red"],"outcomes":[0,1,0],"key":38,"choice":1,"rt":207.75999999744818,"outcome":1,"trial":79,"correct":1,"trial_type":"three-arm-trial","trial_index":90,"time_elapsed":341611,"internal_node_id":"0.0-85.0-0.0","task_version":"screening-mturk","missing":false,"accuracy":1},{"contexts":["green","blue","red"],"outcomes":[0,1,0],"key":38,"choice":1,"rt":150.4400000012247,"outcome":1,"trial":80,"correct":1,"trial_type":"three-arm-trial","trial_index":91,"time_elapsed":342965,"internal_node_id":"0.0-86.0-0.0","task_version":"screening-mturk","missing":false,"accuracy":1},{"contexts":["green","blue","red"],"outcomes":[0,1,0],"key":38,"choice":1,"rt":154.9300000005751,"outcome":1,"trial":81,"correct":1,"trial_type":"three-arm-trial","trial_index":92,"time_elapsed":344323,"internal_node_id":"0.0-87.0-0.0","task_version":"screening-mturk","missing":false,"accuracy":1},{"contexts":["green","blue","red"],"outcomes":[1,1,0],"key":38,"choice":1,"rt":119.8949999997858,"outcome":1,"trial":82,"correct":1,"trial_type":"three-arm-trial","trial_index":93,"time_elapsed":345647,"internal_node_id":"0.0-88.0-0.0","task_version":"screening-mturk","missing":false,"accuracy":1},{"contexts":["green","blue","red"],"outcomes":[0,0,0],"key":38,"choice":1,"rt":68.3950000021141,"outcome":0,"trial":83,"correct":1,"trial_type":"three-arm-trial","trial_index":94,"time_elapsed":346918,"internal_node_id":"0.0-89.0-0.0","task_version":"screening-mturk","missing":false,"accuracy":1},{"contexts":["green","blue","red"],"outcomes":[0,1,0],"key":38,"choice":1,"rt":451.21999999904074,"outcome":1,"trial":84,"correct":1,"trial_type":"three-arm-trial","trial_index":95,"time_elapsed":348573,"internal_node_id":"0.0-90.0-0.0","task_version":"screening-mturk","missing":false,"accuracy":1},{"contexts":["green","blue","red"],"outcomes":[0,1,0],"key":38,"choice":1,"rt":295.459999997518,"outcome":1,"trial":85,"correct":1,"trial_type":"three-arm-trial","trial_index":96,"time_elapsed":350070,"internal_node_id":"0.0-91.0-0.0","task_version":"screening-mturk","missing":false,"accuracy":1},{"contexts":["green","blue","red"],"outcomes":[0,1,0],"key":38,"choice":1,"rt":178.0350000007893,"outcome":1,"trial":86,"correct":1,"trial_type":"three-arm-trial","trial_index":97,"time_elapsed":351451,"internal_node_id":"0.0-92.0-0.0","task_version":"screening-mturk","missing":false,"accuracy":1},{"contexts":["green","blue","red"],"outcomes":[0,0,0],"key":38,"choice":1,"rt":69.22000000119442,"outcome":0,"trial":87,"correct":1,"trial_type":"three-arm-trial","trial_index":98,"time_elapsed":352724,"internal_node_id":"0.0-93.0-0.0","task_version":"screening-mturk","missing":false,"accuracy":1},{"contexts":["green","blue","red"],"outcomes":[0,0,0],"key":38,"choice":1,"rt":9.185000002617016,"outcome":0,"trial":88,"correct":1,"trial_type":"three-arm-trial","trial_index":99,"time_elapsed":353937,"internal_node_id":"0.0-94.0-0.0","task_version":"screening-mturk","missing":false,"accuracy":1},{"contexts":["green","blue","red"],"outcomes":[0,1,0],"key":38,"choice":1,"rt":33.47000000218395,"outcome":1,"trial":89,"correct":1,"trial_type":"three-arm-trial","trial_index":100,"time_elapsed":355175,"internal_node_id":"0.0-95.0-0.0","task_version":"screening-mturk","missing":false,"accuracy":1},{"contexts":["green","blue","red"],"outcomes":[0,1,1],"key":38,"choice":1,"rt":217.60999999963678,"outcome":1,"trial":90,"correct":1,"trial_type":"three-arm-trial","trial_index":101,"time_elapsed":356596,"internal_node_id":"0.0-96.0-0.0","task_version":"screening-mturk","missing":false,"accuracy":1},{"rt":20528.300000001735,"responses":{"age":"41","gender-categorical":"Male","gender-free-response":"","ethnicity":"Not Hispanic or Latino","race":["Asian"],"language":"Yes","fluency":"Very well","prolific":"Yes","prolific-this-study":"No"},"survey":"demographics","trial_type":"survey-demo","trial_index":102,"time_elapsed":377135,"internal_node_id":"0.0-97.0","task_version":"screening-mturk","interactions":"[{\"event\":\"blur\",\"trial\":4,\"time\":88363},{\"event\":\"focus\",\"trial\":4,\"time\":88625},{\"event\":\"blur\",\"trial\":6,\"time\":127418},{\"event\":\"focus\",\"trial\":6,\"time\":128493},{\"event\":\"blur\",\"trial\":9,\"time\":207639},{\"event\":\"focus\",\"trial\":9,\"time\":209187}]"}]