[{"responses":{"Q03":"3","Q01":"3","Q02":"4"},"rt":6968.560000183061,"survey":"pswq","trial_type":"survey-template","trial_index":0,"time_elapsed":6981,"internal_node_id":"0.0-0.0","task_version":"screening-mturk"},{"responses":{"Q09":"2","Q06":"2","Q08":"3","Q11":"3","Q05":"3","Q04":"2","Q15":"3","Q12":"1","Q03":"2","Q02":"3","Q13":"2","Q14":"3","Q01":"1","Q10":"2","Q07":"3"},"rt":27902.815000154078,"survey":"shaps","trial_type":"survey-template","trial_index":1,"time_elapsed":34894,"internal_node_id":"0.0-1.0","task_version":"screening-mturk"},{"responses":{"Q12":"2","Q07":"3","Q09":"2","Q03":"2","Q04":"3","Q10":"3","Q11":"2","Q08":"2","Q01":"2","Q02":"3","Q13":"2","Q05":"1","Q06":"3","Q14":"2","Q15":"3"},"rt":26945.64999989234,"survey":"7up7down","trial_type":"survey-template","trial_index":2,"time_elapsed":61844,"internal_node_id":"0.0-2.0","task_version":"screening-mturk"},{"responses":{"Q03":"2","Q02":"3","Q08":"3","Q01":"1","Q09":"2","Q13":"3","Q10":"2","Q12":"2","Q07":"3","Q05":"1","Q06":"1","Q04":"2","Q11":"3"},"rt":20722.47499995865,"survey":"bisbas","trial_type":"survey-template","trial_index":3,"time_elapsed":82573,"internal_node_id":"0.0-3.0","task_version":"screening-mturk"},{"responses":{"Q04":"2","Q03":"3","Q07":"1","Q08":"1","Q05":"2","Q01":"3","Q02":"2","Q06":"2"},"rt":12550.00999988988,"survey":"gad7","trial_type":"survey-template","trial_index":4,"time_elapsed":95126,"internal_node_id":"0.0-4.0","task_version":"screening-mturk"},{"view_history":"[{\"page_index\":0,\"viewing_time\":9316.434999927878},{\"page_index\":1,\"viewing_time\":4929.4700000900775},{\"page_index\":2,\"viewing_time\":3794.770000036806},{\"page_index\":3,\"viewing_time\":3669.9200000148267},{\"page_index\":4,\"viewing_time\":1096.129999961704},{\"page_index\":5,\"viewing_time\":1003.6799998488277},{\"page_index\":6,\"viewing_time\":619.8950000107288},{\"page_index\":7,\"viewing_time\":625.0350000336766}]","rt":25056.194999953732,"trial_type":"instructions","trial_index":5,"time_elapsed":120184,"internal_node_id":"0.0-5.0-0.0","task_version":"screening-mturk"},{"responses":["True","True","True","False","True"],"num_errors":1,"rt":21866.4249998983,"trial_type":"three-arm-comprehension","trial_index":6,"time_elapsed":142057,"internal_node_id":"0.0-5.0-1.0","task_version":"screening-mturk"},{"view_history":"[{\"page_index\":0,\"viewing_time\":1599.8199998866767},{\"page_index\":1,\"viewing_time\":735.1500000804663},{\"page_index\":2,\"viewing_time\":499.7499999590218},{\"page_index\":3,\"viewing_time\":554.9149999860674},{\"page_index\":4,\"viewing_time\":865.0750000961125},{\"page_index\":5,\"viewing_time\":756.1899998690933},{\"page_index\":6,\"viewing_time\":873.630000045523},{\"page_index\":7,\"viewing_time\":765.0399999693036}]","rt":6649.890000000596,"trial_type":"instructions","trial_index":7,"time_elapsed":148710,"internal_node_id":"0.0-5.1-0.1","task_version":"screening-mturk"},{"responses":["True","True","True","False","True"],"num_errors":1,"rt":12477.729999925941,"trial_type":"three-arm-comprehension","trial_index":8,"time_elapsed":161191,"internal_node_id":"0.0-5.1-1.1","task_version":"screening-mturk"},{"view_history":"[{\"page_index\":0,\"viewing_time\":3782.920000143349},{\"page_index\":1,\"viewing_time\":223.43999985605478},{\"page_index\":2,\"viewing_time\":224.8050000052899},{\"page_index\":3,\"viewing_time\":239.84499997459352},{\"page_index\":4,\"viewing_time\":189.9200000334531},{\"page_index\":5,\"viewing_time\":440.0049999821931},{\"page_index\":6,\"viewing_time\":630.3950001019984},{\"page_index\":7,\"viewing_time\":599.4599999394268}]","rt":6331.11000014469,"trial_type":"instructions","trial_index":9,"time_elapsed":167524,"internal_node_id":"0.0-5.2-0.2","task_version":"screening-mturk"},{"responses":["True","True","False","True","True"],"num_errors":1,"rt":7518.939999863505,"trial_type":"three-arm-comprehension","trial_index":10,"time_elapsed":175045,"internal_node_id":"0.0-5.2-1.2","task_version":"screening-mturk"},{"view_history":"[{\"page_index\":0,\"viewing_time\":2637.2950000222772},{\"page_index\":1,\"viewing_time\":238.36499988101423},{\"page_index\":2,\"viewing_time\":277.9500000178814},{\"page_index\":3,\"viewing_time\":237.07500007003546},{\"page_index\":4,\"viewing_time\":249.94999985210598},{\"page_index\":5,\"viewing_time\":270.08000016212463},{\"page_index\":6,\"viewing_time\":1124.8099999502301},{\"page_index\":7,\"viewing_time\":690.1350000407547}]","rt":5725.934999994934,"trial_type":"instructions","trial_index":11,"time_elapsed":180773,"internal_node_id":"0.0-5.3-0.3","task_version":"screening-mturk"},{"responses":["True","False","False","True","False"],"num_errors":3,"rt":7978.424999862909,"trial_type":"three-arm-comprehension","trial_index":12,"time_elapsed":188754,"internal_node_id":"0.0-5.3-1.3","task_version":"screening-mturk"},{"view_history":"[{\"page_index\":0,\"viewing_time\":1821.8950000591576},{\"page_index\":1,\"viewing_time\":275.35000001080334},{\"page_index\":2,\"viewing_time\":263.8250000309199},{\"page_index\":3,\"viewing_time\":204.87999985925853},{\"page_index\":4,\"viewing_time\":225.31000012531877},{\"page_index\":5,\"viewing_time\":224.94499990716577},{\"page_index\":6,\"viewing_time\":684.855000115931},{\"page_index\":7,\"viewing_time\":789.979999884963}]","rt":4491.314999992028,"trial_type":"instructions","trial_index":13,"time_elapsed":193247,"internal_node_id":"0.0-5.4-0.4","task_version":"screening-mturk"},{"responses":["True","True","False","True","True"],"num_errors":1,"rt":7388.895000098273,"trial_type":"three-arm-comprehension","trial_index":14,"time_elapsed":200642,"internal_node_id":"0.0-5.4-1.4","task_version":"screening-mturk"},{"view_history":"[{\"page_index\":0,\"viewing_time\":1609.7800000570714},{\"page_index\":1,\"viewing_time\":300.16999994404614},{\"page_index\":2,\"viewing_time\":224.68500002287328},{\"page_index\":3,\"viewing_time\":189.83999988995492},{\"page_index\":4,\"viewing_time\":245.40500016883016},{\"page_index\":5,\"viewing_time\":224.76499993354082},{\"page_index\":6,\"viewing_time\":250.08499994874},{\"page_index\":7,\"viewing_time\":229.8600000794977}]","rt":3274.890000000596,"trial_type":"instructions","trial_index":15,"time_elapsed":203920,"internal_node_id":"0.0-5.5-0.5","task_version":"screening-mturk"},{"responses":["True","False","False","True","True"],"num_errors":2,"rt":7033.8550000451505,"trial_type":"three-arm-comprehension","trial_index":16,"time_elapsed":210956,"internal_node_id":"0.0-5.5-1.5","task_version":"screening-mturk"},{"view_history":"[{\"page_index\":0,\"viewing_time\":1166.495000012219},{\"page_index\":1,\"viewing_time\":215.0050001218915},{\"page_index\":2,\"viewing_time\":239.89999992772937},{\"page_index\":3,\"viewing_time\":194.785000057891},{\"page_index\":4,\"viewing_time\":204.8449998255819},{\"page_index\":5,\"viewing_time\":224.9850002117455},{\"page_index\":6,\"viewing_time\":225.05499981343746},{\"page_index\":7,\"viewing_time\":270.0100000947714}]","rt":2741.3699999451637,"trial_type":"instructions","trial_index":17,"time_elapsed":213700,"internal_node_id":"0.0-5.6-0.6","task_version":"screening-mturk"},{"responses":["False","False","True","True","False"],"num_errors":5,"rt":7673.479999881238,"trial_type":"three-arm-comprehension","trial_index":18,"time_elapsed":221376,"internal_node_id":"0.0-5.6-1.6","task_version":"screening-mturk"},{"view_history":"[{\"page_index\":0,\"viewing_time\":3861.0999998636544},{\"page_index\":1,\"viewing_time\":194.66500007547438},{\"page_index\":2,\"viewing_time\":160.35500005818903},{\"page_index\":3,\"viewing_time\":195.70499984547496},{\"page_index\":4,\"viewing_time\":173.88000013306737},{\"page_index\":5,\"viewing_time\":175.04499992355704},{\"page_index\":6,\"viewing_time\":159.99000007286668},{\"page_index\":7,\"viewing_time\":554.8849999904633}]","rt":5475.899999961257,"trial_type":"instructions","trial_index":19,"time_elapsed":226854,"internal_node_id":"0.0-5.7-0.7","task_version":"screening-mturk"},{"responses":["True","False","False","True","True"],"num_errors":2,"rt":8056.824999861419,"trial_type":"three-arm-comprehension","trial_index":20,"time_elapsed":234913,"internal_node_id":"0.0-5.7-1.7","task_version":"screening-mturk"},{"view_history":"[{\"page_index\":0,\"viewing_time\":2538.040000014007},{\"page_index\":1,\"viewing_time\":294.86000002361834},{\"page_index\":2,\"viewing_time\":185.3349998127669},{\"page_index\":3,\"viewing_time\":247.5100001320243},{\"page_index\":4,\"viewing_time\":147.1400000154972},{\"page_index\":5,\"viewing_time\":210.0599999539554},{\"page_index\":6,\"viewing_time\":210.01999988220632},{\"page_index\":7,\"viewing_time\":185.03500008955598}]","rt":4018.404999980703,"trial_type":"instructions","trial_index":21,"time_elapsed":238933,"internal_node_id":"0.0-5.8-0.8","task_version":"screening-mturk"},{"responses":["True","True","False","False","True"],"num_errors":0,"rt":9263.260000152513,"trial_type":"three-arm-comprehension","trial_index":22,"time_elapsed":248199,"internal_node_id":"0.0-5.8-1.8","task_version":"screening-mturk"},{"view_history":"[{\"page_index\":0,\"viewing_time\":3302.2600000258535}]","rt":3302.6600000448525,"trial_type":"instructions","trial_index":23,"time_elapsed":251504,"internal_node_id":"0.0-6.0","task_version":"screening-mturk"},{"contexts":["red","green","blue"],"outcomes":[1,0,1],"key":39,"choice":2,"rt":897.6549999788404,"outcome":1,"trial":1,"correct":0,"trial_type":"three-arm-trial","trial_index":24,"time_elapsed":253605,"internal_node_id":"0.0-7.0-0.0","task_version":"screening-mturk","missing":false,"accuracy":0},{"contexts":["red","green","blue"],"outcomes":[1,0,0],"key":39,"choice":2,"rt":190.98499999381602,"outcome":0,"trial":2,"correct":0,"trial_type":"three-arm-trial","trial_index":25,"time_elapsed":255000,"internal_node_id":"0.0-8.0-0.0","task_version":"screening-mturk","missing":false,"accuracy":0},{"contexts":["red","green","blue"],"outcomes":[1,0,1],"key":39,"choice":2,"rt":136.07500004582107,"outcome":1,"trial":3,"correct":0,"trial_type":"three-arm-trial","trial_index":26,"time_elapsed":256338,"internal_node_id":"0.0-9.0-0.0","task_version":"screening-mturk","missing":false,"accuracy":0},{"contexts":["red","green","blue"],"outcomes":[1,0,0],"key":39,"choice":2,"rt":188.21999989449978,"outcome":0,"trial":4,"correct":0,"trial_type":"three-arm-trial","trial_index":27,"time_elapsed":257729,"internal_node_id":"0.0-10.0-0.0","task_version":"screening-mturk","missing":false,"accuracy":0},{"contexts":["red","green","blue"],"outcomes":[1,0,1],"key":39,"choice":2,"rt":506.8749999627471,"outcome":1,"trial":5,"correct":0,"trial_type":"three-arm-trial","trial_index":28,"time_elapsed":259441,"internal_node_id":"0.0-11.0-0.0","task_version":"screening-mturk","missing":false,"accuracy":0},{"contexts":["red","green","blue"],"outcomes":[1,1,0],"key":37,"choice":0,"rt":1604.300000006333,"outcome":1,"trial":6,"correct":0,"trial_type":"three-arm-trial","trial_index":29,"time_elapsed":262253,"internal_node_id":"0.0-12.0-0.0","task_version":"screening-mturk","missing":false,"accuracy":1},{"contexts":["red","green","blue"],"outcomes":[1,1,0],"key":37,"choice":0,"rt":2404.15499988012,"outcome":1,"trial":7,"correct":0,"trial_type":"three-arm-trial","trial_index":30,"time_elapsed":265860,"internal_node_id":"0.0-13.0-0.0","task_version":"screening-mturk","missing":false,"accuracy":1},{"contexts":["red","green","blue"],"outcomes":[1,0,0],"key":37,"choice":0,"rt":337.4550000298768,"outcome":1,"trial":8,"correct":0,"trial_type":"three-arm-trial","trial_index":31,"time_elapsed":267400,"internal_node_id":"0.0-14.0-0.0","task_version":"screening-mturk","missing":false,"accuracy":1},{"contexts":["red","green","blue"],"outcomes":[1,0,0],"key":37,"choice":0,"rt":243.9600001089275,"outcome":1,"trial":9,"correct":0,"trial_type":"three-arm-trial","trial_index":32,"time_elapsed":268847,"internal_node_id":"0.0-15.0-0.0","task_version":"screening-mturk","missing":false,"accuracy":1},{"contexts":["red","green","blue"],"outcomes":[1,0,0],"key":37,"choice":0,"rt":781.3800000585616,"outcome":1,"trial":10,"correct":0,"trial_type":"three-arm-trial","trial_index":33,"time_elapsed":270831,"internal_node_id":"0.0-16.0-0.0","task_version":"screening-mturk","missing":false,"accuracy":1},{"contexts":["red","green","blue"],"outcomes":[1,0,0],"key":38,"choice":1,"rt":1837.095000082627,"outcome":0,"trial":11,"correct":0,"trial_type":"three-arm-trial","trial_index":34,"time_elapsed":273871,"internal_node_id":"0.0-17.0-0.0","task_version":"screening-mturk","missing":false,"accuracy":0},{"contexts":["red","green","blue"],"outcomes":[1,0,1],"key":39,"choice":2,"rt":1523.2750000432134,"outcome":1,"trial":12,"correct":0,"trial_type":"three-arm-trial","trial_index":35,"time_elapsed":276598,"internal_node_id":"0.0-18.0-0.0","task_version":"screening-mturk","missing":false,"accuracy":0},{"contexts":["red","green","blue"],"outcomes":[1,0,0],"key":38,"choice":1,"rt":816.2599999923259,"outcome":0,"trial":13,"correct":0,"trial_type":"three-arm-trial","trial_index":36,"time_elapsed":278616,"internal_node_id":"0.0-19.0-0.0","task_version":"screening-mturk","missing":false,"accuracy":0},{"contexts":["red","green","blue"],"outcomes":[1,0,1],"key":39,"choice":2,"rt":712.7000000327826,"outcome":1,"trial":14,"correct":0,"trial_type":"three-arm-trial","trial_index":37,"time_elapsed":280534,"internal_node_id":"0.0-20.0-0.0","task_version":"screening-mturk","missing":false,"accuracy":0},{"contexts":["red","green","blue"],"outcomes":[1,1,0],"key":37,"choice":0,"rt":492.84500000067055,"outcome":1,"trial":15,"correct":0,"trial_type":"three-arm-trial","trial_index":38,"time_elapsed":282234,"internal_node_id":"0.0-21.0-0.0","task_version":"screening-mturk","missing":false,"accuracy":1},{"contexts":["red","green","blue"],"outcomes":[0,1,0],"key":37,"choice":0,"rt":53.40999993495643,"outcome":0,"trial":16,"correct":2,"trial_type":"three-arm-trial","trial_index":39,"time_elapsed":283491,"internal_node_id":"0.0-22.0-0.0","task_version":"screening-mturk","missing":false,"accuracy":0},{"contexts":["red","green","blue"],"outcomes":[0,0,1],"key":37,"choice":0,"rt":606.900000013411,"outcome":0,"trial":17,"correct":2,"trial_type":"three-arm-trial","trial_index":40,"time_elapsed":285302,"internal_node_id":"0.0-23.0-0.0","task_version":"screening-mturk","missing":false,"accuracy":0},{"contexts":["red","green","blue"],"outcomes":[0,0,1],"key":37,"choice":0,"rt":227.18499996699393,"outcome":0,"trial":18,"correct":2,"trial_type":"three-arm-trial","trial_index":41,"time_elapsed":286732,"internal_node_id":"0.0-24.0-0.0","task_version":"screening-mturk","missing":false,"accuracy":0},{"contexts":["red","green","blue"],"outcomes":[0,0,1],"key":37,"choice":0,"rt":12.235000031068921,"outcome":0,"trial":19,"correct":2,"trial_type":"three-arm-trial","trial_index":42,"time_elapsed":287946,"internal_node_id":"0.0-25.0-0.0","task_version":"screening-mturk","missing":false,"accuracy":0},{"contexts":["red","green","blue"],"outcomes":[0,1,1],"key":37,"choice":0,"rt":61.960000079125166,"outcome":0,"trial":20,"correct":2,"trial_type":"three-arm-trial","trial_index":43,"time_elapsed":289212,"internal_node_id":"0.0-26.0-0.0","task_version":"screening-mturk","missing":false,"accuracy":0},{"contexts":["red","green","blue"],"outcomes":[0,0,1],"key":37,"choice":0,"rt":161.00499988533556,"outcome":0,"trial":21,"correct":2,"trial_type":"three-arm-trial","trial_index":44,"time_elapsed":290576,"internal_node_id":"0.0-27.0-0.0","task_version":"screening-mturk","missing":false,"accuracy":0},{"contexts":["red","green","blue"],"outcomes":[0,0,1],"key":37,"choice":0,"rt":2171.760000055656,"outcome":0,"trial":22,"correct":2,"trial_type":"three-arm-trial","trial_index":45,"time_elapsed":293950,"internal_node_id":"0.0-28.0-0.0","task_version":"screening-mturk","missing":false,"accuracy":0},{"contexts":["red","green","blue"],"outcomes":[0,0,0],"key":37,"choice":0,"rt":602.8849999420345,"outcome":0,"trial":23,"correct":2,"trial_type":"three-arm-trial","trial_index":46,"time_elapsed":295756,"internal_node_id":"0.0-29.0-0.0","task_version":"screening-mturk","missing":false,"accuracy":0},{"contexts":["red","green","blue"],"outcomes":[1,0,1],"key":39,"choice":2,"rt":1126.094999955967,"outcome":1,"trial":24,"correct":2,"trial_type":"three-arm-trial","trial_index":47,"time_elapsed":298084,"internal_node_id":"0.0-30.0-0.0","task_version":"screening-mturk","missing":false,"accuracy":1},{"contexts":["red","green","blue"],"outcomes":[0,0,1],"key":39,"choice":2,"rt":643.5399998445064,"outcome":1,"trial":25,"correct":2,"trial_type":"three-arm-trial","trial_index":48,"time_elapsed":299931,"internal_node_id":"0.0-31.0-0.0","task_version":"screening-mturk","missing":false,"accuracy":1},{"contexts":["red","green","blue"],"outcomes":[0,0,1],"key":39,"choice":2,"rt":605.7500001043081,"outcome":1,"trial":26,"correct":2,"trial_type":"three-arm-trial","trial_index":49,"time_elapsed":301739,"internal_node_id":"0.0-32.0-0.0","task_version":"screening-mturk","missing":false,"accuracy":1},{"contexts":["red","green","blue"],"outcomes":[0,0,0],"key":39,"choice":2,"rt":607.9249999020249,"outcome":0,"trial":27,"correct":2,"trial_type":"three-arm-trial","trial_index":50,"time_elapsed":303551,"internal_node_id":"0.0-33.0-0.0","task_version":"screening-mturk","missing":false,"accuracy":1},{"contexts":["red","green","blue"],"outcomes":[0,0,1],"key":39,"choice":2,"rt":690.1249999646097,"outcome":1,"trial":28,"correct":2,"trial_type":"three-arm-trial","trial_index":51,"time_elapsed":305444,"internal_node_id":"0.0-34.0-0.0","task_version":"screening-mturk","missing":false,"accuracy":1},{"contexts":["red","green","blue"],"outcomes":[0,0,1],"key":39,"choice":2,"rt":647.5750000681728,"outcome":1,"trial":29,"correct":2,"trial_type":"three-arm-trial","trial_index":52,"time_elapsed":307296,"internal_node_id":"0.0-35.0-0.0","task_version":"screening-mturk","missing":false,"accuracy":1},{"contexts":["red","green","blue"],"outcomes":[0,0,0],"key":39,"choice":2,"rt":626.4649999793619,"outcome":0,"trial":30,"correct":2,"trial_type":"three-arm-trial","trial_index":53,"time_elapsed":309125,"internal_node_id":"0.0-36.0-0.0","task_version":"screening-mturk","missing":false,"accuracy":1},{"contexts":["red","green","blue"],"outcomes":[1,1,1],"key":39,"choice":2,"rt":720.9850000217557,"outcome":1,"trial":31,"correct":0,"trial_type":"three-arm-trial","trial_index":54,"time_elapsed":311048,"internal_node_id":"0.0-37.0-0.0","task_version":"screening-mturk","missing":false,"accuracy":0},{"contexts":["red","green","blue"],"outcomes":[1,0,0],"key":39,"choice":2,"rt":1013.8950000982732,"outcome":0,"trial":32,"correct":0,"trial_type":"three-arm-trial","trial_index":55,"time_elapsed":313265,"internal_node_id":"0.0-38.0-0.0","task_version":"screening-mturk","missing":false,"accuracy":0},{"contexts":["red","green","blue"],"outcomes":[1,0,0],"key":39,"choice":2,"rt":465.46499989926815,"outcome":0,"trial":33,"correct":0,"trial_type":"three-arm-trial","trial_index":56,"time_elapsed":314934,"internal_node_id":"0.0-39.0-0.0","task_version":"screening-mturk","missing":false,"accuracy":0},{"contexts":["red","green","blue"],"outcomes":[1,1,0],"key":39,"choice":2,"rt":1756.4650001004338,"outcome":0,"trial":34,"correct":0,"trial_type":"three-arm-trial","trial_index":57,"time_elapsed":317893,"internal_node_id":"0.0-40.0-0.0","task_version":"screening-mturk","missing":false,"accuracy":0},{"contexts":["red","green","blue"],"outcomes":[0,1,1],"key":39,"choice":2,"rt":894.7349998634309,"outcome":1,"trial":35,"correct":0,"trial_type":"three-arm-trial","trial_index":58,"time_elapsed":319991,"internal_node_id":"0.0-41.0-0.0","task_version":"screening-mturk","missing":false,"accuracy":0},{"contexts":["red","green","blue"],"outcomes":[0,0,0],"key":39,"choice":2,"rt":29.16999999433756,"outcome":0,"trial":36,"correct":0,"trial_type":"three-arm-trial","trial_index":59,"time_elapsed":321227,"internal_node_id":"0.0-42.0-0.0","task_version":"screening-mturk","missing":false,"accuracy":0},{"contexts":["red","green","blue"],"outcomes":[1,0,0],"key":39,"choice":2,"rt":87.38499996252358,"outcome":0,"trial":37,"correct":0,"trial_type":"three-arm-trial","trial_index":60,"time_elapsed":322517,"internal_node_id":"0.0-43.0-0.0","task_version":"screening-mturk","missing":false,"accuracy":0},{"contexts":["red","green","blue"],"outcomes":[1,1,1],"key":39,"choice":2,"rt":521.3550000917166,"outcome":1,"trial":38,"correct":0,"trial_type":"three-arm-trial","trial_index":61,"time_elapsed":324241,"internal_node_id":"0.0-44.0-0.0","task_version":"screening-mturk","missing":false,"accuracy":0},{"contexts":["red","green","blue"],"outcomes":[0,0,0],"key":39,"choice":2,"rt":108.47499989904463,"outcome":0,"trial":39,"correct":0,"trial_type":"three-arm-trial","trial_index":62,"time_elapsed":325553,"internal_node_id":"0.0-45.0-0.0","task_version":"screening-mturk","missing":false,"accuracy":0},{"contexts":["red","green","blue"],"outcomes":[0,1,0],"key":39,"choice":2,"rt":439.6850001066923,"outcome":0,"trial":40,"correct":0,"trial_type":"three-arm-trial","trial_index":63,"time_elapsed":327196,"internal_node_id":"0.0-46.0-0.0","task_version":"screening-mturk","missing":false,"accuracy":0},{"contexts":["red","green","blue"],"outcomes":[1,1,0],"key":39,"choice":2,"rt":161.66500002145767,"outcome":0,"trial":41,"correct":0,"trial_type":"three-arm-trial","trial_index":64,"time_elapsed":328564,"internal_node_id":"0.0-47.0-0.0","task_version":"screening-mturk","missing":false,"accuracy":0},{"contexts":["red","green","blue"],"outcomes":[0,0,0],"key":39,"choice":2,"rt":481.10500001348555,"outcome":0,"trial":42,"correct":0,"trial_type":"three-arm-trial","trial_index":65,"time_elapsed":330247,"internal_node_id":"0.0-48.0-0.0","task_version":"screening-mturk","missing":false,"accuracy":0},{"contexts":["red","green","blue"],"outcomes":[1,0,1],"key":37,"choice":0,"rt":565.510000102222,"outcome":1,"trial":43,"correct":0,"trial_type":"three-arm-trial","trial_index":66,"time_elapsed":332015,"internal_node_id":"0.0-49.0-0.0","task_version":"screening-mturk","missing":false,"accuracy":1},{"contexts":["red","green","blue"],"outcomes":[0,0,1],"key":37,"choice":0,"rt":612.4400000553578,"outcome":0,"trial":44,"correct":0,"trial_type":"three-arm-trial","trial_index":67,"time_elapsed":333830,"internal_node_id":"0.0-50.0-0.0","task_version":"screening-mturk","missing":false,"accuracy":1},{"contexts":["red","green","blue"],"outcomes":[1,1,1],"key":37,"choice":0,"rt":142.98499980941415,"outcome":1,"trial":45,"correct":0,"trial_type":"three-arm-trial","trial_index":68,"time_elapsed":335175,"internal_node_id":"0.0-51.0-0.0","task_version":"screening-mturk","missing":false,"accuracy":1},{"contexts":["red","green","blue"],"outcomes":[0,0,0],"key":37,"choice":0,"rt":642.6699999719858,"outcome":0,"trial":46,"correct":1,"trial_type":"three-arm-trial","trial_index":69,"time_elapsed":337022,"internal_node_id":"0.0-52.0-0.0","task_version":"screening-mturk","missing":false,"accuracy":0},{"contexts":["red","green","blue"],"outcomes":[0,0,0],"key":37,"choice":0,"rt":545.4399997834116,"outcome":0,"trial":47,"correct":1,"trial_type":"three-arm-trial","trial_index":70,"time_elapsed":338771,"internal_node_id":"0.0-53.0-0.0","task_version":"screening-mturk","missing":false,"accuracy":0},{"contexts":["red","green","blue"],"outcomes":[0,1,0],"key":37,"choice":0,"rt":259.39499982632697,"outcome":0,"trial":48,"correct":1,"trial_type":"three-arm-trial","trial_index":71,"time_elapsed":340234,"internal_node_id":"0.0-54.0-0.0","task_version":"screening-mturk","missing":false,"accuracy":0},{"contexts":["red","green","blue"],"outcomes":[1,1,0],"key":37,"choice":0,"rt":549.7549998108298,"outcome":1,"trial":49,"correct":1,"trial_type":"three-arm-trial","trial_index":72,"time_elapsed":341987,"internal_node_id":"0.0-55.0-0.0","task_version":"screening-mturk","missing":false,"accuracy":0},{"contexts":["red","green","blue"],"outcomes":[1,1,0],"key":37,"choice":0,"rt":463.32500013522804,"outcome":1,"trial":50,"correct":1,"trial_type":"three-arm-trial","trial_index":73,"time_elapsed":343654,"internal_node_id":"0.0-56.0-0.0","task_version":"screening-mturk","missing":false,"accuracy":0},{"contexts":["red","green","blue"],"outcomes":[0,1,0],"key":37,"choice":0,"rt":423.0150000657886,"outcome":0,"trial":51,"correct":1,"trial_type":"three-arm-trial","trial_index":74,"time_elapsed":345280,"internal_node_id":"0.0-57.0-0.0","task_version":"screening-mturk","missing":false,"accuracy":0},{"contexts":["red","green","blue"],"outcomes":[1,1,0],"key":37,"choice":0,"rt":486.50500015355647,"outcome":1,"trial":52,"correct":1,"trial_type":"three-arm-trial","trial_index":75,"time_elapsed":346969,"internal_node_id":"0.0-58.0-0.0","task_version":"screening-mturk","missing":false,"accuracy":0},{"contexts":["red","green","blue"],"outcomes":[1,1,0],"key":37,"choice":0,"rt":292.62500000186265,"outcome":1,"trial":53,"correct":1,"trial_type":"three-arm-trial","trial_index":76,"time_elapsed":348464,"internal_node_id":"0.0-59.0-0.0","task_version":"screening-mturk","missing":false,"accuracy":0},{"contexts":["red","green","blue"],"outcomes":[1,1,1],"key":37,"choice":0,"rt":487.20999993383884,"outcome":1,"trial":54,"correct":1,"trial_type":"three-arm-trial","trial_index":77,"time_elapsed":350154,"internal_node_id":"0.0-60.0-0.0","task_version":"screening-mturk","missing":false,"accuracy":0},{"contexts":["red","green","blue"],"outcomes":[0,0,0],"key":37,"choice":0,"rt":307.8850000165403,"outcome":0,"trial":55,"correct":1,"trial_type":"three-arm-trial","trial_index":78,"time_elapsed":351665,"internal_node_id":"0.0-61.0-0.0","task_version":"screening-mturk","missing":false,"accuracy":0},{"contexts":["red","green","blue"],"outcomes":[1,1,1],"key":37,"choice":0,"rt":497.91999999433756,"outcome":1,"trial":56,"correct":1,"trial_type":"three-arm-trial","trial_index":79,"time_elapsed":353365,"internal_node_id":"0.0-62.0-0.0","task_version":"screening-mturk","missing":false,"accuracy":0},{"contexts":["red","green","blue"],"outcomes":[1,1,0],"key":37,"choice":0,"rt":771.5249999891967,"outcome":1,"trial":57,"correct":1,"trial_type":"three-arm-trial","trial_index":80,"time_elapsed":355341,"internal_node_id":"0.0-63.0-0.0","task_version":"screening-mturk","missing":false,"accuracy":0},{"contexts":["red","green","blue"],"outcomes":[0,1,0],"key":39,"choice":2,"rt":725.0599998515099,"outcome":0,"trial":58,"correct":1,"trial_type":"three-arm-trial","trial_index":81,"time_elapsed":357269,"internal_node_id":"0.0-64.0-0.0","task_version":"screening-mturk","missing":false,"accuracy":0},{"contexts":["red","green","blue"],"outcomes":[0,1,0],"key":39,"choice":2,"rt":314.22999990172684,"outcome":0,"trial":59,"correct":1,"trial_type":"three-arm-trial","trial_index":82,"time_elapsed":358787,"internal_node_id":"0.0-65.0-0.0","task_version":"screening-mturk","missing":false,"accuracy":0},{"contexts":["red","green","blue"],"outcomes":[0,0,0],"key":39,"choice":2,"rt":312.8750000614673,"outcome":0,"trial":60,"correct":1,"trial_type":"three-arm-trial","trial_index":83,"time_elapsed":360304,"internal_node_id":"0.0-66.0-0.0","task_version":"screening-mturk","missing":false,"accuracy":0},{"contexts":["red","green","blue"],"outcomes":[1,0,0],"key":39,"choice":2,"rt":479.8850000370294,"outcome":0,"trial":61,"correct":0,"trial_type":"three-arm-trial","trial_index":84,"time_elapsed":361987,"internal_node_id":"0.0-67.0-0.0","task_version":"screening-mturk","missing":false,"accuracy":0},{"contexts":["red","green","blue"],"outcomes":[1,0,0],"key":39,"choice":2,"rt":311.74499983899295,"outcome":0,"trial":62,"correct":0,"trial_type":"three-arm-trial","trial_index":85,"time_elapsed":363501,"internal_node_id":"0.0-68.0-0.0","task_version":"screening-mturk","missing":false,"accuracy":0},{"contexts":["red","green","blue"],"outcomes":[1,1,0],"key":39,"choice":2,"rt":353.5850001499057,"outcome":0,"trial":63,"correct":0,"trial_type":"three-arm-trial","trial_index":86,"time_elapsed":365059,"internal_node_id":"0.0-69.0-0.0","task_version":"screening-mturk","missing":false,"accuracy":0},{"contexts":["red","green","blue"],"outcomes":[1,0,0],"key":39,"choice":2,"rt":266.64499985054135,"outcome":0,"trial":64,"correct":0,"trial_type":"three-arm-trial","trial_index":87,"time_elapsed":366529,"internal_node_id":"0.0-70.0-0.0","task_version":"screening-mturk","missing":false,"accuracy":0},{"contexts":["red","green","blue"],"outcomes":[1,0,0],"key":39,"choice":2,"rt":9.67500009573996,"outcome":0,"trial":65,"correct":0,"trial_type":"three-arm-trial","trial_index":88,"time_elapsed":367741,"internal_node_id":"0.0-71.0-0.0","task_version":"screening-mturk","missing":false,"accuracy":0},{"contexts":["red","green","blue"],"outcomes":[1,0,1],"key":39,"choice":2,"rt":671.7250000219792,"outcome":1,"trial":66,"correct":0,"trial_type":"three-arm-trial","trial_index":89,"time_elapsed":369618,"internal_node_id":"0.0-72.0-0.0","task_version":"screening-mturk","missing":false,"accuracy":0},{"contexts":["red","green","blue"],"outcomes":[1,1,1],"key":39,"choice":2,"rt":1950.609999941662,"outcome":1,"trial":67,"correct":0,"trial_type":"three-arm-trial","trial_index":90,"time_elapsed":372772,"internal_node_id":"0.0-73.0-0.0","task_version":"screening-mturk","missing":false,"accuracy":0},{"contexts":["red","green","blue"],"outcomes":[1,0,0],"key":39,"choice":2,"rt":744.6999999228865,"outcome":0,"trial":68,"correct":0,"trial_type":"three-arm-trial","trial_index":91,"time_elapsed":374719,"internal_node_id":"0.0-74.0-0.0","task_version":"screening-mturk","missing":false,"accuracy":0},{"contexts":["red","green","blue"],"outcomes":[1,0,0],"key":39,"choice":2,"rt":526.0450001806021,"outcome":0,"trial":69,"correct":0,"trial_type":"three-arm-trial","trial_index":92,"time_elapsed":376448,"internal_node_id":"0.0-75.0-0.0","task_version":"screening-mturk","missing":false,"accuracy":0},{"contexts":["red","green","blue"],"outcomes":[1,0,0],"key":38,"choice":1,"rt":327.10500014945865,"outcome":0,"trial":70,"correct":0,"trial_type":"three-arm-trial","trial_index":93,"time_elapsed":377978,"internal_node_id":"0.0-76.0-0.0","task_version":"screening-mturk","missing":false,"accuracy":0},{"contexts":["red","green","blue"],"outcomes":[1,0,0],"key":38,"choice":1,"rt":652.4199999403208,"outcome":0,"trial":71,"correct":0,"trial_type":"three-arm-trial","trial_index":94,"time_elapsed":379833,"internal_node_id":"0.0-77.0-0.0","task_version":"screening-mturk","missing":false,"accuracy":0},{"contexts":["red","green","blue"],"outcomes":[1,1,0],"key":38,"choice":1,"rt":311.8649998214096,"outcome":1,"trial":72,"correct":0,"trial_type":"three-arm-trial","trial_index":95,"time_elapsed":381351,"internal_node_id":"0.0-78.0-0.0","task_version":"screening-mturk","missing":false,"accuracy":0},{"contexts":["red","green","blue"],"outcomes":[1,0,0],"key":38,"choice":1,"rt":556.7999999038875,"outcome":0,"trial":73,"correct":0,"trial_type":"three-arm-trial","trial_index":96,"time_elapsed":383111,"internal_node_id":"0.0-79.0-0.0","task_version":"screening-mturk","missing":false,"accuracy":0},{"contexts":["red","green","blue"],"outcomes":[1,1,0],"key":38,"choice":1,"rt":623.8800000865012,"outcome":1,"trial":74,"correct":0,"trial_type":"three-arm-trial","trial_index":97,"time_elapsed":384937,"internal_node_id":"0.0-80.0-0.0","task_version":"screening-mturk","missing":false,"accuracy":0},{"contexts":["red","green","blue"],"outcomes":[1,0,0],"key":38,"choice":1,"rt":646.0799998603761,"outcome":0,"trial":75,"correct":0,"trial_type":"three-arm-trial","trial_index":98,"time_elapsed":386787,"internal_node_id":"0.0-81.0-0.0","task_version":"screening-mturk","missing":false,"accuracy":0},{"contexts":["red","green","blue"],"outcomes":[0,0,0],"key":38,"choice":1,"rt":426.63499992340803,"outcome":0,"trial":76,"correct":1,"trial_type":"three-arm-trial","trial_index":99,"time_elapsed":388417,"internal_node_id":"0.0-82.0-0.0","task_version":"screening-mturk","missing":false,"accuracy":1},{"contexts":["red","green","blue"],"outcomes":[1,0,0],"key":38,"choice":1,"rt":65.65500004217029,"outcome":0,"trial":77,"correct":1,"trial_type":"three-arm-trial","trial_index":100,"time_elapsed":389686,"internal_node_id":"0.0-83.0-0.0","task_version":"screening-mturk","missing":false,"accuracy":1},{"contexts":["red","green","blue"],"outcomes":[1,0,0],"key":38,"choice":1,"rt":182.12500005029142,"outcome":0,"trial":78,"correct":1,"trial_type":"three-arm-trial","trial_index":101,"time_elapsed":391070,"internal_node_id":"0.0-84.0-0.0","task_version":"screening-mturk","missing":false,"accuracy":1},{"contexts":["red","green","blue"],"outcomes":[1,1,0],"key":38,"choice":1,"rt":355.8849999681115,"outcome":1,"trial":79,"correct":1,"trial_type":"three-arm-trial","trial_index":102,"time_elapsed":392630,"internal_node_id":"0.0-85.0-0.0","task_version":"screening-mturk","missing":false,"accuracy":1},{"contexts":["red","green","blue"],"outcomes":[0,1,0],"key":38,"choice":1,"rt":102.99500008113682,"outcome":1,"trial":80,"correct":1,"trial_type":"three-arm-trial","trial_index":103,"time_elapsed":393935,"internal_node_id":"0.0-86.0-0.0","task_version":"screening-mturk","missing":false,"accuracy":1},{"contexts":["red","green","blue"],"outcomes":[0,1,0],"key":38,"choice":1,"rt":654.6550001949072,"outcome":1,"trial":81,"correct":1,"trial_type":"three-arm-trial","trial_index":104,"time_elapsed":395792,"internal_node_id":"0.0-87.0-0.0","task_version":"screening-mturk","missing":false,"accuracy":1},{"contexts":["red","green","blue"],"outcomes":[0,1,1],"key":38,"choice":1,"rt":1388.6049999855459,"outcome":1,"trial":82,"correct":1,"trial_type":"three-arm-trial","trial_index":105,"time_elapsed":398383,"internal_node_id":"0.0-88.0-0.0","task_version":"screening-mturk","missing":false,"accuracy":1},{"contexts":["red","green","blue"],"outcomes":[0,1,0],"key":38,"choice":1,"rt":1668.1749999988824,"outcome":1,"trial":83,"correct":1,"trial_type":"three-arm-trial","trial_index":106,"time_elapsed":401254,"internal_node_id":"0.0-89.0-0.0","task_version":"screening-mturk","missing":false,"accuracy":1},{"contexts":["red","green","blue"],"outcomes":[0,1,1],"key":38,"choice":1,"rt":373.79500013776124,"outcome":1,"trial":84,"correct":1,"trial_type":"three-arm-trial","trial_index":107,"time_elapsed":402831,"internal_node_id":"0.0-90.0-0.0","task_version":"screening-mturk","missing":false,"accuracy":1},{"contexts":["red","green","blue"],"outcomes":[0,1,1],"key":38,"choice":1,"rt":291.0550001543015,"outcome":1,"trial":85,"correct":1,"trial_type":"three-arm-trial","trial_index":108,"time_elapsed":404325,"internal_node_id":"0.0-91.0-0.0","task_version":"screening-mturk","missing":false,"accuracy":1},{"contexts":["red","green","blue"],"outcomes":[0,1,0],"key":38,"choice":1,"rt":414.80499994941056,"outcome":1,"trial":86,"correct":1,"trial_type":"three-arm-trial","trial_index":109,"time_elapsed":405942,"internal_node_id":"0.0-92.0-0.0","task_version":"screening-mturk","missing":false,"accuracy":1},{"contexts":["red","green","blue"],"outcomes":[0,1,1],"key":38,"choice":1,"rt":365.34499982371926,"outcome":1,"trial":87,"correct":1,"trial_type":"three-arm-trial","trial_index":110,"time_elapsed":407509,"internal_node_id":"0.0-93.0-0.0","task_version":"screening-mturk","missing":false,"accuracy":1},{"contexts":["red","green","blue"],"outcomes":[0,1,0],"key":38,"choice":1,"rt":297.929999884218,"outcome":1,"trial":88,"correct":1,"trial_type":"three-arm-trial","trial_index":111,"time_elapsed":409010,"internal_node_id":"0.0-94.0-0.0","task_version":"screening-mturk","missing":false,"accuracy":1},{"contexts":["red","green","blue"],"outcomes":[0,0,0],"key":38,"choice":1,"rt":677.7649999130517,"outcome":0,"trial":89,"correct":1,"trial_type":"three-arm-trial","trial_index":112,"time_elapsed":410891,"internal_node_id":"0.0-95.0-0.0","task_version":"screening-mturk","missing":false,"accuracy":1},{"contexts":["red","green","blue"],"outcomes":[0,1,0],"key":38,"choice":1,"rt":735.4699999559671,"outcome":1,"trial":90,"correct":1,"trial_type":"three-arm-trial","trial_index":113,"time_elapsed":412830,"internal_node_id":"0.0-96.0-0.0","task_version":"screening-mturk","missing":false,"accuracy":1},{"rt":35079.08000005409,"responses":{"age":"40","gender-categorical":"Male","gender-free-response":"","ethnicity":"Hispanic or Latino","race":["American Indian/Alaska Native","Asian","Native Hawaiian or other Pacific Islander","Black or African American","White","Rather not say"],"language":"Yes","fluency":"Very well","prolific":"Yes","prolific-this-study":"No"},"survey":"demographics","trial_type":"survey-demo","trial_index":114,"time_elapsed":447921,"internal_node_id":"0.0-97.0","task_version":"screening-mturk","interactions":"[]"}]