[{"responses":{"Q01":"0","Q07":"1","Q03":"0","Q04":"0","Q05":"1","Q08":"0","Q06":"0","Q02":"1"},"rt":28782.995000015944,"survey":"gad7","trial_type":"survey-template","trial_index":0,"time_elapsed":28795,"internal_node_id":"0.0-0.0","task_version":"screening-mturk"},{"responses":{"Q06":"3","Q04":"3","Q03":"3","Q02":"3","Q13":"3","Q05":"3","Q01":"3","Q08":"3","Q07":"3","Q10":"3","Q09":"3","Q11":"3","Q12":"3"},"rt":21624.250000109896,"survey":"bisbas","trial_type":"survey-template","trial_index":1,"time_elapsed":50424,"internal_node_id":"0.0-1.0","task_version":"screening-mturk"},{"responses":{"Q08":"2","Q02":"1","Q11":"2","Q01":"2","Q07":"3","Q09":"2","Q06":"1","Q13":"2","Q05":"2","Q10":"2","Q14":"1","Q03":"2","Q15":"3","Q04":"3","Q12":"2"},"rt":28216.659999918193,"survey":"7up7down","trial_type":"survey-template","trial_index":2,"time_elapsed":78645,"internal_node_id":"0.0-2.0","task_version":"screening-mturk"},{"responses":{"Q03":"2","Q01":"2","Q02":"2"},"rt":7224.7049999423325,"survey":"pswq","trial_type":"survey-template","trial_index":3,"time_elapsed":85873,"internal_node_id":"0.0-3.0","task_version":"screening-mturk"},{"responses":{"Q04":"2","Q07":"3","Q05":"3","Q13":"2","Q08":"2","Q11":"2","Q06":"3","Q02":"2","Q01":"3","Q10":"2","Q09":"2","Q15":"3","Q14":"2","Q12":"2","Q03":"3"},"rt":21486.905000172555,"survey":"shaps","trial_type":"survey-template","trial_index":4,"time_elapsed":107364,"internal_node_id":"0.0-4.0","task_version":"screening-mturk"},{"view_history":"[{\"page_index\":0,\"viewing_time\":8200.079999864101},{\"page_index\":1,\"viewing_time\":8834.64500005357},{\"page_index\":2,\"viewing_time\":7900.024999864399},{\"page_index\":3,\"viewing_time\":10760.22500009276},{\"page_index\":4,\"viewing_time\":3079.989999998361},{\"page_index\":5,\"viewing_time\":2389.805000042543},{\"page_index\":6,\"viewing_time\":4153.98499998264},{\"page_index\":7,\"viewing_time\":2195.9700000006706}]","rt":47515.974999871105,"trial_type":"instructions","trial_index":5,"time_elapsed":154882,"internal_node_id":"0.0-5.0-0.0","task_version":"screening-mturk"},{"responses":["True","True","True","False","True"],"num_errors":1,"rt":20547.139999922365,"trial_type":"three-arm-comprehension","trial_index":6,"time_elapsed":175433,"internal_node_id":"0.0-5.0-1.0","task_version":"screening-mturk"},{"view_history":"[{\"page_index\":0,\"viewing_time\":3421.4149999897927},{\"page_index\":1,\"viewing_time\":3419.660000130534},{\"page_index\":2,\"viewing_time\":1840.1150000281632},{\"page_index\":3,\"viewing_time\":1439.7350000217557},{\"page_index\":4,\"viewing_time\":1790.504999924451},{\"page_index\":5,\"viewing_time\":1129.7100000083447},{\"page_index\":6,\"viewing_time\":2102.974999928847},{\"page_index\":7,\"viewing_time\":1947.0750000327826}]","rt":17091.605000197887,"trial_type":"instructions","trial_index":7,"time_elapsed":192531,"internal_node_id":"0.0-5.1-0.1","task_version":"screening-mturk"},{"responses":["True","True","True","True","True"],"num_errors":2,"rt":20573.199999984354,"trial_type":"three-arm-comprehension","trial_index":8,"time_elapsed":213107,"internal_node_id":"0.0-5.1-1.1","task_version":"screening-mturk"},{"view_history":"[{\"page_index\":0,\"viewing_time\":3200.8200001437217},{\"page_index\":1,\"viewing_time\":1129.8999998252839},{\"page_index\":2,\"viewing_time\":4770.424999995157},{\"page_index\":3,\"viewing_time\":5729.48500001803},{\"page_index\":4,\"viewing_time\":3370.090000098571},{\"page_index\":5,\"viewing_time\":2009.8800000268966},{\"page_index\":6,\"viewing_time\":2920.0799998361617},{\"page_index\":7,\"viewing_time\":4319.890000158921}]","rt":27450.995000079274,"trial_type":"instructions","trial_index":9,"time_elapsed":240561,"internal_node_id":"0.0-5.2-0.2","task_version":"screening-mturk"},{"responses":["True","True","False","False","True"],"num_errors":0,"rt":25478.564999997616,"trial_type":"three-arm-comprehension","trial_index":10,"time_elapsed":266043,"internal_node_id":"0.0-5.2-1.2","task_version":"screening-mturk"},{"view_history":"[{\"page_index\":0,\"viewing_time\":3905.629999935627}]","rt":3906.049999874085,"trial_type":"instructions","trial_index":11,"time_elapsed":269951,"internal_node_id":"0.0-6.0","task_version":"screening-mturk"},{"contexts":["red","green","blue"],"outcomes":[0,0,1],"key":null,"rt":null,"trial":1,"correct":1,"trial_type":"three-arm-trial","trial_index":12,"time_elapsed":284957,"internal_node_id":"0.0-7.0-0.0","task_version":"screening-mturk","missing":true},{"contexts":["red","green","blue"],"outcomes":[0,0,1],"key":39,"choice":2,"rt":5458.225000184029,"outcome":1,"trial":1,"correct":1,"trial_type":"three-arm-trial","trial_index":13,"time_elapsed":291619,"internal_node_id":"0.0-7.1-0.1","task_version":"screening-mturk","missing":false,"accuracy":0},{"contexts":["red","green","blue"],"outcomes":[0,1,1],"key":39,"choice":2,"rt":1360.6000000145286,"outcome":1,"trial":2,"correct":1,"trial_type":"three-arm-trial","trial_index":14,"time_elapsed":294183,"internal_node_id":"0.0-8.0-0.0","task_version":"screening-mturk","missing":false,"accuracy":0},{"contexts":["red","green","blue"],"outcomes":[0,1,0],"key":39,"choice":2,"rt":91.06000000610948,"outcome":0,"trial":3,"correct":1,"trial_type":"three-arm-trial","trial_index":15,"time_elapsed":295477,"internal_node_id":"0.0-9.0-0.0","task_version":"screening-mturk","missing":false,"accuracy":0},{"contexts":["red","green","blue"],"outcomes":[0,1,0],"key":38,"choice":1,"rt":1768.099999986589,"outcome":1,"trial":4,"correct":1,"trial_type":"three-arm-trial","trial_index":16,"time_elapsed":298449,"internal_node_id":"0.0-10.0-0.0","task_version":"screening-mturk","missing":false,"accuracy":1},{"contexts":["red","green","blue"],"outcomes":[0,1,0],"key":37,"choice":0,"rt":1529.9899999517947,"outcome":0,"trial":5,"correct":1,"trial_type":"three-arm-trial","trial_index":17,"time_elapsed":301182,"internal_node_id":"0.0-11.0-0.0","task_version":"screening-mturk","missing":false,"accuracy":0},{"contexts":["red","green","blue"],"outcomes":[0,1,0],"key":39,"choice":2,"rt":1042.379999998957,"outcome":0,"trial":6,"correct":1,"trial_type":"three-arm-trial","trial_index":18,"time_elapsed":303427,"internal_node_id":"0.0-12.0-0.0","task_version":"screening-mturk","missing":false,"accuracy":0},{"contexts":["red","green","blue"],"outcomes":[0,1,0],"key":38,"choice":1,"rt":161.79999988526106,"outcome":1,"trial":7,"correct":1,"trial_type":"three-arm-trial","trial_index":19,"time_elapsed":304793,"internal_node_id":"0.0-13.0-0.0","task_version":"screening-mturk","missing":false,"accuracy":1},{"contexts":["red","green","blue"],"outcomes":[0,1,0],"key":38,"choice":1,"rt":476.8999998923391,"outcome":1,"trial":8,"correct":1,"trial_type":"three-arm-trial","trial_index":20,"time_elapsed":306474,"internal_node_id":"0.0-14.0-0.0","task_version":"screening-mturk","missing":false,"accuracy":1},{"contexts":["red","green","blue"],"outcomes":[0,1,0],"key":38,"choice":1,"rt":1050.49500009045,"outcome":1,"trial":9,"correct":1,"trial_type":"three-arm-trial","trial_index":21,"time_elapsed":308733,"internal_node_id":"0.0-15.0-0.0","task_version":"screening-mturk","missing":false,"accuracy":1},{"contexts":["red","green","blue"],"outcomes":[0,1,0],"key":38,"choice":1,"rt":666.9199999887496,"outcome":1,"trial":10,"correct":1,"trial_type":"three-arm-trial","trial_index":22,"time_elapsed":310603,"internal_node_id":"0.0-16.0-0.0","task_version":"screening-mturk","missing":false,"accuracy":1},{"contexts":["red","green","blue"],"outcomes":[0,1,1],"key":38,"choice":1,"rt":406.8549999501556,"outcome":1,"trial":11,"correct":1,"trial_type":"three-arm-trial","trial_index":23,"time_elapsed":312213,"internal_node_id":"0.0-17.0-0.0","task_version":"screening-mturk","missing":false,"accuracy":1},{"contexts":["red","green","blue"],"outcomes":[1,0,0],"key":38,"choice":1,"rt":330.45999985188246,"outcome":0,"trial":12,"correct":1,"trial_type":"three-arm-trial","trial_index":24,"time_elapsed":313748,"internal_node_id":"0.0-18.0-0.0","task_version":"screening-mturk","missing":false,"accuracy":1},{"contexts":["red","green","blue"],"outcomes":[0,1,1],"key":37,"choice":0,"rt":546.9800001010299,"outcome":0,"trial":13,"correct":1,"trial_type":"three-arm-trial","trial_index":25,"time_elapsed":315501,"internal_node_id":"0.0-19.0-0.0","task_version":"screening-mturk","missing":false,"accuracy":0},{"contexts":["red","green","blue"],"outcomes":[0,0,1],"key":37,"choice":0,"rt":929.3899999465793,"outcome":0,"trial":14,"correct":1,"trial_type":"three-arm-trial","trial_index":26,"time_elapsed":317633,"internal_node_id":"0.0-20.0-0.0","task_version":"screening-mturk","missing":false,"accuracy":0},{"contexts":["red","green","blue"],"outcomes":[0,1,0],"key":39,"choice":2,"rt":1351.5049999114126,"outcome":0,"trial":15,"correct":1,"trial_type":"three-arm-trial","trial_index":27,"time_elapsed":320187,"internal_node_id":"0.0-21.0-0.0","task_version":"screening-mturk","missing":false,"accuracy":0},{"contexts":["red","green","blue"],"outcomes":[1,0,1],"key":39,"choice":2,"rt":662.7499999012798,"outcome":1,"trial":16,"correct":0,"trial_type":"three-arm-trial","trial_index":28,"time_elapsed":322057,"internal_node_id":"0.0-22.0-0.0","task_version":"screening-mturk","missing":false,"accuracy":0},{"contexts":["red","green","blue"],"outcomes":[1,0,0],"key":39,"choice":2,"rt":372.52999981865287,"outcome":0,"trial":17,"correct":0,"trial_type":"three-arm-trial","trial_index":29,"time_elapsed":323632,"internal_node_id":"0.0-23.0-0.0","task_version":"screening-mturk","missing":false,"accuracy":0},{"contexts":["red","green","blue"],"outcomes":[1,0,0],"key":38,"choice":1,"rt":577.0500001963228,"outcome":0,"trial":18,"correct":0,"trial_type":"three-arm-trial","trial_index":30,"time_elapsed":325413,"internal_node_id":"0.0-24.0-0.0","task_version":"screening-mturk","missing":false,"accuracy":0},{"contexts":["red","green","blue"],"outcomes":[1,0,0],"key":38,"choice":1,"rt":516.509999986738,"outcome":0,"trial":19,"correct":0,"trial_type":"three-arm-trial","trial_index":31,"time_elapsed":327137,"internal_node_id":"0.0-25.0-0.0","task_version":"screening-mturk","missing":false,"accuracy":0},{"contexts":["red","green","blue"],"outcomes":[1,0,0],"key":38,"choice":1,"rt":512.7049998845905,"outcome":0,"trial":20,"correct":0,"trial_type":"three-arm-trial","trial_index":32,"time_elapsed":328854,"internal_node_id":"0.0-26.0-0.0","task_version":"screening-mturk","missing":false,"accuracy":0},{"contexts":["red","green","blue"],"outcomes":[1,1,0],"key":37,"choice":0,"rt":306.16499995812774,"outcome":1,"trial":21,"correct":0,"trial_type":"three-arm-trial","trial_index":33,"time_elapsed":330363,"internal_node_id":"0.0-27.0-0.0","task_version":"screening-mturk","missing":false,"accuracy":1},{"contexts":["red","green","blue"],"outcomes":[1,0,0],"key":37,"choice":0,"rt":1506.485000019893,"outcome":1,"trial":22,"correct":0,"trial_type":"three-arm-trial","trial_index":34,"time_elapsed":333072,"internal_node_id":"0.0-28.0-0.0","task_version":"screening-mturk","missing":false,"accuracy":1},{"contexts":["red","green","blue"],"outcomes":[1,0,0],"key":37,"choice":0,"rt":682.5400001835078,"outcome":1,"trial":23,"correct":0,"trial_type":"three-arm-trial","trial_index":35,"time_elapsed":334957,"internal_node_id":"0.0-29.0-0.0","task_version":"screening-mturk","missing":false,"accuracy":1},{"contexts":["red","green","blue"],"outcomes":[1,1,0],"key":37,"choice":0,"rt":664.0949998982251,"outcome":1,"trial":24,"correct":0,"trial_type":"three-arm-trial","trial_index":36,"time_elapsed":336825,"internal_node_id":"0.0-30.0-0.0","task_version":"screening-mturk","missing":false,"accuracy":1},{"contexts":["red","green","blue"],"outcomes":[1,0,0],"key":37,"choice":0,"rt":659.8500001709908,"outcome":1,"trial":25,"correct":0,"trial_type":"three-arm-trial","trial_index":37,"time_elapsed":338688,"internal_node_id":"0.0-31.0-0.0","task_version":"screening-mturk","missing":false,"accuracy":1},{"contexts":["red","green","blue"],"outcomes":[1,0,0],"key":37,"choice":0,"rt":411.2800001166761,"outcome":1,"trial":26,"correct":0,"trial_type":"three-arm-trial","trial_index":38,"time_elapsed":340302,"internal_node_id":"0.0-32.0-0.0","task_version":"screening-mturk","missing":false,"accuracy":1},{"contexts":["red","green","blue"],"outcomes":[1,0,0],"key":37,"choice":0,"rt":622.4249999504536,"outcome":1,"trial":27,"correct":0,"trial_type":"three-arm-trial","trial_index":39,"time_elapsed":342127,"internal_node_id":"0.0-33.0-0.0","task_version":"screening-mturk","missing":false,"accuracy":1},{"contexts":["red","green","blue"],"outcomes":[1,0,0],"key":37,"choice":0,"rt":642.3749998211861,"outcome":1,"trial":28,"correct":0,"trial_type":"three-arm-trial","trial_index":40,"time_elapsed":343972,"internal_node_id":"0.0-34.0-0.0","task_version":"screening-mturk","missing":false,"accuracy":1},{"contexts":["red","green","blue"],"outcomes":[1,1,0],"key":37,"choice":0,"rt":729.0449999272823,"outcome":1,"trial":29,"correct":0,"trial_type":"three-arm-trial","trial_index":41,"time_elapsed":345904,"internal_node_id":"0.0-35.0-0.0","task_version":"screening-mturk","missing":false,"accuracy":1},{"contexts":["red","green","blue"],"outcomes":[1,0,0],"key":37,"choice":0,"rt":659.1099998913705,"outcome":1,"trial":30,"correct":0,"trial_type":"three-arm-trial","trial_index":42,"time_elapsed":347767,"internal_node_id":"0.0-36.0-0.0","task_version":"screening-mturk","missing":false,"accuracy":1},{"contexts":["red","green","blue"],"outcomes":[0,0,1],"key":37,"choice":0,"rt":692.879999987781,"outcome":0,"trial":31,"correct":2,"trial_type":"three-arm-trial","trial_index":43,"time_elapsed":349664,"internal_node_id":"0.0-37.0-0.0","task_version":"screening-mturk","missing":false,"accuracy":0},{"contexts":["red","green","blue"],"outcomes":[0,0,0],"key":39,"choice":2,"rt":685.1849998347461,"outcome":0,"trial":32,"correct":2,"trial_type":"three-arm-trial","trial_index":44,"time_elapsed":351552,"internal_node_id":"0.0-38.0-0.0","task_version":"screening-mturk","missing":false,"accuracy":1},{"contexts":["red","green","blue"],"outcomes":[1,0,0],"key":38,"choice":1,"rt":90.43999994173646,"outcome":0,"trial":33,"correct":2,"trial_type":"three-arm-trial","trial_index":45,"time_elapsed":352846,"internal_node_id":"0.0-39.0-0.0","task_version":"screening-mturk","missing":false,"accuracy":0},{"contexts":["red","green","blue"],"outcomes":[0,1,1],"key":38,"choice":1,"rt":794.0299999900162,"outcome":1,"trial":34,"correct":2,"trial_type":"three-arm-trial","trial_index":46,"time_elapsed":354842,"internal_node_id":"0.0-40.0-0.0","task_version":"screening-mturk","missing":false,"accuracy":0},{"contexts":["red","green","blue"],"outcomes":[0,0,1],"key":38,"choice":1,"rt":718.8599999062717,"outcome":0,"trial":35,"correct":2,"trial_type":"three-arm-trial","trial_index":47,"time_elapsed":356764,"internal_node_id":"0.0-41.0-0.0","task_version":"screening-mturk","missing":false,"accuracy":0},{"contexts":["red","green","blue"],"outcomes":[0,0,1],"key":39,"choice":2,"rt":1110.3250000160187,"outcome":1,"trial":36,"correct":2,"trial_type":"three-arm-trial","trial_index":48,"time_elapsed":359078,"internal_node_id":"0.0-42.0-0.0","task_version":"screening-mturk","missing":false,"accuracy":1},{"contexts":["red","green","blue"],"outcomes":[0,0,1],"key":39,"choice":2,"rt":720.6749999895692,"outcome":1,"trial":37,"correct":2,"trial_type":"three-arm-trial","trial_index":49,"time_elapsed":361003,"internal_node_id":"0.0-43.0-0.0","task_version":"screening-mturk","missing":false,"accuracy":1},{"contexts":["red","green","blue"],"outcomes":[1,1,1],"key":39,"choice":2,"rt":946.2400001939386,"outcome":1,"trial":38,"correct":2,"trial_type":"three-arm-trial","trial_index":50,"time_elapsed":363152,"internal_node_id":"0.0-44.0-0.0","task_version":"screening-mturk","missing":false,"accuracy":1},{"contexts":["red","green","blue"],"outcomes":[0,0,1],"key":39,"choice":2,"rt":712.5399999786168,"outcome":1,"trial":39,"correct":2,"trial_type":"three-arm-trial","trial_index":51,"time_elapsed":365070,"internal_node_id":"0.0-45.0-0.0","task_version":"screening-mturk","missing":false,"accuracy":1},{"contexts":["red","green","blue"],"outcomes":[0,0,1],"key":39,"choice":2,"rt":790.4199999757111,"outcome":1,"trial":40,"correct":2,"trial_type":"three-arm-trial","trial_index":52,"time_elapsed":367063,"internal_node_id":"0.0-46.0-0.0","task_version":"screening-mturk","missing":false,"accuracy":1},{"contexts":["red","green","blue"],"outcomes":[0,0,1],"key":39,"choice":2,"rt":937.9499999340624,"outcome":1,"trial":41,"correct":2,"trial_type":"three-arm-trial","trial_index":53,"time_elapsed":369204,"internal_node_id":"0.0-47.0-0.0","task_version":"screening-mturk","missing":false,"accuracy":1},{"contexts":["red","green","blue"],"outcomes":[0,0,1],"key":39,"choice":2,"rt":719.7950000409037,"outcome":1,"trial":42,"correct":2,"trial_type":"three-arm-trial","trial_index":54,"time_elapsed":371127,"internal_node_id":"0.0-48.0-0.0","task_version":"screening-mturk","missing":false,"accuracy":1},{"contexts":["red","green","blue"],"outcomes":[0,0,1],"key":39,"choice":2,"rt":931.5899999346584,"outcome":1,"trial":43,"correct":2,"trial_type":"three-arm-trial","trial_index":55,"time_elapsed":373261,"internal_node_id":"0.0-49.0-0.0","task_version":"screening-mturk","missing":false,"accuracy":1},{"contexts":["red","green","blue"],"outcomes":[0,1,1],"key":39,"choice":2,"rt":800.4199999850243,"outcome":1,"trial":44,"correct":2,"trial_type":"three-arm-trial","trial_index":56,"time_elapsed":375268,"internal_node_id":"0.0-50.0-0.0","task_version":"screening-mturk","missing":false,"accuracy":1},{"contexts":["red","green","blue"],"outcomes":[1,0,1],"key":39,"choice":2,"rt":805.5799999274313,"outcome":1,"trial":45,"correct":2,"trial_type":"three-arm-trial","trial_index":57,"time_elapsed":377276,"internal_node_id":"0.0-51.0-0.0","task_version":"screening-mturk","missing":false,"accuracy":1},{"contexts":["red","green","blue"],"outcomes":[1,1,0],"key":39,"choice":2,"rt":682.5800000224262,"outcome":0,"trial":46,"correct":1,"trial_type":"three-arm-trial","trial_index":58,"time_elapsed":379163,"internal_node_id":"0.0-52.0-0.0","task_version":"screening-mturk","missing":false,"accuracy":0},{"contexts":["red","green","blue"],"outcomes":[0,1,0],"key":38,"choice":1,"rt":706.1149999499321,"outcome":1,"trial":47,"correct":1,"trial_type":"three-arm-trial","trial_index":59,"time_elapsed":381073,"internal_node_id":"0.0-53.0-0.0","task_version":"screening-mturk","missing":false,"accuracy":1},{"contexts":["red","green","blue"],"outcomes":[0,0,0],"key":38,"choice":1,"rt":655.3800001274794,"outcome":0,"trial":48,"correct":1,"trial_type":"three-arm-trial","trial_index":60,"time_elapsed":382932,"internal_node_id":"0.0-54.0-0.0","task_version":"screening-mturk","missing":false,"accuracy":1},{"contexts":["red","green","blue"],"outcomes":[1,1,0],"key":39,"choice":2,"rt":978.7399999331683,"outcome":0,"trial":49,"correct":1,"trial_type":"three-arm-trial","trial_index":61,"time_elapsed":385114,"internal_node_id":"0.0-55.0-0.0","task_version":"screening-mturk","missing":false,"accuracy":0},{"contexts":["red","green","blue"],"outcomes":[0,1,0],"key":37,"choice":0,"rt":415.0600000284612,"outcome":0,"trial":50,"correct":1,"trial_type":"three-arm-trial","trial_index":62,"time_elapsed":386733,"internal_node_id":"0.0-56.0-0.0","task_version":"screening-mturk","missing":false,"accuracy":0},{"contexts":["red","green","blue"],"outcomes":[0,1,0],"key":37,"choice":0,"rt":705.6950000114739,"outcome":0,"trial":51,"correct":1,"trial_type":"three-arm-trial","trial_index":63,"time_elapsed":388642,"internal_node_id":"0.0-57.0-0.0","task_version":"screening-mturk","missing":false,"accuracy":0},{"contexts":["red","green","blue"],"outcomes":[1,1,0],"key":39,"choice":2,"rt":417.32500004582107,"outcome":0,"trial":52,"correct":1,"trial_type":"three-arm-trial","trial_index":64,"time_elapsed":390264,"internal_node_id":"0.0-58.0-0.0","task_version":"screening-mturk","missing":false,"accuracy":0},{"contexts":["red","green","blue"],"outcomes":[1,1,0],"key":38,"choice":1,"rt":76.30500011146069,"outcome":1,"trial":53,"correct":1,"trial_type":"three-arm-trial","trial_index":65,"time_elapsed":391549,"internal_node_id":"0.0-59.0-0.0","task_version":"screening-mturk","missing":false,"accuracy":1},{"contexts":["red","green","blue"],"outcomes":[0,1,0],"key":38,"choice":1,"rt":140.55499993264675,"outcome":1,"trial":54,"correct":1,"trial_type":"three-arm-trial","trial_index":66,"time_elapsed":392895,"internal_node_id":"0.0-60.0-0.0","task_version":"screening-mturk","missing":false,"accuracy":1},{"contexts":["red","green","blue"],"outcomes":[1,1,0],"key":38,"choice":1,"rt":313.9950002077967,"outcome":1,"trial":55,"correct":1,"trial_type":"three-arm-trial","trial_index":67,"time_elapsed":394411,"internal_node_id":"0.0-61.0-0.0","task_version":"screening-mturk","missing":false,"accuracy":1},{"contexts":["red","green","blue"],"outcomes":[0,0,0],"key":38,"choice":1,"rt":240.7299999613315,"outcome":0,"trial":56,"correct":1,"trial_type":"three-arm-trial","trial_index":68,"time_elapsed":395855,"internal_node_id":"0.0-62.0-0.0","task_version":"screening-mturk","missing":false,"accuracy":1},{"contexts":["red","green","blue"],"outcomes":[0,1,0],"key":39,"choice":2,"rt":913.7299999129027,"outcome":0,"trial":57,"correct":1,"trial_type":"three-arm-trial","trial_index":69,"time_elapsed":397975,"internal_node_id":"0.0-63.0-0.0","task_version":"screening-mturk","missing":false,"accuracy":0},{"contexts":["red","green","blue"],"outcomes":[0,1,0],"key":37,"choice":0,"rt":394.2350000143051,"outcome":0,"trial":58,"correct":1,"trial_type":"three-arm-trial","trial_index":70,"time_elapsed":399571,"internal_node_id":"0.0-64.0-0.0","task_version":"screening-mturk","missing":false,"accuracy":0},{"contexts":["red","green","blue"],"outcomes":[0,1,0],"key":38,"choice":1,"rt":632.2250000666827,"outcome":1,"trial":59,"correct":1,"trial_type":"three-arm-trial","trial_index":71,"time_elapsed":401407,"internal_node_id":"0.0-65.0-0.0","task_version":"screening-mturk","missing":false,"accuracy":1},{"contexts":["red","green","blue"],"outcomes":[1,1,0],"key":38,"choice":1,"rt":701.8049999605864,"outcome":1,"trial":60,"correct":1,"trial_type":"three-arm-trial","trial_index":72,"time_elapsed":403313,"internal_node_id":"0.0-66.0-0.0","task_version":"screening-mturk","missing":false,"accuracy":1},{"contexts":["red","green","blue"],"outcomes":[0,0,1],"key":38,"choice":1,"rt":765.6050000805408,"outcome":0,"trial":61,"correct":2,"trial_type":"three-arm-trial","trial_index":73,"time_elapsed":405282,"internal_node_id":"0.0-67.0-0.0","task_version":"screening-mturk","missing":false,"accuracy":0},{"contexts":["red","green","blue"],"outcomes":[0,1,1],"key":39,"choice":2,"rt":1128.1300000846386,"outcome":1,"trial":62,"correct":2,"trial_type":"three-arm-trial","trial_index":74,"time_elapsed":407613,"internal_node_id":"0.0-68.0-0.0","task_version":"screening-mturk","missing":false,"accuracy":1},{"contexts":["red","green","blue"],"outcomes":[0,0,1],"key":39,"choice":2,"rt":714.4150000531226,"outcome":1,"trial":63,"correct":2,"trial_type":"three-arm-trial","trial_index":75,"time_elapsed":409535,"internal_node_id":"0.0-69.0-0.0","task_version":"screening-mturk","missing":false,"accuracy":1},{"contexts":["red","green","blue"],"outcomes":[0,0,0],"key":39,"choice":2,"rt":753.7700000684708,"outcome":0,"trial":64,"correct":2,"trial_type":"three-arm-trial","trial_index":76,"time_elapsed":411491,"internal_node_id":"0.0-70.0-0.0","task_version":"screening-mturk","missing":false,"accuracy":1},{"contexts":["red","green","blue"],"outcomes":[0,0,1],"key":38,"choice":1,"rt":977.489999961108,"outcome":0,"trial":65,"correct":2,"trial_type":"three-arm-trial","trial_index":77,"time_elapsed":413671,"internal_node_id":"0.0-71.0-0.0","task_version":"screening-mturk","missing":false,"accuracy":0},{"contexts":["red","green","blue"],"outcomes":[1,0,0],"key":37,"choice":0,"rt":1051.549999974668,"outcome":1,"trial":66,"correct":2,"trial_type":"three-arm-trial","trial_index":78,"time_elapsed":415926,"internal_node_id":"0.0-72.0-0.0","task_version":"screening-mturk","missing":false,"accuracy":0},{"contexts":["red","green","blue"],"outcomes":[0,0,1],"key":37,"choice":0,"rt":622.9299998376518,"outcome":0,"trial":67,"correct":2,"trial_type":"three-arm-trial","trial_index":79,"time_elapsed":417752,"internal_node_id":"0.0-73.0-0.0","task_version":"screening-mturk","missing":false,"accuracy":0},{"contexts":["red","green","blue"],"outcomes":[1,0,1],"key":39,"choice":2,"rt":835.7249998953193,"outcome":1,"trial":68,"correct":2,"trial_type":"three-arm-trial","trial_index":80,"time_elapsed":419792,"internal_node_id":"0.0-74.0-0.0","task_version":"screening-mturk","missing":false,"accuracy":1},{"contexts":["red","green","blue"],"outcomes":[0,0,1],"key":39,"choice":2,"rt":819.1000001970679,"outcome":1,"trial":69,"correct":2,"trial_type":"three-arm-trial","trial_index":81,"time_elapsed":421814,"internal_node_id":"0.0-75.0-0.0","task_version":"screening-mturk","missing":false,"accuracy":1},{"contexts":["red","green","blue"],"outcomes":[0,0,1],"key":39,"choice":2,"rt":765.0150000117719,"outcome":1,"trial":70,"correct":2,"trial_type":"three-arm-trial","trial_index":82,"time_elapsed":423782,"internal_node_id":"0.0-76.0-0.0","task_version":"screening-mturk","missing":false,"accuracy":1},{"contexts":["red","green","blue"],"outcomes":[1,0,1],"key":39,"choice":2,"rt":786.4349998999387,"outcome":1,"trial":71,"correct":2,"trial_type":"three-arm-trial","trial_index":83,"time_elapsed":425772,"internal_node_id":"0.0-77.0-0.0","task_version":"screening-mturk","missing":false,"accuracy":1},{"contexts":["red","green","blue"],"outcomes":[0,0,0],"key":39,"choice":2,"rt":695.9949999582022,"outcome":0,"trial":72,"correct":2,"trial_type":"three-arm-trial","trial_index":84,"time_elapsed":427672,"internal_node_id":"0.0-78.0-0.0","task_version":"screening-mturk","missing":false,"accuracy":1},{"contexts":["red","green","blue"],"outcomes":[0,1,1],"key":38,"choice":1,"rt":1721.320000011474,"outcome":1,"trial":73,"correct":2,"trial_type":"three-arm-trial","trial_index":85,"time_elapsed":430598,"internal_node_id":"0.0-79.0-0.0","task_version":"screening-mturk","missing":false,"accuracy":0},{"contexts":["red","green","blue"],"outcomes":[0,0,1],"key":38,"choice":1,"rt":686.1799999605864,"outcome":0,"trial":74,"correct":2,"trial_type":"three-arm-trial","trial_index":86,"time_elapsed":432488,"internal_node_id":"0.0-80.0-0.0","task_version":"screening-mturk","missing":false,"accuracy":0},{"contexts":["red","green","blue"],"outcomes":[0,1,1],"key":39,"choice":2,"rt":1120.735000120476,"outcome":1,"trial":75,"correct":2,"trial_type":"three-arm-trial","trial_index":87,"time_elapsed":434818,"internal_node_id":"0.0-81.0-0.0","task_version":"screening-mturk","missing":false,"accuracy":1},{"contexts":["red","green","blue"],"outcomes":[0,0,1],"key":39,"choice":2,"rt":619.5950000546873,"outcome":1,"trial":76,"correct":0,"trial_type":"three-arm-trial","trial_index":88,"time_elapsed":436644,"internal_node_id":"0.0-82.0-0.0","task_version":"screening-mturk","missing":false,"accuracy":0},{"contexts":["red","green","blue"],"outcomes":[1,0,0],"key":39,"choice":2,"rt":655.290000140667,"outcome":0,"trial":77,"correct":0,"trial_type":"three-arm-trial","trial_index":89,"time_elapsed":438502,"internal_node_id":"0.0-83.0-0.0","task_version":"screening-mturk","missing":false,"accuracy":0},{"contexts":["red","green","blue"],"outcomes":[1,0,0],"key":38,"choice":1,"rt":1507.949999999255,"outcome":0,"trial":78,"correct":0,"trial_type":"three-arm-trial","trial_index":90,"time_elapsed":441212,"internal_node_id":"0.0-84.0-0.0","task_version":"screening-mturk","missing":false,"accuracy":0},{"contexts":["red","green","blue"],"outcomes":[1,0,0],"key":39,"choice":2,"rt":636.8050000164658,"outcome":0,"trial":79,"correct":0,"trial_type":"three-arm-trial","trial_index":91,"time_elapsed":443057,"internal_node_id":"0.0-85.0-0.0","task_version":"screening-mturk","missing":false,"accuracy":0},{"contexts":["red","green","blue"],"outcomes":[1,0,0],"key":37,"choice":0,"rt":1336.33999992162,"outcome":1,"trial":80,"correct":0,"trial_type":"three-arm-trial","trial_index":92,"time_elapsed":445596,"internal_node_id":"0.0-86.0-0.0","task_version":"screening-mturk","missing":false,"accuracy":1},{"contexts":["red","green","blue"],"outcomes":[1,0,0],"key":37,"choice":0,"rt":758.2249999977648,"outcome":1,"trial":81,"correct":0,"trial_type":"three-arm-trial","trial_index":93,"time_elapsed":447557,"internal_node_id":"0.0-87.0-0.0","task_version":"screening-mturk","missing":false,"accuracy":1},{"contexts":["red","green","blue"],"outcomes":[1,0,0],"key":37,"choice":0,"rt":785.7099999673665,"outcome":1,"trial":82,"correct":0,"trial_type":"three-arm-trial","trial_index":94,"time_elapsed":449547,"internal_node_id":"0.0-88.0-0.0","task_version":"screening-mturk","missing":false,"accuracy":1},{"contexts":["red","green","blue"],"outcomes":[1,1,0],"key":37,"choice":0,"rt":743.0050000548363,"outcome":1,"trial":83,"correct":0,"trial_type":"three-arm-trial","trial_index":95,"time_elapsed":451493,"internal_node_id":"0.0-89.0-0.0","task_version":"screening-mturk","missing":false,"accuracy":1},{"contexts":["red","green","blue"],"outcomes":[1,0,0],"key":37,"choice":0,"rt":765.9650000277907,"outcome":1,"trial":84,"correct":0,"trial_type":"three-arm-trial","trial_index":96,"time_elapsed":453463,"internal_node_id":"0.0-90.0-0.0","task_version":"screening-mturk","missing":false,"accuracy":1},{"contexts":["red","green","blue"],"outcomes":[1,1,0],"key":37,"choice":0,"rt":398.68499990552664,"outcome":1,"trial":85,"correct":0,"trial_type":"three-arm-trial","trial_index":97,"time_elapsed":455064,"internal_node_id":"0.0-91.0-0.0","task_version":"screening-mturk","missing":false,"accuracy":1},{"contexts":["red","green","blue"],"outcomes":[1,0,0],"key":37,"choice":0,"rt":437.36499990336597,"outcome":1,"trial":86,"correct":0,"trial_type":"three-arm-trial","trial_index":98,"time_elapsed":456705,"internal_node_id":"0.0-92.0-0.0","task_version":"screening-mturk","missing":false,"accuracy":1},{"contexts":["red","green","blue"],"outcomes":[0,1,1],"key":37,"choice":0,"rt":366.32999987341464,"outcome":0,"trial":87,"correct":0,"trial_type":"three-arm-trial","trial_index":99,"time_elapsed":458277,"internal_node_id":"0.0-93.0-0.0","task_version":"screening-mturk","missing":false,"accuracy":1},{"contexts":["red","green","blue"],"outcomes":[1,0,0],"key":39,"choice":2,"rt":1002.07499996759,"outcome":0,"trial":88,"correct":0,"trial_type":"three-arm-trial","trial_index":100,"time_elapsed":460484,"internal_node_id":"0.0-94.0-0.0","task_version":"screening-mturk","missing":false,"accuracy":0},{"contexts":["red","green","blue"],"outcomes":[1,0,1],"key":38,"choice":1,"rt":165.21500004455447,"outcome":0,"trial":89,"correct":0,"trial_type":"three-arm-trial","trial_index":101,"time_elapsed":461853,"internal_node_id":"0.0-95.0-0.0","task_version":"screening-mturk","missing":false,"accuracy":0},{"contexts":["red","green","blue"],"outcomes":[1,0,0],"key":39,"choice":2,"rt":371.4499999769032,"outcome":0,"trial":90,"correct":0,"trial_type":"three-arm-trial","trial_index":102,"time_elapsed":463428,"internal_node_id":"0.0-96.0-0.0","task_version":"screening-mturk","missing":false,"accuracy":0},{"rt":74792.10500000045,"responses":{"age":"54","gender-categorical":"Male","gender-free-response":"","ethnicity":"Not Hispanic or Latino","race":["White"],"language":"Yes","fluency":"Very well","prolific":"No","prolific-this-study":"No"},"survey":"demographics","trial_type":"survey-demo","trial_index":103,"time_elapsed":538229,"internal_node_id":"0.0-97.0","task_version":"screening-mturk","interactions":"[{\"event\":\"blur\",\"trial\":8,\"time\":197456},{\"event\":\"focus\",\"trial\":8,\"time\":199901},{\"event\":\"blur\",\"trial\":103,\"time\":511625},{\"event\":\"focus\",\"trial\":103,\"time\":525907}]"}]