[{"responses":{"Q07":"0","Q08":"0","Q06":"0","Q01":"0","Q03":"0","Q02":"0","Q04":"0","Q05":"0"},"rt":18954.984999989392,"survey":"gad7","trial_type":"survey-template","trial_index":0,"time_elapsed":18962,"internal_node_id":"0.0-0.0","task_version":"screening-mturk"},{"responses":{"Q02":"2","Q10":"3","Q12":"3","Q09":"3","Q07":"3","Q06":"3","Q08":"3","Q13":"3","Q04":"3","Q14":"3","Q05":"3","Q11":"3","Q01":"3","Q15":"3","Q03":"3"},"rt":79883.0350000062,"survey":"shaps","trial_type":"survey-template","trial_index":1,"time_elapsed":98850,"internal_node_id":"0.0-1.0","task_version":"screening-mturk"},{"responses":{"Q12":"0","Q07":"1","Q11":"0","Q02":"0","Q03":"0","Q08":"0","Q05":"0","Q13":"0","Q15":"0","Q01":"0","Q06":"0","Q10":"0","Q09":"0","Q14":"0","Q04":"0"},"rt":85912.92000000249,"survey":"7up7down","trial_type":"survey-template","trial_index":2,"time_elapsed":184768,"internal_node_id":"0.0-2.0","task_version":"screening-mturk"},{"responses":{"Q09":"2","Q01":"2","Q12":"2","Q06":"3","Q08":"2","Q13":"3","Q04":"2","Q05":"2","Q03":"2","Q02":"2","Q11":"2","Q07":"2","Q10":"2"},"rt":80571.11999997869,"survey":"bisbas","trial_type":"survey-template","trial_index":3,"time_elapsed":265345,"internal_node_id":"0.0-3.0","task_version":"screening-mturk"},{"responses":{"Q03":"0","Q01":"0","Q02":"0"},"rt":12454.564999992726,"survey":"pswq","trial_type":"survey-template","trial_index":4,"time_elapsed":277804,"internal_node_id":"0.0-4.0","task_version":"screening-mturk"},{"view_history":"[{\"page_index\":0,\"viewing_time\":11462.285000015981},{\"page_index\":1,\"viewing_time\":35889.09000001149},{\"page_index\":2,\"viewing_time\":16408.46499998588},{\"page_index\":3,\"viewing_time\":8828.39999999851},{\"page_index\":4,\"viewing_time\":6633.685000007972},{\"page_index\":5,\"viewing_time\":7387.989999988349},{\"page_index\":6,\"viewing_time\":7541.960000002291},{\"page_index\":7,\"viewing_time\":5375.915000011446}]","rt":99528.62500000629,"trial_type":"instructions","trial_index":5,"time_elapsed":377335,"internal_node_id":"0.0-5.0-0.0","task_version":"screening-mturk"},{"responses":["True","True","False","True","True"],"num_errors":1,"rt":31520.994999998948,"trial_type":"three-arm-comprehension","trial_index":6,"time_elapsed":408859,"internal_node_id":"0.0-5.0-1.0","task_version":"screening-mturk"},{"view_history":"[{\"page_index\":0,\"viewing_time\":5165.110000001732},{\"page_index\":1,\"viewing_time\":4610.444999998435},{\"page_index\":2,\"viewing_time\":1238.3200000040233},{\"page_index\":3,\"viewing_time\":933.725000009872},{\"page_index\":4,\"viewing_time\":8174.055000010412},{\"page_index\":5,\"viewing_time\":5397.779999999329},{\"page_index\":6,\"viewing_time\":882.1749999769963},{\"page_index\":7,\"viewing_time\":1802.0200000028126}]","rt":28204.060000018217,"trial_type":"instructions","trial_index":7,"time_elapsed":437066,"internal_node_id":"0.0-5.1-0.1","task_version":"screening-mturk"},{"responses":["True","True","False","False","True"],"num_errors":0,"rt":12468.815000000177,"trial_type":"three-arm-comprehension","trial_index":8,"time_elapsed":449539,"internal_node_id":"0.0-5.1-1.1","task_version":"screening-mturk"},{"view_history":"[{\"page_index\":0,\"viewing_time\":3448.9699999976438}]","rt":3449.434999987716,"trial_type":"instructions","trial_index":9,"time_elapsed":452991,"internal_node_id":"0.0-6.0","task_version":"screening-mturk"},{"contexts":["red","blue","green"],"outcomes":[0,0,1],"key":37,"choice":0,"rt":8766.904999996768,"outcome":0,"trial":1,"correct":2,"trial_type":"three-arm-trial","trial_index":10,"time_elapsed":462965,"internal_node_id":"0.0-7.0-0.0","task_version":"screening-mturk","missing":false,"accuracy":0},{"contexts":["red","blue","green"],"outcomes":[0,1,1],"key":38,"choice":1,"rt":2779.6800000069197,"outcome":1,"trial":2,"correct":2,"trial_type":"three-arm-trial","trial_index":11,"time_elapsed":466954,"internal_node_id":"0.0-8.0-0.0","task_version":"screening-mturk","missing":false,"accuracy":0},{"contexts":["red","blue","green"],"outcomes":[0,0,1],"key":39,"choice":2,"rt":3229.26500000176,"outcome":1,"trial":3,"correct":2,"trial_type":"three-arm-trial","trial_index":12,"time_elapsed":471389,"internal_node_id":"0.0-9.0-0.0","task_version":"screening-mturk","missing":false,"accuracy":1},{"contexts":["red","blue","green"],"outcomes":[0,0,1],"key":38,"choice":1,"rt":2400.2249999903142,"outcome":0,"trial":4,"correct":2,"trial_type":"three-arm-trial","trial_index":13,"time_elapsed":474992,"internal_node_id":"0.0-10.0-0.0","task_version":"screening-mturk","missing":false,"accuracy":0},{"contexts":["red","blue","green"],"outcomes":[0,0,1],"key":39,"choice":2,"rt":2200.23499999661,"outcome":1,"trial":5,"correct":2,"trial_type":"three-arm-trial","trial_index":14,"time_elapsed":478396,"internal_node_id":"0.0-11.0-0.0","task_version":"screening-mturk","missing":false,"accuracy":1},{"contexts":["red","blue","green"],"outcomes":[0,0,0],"key":39,"choice":2,"rt":1328.7950000085402,"outcome":0,"trial":6,"correct":2,"trial_type":"three-arm-trial","trial_index":15,"time_elapsed":480931,"internal_node_id":"0.0-12.0-0.0","task_version":"screening-mturk","missing":false,"accuracy":1},{"contexts":["red","blue","green"],"outcomes":[0,1,1],"key":37,"choice":0,"rt":666.1849999800324,"outcome":0,"trial":7,"correct":2,"trial_type":"three-arm-trial","trial_index":16,"time_elapsed":482802,"internal_node_id":"0.0-13.0-0.0","task_version":"screening-mturk","missing":false,"accuracy":0},{"contexts":["red","blue","green"],"outcomes":[1,1,1],"key":38,"choice":1,"rt":673.6000000091735,"outcome":1,"trial":8,"correct":2,"trial_type":"three-arm-trial","trial_index":17,"time_elapsed":484681,"internal_node_id":"0.0-14.0-0.0","task_version":"screening-mturk","missing":false,"accuracy":0},{"contexts":["red","blue","green"],"outcomes":[1,0,1],"key":39,"choice":2,"rt":1149.9650000187103,"outcome":1,"trial":9,"correct":2,"trial_type":"three-arm-trial","trial_index":18,"time_elapsed":487036,"internal_node_id":"0.0-15.0-0.0","task_version":"screening-mturk","missing":false,"accuracy":1},{"contexts":["red","blue","green"],"outcomes":[0,0,1],"key":39,"choice":2,"rt":2711.139999999432,"outcome":1,"trial":10,"correct":2,"trial_type":"three-arm-trial","trial_index":19,"time_elapsed":490950,"internal_node_id":"0.0-16.0-0.0","task_version":"screening-mturk","missing":false,"accuracy":1},{"contexts":["red","blue","green"],"outcomes":[0,0,1],"key":39,"choice":2,"rt":1061.7649999912828,"outcome":1,"trial":11,"correct":2,"trial_type":"three-arm-trial","trial_index":20,"time_elapsed":493215,"internal_node_id":"0.0-17.0-0.0","task_version":"screening-mturk","missing":false,"accuracy":1},{"contexts":["red","blue","green"],"outcomes":[0,0,1],"key":39,"choice":2,"rt":849.1400000057183,"outcome":1,"trial":12,"correct":2,"trial_type":"three-arm-trial","trial_index":21,"time_elapsed":495268,"internal_node_id":"0.0-18.0-0.0","task_version":"screening-mturk","missing":false,"accuracy":1},{"contexts":["red","blue","green"],"outcomes":[0,0,0],"key":39,"choice":2,"rt":732.6150000153575,"outcome":0,"trial":13,"correct":2,"trial_type":"three-arm-trial","trial_index":22,"time_elapsed":497204,"internal_node_id":"0.0-19.0-0.0","task_version":"screening-mturk","missing":false,"accuracy":1},{"contexts":["red","blue","green"],"outcomes":[1,0,0],"key":39,"choice":2,"rt":1092.6850000105333,"outcome":0,"trial":14,"correct":2,"trial_type":"three-arm-trial","trial_index":23,"time_elapsed":499503,"internal_node_id":"0.0-20.0-0.0","task_version":"screening-mturk","missing":false,"accuracy":1},{"contexts":["red","blue","green"],"outcomes":[0,1,0],"key":39,"choice":2,"rt":1085.4749999998603,"outcome":0,"trial":15,"correct":2,"trial_type":"three-arm-trial","trial_index":24,"time_elapsed":501794,"internal_node_id":"0.0-21.0-0.0","task_version":"screening-mturk","missing":false,"accuracy":1},{"contexts":["red","blue","green"],"outcomes":[0,0,0],"key":38,"choice":1,"rt":535.1249999948777,"outcome":0,"trial":16,"correct":0,"trial_type":"three-arm-trial","trial_index":25,"time_elapsed":503532,"internal_node_id":"0.0-22.0-0.0","task_version":"screening-mturk","missing":false,"accuracy":0},{"contexts":["red","blue","green"],"outcomes":[0,0,0],"key":37,"choice":0,"rt":881.7100000160281,"outcome":0,"trial":17,"correct":0,"trial_type":"three-arm-trial","trial_index":26,"time_elapsed":505620,"internal_node_id":"0.0-23.0-0.0","task_version":"screening-mturk","missing":false,"accuracy":1},{"contexts":["red","blue","green"],"outcomes":[1,0,0],"key":38,"choice":1,"rt":848.5900000086986,"outcome":0,"trial":18,"correct":0,"trial_type":"three-arm-trial","trial_index":27,"time_elapsed":507673,"internal_node_id":"0.0-24.0-0.0","task_version":"screening-mturk","missing":false,"accuracy":0},{"contexts":["red","blue","green"],"outcomes":[1,0,0],"key":39,"choice":2,"rt":671.3049999962095,"outcome":0,"trial":19,"correct":0,"trial_type":"three-arm-trial","trial_index":28,"time_elapsed":509547,"internal_node_id":"0.0-25.0-0.0","task_version":"screening-mturk","missing":false,"accuracy":0},{"contexts":["red","blue","green"],"outcomes":[0,1,1],"key":37,"choice":0,"rt":887.365000002319,"outcome":0,"trial":20,"correct":0,"trial_type":"three-arm-trial","trial_index":29,"time_elapsed":511639,"internal_node_id":"0.0-26.0-0.0","task_version":"screening-mturk","missing":false,"accuracy":1},{"contexts":["red","blue","green"],"outcomes":[1,0,0],"key":39,"choice":2,"rt":1267.200000002049,"outcome":0,"trial":21,"correct":0,"trial_type":"three-arm-trial","trial_index":30,"time_elapsed":514111,"internal_node_id":"0.0-27.0-0.0","task_version":"screening-mturk","missing":false,"accuracy":0},{"contexts":["red","blue","green"],"outcomes":[1,0,0],"key":39,"choice":2,"rt":998.9200000127312,"outcome":0,"trial":22,"correct":0,"trial_type":"three-arm-trial","trial_index":31,"time_elapsed":516315,"internal_node_id":"0.0-28.0-0.0","task_version":"screening-mturk","missing":false,"accuracy":0},{"contexts":["red","blue","green"],"outcomes":[1,0,0],"key":38,"choice":1,"rt":430.39999998291023,"outcome":0,"trial":23,"correct":0,"trial_type":"three-arm-trial","trial_index":32,"time_elapsed":517949,"internal_node_id":"0.0-29.0-0.0","task_version":"screening-mturk","missing":false,"accuracy":0},{"contexts":["red","blue","green"],"outcomes":[1,1,0],"key":38,"choice":1,"rt":519.5649999950547,"outcome":1,"trial":24,"correct":0,"trial_type":"three-arm-trial","trial_index":33,"time_elapsed":519672,"internal_node_id":"0.0-30.0-0.0","task_version":"screening-mturk","missing":false,"accuracy":0},{"contexts":["red","blue","green"],"outcomes":[0,0,1],"key":38,"choice":1,"rt":432.60500000906177,"outcome":0,"trial":25,"correct":0,"trial_type":"three-arm-trial","trial_index":34,"time_elapsed":521308,"internal_node_id":"0.0-31.0-0.0","task_version":"screening-mturk","missing":false,"accuracy":0},{"contexts":["red","blue","green"],"outcomes":[1,0,0],"key":38,"choice":1,"rt":489.9450000084471,"outcome":0,"trial":26,"correct":0,"trial_type":"three-arm-trial","trial_index":35,"time_elapsed":523003,"internal_node_id":"0.0-32.0-0.0","task_version":"screening-mturk","missing":false,"accuracy":0},{"contexts":["red","blue","green"],"outcomes":[1,0,0],"key":38,"choice":1,"rt":534.799999993993,"outcome":0,"trial":27,"correct":0,"trial_type":"three-arm-trial","trial_index":36,"time_elapsed":524742,"internal_node_id":"0.0-33.0-0.0","task_version":"screening-mturk","missing":false,"accuracy":0},{"contexts":["red","blue","green"],"outcomes":[1,0,0],"key":39,"choice":2,"rt":462.599999998929,"outcome":0,"trial":28,"correct":0,"trial_type":"three-arm-trial","trial_index":37,"time_elapsed":526408,"internal_node_id":"0.0-34.0-0.0","task_version":"screening-mturk","missing":false,"accuracy":0},{"contexts":["red","blue","green"],"outcomes":[1,0,0],"key":39,"choice":2,"rt":640.8050000027288,"outcome":0,"trial":29,"correct":0,"trial_type":"three-arm-trial","trial_index":38,"time_elapsed":528252,"internal_node_id":"0.0-35.0-0.0","task_version":"screening-mturk","missing":false,"accuracy":0},{"contexts":["red","blue","green"],"outcomes":[1,0,1],"key":37,"choice":0,"rt":387.16500002192333,"outcome":1,"trial":30,"correct":0,"trial_type":"three-arm-trial","trial_index":39,"time_elapsed":529843,"internal_node_id":"0.0-36.0-0.0","task_version":"screening-mturk","missing":false,"accuracy":1},{"contexts":["red","blue","green"],"outcomes":[1,0,1],"key":37,"choice":0,"rt":686.9799999985844,"outcome":1,"trial":31,"correct":2,"trial_type":"three-arm-trial","trial_index":40,"time_elapsed":531733,"internal_node_id":"0.0-37.0-0.0","task_version":"screening-mturk","missing":false,"accuracy":0},{"contexts":["red","blue","green"],"outcomes":[0,1,0],"key":37,"choice":0,"rt":475.81000000354834,"outcome":0,"trial":32,"correct":2,"trial_type":"three-arm-trial","trial_index":41,"time_elapsed":533412,"internal_node_id":"0.0-38.0-0.0","task_version":"screening-mturk","missing":false,"accuracy":0},{"contexts":["red","blue","green"],"outcomes":[0,0,1],"key":37,"choice":0,"rt":475.1950000063516,"outcome":0,"trial":33,"correct":2,"trial_type":"three-arm-trial","trial_index":42,"time_elapsed":535093,"internal_node_id":"0.0-39.0-0.0","task_version":"screening-mturk","missing":false,"accuracy":0},{"contexts":["red","blue","green"],"outcomes":[0,1,1],"key":37,"choice":0,"rt":700.9900000120979,"outcome":0,"trial":34,"correct":2,"trial_type":"three-arm-trial","trial_index":43,"time_elapsed":536996,"internal_node_id":"0.0-40.0-0.0","task_version":"screening-mturk","missing":false,"accuracy":0},{"contexts":["red","blue","green"],"outcomes":[0,1,0],"key":38,"choice":1,"rt":449.0100000111852,"outcome":1,"trial":35,"correct":2,"trial_type":"three-arm-trial","trial_index":44,"time_elapsed":538648,"internal_node_id":"0.0-41.0-0.0","task_version":"screening-mturk","missing":false,"accuracy":0},{"contexts":["red","blue","green"],"outcomes":[0,0,1],"key":38,"choice":1,"rt":566.5549999976065,"outcome":0,"trial":36,"correct":2,"trial_type":"three-arm-trial","trial_index":45,"time_elapsed":540417,"internal_node_id":"0.0-42.0-0.0","task_version":"screening-mturk","missing":false,"accuracy":0},{"contexts":["red","blue","green"],"outcomes":[0,0,1],"key":37,"choice":0,"rt":913.4049999993294,"outcome":0,"trial":37,"correct":2,"trial_type":"three-arm-trial","trial_index":46,"time_elapsed":542534,"internal_node_id":"0.0-43.0-0.0","task_version":"screening-mturk","missing":false,"accuracy":0},{"contexts":["red","blue","green"],"outcomes":[1,0,1],"key":39,"choice":2,"rt":444.019999995362,"outcome":1,"trial":38,"correct":2,"trial_type":"three-arm-trial","trial_index":47,"time_elapsed":544183,"internal_node_id":"0.0-44.0-0.0","task_version":"screening-mturk","missing":false,"accuracy":1},{"contexts":["red","blue","green"],"outcomes":[0,0,1],"key":39,"choice":2,"rt":356.68499997700565,"outcome":1,"trial":39,"correct":2,"trial_type":"three-arm-trial","trial_index":48,"time_elapsed":545743,"internal_node_id":"0.0-45.0-0.0","task_version":"screening-mturk","missing":false,"accuracy":1},{"contexts":["red","blue","green"],"outcomes":[0,0,1],"key":39,"choice":2,"rt":476.12999999546446,"outcome":1,"trial":40,"correct":2,"trial_type":"three-arm-trial","trial_index":49,"time_elapsed":547422,"internal_node_id":"0.0-46.0-0.0","task_version":"screening-mturk","missing":false,"accuracy":1},{"contexts":["red","blue","green"],"outcomes":[0,0,1],"key":39,"choice":2,"rt":402.09499999764375,"outcome":1,"trial":41,"correct":2,"trial_type":"three-arm-trial","trial_index":50,"time_elapsed":549028,"internal_node_id":"0.0-47.0-0.0","task_version":"screening-mturk","missing":false,"accuracy":1},{"contexts":["red","blue","green"],"outcomes":[1,0,1],"key":39,"choice":2,"rt":369.9849999975413,"outcome":1,"trial":42,"correct":2,"trial_type":"three-arm-trial","trial_index":51,"time_elapsed":550602,"internal_node_id":"0.0-48.0-0.0","task_version":"screening-mturk","missing":false,"accuracy":1},{"contexts":["red","blue","green"],"outcomes":[1,0,1],"key":39,"choice":2,"rt":446.1400000145659,"outcome":1,"trial":43,"correct":2,"trial_type":"three-arm-trial","trial_index":52,"time_elapsed":552254,"internal_node_id":"0.0-49.0-0.0","task_version":"screening-mturk","missing":false,"accuracy":1},{"contexts":["red","blue","green"],"outcomes":[1,0,1],"key":39,"choice":2,"rt":428.90499997884035,"outcome":1,"trial":44,"correct":2,"trial_type":"three-arm-trial","trial_index":53,"time_elapsed":553889,"internal_node_id":"0.0-50.0-0.0","task_version":"screening-mturk","missing":false,"accuracy":1},{"contexts":["red","blue","green"],"outcomes":[0,0,1],"key":39,"choice":2,"rt":398.8299999909941,"outcome":1,"trial":45,"correct":2,"trial_type":"three-arm-trial","trial_index":54,"time_elapsed":555493,"internal_node_id":"0.0-51.0-0.0","task_version":"screening-mturk","missing":false,"accuracy":1},{"contexts":["red","blue","green"],"outcomes":[1,1,1],"key":39,"choice":2,"rt":400.7949999941047,"outcome":1,"trial":46,"correct":0,"trial_type":"three-arm-trial","trial_index":55,"time_elapsed":557099,"internal_node_id":"0.0-52.0-0.0","task_version":"screening-mturk","missing":false,"accuracy":0},{"contexts":["red","blue","green"],"outcomes":[1,0,0],"key":39,"choice":2,"rt":339.8750000051223,"outcome":0,"trial":47,"correct":0,"trial_type":"three-arm-trial","trial_index":56,"time_elapsed":558643,"internal_node_id":"0.0-53.0-0.0","task_version":"screening-mturk","missing":false,"accuracy":0},{"contexts":["red","blue","green"],"outcomes":[1,0,0],"key":38,"choice":1,"rt":416.0799999954179,"outcome":0,"trial":48,"correct":0,"trial_type":"three-arm-trial","trial_index":57,"time_elapsed":560263,"internal_node_id":"0.0-54.0-0.0","task_version":"screening-mturk","missing":false,"accuracy":0},{"contexts":["red","blue","green"],"outcomes":[1,1,0],"key":37,"choice":0,"rt":460.94000001903623,"outcome":1,"trial":49,"correct":0,"trial_type":"three-arm-trial","trial_index":58,"time_elapsed":561927,"internal_node_id":"0.0-55.0-0.0","task_version":"screening-mturk","missing":false,"accuracy":1},{"contexts":["red","blue","green"],"outcomes":[1,0,0],"key":37,"choice":0,"rt":402.2899999981746,"outcome":1,"trial":50,"correct":0,"trial_type":"three-arm-trial","trial_index":59,"time_elapsed":563533,"internal_node_id":"0.0-56.0-0.0","task_version":"screening-mturk","missing":false,"accuracy":1},{"contexts":["red","blue","green"],"outcomes":[1,0,0],"key":37,"choice":0,"rt":386.13500000792556,"outcome":1,"trial":51,"correct":0,"trial_type":"three-arm-trial","trial_index":60,"time_elapsed":565124,"internal_node_id":"0.0-57.0-0.0","task_version":"screening-mturk","missing":false,"accuracy":1},{"contexts":["red","blue","green"],"outcomes":[1,1,0],"key":37,"choice":0,"rt":386.0850000055507,"outcome":1,"trial":52,"correct":0,"trial_type":"three-arm-trial","trial_index":61,"time_elapsed":566713,"internal_node_id":"0.0-58.0-0.0","task_version":"screening-mturk","missing":false,"accuracy":1},{"contexts":["red","blue","green"],"outcomes":[1,0,0],"key":37,"choice":0,"rt":686.6050000244286,"outcome":1,"trial":53,"correct":0,"trial_type":"three-arm-trial","trial_index":62,"time_elapsed":568605,"internal_node_id":"0.0-59.0-0.0","task_version":"screening-mturk","missing":false,"accuracy":1},{"contexts":["red","blue","green"],"outcomes":[1,0,1],"key":37,"choice":0,"rt":382.9599999880884,"outcome":1,"trial":54,"correct":0,"trial_type":"three-arm-trial","trial_index":63,"time_elapsed":570192,"internal_node_id":"0.0-60.0-0.0","task_version":"screening-mturk","missing":false,"accuracy":1},{"contexts":["red","blue","green"],"outcomes":[1,0,1],"key":37,"choice":0,"rt":386.87500002561137,"outcome":1,"trial":55,"correct":0,"trial_type":"three-arm-trial","trial_index":64,"time_elapsed":571782,"internal_node_id":"0.0-61.0-0.0","task_version":"screening-mturk","missing":false,"accuracy":1},{"contexts":["red","blue","green"],"outcomes":[1,0,0],"key":37,"choice":0,"rt":417.4549999879673,"outcome":1,"trial":56,"correct":0,"trial_type":"three-arm-trial","trial_index":65,"time_elapsed":573402,"internal_node_id":"0.0-62.0-0.0","task_version":"screening-mturk","missing":false,"accuracy":1},{"contexts":["red","blue","green"],"outcomes":[1,0,0],"key":37,"choice":0,"rt":192.33499999972992,"outcome":1,"trial":57,"correct":0,"trial_type":"three-arm-trial","trial_index":66,"time_elapsed":574797,"internal_node_id":"0.0-63.0-0.0","task_version":"screening-mturk","missing":false,"accuracy":1},{"contexts":["red","blue","green"],"outcomes":[0,0,0],"key":37,"choice":0,"rt":327.7200000011362,"outcome":0,"trial":58,"correct":0,"trial_type":"three-arm-trial","trial_index":67,"time_elapsed":576328,"internal_node_id":"0.0-64.0-0.0","task_version":"screening-mturk","missing":false,"accuracy":1},{"contexts":["red","blue","green"],"outcomes":[1,0,0],"key":38,"choice":1,"rt":177.99500000546686,"outcome":0,"trial":59,"correct":0,"trial_type":"three-arm-trial","trial_index":68,"time_elapsed":577709,"internal_node_id":"0.0-65.0-0.0","task_version":"screening-mturk","missing":false,"accuracy":0},{"contexts":["red","blue","green"],"outcomes":[1,0,0],"key":39,"choice":2,"rt":325.4099999903701,"outcome":0,"trial":60,"correct":0,"trial_type":"three-arm-trial","trial_index":69,"time_elapsed":579239,"internal_node_id":"0.0-66.0-0.0","task_version":"screening-mturk","missing":false,"accuracy":0},{"contexts":["red","blue","green"],"outcomes":[0,0,1],"key":37,"choice":0,"rt":414.7300000186078,"outcome":0,"trial":61,"correct":2,"trial_type":"three-arm-trial","trial_index":70,"time_elapsed":580859,"internal_node_id":"0.0-67.0-0.0","task_version":"screening-mturk","missing":false,"accuracy":0},{"contexts":["red","blue","green"],"outcomes":[1,1,1],"key":38,"choice":1,"rt":386.2950000038836,"outcome":1,"trial":62,"correct":2,"trial_type":"three-arm-trial","trial_index":71,"time_elapsed":582448,"internal_node_id":"0.0-68.0-0.0","task_version":"screening-mturk","missing":false,"accuracy":0},{"contexts":["red","blue","green"],"outcomes":[0,0,1],"key":38,"choice":1,"rt":327.4799999780953,"outcome":0,"trial":63,"correct":2,"trial_type":"three-arm-trial","trial_index":72,"time_elapsed":583980,"internal_node_id":"0.0-69.0-0.0","task_version":"screening-mturk","missing":false,"accuracy":0},{"contexts":["red","blue","green"],"outcomes":[0,1,1],"key":39,"choice":2,"rt":473.07000000728294,"outcome":1,"trial":64,"correct":2,"trial_type":"three-arm-trial","trial_index":73,"time_elapsed":585657,"internal_node_id":"0.0-70.0-0.0","task_version":"screening-mturk","missing":false,"accuracy":1},{"contexts":["red","blue","green"],"outcomes":[0,0,1],"key":39,"choice":2,"rt":432.200000010198,"outcome":1,"trial":65,"correct":2,"trial_type":"three-arm-trial","trial_index":74,"time_elapsed":587292,"internal_node_id":"0.0-71.0-0.0","task_version":"screening-mturk","missing":false,"accuracy":1},{"contexts":["red","blue","green"],"outcomes":[0,0,1],"key":39,"choice":2,"rt":746.6399999975692,"outcome":1,"trial":66,"correct":2,"trial_type":"three-arm-trial","trial_index":75,"time_elapsed":589242,"internal_node_id":"0.0-72.0-0.0","task_version":"screening-mturk","missing":false,"accuracy":1},{"contexts":["red","blue","green"],"outcomes":[0,0,1],"key":39,"choice":2,"rt":356.8000000086613,"outcome":1,"trial":67,"correct":2,"trial_type":"three-arm-trial","trial_index":76,"time_elapsed":590804,"internal_node_id":"0.0-73.0-0.0","task_version":"screening-mturk","missing":false,"accuracy":1},{"contexts":["red","blue","green"],"outcomes":[0,0,1],"key":39,"choice":2,"rt":368.0600000079721,"outcome":1,"trial":68,"correct":2,"trial_type":"three-arm-trial","trial_index":77,"time_elapsed":592376,"internal_node_id":"0.0-74.0-0.0","task_version":"screening-mturk","missing":false,"accuracy":1},{"contexts":["red","blue","green"],"outcomes":[0,0,1],"key":39,"choice":2,"rt":297.14499998954125,"outcome":1,"trial":69,"correct":2,"trial_type":"three-arm-trial","trial_index":78,"time_elapsed":593877,"internal_node_id":"0.0-75.0-0.0","task_version":"screening-mturk","missing":false,"accuracy":1},{"contexts":["red","blue","green"],"outcomes":[0,1,1],"key":39,"choice":2,"rt":312.47000000439584,"outcome":1,"trial":70,"correct":2,"trial_type":"three-arm-trial","trial_index":79,"time_elapsed":595393,"internal_node_id":"0.0-76.0-0.0","task_version":"screening-mturk","missing":false,"accuracy":1},{"contexts":["red","blue","green"],"outcomes":[0,0,1],"key":null,"rt":null,"trial":71,"correct":2,"trial_type":"three-arm-trial","trial_index":80,"time_elapsed":610399,"internal_node_id":"0.0-77.0-0.0","task_version":"screening-mturk","missing":true},{"contexts":["red","blue","green"],"outcomes":[0,0,1],"key":37,"choice":0,"rt":1672.1449999895412,"outcome":0,"trial":71,"correct":2,"trial_type":"three-arm-trial","trial_index":81,"time_elapsed":613276,"internal_node_id":"0.0-77.1-0.1","task_version":"screening-mturk","missing":false,"accuracy":0},{"contexts":["red","blue","green"],"outcomes":[0,0,0],"key":38,"choice":1,"rt":533.8249999913387,"outcome":0,"trial":72,"correct":2,"trial_type":"three-arm-trial","trial_index":82,"time_elapsed":615013,"internal_node_id":"0.0-78.0-0.0","task_version":"screening-mturk","missing":false,"accuracy":0},{"contexts":["red","blue","green"],"outcomes":[0,0,1],"key":39,"choice":2,"rt":356.93499998888,"outcome":1,"trial":73,"correct":2,"trial_type":"three-arm-trial","trial_index":83,"time_elapsed":616575,"internal_node_id":"0.0-79.0-0.0","task_version":"screening-mturk","missing":false,"accuracy":1},{"contexts":["red","blue","green"],"outcomes":[1,0,1],"key":39,"choice":2,"rt":459.1599999985192,"outcome":1,"trial":74,"correct":2,"trial_type":"three-arm-trial","trial_index":84,"time_elapsed":618238,"internal_node_id":"0.0-80.0-0.0","task_version":"screening-mturk","missing":false,"accuracy":1},{"contexts":["red","blue","green"],"outcomes":[0,0,0],"key":39,"choice":2,"rt":387.445000000298,"outcome":0,"trial":75,"correct":2,"trial_type":"three-arm-trial","trial_index":85,"time_elapsed":619829,"internal_node_id":"0.0-81.0-0.0","task_version":"screening-mturk","missing":false,"accuracy":1},{"contexts":["red","blue","green"],"outcomes":[1,0,0],"key":38,"choice":1,"rt":311.2550000078045,"outcome":0,"trial":76,"correct":0,"trial_type":"three-arm-trial","trial_index":86,"time_elapsed":621344,"internal_node_id":"0.0-82.0-0.0","task_version":"screening-mturk","missing":false,"accuracy":0},{"contexts":["red","blue","green"],"outcomes":[0,0,0],"key":37,"choice":0,"rt":400.6900000094902,"outcome":0,"trial":77,"correct":0,"trial_type":"three-arm-trial","trial_index":87,"time_elapsed":622949,"internal_node_id":"0.0-83.0-0.0","task_version":"screening-mturk","missing":false,"accuracy":1},{"contexts":["red","blue","green"],"outcomes":[1,1,1],"key":38,"choice":1,"rt":353.2699999923352,"outcome":1,"trial":78,"correct":0,"trial_type":"three-arm-trial","trial_index":88,"time_elapsed":624509,"internal_node_id":"0.0-84.0-0.0","task_version":"screening-mturk","missing":false,"accuracy":0},{"contexts":["red","blue","green"],"outcomes":[0,0,0],"key":38,"choice":1,"rt":474.7849999985192,"outcome":0,"trial":79,"correct":0,"trial_type":"three-arm-trial","trial_index":89,"time_elapsed":626189,"internal_node_id":"0.0-85.0-0.0","task_version":"screening-mturk","missing":false,"accuracy":0},{"contexts":["red","blue","green"],"outcomes":[1,0,0],"key":39,"choice":2,"rt":370.35500002093613,"outcome":0,"trial":80,"correct":0,"trial_type":"three-arm-trial","trial_index":90,"time_elapsed":627762,"internal_node_id":"0.0-86.0-0.0","task_version":"screening-mturk","missing":false,"accuracy":0},{"contexts":["red","blue","green"],"outcomes":[1,0,1],"key":37,"choice":0,"rt":463.3599999942817,"outcome":1,"trial":81,"correct":0,"trial_type":"three-arm-trial","trial_index":91,"time_elapsed":629428,"internal_node_id":"0.0-87.0-0.0","task_version":"screening-mturk","missing":false,"accuracy":1},{"contexts":["red","blue","green"],"outcomes":[1,0,0],"key":37,"choice":0,"rt":326.52499998221174,"outcome":1,"trial":82,"correct":0,"trial_type":"three-arm-trial","trial_index":92,"time_elapsed":630958,"internal_node_id":"0.0-88.0-0.0","task_version":"screening-mturk","missing":false,"accuracy":1},{"contexts":["red","blue","green"],"outcomes":[1,1,0],"key":37,"choice":0,"rt":474.97999999905005,"outcome":1,"trial":83,"correct":0,"trial_type":"three-arm-trial","trial_index":93,"time_elapsed":632638,"internal_node_id":"0.0-89.0-0.0","task_version":"screening-mturk","missing":false,"accuracy":1},{"contexts":["red","blue","green"],"outcomes":[1,1,1],"key":37,"choice":0,"rt":388.215000013588,"outcome":1,"trial":84,"correct":0,"trial_type":"three-arm-trial","trial_index":94,"time_elapsed":634229,"internal_node_id":"0.0-90.0-0.0","task_version":"screening-mturk","missing":false,"accuracy":1},{"contexts":["red","blue","green"],"outcomes":[1,1,0],"key":37,"choice":0,"rt":326.1300000012852,"outcome":1,"trial":85,"correct":0,"trial_type":"three-arm-trial","trial_index":95,"time_elapsed":635758,"internal_node_id":"0.0-91.0-0.0","task_version":"screening-mturk","missing":false,"accuracy":1},{"contexts":["red","blue","green"],"outcomes":[1,0,0],"key":37,"choice":0,"rt":404.77500000270084,"outcome":1,"trial":86,"correct":0,"trial_type":"three-arm-trial","trial_index":96,"time_elapsed":637365,"internal_node_id":"0.0-92.0-0.0","task_version":"screening-mturk","missing":false,"accuracy":1},{"contexts":["red","blue","green"],"outcomes":[0,0,0],"key":37,"choice":0,"rt":219.4350000063423,"outcome":0,"trial":87,"correct":0,"trial_type":"three-arm-trial","trial_index":97,"time_elapsed":638789,"internal_node_id":"0.0-93.0-0.0","task_version":"screening-mturk","missing":false,"accuracy":1},{"contexts":["red","blue","green"],"outcomes":[1,0,0],"key":38,"choice":1,"rt":266.31999999517575,"outcome":0,"trial":88,"correct":0,"trial_type":"three-arm-trial","trial_index":98,"time_elapsed":640259,"internal_node_id":"0.0-94.0-0.0","task_version":"screening-mturk","missing":false,"accuracy":0},{"contexts":["red","blue","green"],"outcomes":[1,0,1],"key":39,"choice":2,"rt":324.3450000009034,"outcome":1,"trial":89,"correct":0,"trial_type":"three-arm-trial","trial_index":99,"time_elapsed":641788,"internal_node_id":"0.0-95.0-0.0","task_version":"screening-mturk","missing":false,"accuracy":0},{"contexts":["red","blue","green"],"outcomes":[0,0,0],"key":39,"choice":2,"rt":327.0149999880232,"outcome":0,"trial":90,"correct":0,"trial_type":"three-arm-trial","trial_index":100,"time_elapsed":643319,"internal_node_id":"0.0-96.0-0.0","task_version":"screening-mturk","missing":false,"accuracy":0},{"rt":39172.91500000283,"responses":{"age":"35","gender-categorical":"Female","gender-free-response":"","ethnicity":"Not Hispanic or Latino","race":["Asian"],"language":"No","fluency":"Very well","prolific":"No","prolific-this-study":"No"},"survey":"demographics","trial_type":"survey-demo","trial_index":101,"time_elapsed":682499,"internal_node_id":"0.0-97.0","task_version":"screening-mturk","interactions":"[{\"event\":\"blur\",\"trial\":3,\"time\":202129},{\"event\":\"focus\",\"trial\":3,\"time\":210417},{\"event\":\"blur\",\"trial\":5,\"time\":300499},{\"event\":\"focus\",\"trial\":5,\"time\":314915},{\"event\":\"blur\",\"trial\":101,\"time\":663033},{\"event\":\"focus\",\"trial\":101,\"time\":678765}]"}]