[{"responses":{"Q07":"3","Q11":"3","Q09":"3","Q01":"0","Q02":"0","Q08":"3","Q05":"3","Q04":"1","Q12":"3","Q03":"2","Q13":"3","Q10":"3","Q06":"3"},"rt":41016.7999999976,"survey":"bisbas","trial_type":"survey-template","trial_index":0,"time_elapsed":41051,"internal_node_id":"0.0-0.0","task_version":"screening-mturk"},{"responses":{"Q05":"3","Q03":"3","Q09":"3","Q06":"3","Q10":"3","Q04":"3","Q12":"3","Q15":"3","Q02":"3","Q11":"3","Q14":"3","Q07":"3","Q01":"3","Q08":"3","Q13":"3"},"rt":22612.79500000819,"survey":"shaps","trial_type":"survey-template","trial_index":1,"time_elapsed":63743,"internal_node_id":"0.0-1.0","task_version":"screening-mturk"},{"responses":{"Q03":"1","Q01":"0","Q02":"0"},"rt":7411.040000006324,"survey":"pswq","trial_type":"survey-template","trial_index":2,"time_elapsed":71224,"internal_node_id":"0.0-2.0","task_version":"screening-mturk"},{"responses":{"Q05":"0","Q04":"0","Q08":"0","Q03":"0","Q07":"0","Q06":"0","Q02":"0","Q01":"0"},"rt":11558.455000005779,"survey":"gad7","trial_type":"survey-template","trial_index":3,"time_elapsed":82851,"internal_node_id":"0.0-3.0","task_version":"screening-mturk"},{"responses":{"Q02":"0","Q09":"0","Q13":"1","Q10":"0","Q11":"0","Q01":"2","Q06":"2","Q15":"0","Q04":"0","Q03":"3","Q07":"3","Q08":"3","Q12":"0","Q05":"0","Q14":"0"},"rt":50344.93000000657,"survey":"7up7down","trial_type":"survey-template","trial_index":4,"time_elapsed":133296,"internal_node_id":"0.0-4.0","task_version":"screening-mturk"},{"view_history":"[{\"page_index\":0,\"viewing_time\":7289.35000000638},{\"page_index\":1,\"viewing_time\":8949.48499999009},{\"page_index\":2,\"viewing_time\":7984.785000007832},{\"page_index\":3,\"viewing_time\":5329.689999998664},{\"page_index\":4,\"viewing_time\":4466.065000000526},{\"page_index\":5,\"viewing_time\":1974.820000003092},{\"page_index\":6,\"viewing_time\":3086.394999991171},{\"page_index\":7,\"viewing_time\":1832.95999999973}]","rt":40914.340000002994,"trial_type":"instructions","trial_index":5,"time_elapsed":174307,"internal_node_id":"0.0-5.0-0.0","task_version":"screening-mturk"},{"responses":["True","True","False","False","True"],"num_errors":0,"rt":30362.139999997453,"trial_type":"three-arm-comprehension","trial_index":6,"time_elapsed":204678,"internal_node_id":"0.0-5.0-1.0","task_version":"screening-mturk"},{"view_history":"[{\"page_index\":0,\"viewing_time\":1832.1949999954086}]","rt":1832.6249999954598,"trial_type":"instructions","trial_index":7,"time_elapsed":206585,"internal_node_id":"0.0-6.0","task_version":"screening-mturk"},{"contexts":["green","red","blue"],"outcomes":[1,0,0],"key":38,"choice":1,"rt":1940.22999999288,"outcome":0,"trial":1,"correct":0,"trial_type":"three-arm-trial","trial_index":8,"time_elapsed":209733,"internal_node_id":"0.0-7.0-0.0","task_version":"screening-mturk","missing":false,"accuracy":0},{"contexts":["green","red","blue"],"outcomes":[1,0,0],"key":39,"choice":2,"rt":531.3549999991665,"outcome":0,"trial":2,"correct":0,"trial_type":"three-arm-trial","trial_index":9,"time_elapsed":211535,"internal_node_id":"0.0-8.0-0.0","task_version":"screening-mturk","missing":false,"accuracy":0},{"contexts":["green","red","blue"],"outcomes":[1,0,0],"key":37,"choice":0,"rt":144.24999999755528,"outcome":1,"trial":3,"correct":0,"trial_type":"three-arm-trial","trial_index":10,"time_elapsed":212957,"internal_node_id":"0.0-9.0-0.0","task_version":"screening-mturk","missing":false,"accuracy":1},{"contexts":["green","red","blue"],"outcomes":[1,1,0],"key":37,"choice":0,"rt":325.4949999973178,"outcome":1,"trial":4,"correct":0,"trial_type":"three-arm-trial","trial_index":11,"time_elapsed":214562,"internal_node_id":"0.0-10.0-0.0","task_version":"screening-mturk","missing":false,"accuracy":1},{"contexts":["green","red","blue"],"outcomes":[1,0,0],"key":37,"choice":0,"rt":323.0199999961769,"outcome":1,"trial":5,"correct":0,"trial_type":"three-arm-trial","trial_index":12,"time_elapsed":216184,"internal_node_id":"0.0-11.0-0.0","task_version":"screening-mturk","missing":false,"accuracy":1},{"contexts":["green","red","blue"],"outcomes":[1,0,0],"key":37,"choice":0,"rt":241.16000000503846,"outcome":1,"trial":6,"correct":0,"trial_type":"three-arm-trial","trial_index":13,"time_elapsed":217693,"internal_node_id":"0.0-12.0-0.0","task_version":"screening-mturk","missing":false,"accuracy":1},{"contexts":["green","red","blue"],"outcomes":[1,1,1],"key":37,"choice":0,"rt":106.58999999577645,"outcome":1,"trial":7,"correct":0,"trial_type":"three-arm-trial","trial_index":14,"time_elapsed":219077,"internal_node_id":"0.0-13.0-0.0","task_version":"screening-mturk","missing":false,"accuracy":1},{"contexts":["green","red","blue"],"outcomes":[1,0,0],"key":37,"choice":0,"rt":214.18499998981133,"outcome":1,"trial":8,"correct":0,"trial_type":"three-arm-trial","trial_index":15,"time_elapsed":220563,"internal_node_id":"0.0-14.0-0.0","task_version":"screening-mturk","missing":false,"accuracy":1},{"contexts":["green","red","blue"],"outcomes":[1,0,0],"key":37,"choice":0,"rt":42.43499999574851,"outcome":1,"trial":9,"correct":0,"trial_type":"three-arm-trial","trial_index":16,"time_elapsed":221885,"internal_node_id":"0.0-15.0-0.0","task_version":"screening-mturk","missing":false,"accuracy":1},{"contexts":["green","red","blue"],"outcomes":[1,0,0],"key":37,"choice":0,"rt":2.1899999992456287,"outcome":1,"trial":10,"correct":0,"trial_type":"three-arm-trial","trial_index":17,"time_elapsed":223177,"internal_node_id":"0.0-16.0-0.0","task_version":"screening-mturk","missing":false,"accuracy":1},{"contexts":["green","red","blue"],"outcomes":[1,0,0],"key":37,"choice":0,"rt":551.789999997709,"outcome":1,"trial":11,"correct":0,"trial_type":"three-arm-trial","trial_index":18,"time_elapsed":225004,"internal_node_id":"0.0-17.0-0.0","task_version":"screening-mturk","missing":false,"accuracy":1},{"contexts":["green","red","blue"],"outcomes":[0,0,1],"key":37,"choice":0,"rt":72.62000000628177,"outcome":0,"trial":12,"correct":0,"trial_type":"three-arm-trial","trial_index":19,"time_elapsed":226342,"internal_node_id":"0.0-18.0-0.0","task_version":"screening-mturk","missing":false,"accuracy":1},{"contexts":["green","red","blue"],"outcomes":[1,0,0],"key":38,"choice":1,"rt":385.1300000096671,"outcome":0,"trial":13,"correct":0,"trial_type":"three-arm-trial","trial_index":20,"time_elapsed":227997,"internal_node_id":"0.0-19.0-0.0","task_version":"screening-mturk","missing":false,"accuracy":0},{"contexts":["green","red","blue"],"outcomes":[1,0,0],"key":39,"choice":2,"rt":132.81500000448432,"outcome":0,"trial":14,"correct":0,"trial_type":"three-arm-trial","trial_index":21,"time_elapsed":229411,"internal_node_id":"0.0-20.0-0.0","task_version":"screening-mturk","missing":false,"accuracy":0},{"contexts":["green","red","blue"],"outcomes":[1,0,0],"key":38,"choice":1,"rt":356.8449999875156,"outcome":0,"trial":15,"correct":0,"trial_type":"three-arm-trial","trial_index":22,"time_elapsed":231035,"internal_node_id":"0.0-21.0-0.0","task_version":"screening-mturk","missing":false,"accuracy":0},{"contexts":["green","red","blue"],"outcomes":[0,0,1],"key":37,"choice":0,"rt":35.22999999404419,"outcome":0,"trial":16,"correct":2,"trial_type":"three-arm-trial","trial_index":23,"time_elapsed":232343,"internal_node_id":"0.0-22.0-0.0","task_version":"screening-mturk","missing":false,"accuracy":0},{"contexts":["green","red","blue"],"outcomes":[0,0,0],"key":39,"choice":2,"rt":121.86999998812098,"outcome":0,"trial":17,"correct":2,"trial_type":"three-arm-trial","trial_index":24,"time_elapsed":233734,"internal_node_id":"0.0-23.0-0.0","task_version":"screening-mturk","missing":false,"accuracy":1},{"contexts":["green","red","blue"],"outcomes":[0,0,1],"key":38,"choice":1,"rt":19.339999998919666,"outcome":0,"trial":18,"correct":2,"trial_type":"three-arm-trial","trial_index":25,"time_elapsed":235019,"internal_node_id":"0.0-24.0-0.0","task_version":"screening-mturk","missing":false,"accuracy":0},{"contexts":["green","red","blue"],"outcomes":[0,1,1],"key":38,"choice":1,"rt":1.1950000043725595,"outcome":1,"trial":19,"correct":2,"trial_type":"three-arm-trial","trial_index":26,"time_elapsed":236287,"internal_node_id":"0.0-25.0-0.0","task_version":"screening-mturk","missing":false,"accuracy":0},{"contexts":["green","red","blue"],"outcomes":[0,1,1],"key":38,"choice":1,"rt":1.485000000684522,"outcome":1,"trial":20,"correct":2,"trial_type":"three-arm-trial","trial_index":27,"time_elapsed":237563,"internal_node_id":"0.0-26.0-0.0","task_version":"screening-mturk","missing":false,"accuracy":0},{"contexts":["green","red","blue"],"outcomes":[0,0,1],"key":38,"choice":1,"rt":38.74000000359956,"outcome":0,"trial":21,"correct":2,"trial_type":"three-arm-trial","trial_index":28,"time_elapsed":238874,"internal_node_id":"0.0-27.0-0.0","task_version":"screening-mturk","missing":false,"accuracy":0},{"contexts":["green","red","blue"],"outcomes":[0,0,1],"key":39,"choice":2,"rt":307.8899999964051,"outcome":1,"trial":22,"correct":2,"trial_type":"three-arm-trial","trial_index":29,"time_elapsed":240457,"internal_node_id":"0.0-28.0-0.0","task_version":"screening-mturk","missing":false,"accuracy":1},{"contexts":["green","red","blue"],"outcomes":[0,0,1],"key":39,"choice":2,"rt":27.750000008381903,"outcome":1,"trial":23,"correct":2,"trial_type":"three-arm-trial","trial_index":30,"time_elapsed":241755,"internal_node_id":"0.0-29.0-0.0","task_version":"screening-mturk","missing":false,"accuracy":1},{"contexts":["green","red","blue"],"outcomes":[0,0,0],"key":39,"choice":2,"rt":86.93999999377411,"outcome":0,"trial":24,"correct":2,"trial_type":"three-arm-trial","trial_index":31,"time_elapsed":243115,"internal_node_id":"0.0-30.0-0.0","task_version":"screening-mturk","missing":false,"accuracy":1},{"contexts":["green","red","blue"],"outcomes":[0,0,1],"key":37,"choice":0,"rt":83.11999999568798,"outcome":0,"trial":25,"correct":2,"trial_type":"three-arm-trial","trial_index":32,"time_elapsed":244469,"internal_node_id":"0.0-31.0-0.0","task_version":"screening-mturk","missing":false,"accuracy":0},{"contexts":["green","red","blue"],"outcomes":[0,1,1],"key":38,"choice":1,"rt":510.85999999486376,"outcome":1,"trial":26,"correct":2,"trial_type":"three-arm-trial","trial_index":33,"time_elapsed":246258,"internal_node_id":"0.0-32.0-0.0","task_version":"screening-mturk","missing":false,"accuracy":0},{"contexts":["green","red","blue"],"outcomes":[0,0,1],"key":38,"choice":1,"rt":306.38000000908505,"outcome":0,"trial":27,"correct":2,"trial_type":"three-arm-trial","trial_index":34,"time_elapsed":247832,"internal_node_id":"0.0-33.0-0.0","task_version":"screening-mturk","missing":false,"accuracy":0},{"contexts":["green","red","blue"],"outcomes":[0,0,1],"key":39,"choice":2,"rt":195.43999999586958,"outcome":1,"trial":28,"correct":2,"trial_type":"three-arm-trial","trial_index":35,"time_elapsed":249295,"internal_node_id":"0.0-34.0-0.0","task_version":"screening-mturk","missing":false,"accuracy":1},{"contexts":["green","red","blue"],"outcomes":[0,0,1],"key":39,"choice":2,"rt":281.3649999879999,"outcome":1,"trial":29,"correct":2,"trial_type":"three-arm-trial","trial_index":36,"time_elapsed":250867,"internal_node_id":"0.0-35.0-0.0","task_version":"screening-mturk","missing":false,"accuracy":1},{"contexts":["green","red","blue"],"outcomes":[1,0,1],"key":39,"choice":2,"rt":251.52000000525732,"outcome":1,"trial":30,"correct":2,"trial_type":"three-arm-trial","trial_index":37,"time_elapsed":252392,"internal_node_id":"0.0-36.0-0.0","task_version":"screening-mturk","missing":false,"accuracy":1},{"contexts":["green","red","blue"],"outcomes":[1,1,0],"key":37,"choice":0,"rt":731.5600000001723,"outcome":1,"trial":31,"correct":0,"trial_type":"three-arm-trial","trial_index":38,"time_elapsed":254408,"internal_node_id":"0.0-37.0-0.0","task_version":"screening-mturk","missing":false,"accuracy":1},{"contexts":["green","red","blue"],"outcomes":[1,1,0],"key":37,"choice":0,"rt":270.33499999379274,"outcome":1,"trial":32,"correct":0,"trial_type":"three-arm-trial","trial_index":39,"time_elapsed":255973,"internal_node_id":"0.0-38.0-0.0","task_version":"screening-mturk","missing":false,"accuracy":1},{"contexts":["green","red","blue"],"outcomes":[1,0,0],"key":37,"choice":0,"rt":336.2900000065565,"outcome":1,"trial":33,"correct":0,"trial_type":"three-arm-trial","trial_index":40,"time_elapsed":257583,"internal_node_id":"0.0-39.0-0.0","task_version":"screening-mturk","missing":false,"accuracy":1},{"contexts":["green","red","blue"],"outcomes":[0,0,1],"key":37,"choice":0,"rt":140.16999999876134,"outcome":0,"trial":34,"correct":0,"trial_type":"three-arm-trial","trial_index":41,"time_elapsed":258991,"internal_node_id":"0.0-40.0-0.0","task_version":"screening-mturk","missing":false,"accuracy":1},{"contexts":["green","red","blue"],"outcomes":[1,1,0],"key":38,"choice":1,"rt":326.70499999949243,"outcome":1,"trial":35,"correct":0,"trial_type":"three-arm-trial","trial_index":42,"time_elapsed":260587,"internal_node_id":"0.0-41.0-0.0","task_version":"screening-mturk","missing":false,"accuracy":0},{"contexts":["green","red","blue"],"outcomes":[1,0,0],"key":38,"choice":1,"rt":57.2449999890523,"outcome":0,"trial":36,"correct":0,"trial_type":"three-arm-trial","trial_index":43,"time_elapsed":261918,"internal_node_id":"0.0-42.0-0.0","task_version":"screening-mturk","missing":false,"accuracy":0},{"contexts":["green","red","blue"],"outcomes":[1,1,1],"key":39,"choice":2,"rt":34.68500000599306,"outcome":1,"trial":37,"correct":0,"trial_type":"three-arm-trial","trial_index":44,"time_elapsed":263228,"internal_node_id":"0.0-43.0-0.0","task_version":"screening-mturk","missing":false,"accuracy":0},{"contexts":["green","red","blue"],"outcomes":[1,1,0],"key":37,"choice":0,"rt":1.0900000052060932,"outcome":1,"trial":38,"correct":0,"trial_type":"three-arm-trial","trial_index":45,"time_elapsed":264498,"internal_node_id":"0.0-44.0-0.0","task_version":"screening-mturk","missing":false,"accuracy":1},{"contexts":["green","red","blue"],"outcomes":[1,1,0],"key":38,"choice":1,"rt":76.11000000906643,"outcome":1,"trial":39,"correct":0,"trial_type":"three-arm-trial","trial_index":46,"time_elapsed":265849,"internal_node_id":"0.0-45.0-0.0","task_version":"screening-mturk","missing":false,"accuracy":0},{"contexts":["green","red","blue"],"outcomes":[0,0,1],"key":39,"choice":2,"rt":581.3400000042748,"outcome":1,"trial":40,"correct":0,"trial_type":"three-arm-trial","trial_index":47,"time_elapsed":267725,"internal_node_id":"0.0-46.0-0.0","task_version":"screening-mturk","missing":false,"accuracy":0},{"contexts":["green","red","blue"],"outcomes":[1,1,1],"key":37,"choice":0,"rt":390.6450000067707,"outcome":1,"trial":41,"correct":0,"trial_type":"three-arm-trial","trial_index":48,"time_elapsed":269389,"internal_node_id":"0.0-47.0-0.0","task_version":"screening-mturk","missing":false,"accuracy":1},{"contexts":["green","red","blue"],"outcomes":[1,0,1],"key":38,"choice":1,"rt":212.63000000908505,"outcome":0,"trial":42,"correct":0,"trial_type":"three-arm-trial","trial_index":49,"time_elapsed":270870,"internal_node_id":"0.0-48.0-0.0","task_version":"screening-mturk","missing":false,"accuracy":0},{"contexts":["green","red","blue"],"outcomes":[0,0,0],"key":39,"choice":2,"rt":208.52000000013504,"outcome":0,"trial":43,"correct":0,"trial_type":"three-arm-trial","trial_index":50,"time_elapsed":272354,"internal_node_id":"0.0-49.0-0.0","task_version":"screening-mturk","missing":false,"accuracy":0},{"contexts":["green","red","blue"],"outcomes":[1,1,0],"key":37,"choice":0,"rt":66.80000000051223,"outcome":1,"trial":44,"correct":0,"trial_type":"three-arm-trial","trial_index":51,"time_elapsed":273736,"internal_node_id":"0.0-50.0-0.0","task_version":"screening-mturk","missing":false,"accuracy":1},{"contexts":["green","red","blue"],"outcomes":[1,1,0],"key":37,"choice":0,"rt":65.24999999965075,"outcome":1,"trial":45,"correct":0,"trial_type":"three-arm-trial","trial_index":52,"time_elapsed":275068,"internal_node_id":"0.0-51.0-0.0","task_version":"screening-mturk","missing":false,"accuracy":1},{"contexts":["green","red","blue"],"outcomes":[0,0,0],"key":37,"choice":0,"rt":41.02999999304302,"outcome":0,"trial":46,"correct":2,"trial_type":"three-arm-trial","trial_index":53,"time_elapsed":276384,"internal_node_id":"0.0-52.0-0.0","task_version":"screening-mturk","missing":false,"accuracy":0},{"contexts":["green","red","blue"],"outcomes":[0,0,1],"key":39,"choice":2,"rt":1.2350000033620745,"outcome":1,"trial":47,"correct":2,"trial_type":"three-arm-trial","trial_index":54,"time_elapsed":277657,"internal_node_id":"0.0-53.0-0.0","task_version":"screening-mturk","missing":false,"accuracy":1},{"contexts":["green","red","blue"],"outcomes":[0,0,1],"key":38,"choice":1,"rt":1.1749999976018444,"outcome":0,"trial":48,"correct":2,"trial_type":"three-arm-trial","trial_index":55,"time_elapsed":278928,"internal_node_id":"0.0-54.0-0.0","task_version":"screening-mturk","missing":false,"accuracy":0},{"contexts":["green","red","blue"],"outcomes":[0,0,0],"key":39,"choice":2,"rt":49.83999999240041,"outcome":0,"trial":49,"correct":2,"trial_type":"three-arm-trial","trial_index":56,"time_elapsed":280246,"internal_node_id":"0.0-55.0-0.0","task_version":"screening-mturk","missing":false,"accuracy":1},{"contexts":["green","red","blue"],"outcomes":[0,0,0],"key":37,"choice":0,"rt":77.72499999555293,"outcome":0,"trial":50,"correct":2,"trial_type":"three-arm-trial","trial_index":57,"time_elapsed":281658,"internal_node_id":"0.0-56.0-0.0","task_version":"screening-mturk","missing":false,"accuracy":0},{"contexts":["green","red","blue"],"outcomes":[0,1,1],"key":38,"choice":1,"rt":127.51500000013039,"outcome":1,"trial":51,"correct":2,"trial_type":"three-arm-trial","trial_index":58,"time_elapsed":283062,"internal_node_id":"0.0-57.0-0.0","task_version":"screening-mturk","missing":false,"accuracy":0},{"contexts":["green","red","blue"],"outcomes":[0,1,1],"key":39,"choice":2,"rt":812.1399999945424,"outcome":1,"trial":52,"correct":2,"trial_type":"three-arm-trial","trial_index":59,"time_elapsed":285148,"internal_node_id":"0.0-58.0-0.0","task_version":"screening-mturk","missing":false,"accuracy":1},{"contexts":["green","red","blue"],"outcomes":[0,1,1],"key":37,"choice":0,"rt":239.27499999990687,"outcome":0,"trial":53,"correct":2,"trial_type":"three-arm-trial","trial_index":60,"time_elapsed":286660,"internal_node_id":"0.0-59.0-0.0","task_version":"screening-mturk","missing":false,"accuracy":0},{"contexts":["green","red","blue"],"outcomes":[0,0,1],"key":39,"choice":2,"rt":301.7099999997299,"outcome":1,"trial":54,"correct":2,"trial_type":"three-arm-trial","trial_index":61,"time_elapsed":288227,"internal_node_id":"0.0-60.0-0.0","task_version":"screening-mturk","missing":false,"accuracy":1},{"contexts":["green","red","blue"],"outcomes":[0,0,1],"key":39,"choice":2,"rt":128.7000000011176,"outcome":1,"trial":55,"correct":2,"trial_type":"three-arm-trial","trial_index":62,"time_elapsed":289624,"internal_node_id":"0.0-61.0-0.0","task_version":"screening-mturk","missing":false,"accuracy":1},{"contexts":["green","red","blue"],"outcomes":[0,0,1],"key":39,"choice":2,"rt":48.9850000012666,"outcome":1,"trial":56,"correct":2,"trial_type":"three-arm-trial","trial_index":63,"time_elapsed":290956,"internal_node_id":"0.0-62.0-0.0","task_version":"screening-mturk","missing":false,"accuracy":1},{"contexts":["green","red","blue"],"outcomes":[0,0,1],"key":39,"choice":2,"rt":33.39500000583939,"outcome":1,"trial":57,"correct":2,"trial_type":"three-arm-trial","trial_index":64,"time_elapsed":292268,"internal_node_id":"0.0-63.0-0.0","task_version":"screening-mturk","missing":false,"accuracy":1},{"contexts":["green","red","blue"],"outcomes":[0,0,1],"key":39,"choice":2,"rt":55.220000009285286,"outcome":1,"trial":58,"correct":2,"trial_type":"three-arm-trial","trial_index":65,"time_elapsed":293596,"internal_node_id":"0.0-64.0-0.0","task_version":"screening-mturk","missing":false,"accuracy":1},{"contexts":["green","red","blue"],"outcomes":[0,0,0],"key":39,"choice":2,"rt":266.0299999988638,"outcome":0,"trial":59,"correct":2,"trial_type":"three-arm-trial","trial_index":66,"time_elapsed":295133,"internal_node_id":"0.0-65.0-0.0","task_version":"screening-mturk","missing":false,"accuracy":1},{"contexts":["green","red","blue"],"outcomes":[0,1,1],"key":38,"choice":1,"rt":175.37500000617,"outcome":1,"trial":60,"correct":2,"trial_type":"three-arm-trial","trial_index":67,"time_elapsed":296576,"internal_node_id":"0.0-66.0-0.0","task_version":"screening-mturk","missing":false,"accuracy":0},{"contexts":["green","red","blue"],"outcomes":[1,0,1],"key":38,"choice":1,"rt":1.3500000059138983,"outcome":0,"trial":61,"correct":0,"trial_type":"three-arm-trial","trial_index":68,"time_elapsed":297845,"internal_node_id":"0.0-67.0-0.0","task_version":"screening-mturk","missing":false,"accuracy":0},{"contexts":["green","red","blue"],"outcomes":[0,0,0],"key":37,"choice":0,"rt":267.6050000009127,"outcome":0,"trial":62,"correct":0,"trial_type":"three-arm-trial","trial_index":69,"time_elapsed":299386,"internal_node_id":"0.0-68.0-0.0","task_version":"screening-mturk","missing":false,"accuracy":1},{"contexts":["green","red","blue"],"outcomes":[1,0,1],"key":38,"choice":1,"rt":223.46500000276137,"outcome":0,"trial":63,"correct":0,"trial_type":"three-arm-trial","trial_index":70,"time_elapsed":300928,"internal_node_id":"0.0-69.0-0.0","task_version":"screening-mturk","missing":false,"accuracy":0},{"contexts":["green","red","blue"],"outcomes":[1,0,1],"key":39,"choice":2,"rt":225.38000000349712,"outcome":1,"trial":64,"correct":0,"trial_type":"three-arm-trial","trial_index":71,"time_elapsed":302426,"internal_node_id":"0.0-70.0-0.0","task_version":"screening-mturk","missing":false,"accuracy":0},{"contexts":["green","red","blue"],"outcomes":[1,0,0],"key":39,"choice":2,"rt":204.37999999558087,"outcome":0,"trial":65,"correct":0,"trial_type":"three-arm-trial","trial_index":72,"time_elapsed":303898,"internal_node_id":"0.0-71.0-0.0","task_version":"screening-mturk","missing":false,"accuracy":0},{"contexts":["green","red","blue"],"outcomes":[1,0,0],"key":38,"choice":1,"rt":23.644999993848614,"outcome":0,"trial":66,"correct":0,"trial_type":"three-arm-trial","trial_index":73,"time_elapsed":305240,"internal_node_id":"0.0-72.0-0.0","task_version":"screening-mturk","missing":false,"accuracy":0},{"contexts":["green","red","blue"],"outcomes":[1,0,1],"key":38,"choice":1,"rt":57.32000000716653,"outcome":0,"trial":67,"correct":0,"trial_type":"three-arm-trial","trial_index":74,"time_elapsed":306571,"internal_node_id":"0.0-73.0-0.0","task_version":"screening-mturk","missing":false,"accuracy":0},{"contexts":["green","red","blue"],"outcomes":[1,0,0],"key":37,"choice":0,"rt":1.3699999981326982,"outcome":1,"trial":68,"correct":0,"trial_type":"three-arm-trial","trial_index":75,"time_elapsed":307840,"internal_node_id":"0.0-74.0-0.0","task_version":"screening-mturk","missing":false,"accuracy":1},{"contexts":["green","red","blue"],"outcomes":[1,0,0],"key":37,"choice":0,"rt":501.5949999942677,"outcome":1,"trial":69,"correct":0,"trial_type":"three-arm-trial","trial_index":76,"time_elapsed":309622,"internal_node_id":"0.0-75.0-0.0","task_version":"screening-mturk","missing":false,"accuracy":1},{"contexts":["green","red","blue"],"outcomes":[1,0,0],"key":37,"choice":0,"rt":61.77000000025146,"outcome":1,"trial":70,"correct":0,"trial_type":"three-arm-trial","trial_index":77,"time_elapsed":310962,"internal_node_id":"0.0-76.0-0.0","task_version":"screening-mturk","missing":false,"accuracy":1},{"contexts":["green","red","blue"],"outcomes":[1,0,1],"key":37,"choice":0,"rt":88.18500000052154,"outcome":1,"trial":71,"correct":0,"trial_type":"three-arm-trial","trial_index":78,"time_elapsed":312326,"internal_node_id":"0.0-77.0-0.0","task_version":"screening-mturk","missing":false,"accuracy":1},{"contexts":["green","red","blue"],"outcomes":[1,1,0],"key":37,"choice":0,"rt":97.88000000116881,"outcome":1,"trial":72,"correct":0,"trial_type":"three-arm-trial","trial_index":79,"time_elapsed":313696,"internal_node_id":"0.0-78.0-0.0","task_version":"screening-mturk","missing":false,"accuracy":1},{"contexts":["green","red","blue"],"outcomes":[0,0,0],"key":37,"choice":0,"rt":441.93000000086613,"outcome":0,"trial":73,"correct":0,"trial_type":"three-arm-trial","trial_index":80,"time_elapsed":315411,"internal_node_id":"0.0-79.0-0.0","task_version":"screening-mturk","missing":false,"accuracy":1},{"contexts":["green","red","blue"],"outcomes":[1,1,0],"key":39,"choice":2,"rt":47.435000000405125,"outcome":0,"trial":74,"correct":0,"trial_type":"three-arm-trial","trial_index":81,"time_elapsed":316740,"internal_node_id":"0.0-80.0-0.0","task_version":"screening-mturk","missing":false,"accuracy":0},{"contexts":["green","red","blue"],"outcomes":[1,0,0],"key":38,"choice":1,"rt":262.8349999868078,"outcome":0,"trial":75,"correct":0,"trial_type":"three-arm-trial","trial_index":82,"time_elapsed":318271,"internal_node_id":"0.0-81.0-0.0","task_version":"screening-mturk","missing":false,"accuracy":0},{"contexts":["green","red","blue"],"outcomes":[0,0,1],"key":37,"choice":0,"rt":82.29999999457505,"outcome":0,"trial":76,"correct":2,"trial_type":"three-arm-trial","trial_index":83,"time_elapsed":319622,"internal_node_id":"0.0-82.0-0.0","task_version":"screening-mturk","missing":false,"accuracy":0},{"contexts":["green","red","blue"],"outcomes":[0,0,0],"key":38,"choice":1,"rt":189.47999998636078,"outcome":0,"trial":77,"correct":2,"trial_type":"three-arm-trial","trial_index":84,"time_elapsed":321089,"internal_node_id":"0.0-83.0-0.0","task_version":"screening-mturk","missing":false,"accuracy":0},{"contexts":["green","red","blue"],"outcomes":[0,0,0],"key":38,"choice":1,"rt":164.2299999948591,"outcome":0,"trial":78,"correct":2,"trial_type":"three-arm-trial","trial_index":85,"time_elapsed":322525,"internal_node_id":"0.0-84.0-0.0","task_version":"screening-mturk","missing":false,"accuracy":0},{"contexts":["green","red","blue"],"outcomes":[0,0,1],"key":37,"choice":0,"rt":241.27999998745508,"outcome":0,"trial":79,"correct":2,"trial_type":"three-arm-trial","trial_index":86,"time_elapsed":324039,"internal_node_id":"0.0-85.0-0.0","task_version":"screening-mturk","missing":false,"accuracy":0},{"contexts":["green","red","blue"],"outcomes":[0,1,1],"key":39,"choice":2,"rt":74.94500000029802,"outcome":1,"trial":80,"correct":2,"trial_type":"three-arm-trial","trial_index":87,"time_elapsed":325412,"internal_node_id":"0.0-86.0-0.0","task_version":"screening-mturk","missing":false,"accuracy":1},{"contexts":["green","red","blue"],"outcomes":[0,0,1],"key":39,"choice":2,"rt":414.2850000062026,"outcome":1,"trial":81,"correct":2,"trial_type":"three-arm-trial","trial_index":88,"time_elapsed":327114,"internal_node_id":"0.0-87.0-0.0","task_version":"screening-mturk","missing":false,"accuracy":1},{"contexts":["green","red","blue"],"outcomes":[0,1,1],"key":39,"choice":2,"rt":283.1900000019232,"outcome":1,"trial":82,"correct":2,"trial_type":"three-arm-trial","trial_index":89,"time_elapsed":328684,"internal_node_id":"0.0-88.0-0.0","task_version":"screening-mturk","missing":false,"accuracy":1},{"contexts":["green","red","blue"],"outcomes":[0,0,1],"key":39,"choice":2,"rt":17.590000003110617,"outcome":1,"trial":83,"correct":2,"trial_type":"three-arm-trial","trial_index":90,"time_elapsed":329979,"internal_node_id":"0.0-89.0-0.0","task_version":"screening-mturk","missing":false,"accuracy":1},{"contexts":["green","red","blue"],"outcomes":[0,1,1],"key":39,"choice":2,"rt":385.07999999274034,"outcome":1,"trial":84,"correct":2,"trial_type":"three-arm-trial","trial_index":91,"time_elapsed":331688,"internal_node_id":"0.0-90.0-0.0","task_version":"screening-mturk","missing":false,"accuracy":1},{"contexts":["green","red","blue"],"outcomes":[0,0,0],"key":39,"choice":2,"rt":42.55000001285225,"outcome":0,"trial":85,"correct":2,"trial_type":"three-arm-trial","trial_index":92,"time_elapsed":332997,"internal_node_id":"0.0-91.0-0.0","task_version":"screening-mturk","missing":false,"accuracy":1},{"contexts":["green","red","blue"],"outcomes":[0,0,1],"key":38,"choice":1,"rt":89.84000000054948,"outcome":0,"trial":86,"correct":2,"trial_type":"three-arm-trial","trial_index":93,"time_elapsed":334356,"internal_node_id":"0.0-92.0-0.0","task_version":"screening-mturk","missing":false,"accuracy":0},{"contexts":["green","red","blue"],"outcomes":[0,1,1],"key":37,"choice":0,"rt":393.739999999525,"outcome":0,"trial":87,"correct":2,"trial_type":"three-arm-trial","trial_index":94,"time_elapsed":336021,"internal_node_id":"0.0-93.0-0.0","task_version":"screening-mturk","missing":false,"accuracy":0},{"contexts":["green","red","blue"],"outcomes":[0,1,1],"key":39,"choice":2,"rt":156.32999999797903,"outcome":1,"trial":88,"correct":2,"trial_type":"three-arm-trial","trial_index":95,"time_elapsed":337454,"internal_node_id":"0.0-94.0-0.0","task_version":"screening-mturk","missing":false,"accuracy":1},{"contexts":["green","red","blue"],"outcomes":[1,0,1],"key":39,"choice":2,"rt":40.81999999471009,"outcome":1,"trial":89,"correct":2,"trial_type":"three-arm-trial","trial_index":96,"time_elapsed":338762,"internal_node_id":"0.0-95.0-0.0","task_version":"screening-mturk","missing":false,"accuracy":1},{"contexts":["green","red","blue"],"outcomes":[0,0,0],"key":39,"choice":2,"rt":1.1999999987892807,"outcome":0,"trial":90,"correct":2,"trial_type":"three-arm-trial","trial_index":97,"time_elapsed":340043,"internal_node_id":"0.0-96.0-0.0","task_version":"screening-mturk","missing":false,"accuracy":1},{"rt":15358.829999997397,"responses":{"age":"44","gender-categorical":"Female","gender-free-response":"","ethnicity":"Not Hispanic or Latino","race":["White"],"language":"Yes","fluency":"Very well","prolific":"Yes","prolific-this-study":"No"},"survey":"demographics","trial_type":"survey-demo","trial_index":98,"time_elapsed":355477,"internal_node_id":"0.0-97.0","task_version":"screening-mturk","interactions":"[]"}]