[{"responses":{"Q07":"1","Q02":"2","Q08":"1","Q04":"1","Q06":"2","Q01":"1","Q03":"2","Q05":"1"},"rt":28623.69000003673,"survey":"gad7","trial_type":"survey-template","trial_index":0,"time_elapsed":28649,"internal_node_id":"0.0-0.0","task_version":"screening-mturk"},{"responses":{"Q03":"2","Q01":"1","Q02":"2"},"rt":15072.800000198185,"survey":"pswq","trial_type":"survey-template","trial_index":1,"time_elapsed":43729,"internal_node_id":"0.0-1.0","task_version":"screening-mturk"},{"responses":{"Q02":"2","Q14":"2","Q10":"3","Q09":"2","Q05":"2","Q03":"3","Q12":"2","Q13":"2","Q01":"2","Q15":"3","Q08":"2","Q11":"2","Q04":"3","Q07":"2","Q06":"3"},"rt":34081.60499995574,"survey":"shaps","trial_type":"survey-template","trial_index":2,"time_elapsed":77819,"internal_node_id":"0.0-2.0","task_version":"screening-mturk"},{"responses":{"Q02":"2","Q15":"1","Q13":"2","Q08":"2","Q07":"1","Q03":"2","Q09":"1","Q12":"2","Q06":"1","Q14":"2","Q05":"1","Q01":"2","Q10":"1","Q04":"2","Q11":"1"},"rt":35849.75999989547,"survey":"7up7down","trial_type":"survey-template","trial_index":3,"time_elapsed":113680,"internal_node_id":"0.0-3.0","task_version":"screening-mturk"},{"responses":{"Q09":"2","Q12":"3","Q11":"2","Q08":"2","Q13":"3","Q01":"2","Q07":"2","Q03":"2","Q10":"2","Q06":"3","Q05":"3","Q04":"2","Q02":"2"},"rt":30208.069999935105,"survey":"bisbas","trial_type":"survey-template","trial_index":4,"time_elapsed":143896,"internal_node_id":"0.0-4.0","task_version":"screening-mturk"},{"view_history":"[{\"page_index\":0,\"viewing_time\":5334.3349997885525},{\"page_index\":1,\"viewing_time\":3335.26000007987},{\"page_index\":2,\"viewing_time\":11494.355000089854},{\"page_index\":3,\"viewing_time\":3079.64999997057},{\"page_index\":4,\"viewing_time\":4007.424999959767},{\"page_index\":5,\"viewing_time\":1327.5949999224395},{\"page_index\":6,\"viewing_time\":1120.1200000941753},{\"page_index\":7,\"viewing_time\":759.8300001118332}]","rt":30460.289999842644,"trial_type":"instructions","trial_index":5,"time_elapsed":174358,"internal_node_id":"0.0-5.0-0.0","task_version":"screening-mturk"},{"responses":["True","True","True","True","False"],"num_errors":3,"rt":14778.149999910966,"trial_type":"three-arm-comprehension","trial_index":6,"time_elapsed":189143,"internal_node_id":"0.0-5.0-1.0","task_version":"screening-mturk"},{"view_history":"[{\"page_index\":0,\"viewing_time\":2377.1300001535565},{\"page_index\":1,\"viewing_time\":7951.159999938682},{\"page_index\":2,\"viewing_time\":903.7649999372661},{\"page_index\":3,\"viewing_time\":711.9549999479204},{\"page_index\":4,\"viewing_time\":583.8900001253933},{\"page_index\":5,\"viewing_time\":712.0250000152737},{\"page_index\":6,\"viewing_time\":607.7749999240041},{\"page_index\":7,\"viewing_time\":520.0600000098348}]","rt":14368.544999975711,"trial_type":"instructions","trial_index":7,"time_elapsed":203521,"internal_node_id":"0.0-5.1-0.1","task_version":"screening-mturk"},{"responses":["True","False","True","False","True"],"num_errors":2,"rt":12251.12000014633,"trial_type":"three-arm-comprehension","trial_index":8,"time_elapsed":215780,"internal_node_id":"0.0-5.1-1.1","task_version":"screening-mturk"},{"view_history":"[{\"page_index\":0,\"viewing_time\":6942.745000123978},{\"page_index\":1,\"viewing_time\":517.0499999076128},{\"page_index\":2,\"viewing_time\":352.309999987483},{\"page_index\":3,\"viewing_time\":487.7500000875443},{\"page_index\":4,\"viewing_time\":786.1150000244379},{\"page_index\":5,\"viewing_time\":509.8649999126792},{\"page_index\":6,\"viewing_time\":568.2350001297891},{\"page_index\":7,\"viewing_time\":503.5599998664111}]","rt":10669.024999951944,"trial_type":"instructions","trial_index":9,"time_elapsed":226457,"internal_node_id":"0.0-5.2-0.2","task_version":"screening-mturk"},{"responses":["False","False","False","False","False"],"num_errors":3,"rt":6348.140000132844,"trial_type":"three-arm-comprehension","trial_index":10,"time_elapsed":232812,"internal_node_id":"0.0-5.2-1.2","task_version":"screening-mturk"},{"view_history":"[{\"page_index\":0,\"viewing_time\":1484.7800000570714},{\"page_index\":1,\"viewing_time\":511.89500000327826},{\"page_index\":2,\"viewing_time\":480.5650000926107},{\"page_index\":3,\"viewing_time\":847.4699999205768},{\"page_index\":4,\"viewing_time\":759.7199999727309},{\"page_index\":5,\"viewing_time\":599.9400001019239},{\"page_index\":6,\"viewing_time\":560.605000006035},{\"page_index\":7,\"viewing_time\":1111.4899998065084}]","rt":6357.255000155419,"trial_type":"instructions","trial_index":11,"time_elapsed":239175,"internal_node_id":"0.0-5.3-0.3","task_version":"screening-mturk"},{"responses":["True","True","False","False","True"],"num_errors":0,"rt":24377.464999910444,"trial_type":"three-arm-comprehension","trial_index":12,"time_elapsed":263560,"internal_node_id":"0.0-5.3-1.3","task_version":"screening-mturk"},{"view_history":"[{\"page_index\":0,\"viewing_time\":4836.78500005044}]","rt":4837.434999877587,"trial_type":"instructions","trial_index":13,"time_elapsed":268402,"internal_node_id":"0.0-6.0","task_version":"screening-mturk"},{"contexts":["blue","red","green"],"outcomes":[0,1,0],"key":null,"rt":null,"trial":1,"correct":1,"trial_type":"three-arm-trial","trial_index":14,"time_elapsed":283426,"internal_node_id":"0.0-7.0-0.0","task_version":"screening-mturk","missing":true},{"contexts":["blue","red","green"],"outcomes":[0,1,0],"key":37,"choice":0,"rt":4043.2950002141297,"outcome":0,"trial":1,"correct":1,"trial_type":"three-arm-trial","trial_index":15,"time_elapsed":288680,"internal_node_id":"0.0-7.1-0.1","task_version":"screening-mturk","missing":false,"accuracy":0},{"contexts":["blue","red","green"],"outcomes":[0,1,0],"key":39,"choice":2,"rt":849.3349999189377,"outcome":0,"trial":2,"correct":1,"trial_type":"three-arm-trial","trial_index":16,"time_elapsed":290744,"internal_node_id":"0.0-8.0-0.0","task_version":"screening-mturk","missing":false,"accuracy":0},{"contexts":["blue","red","green"],"outcomes":[0,1,0],"key":38,"choice":1,"rt":14.385000104084611,"outcome":1,"trial":3,"correct":1,"trial_type":"three-arm-trial","trial_index":17,"time_elapsed":291964,"internal_node_id":"0.0-9.0-0.0","task_version":"screening-mturk","missing":false,"accuracy":1},{"contexts":["blue","red","green"],"outcomes":[0,1,0],"key":38,"choice":1,"rt":823.8600001204759,"outcome":1,"trial":4,"correct":1,"trial_type":"three-arm-trial","trial_index":18,"time_elapsed":293997,"internal_node_id":"0.0-10.0-0.0","task_version":"screening-mturk","missing":false,"accuracy":1},{"contexts":["blue","red","green"],"outcomes":[0,1,0],"key":38,"choice":1,"rt":575.7050001993775,"outcome":1,"trial":5,"correct":1,"trial_type":"three-arm-trial","trial_index":19,"time_elapsed":295781,"internal_node_id":"0.0-11.0-0.0","task_version":"screening-mturk","missing":false,"accuracy":1},{"contexts":["blue","red","green"],"outcomes":[0,1,0],"key":39,"choice":2,"rt":937.0450000278652,"outcome":0,"trial":6,"correct":1,"trial_type":"three-arm-trial","trial_index":20,"time_elapsed":297927,"internal_node_id":"0.0-12.0-0.0","task_version":"screening-mturk","missing":false,"accuracy":0},{"contexts":["blue","red","green"],"outcomes":[0,1,0],"key":37,"choice":0,"rt":445.9649999625981,"outcome":0,"trial":7,"correct":1,"trial_type":"three-arm-trial","trial_index":21,"time_elapsed":299581,"internal_node_id":"0.0-13.0-0.0","task_version":"screening-mturk","missing":false,"accuracy":0},{"contexts":["blue","red","green"],"outcomes":[1,1,0],"key":38,"choice":1,"rt":363.4650001768023,"outcome":1,"trial":8,"correct":1,"trial_type":"three-arm-trial","trial_index":22,"time_elapsed":301157,"internal_node_id":"0.0-14.0-0.0","task_version":"screening-mturk","missing":false,"accuracy":1},{"contexts":["blue","red","green"],"outcomes":[0,0,0],"key":38,"choice":1,"rt":467.0800000894815,"outcome":0,"trial":9,"correct":1,"trial_type":"three-arm-trial","trial_index":23,"time_elapsed":302830,"internal_node_id":"0.0-15.0-0.0","task_version":"screening-mturk","missing":false,"accuracy":1},{"contexts":["blue","red","green"],"outcomes":[0,0,1],"key":37,"choice":0,"rt":1583.430000115186,"outcome":0,"trial":10,"correct":1,"trial_type":"three-arm-trial","trial_index":24,"time_elapsed":305619,"internal_node_id":"0.0-16.0-0.0","task_version":"screening-mturk","missing":false,"accuracy":0},{"contexts":["blue","red","green"],"outcomes":[0,0,1],"key":39,"choice":2,"rt":488.0650001578033,"outcome":1,"trial":11,"correct":1,"trial_type":"three-arm-trial","trial_index":25,"time_elapsed":307315,"internal_node_id":"0.0-17.0-0.0","task_version":"screening-mturk","missing":false,"accuracy":0},{"contexts":["blue","red","green"],"outcomes":[0,1,0],"key":38,"choice":1,"rt":584.7799999173731,"outcome":1,"trial":12,"correct":1,"trial_type":"three-arm-trial","trial_index":26,"time_elapsed":309109,"internal_node_id":"0.0-18.0-0.0","task_version":"screening-mturk","missing":false,"accuracy":1},{"contexts":["blue","red","green"],"outcomes":[0,1,0],"key":37,"choice":0,"rt":488.4799998253584,"outcome":0,"trial":13,"correct":1,"trial_type":"three-arm-trial","trial_index":27,"time_elapsed":310803,"internal_node_id":"0.0-19.0-0.0","task_version":"screening-mturk","missing":false,"accuracy":0},{"contexts":["blue","red","green"],"outcomes":[0,0,0],"key":39,"choice":2,"rt":394.6599999908358,"outcome":0,"trial":14,"correct":1,"trial_type":"three-arm-trial","trial_index":28,"time_elapsed":312404,"internal_node_id":"0.0-20.0-0.0","task_version":"screening-mturk","missing":false,"accuracy":0},{"contexts":["blue","red","green"],"outcomes":[1,1,1],"key":38,"choice":1,"rt":374.2799998726696,"outcome":1,"trial":15,"correct":1,"trial_type":"three-arm-trial","trial_index":29,"time_elapsed":313984,"internal_node_id":"0.0-21.0-0.0","task_version":"screening-mturk","missing":false,"accuracy":1},{"contexts":["blue","red","green"],"outcomes":[1,0,0],"key":38,"choice":1,"rt":369.440000038594,"outcome":0,"trial":16,"correct":0,"trial_type":"three-arm-trial","trial_index":30,"time_elapsed":315568,"internal_node_id":"0.0-22.0-0.0","task_version":"screening-mturk","missing":false,"accuracy":0},{"contexts":["blue","red","green"],"outcomes":[1,1,1],"key":39,"choice":2,"rt":363.260000012815,"outcome":1,"trial":17,"correct":0,"trial_type":"three-arm-trial","trial_index":31,"time_elapsed":317138,"internal_node_id":"0.0-23.0-0.0","task_version":"screening-mturk","missing":false,"accuracy":0},{"contexts":["blue","red","green"],"outcomes":[1,0,0],"key":37,"choice":0,"rt":460.410000057891,"outcome":1,"trial":18,"correct":0,"trial_type":"three-arm-trial","trial_index":32,"time_elapsed":318806,"internal_node_id":"0.0-24.0-0.0","task_version":"screening-mturk","missing":false,"accuracy":1},{"contexts":["blue","red","green"],"outcomes":[1,0,0],"key":38,"choice":1,"rt":359.4499998725951,"outcome":0,"trial":19,"correct":0,"trial_type":"three-arm-trial","trial_index":33,"time_elapsed":320373,"internal_node_id":"0.0-25.0-0.0","task_version":"screening-mturk","missing":false,"accuracy":0},{"contexts":["blue","red","green"],"outcomes":[1,0,0],"key":37,"choice":0,"rt":454.1650000028312,"outcome":1,"trial":20,"correct":0,"trial_type":"three-arm-trial","trial_index":34,"time_elapsed":322038,"internal_node_id":"0.0-26.0-0.0","task_version":"screening-mturk","missing":false,"accuracy":1},{"contexts":["blue","red","green"],"outcomes":[1,1,0],"key":38,"choice":1,"rt":472.150000045076,"outcome":1,"trial":21,"correct":0,"trial_type":"three-arm-trial","trial_index":35,"time_elapsed":323722,"internal_node_id":"0.0-27.0-0.0","task_version":"screening-mturk","missing":false,"accuracy":0},{"contexts":["blue","red","green"],"outcomes":[1,0,1],"key":39,"choice":2,"rt":366.5500001516193,"outcome":1,"trial":22,"correct":0,"trial_type":"three-arm-trial","trial_index":36,"time_elapsed":325294,"internal_node_id":"0.0-28.0-0.0","task_version":"screening-mturk","missing":false,"accuracy":0},{"contexts":["blue","red","green"],"outcomes":[1,0,0],"key":38,"choice":1,"rt":424.6300000231713,"outcome":0,"trial":23,"correct":0,"trial_type":"three-arm-trial","trial_index":37,"time_elapsed":326926,"internal_node_id":"0.0-29.0-0.0","task_version":"screening-mturk","missing":false,"accuracy":0},{"contexts":["blue","red","green"],"outcomes":[1,1,0],"key":37,"choice":0,"rt":176.51999997906387,"outcome":1,"trial":24,"correct":0,"trial_type":"three-arm-trial","trial_index":38,"time_elapsed":328311,"internal_node_id":"0.0-30.0-0.0","task_version":"screening-mturk","missing":false,"accuracy":1},{"contexts":["blue","red","green"],"outcomes":[1,0,0],"key":39,"choice":2,"rt":404.12500011734664,"outcome":0,"trial":25,"correct":0,"trial_type":"three-arm-trial","trial_index":39,"time_elapsed":329926,"internal_node_id":"0.0-31.0-0.0","task_version":"screening-mturk","missing":false,"accuracy":0},{"contexts":["blue","red","green"],"outcomes":[1,0,0],"key":38,"choice":1,"rt":391.4700001478195,"outcome":0,"trial":26,"correct":0,"trial_type":"three-arm-trial","trial_index":40,"time_elapsed":331525,"internal_node_id":"0.0-32.0-0.0","task_version":"screening-mturk","missing":false,"accuracy":0},{"contexts":["blue","red","green"],"outcomes":[0,0,0],"key":37,"choice":0,"rt":395.52000002004206,"outcome":0,"trial":27,"correct":0,"trial_type":"three-arm-trial","trial_index":41,"time_elapsed":333128,"internal_node_id":"0.0-33.0-0.0","task_version":"screening-mturk","missing":false,"accuracy":1},{"contexts":["blue","red","green"],"outcomes":[1,0,0],"key":39,"choice":2,"rt":507.9550000373274,"outcome":0,"trial":28,"correct":0,"trial_type":"three-arm-trial","trial_index":42,"time_elapsed":334844,"internal_node_id":"0.0-34.0-0.0","task_version":"screening-mturk","missing":false,"accuracy":0},{"contexts":["blue","red","green"],"outcomes":[1,0,0],"key":39,"choice":2,"rt":634.749999968335,"outcome":0,"trial":29,"correct":0,"trial_type":"three-arm-trial","trial_index":43,"time_elapsed":336686,"internal_node_id":"0.0-35.0-0.0","task_version":"screening-mturk","missing":false,"accuracy":0},{"contexts":["blue","red","green"],"outcomes":[0,0,0],"key":37,"choice":0,"rt":435.120000038296,"outcome":0,"trial":30,"correct":0,"trial_type":"three-arm-trial","trial_index":44,"time_elapsed":338333,"internal_node_id":"0.0-36.0-0.0","task_version":"screening-mturk","missing":false,"accuracy":1},{"contexts":["blue","red","green"],"outcomes":[0,0,1],"key":38,"choice":1,"rt":662.0899999979883,"outcome":0,"trial":31,"correct":2,"trial_type":"three-arm-trial","trial_index":45,"time_elapsed":340202,"internal_node_id":"0.0-37.0-0.0","task_version":"screening-mturk","missing":false,"accuracy":0},{"contexts":["blue","red","green"],"outcomes":[0,0,1],"key":39,"choice":2,"rt":307.7950000297278,"outcome":1,"trial":32,"correct":2,"trial_type":"three-arm-trial","trial_index":46,"time_elapsed":341719,"internal_node_id":"0.0-38.0-0.0","task_version":"screening-mturk","missing":false,"accuracy":1},{"contexts":["blue","red","green"],"outcomes":[1,0,0],"key":37,"choice":0,"rt":463.24499999172986,"outcome":1,"trial":33,"correct":2,"trial_type":"three-arm-trial","trial_index":47,"time_elapsed":343389,"internal_node_id":"0.0-39.0-0.0","task_version":"screening-mturk","missing":false,"accuracy":0},{"contexts":["blue","red","green"],"outcomes":[0,1,1],"key":38,"choice":1,"rt":507.5600000564009,"outcome":1,"trial":34,"correct":2,"trial_type":"three-arm-trial","trial_index":48,"time_elapsed":345107,"internal_node_id":"0.0-40.0-0.0","task_version":"screening-mturk","missing":false,"accuracy":0},{"contexts":["blue","red","green"],"outcomes":[0,0,1],"key":39,"choice":2,"rt":1521.3599998969585,"outcome":1,"trial":35,"correct":2,"trial_type":"three-arm-trial","trial_index":49,"time_elapsed":347841,"internal_node_id":"0.0-41.0-0.0","task_version":"screening-mturk","missing":false,"accuracy":1},{"contexts":["blue","red","green"],"outcomes":[0,1,1],"key":37,"choice":0,"rt":475.0899998471141,"outcome":0,"trial":36,"correct":2,"trial_type":"three-arm-trial","trial_index":50,"time_elapsed":349525,"internal_node_id":"0.0-42.0-0.0","task_version":"screening-mturk","missing":false,"accuracy":0},{"contexts":["blue","red","green"],"outcomes":[0,0,1],"key":38,"choice":1,"rt":367.8099999669939,"outcome":0,"trial":37,"correct":2,"trial_type":"three-arm-trial","trial_index":51,"time_elapsed":351108,"internal_node_id":"0.0-43.0-0.0","task_version":"screening-mturk","missing":false,"accuracy":0},{"contexts":["blue","red","green"],"outcomes":[1,0,1],"key":37,"choice":0,"rt":618.2999999728054,"outcome":1,"trial":38,"correct":2,"trial_type":"three-arm-trial","trial_index":52,"time_elapsed":352941,"internal_node_id":"0.0-44.0-0.0","task_version":"screening-mturk","missing":false,"accuracy":0},{"contexts":["blue","red","green"],"outcomes":[0,0,1],"key":38,"choice":1,"rt":446.0849999450147,"outcome":0,"trial":39,"correct":2,"trial_type":"three-arm-trial","trial_index":53,"time_elapsed":354594,"internal_node_id":"0.0-45.0-0.0","task_version":"screening-mturk","missing":false,"accuracy":0},{"contexts":["blue","red","green"],"outcomes":[1,0,1],"key":39,"choice":2,"rt":339.3449999857694,"outcome":1,"trial":40,"correct":2,"trial_type":"three-arm-trial","trial_index":54,"time_elapsed":356146,"internal_node_id":"0.0-46.0-0.0","task_version":"screening-mturk","missing":false,"accuracy":1},{"contexts":["blue","red","green"],"outcomes":[0,0,1],"key":37,"choice":0,"rt":501.0649999603629,"outcome":0,"trial":41,"correct":2,"trial_type":"three-arm-trial","trial_index":55,"time_elapsed":357859,"internal_node_id":"0.0-47.0-0.0","task_version":"screening-mturk","missing":false,"accuracy":0},{"contexts":["blue","red","green"],"outcomes":[0,1,1],"key":39,"choice":2,"rt":368.93000011332333,"outcome":1,"trial":42,"correct":2,"trial_type":"three-arm-trial","trial_index":56,"time_elapsed":359438,"internal_node_id":"0.0-48.0-0.0","task_version":"screening-mturk","missing":false,"accuracy":1},{"contexts":["blue","red","green"],"outcomes":[0,0,0],"key":38,"choice":1,"rt":332.49000017531216,"outcome":0,"trial":43,"correct":2,"trial_type":"three-arm-trial","trial_index":57,"time_elapsed":360976,"internal_node_id":"0.0-49.0-0.0","task_version":"screening-mturk","missing":false,"accuracy":0},{"contexts":["blue","red","green"],"outcomes":[0,0,0],"key":39,"choice":2,"rt":350.7600000593811,"outcome":0,"trial":44,"correct":2,"trial_type":"three-arm-trial","trial_index":58,"time_elapsed":362536,"internal_node_id":"0.0-50.0-0.0","task_version":"screening-mturk","missing":false,"accuracy":1},{"contexts":["blue","red","green"],"outcomes":[0,1,1],"key":37,"choice":0,"rt":450.5450001452118,"outcome":0,"trial":45,"correct":2,"trial_type":"three-arm-trial","trial_index":59,"time_elapsed":364194,"internal_node_id":"0.0-51.0-0.0","task_version":"screening-mturk","missing":false,"accuracy":0},{"contexts":["blue","red","green"],"outcomes":[1,0,0],"key":38,"choice":1,"rt":612.0550001505762,"outcome":0,"trial":46,"correct":0,"trial_type":"three-arm-trial","trial_index":60,"time_elapsed":366011,"internal_node_id":"0.0-52.0-0.0","task_version":"screening-mturk","missing":false,"accuracy":0},{"contexts":["blue","red","green"],"outcomes":[0,0,0],"key":39,"choice":2,"rt":499.1949999239296,"outcome":0,"trial":47,"correct":0,"trial_type":"three-arm-trial","trial_index":61,"time_elapsed":367721,"internal_node_id":"0.0-53.0-0.0","task_version":"screening-mturk","missing":false,"accuracy":0},{"contexts":["blue","red","green"],"outcomes":[1,0,0],"key":37,"choice":0,"rt":434.66500006616116,"outcome":1,"trial":48,"correct":0,"trial_type":"three-arm-trial","trial_index":62,"time_elapsed":369365,"internal_node_id":"0.0-54.0-0.0","task_version":"screening-mturk","missing":false,"accuracy":1},{"contexts":["blue","red","green"],"outcomes":[1,1,0],"key":38,"choice":1,"rt":451.79999992251396,"outcome":1,"trial":49,"correct":0,"trial_type":"three-arm-trial","trial_index":63,"time_elapsed":371030,"internal_node_id":"0.0-55.0-0.0","task_version":"screening-mturk","missing":false,"accuracy":0},{"contexts":["blue","red","green"],"outcomes":[0,0,0],"key":37,"choice":0,"rt":786.019999999553,"outcome":0,"trial":50,"correct":0,"trial_type":"three-arm-trial","trial_index":64,"time_elapsed":373026,"internal_node_id":"0.0-56.0-0.0","task_version":"screening-mturk","missing":false,"accuracy":1},{"contexts":["blue","red","green"],"outcomes":[1,0,0],"key":39,"choice":2,"rt":450.64000017009676,"outcome":0,"trial":51,"correct":0,"trial_type":"three-arm-trial","trial_index":65,"time_elapsed":374686,"internal_node_id":"0.0-57.0-0.0","task_version":"screening-mturk","missing":false,"accuracy":0},{"contexts":["blue","red","green"],"outcomes":[1,0,0],"key":38,"choice":1,"rt":371.3800001423806,"outcome":0,"trial":52,"correct":0,"trial_type":"three-arm-trial","trial_index":66,"time_elapsed":376263,"internal_node_id":"0.0-58.0-0.0","task_version":"screening-mturk","missing":false,"accuracy":0},{"contexts":["blue","red","green"],"outcomes":[1,0,0],"key":37,"choice":0,"rt":502.7399999089539,"outcome":1,"trial":53,"correct":0,"trial_type":"three-arm-trial","trial_index":67,"time_elapsed":377981,"internal_node_id":"0.0-59.0-0.0","task_version":"screening-mturk","missing":false,"accuracy":1},{"contexts":["blue","red","green"],"outcomes":[1,0,1],"key":38,"choice":1,"rt":700.5950000602752,"outcome":0,"trial":54,"correct":0,"trial_type":"three-arm-trial","trial_index":68,"time_elapsed":379893,"internal_node_id":"0.0-60.0-0.0","task_version":"screening-mturk","missing":false,"accuracy":0},{"contexts":["blue","red","green"],"outcomes":[0,0,0],"key":39,"choice":2,"rt":408.0050000920892,"outcome":0,"trial":55,"correct":0,"trial_type":"three-arm-trial","trial_index":69,"time_elapsed":381512,"internal_node_id":"0.0-61.0-0.0","task_version":"screening-mturk","missing":false,"accuracy":0},{"contexts":["blue","red","green"],"outcomes":[1,0,0],"key":37,"choice":0,"rt":687.5299999956042,"outcome":1,"trial":56,"correct":0,"trial_type":"three-arm-trial","trial_index":70,"time_elapsed":383408,"internal_node_id":"0.0-62.0-0.0","task_version":"screening-mturk","missing":false,"accuracy":1},{"contexts":["blue","red","green"],"outcomes":[1,0,0],"key":38,"choice":1,"rt":677.4300001561642,"outcome":0,"trial":57,"correct":0,"trial_type":"three-arm-trial","trial_index":71,"time_elapsed":385300,"internal_node_id":"0.0-63.0-0.0","task_version":"screening-mturk","missing":false,"accuracy":0},{"contexts":["blue","red","green"],"outcomes":[1,0,0],"key":39,"choice":2,"rt":644.4650001358241,"outcome":0,"trial":58,"correct":0,"trial_type":"three-arm-trial","trial_index":72,"time_elapsed":387153,"internal_node_id":"0.0-64.0-0.0","task_version":"screening-mturk","missing":false,"accuracy":0},{"contexts":["blue","red","green"],"outcomes":[1,0,0],"key":37,"choice":0,"rt":464.2649998422712,"outcome":1,"trial":59,"correct":0,"trial_type":"three-arm-trial","trial_index":73,"time_elapsed":388823,"internal_node_id":"0.0-65.0-0.0","task_version":"screening-mturk","missing":false,"accuracy":1},{"contexts":["blue","red","green"],"outcomes":[1,0,0],"key":38,"choice":1,"rt":462.4299998395145,"outcome":0,"trial":60,"correct":0,"trial_type":"three-arm-trial","trial_index":74,"time_elapsed":390492,"internal_node_id":"0.0-66.0-0.0","task_version":"screening-mturk","missing":false,"accuracy":0},{"contexts":["blue","red","green"],"outcomes":[0,0,1],"key":39,"choice":2,"rt":359.80500001460314,"outcome":1,"trial":61,"correct":2,"trial_type":"three-arm-trial","trial_index":75,"time_elapsed":392058,"internal_node_id":"0.0-67.0-0.0","task_version":"screening-mturk","missing":false,"accuracy":1},{"contexts":["blue","red","green"],"outcomes":[0,0,0],"key":37,"choice":0,"rt":727.7800000738353,"outcome":0,"trial":62,"correct":2,"trial_type":"three-arm-trial","trial_index":76,"time_elapsed":393991,"internal_node_id":"0.0-68.0-0.0","task_version":"screening-mturk","missing":false,"accuracy":0},{"contexts":["blue","red","green"],"outcomes":[0,1,1],"key":39,"choice":2,"rt":663.0499998573214,"outcome":1,"trial":63,"correct":2,"trial_type":"three-arm-trial","trial_index":77,"time_elapsed":395861,"internal_node_id":"0.0-69.0-0.0","task_version":"screening-mturk","missing":false,"accuracy":1},{"contexts":["blue","red","green"],"outcomes":[0,1,0],"key":38,"choice":1,"rt":380.94000006094575,"outcome":1,"trial":64,"correct":2,"trial_type":"three-arm-trial","trial_index":78,"time_elapsed":397451,"internal_node_id":"0.0-70.0-0.0","task_version":"screening-mturk","missing":false,"accuracy":0},{"contexts":["blue","red","green"],"outcomes":[0,0,1],"key":39,"choice":2,"rt":463.99999991990626,"outcome":1,"trial":65,"correct":2,"trial_type":"three-arm-trial","trial_index":79,"time_elapsed":399123,"internal_node_id":"0.0-71.0-0.0","task_version":"screening-mturk","missing":false,"accuracy":1},{"contexts":["blue","red","green"],"outcomes":[0,0,1],"key":38,"choice":1,"rt":314.74999990314245,"outcome":0,"trial":66,"correct":2,"trial_type":"three-arm-trial","trial_index":80,"time_elapsed":400645,"internal_node_id":"0.0-72.0-0.0","task_version":"screening-mturk","missing":false,"accuracy":0},{"contexts":["blue","red","green"],"outcomes":[0,0,1],"key":37,"choice":0,"rt":383.5249999538064,"outcome":0,"trial":67,"correct":2,"trial_type":"three-arm-trial","trial_index":81,"time_elapsed":402238,"internal_node_id":"0.0-73.0-0.0","task_version":"screening-mturk","missing":false,"accuracy":0},{"contexts":["blue","red","green"],"outcomes":[0,0,1],"key":39,"choice":2,"rt":399.09500000067055,"outcome":1,"trial":68,"correct":2,"trial_type":"three-arm-trial","trial_index":82,"time_elapsed":403846,"internal_node_id":"0.0-74.0-0.0","task_version":"screening-mturk","missing":false,"accuracy":1},{"contexts":["blue","red","green"],"outcomes":[0,1,1],"key":38,"choice":1,"rt":1202.4850000161678,"outcome":1,"trial":69,"correct":2,"trial_type":"three-arm-trial","trial_index":83,"time_elapsed":406257,"internal_node_id":"0.0-75.0-0.0","task_version":"screening-mturk","missing":false,"accuracy":0},{"contexts":["blue","red","green"],"outcomes":[0,0,1],"key":39,"choice":2,"rt":334.67999985441566,"outcome":1,"trial":70,"correct":2,"trial_type":"three-arm-trial","trial_index":84,"time_elapsed":407797,"internal_node_id":"0.0-76.0-0.0","task_version":"screening-mturk","missing":false,"accuracy":1},{"contexts":["blue","red","green"],"outcomes":[0,0,1],"key":37,"choice":0,"rt":458.63000000827014,"outcome":0,"trial":71,"correct":2,"trial_type":"three-arm-trial","trial_index":85,"time_elapsed":409465,"internal_node_id":"0.0-77.0-0.0","task_version":"screening-mturk","missing":false,"accuracy":0},{"contexts":["blue","red","green"],"outcomes":[1,0,1],"key":38,"choice":1,"rt":374.21999988146126,"outcome":0,"trial":72,"correct":2,"trial_type":"three-arm-trial","trial_index":86,"time_elapsed":411046,"internal_node_id":"0.0-78.0-0.0","task_version":"screening-mturk","missing":false,"accuracy":0},{"contexts":["blue","red","green"],"outcomes":[0,0,1],"key":37,"choice":0,"rt":314.005000051111,"outcome":0,"trial":73,"correct":2,"trial_type":"three-arm-trial","trial_index":87,"time_elapsed":412566,"internal_node_id":"0.0-79.0-0.0","task_version":"screening-mturk","missing":false,"accuracy":0},{"contexts":["blue","red","green"],"outcomes":[0,1,1],"key":39,"choice":2,"rt":271.02000010199845,"outcome":1,"trial":74,"correct":2,"trial_type":"three-arm-trial","trial_index":88,"time_elapsed":414051,"internal_node_id":"0.0-80.0-0.0","task_version":"screening-mturk","missing":false,"accuracy":1},{"contexts":["blue","red","green"],"outcomes":[0,0,1],"key":39,"choice":2,"rt":559.9499999079853,"outcome":1,"trial":75,"correct":2,"trial_type":"three-arm-trial","trial_index":89,"time_elapsed":415820,"internal_node_id":"0.0-81.0-0.0","task_version":"screening-mturk","missing":false,"accuracy":1},{"contexts":["blue","red","green"],"outcomes":[1,0,0],"key":39,"choice":2,"rt":407.01500000432134,"outcome":0,"trial":76,"correct":0,"trial_type":"three-arm-trial","trial_index":90,"time_elapsed":417434,"internal_node_id":"0.0-82.0-0.0","task_version":"screening-mturk","missing":false,"accuracy":0},{"contexts":["blue","red","green"],"outcomes":[1,0,0],"key":38,"choice":1,"rt":370.3950000926852,"outcome":0,"trial":77,"correct":0,"trial_type":"three-arm-trial","trial_index":91,"time_elapsed":419016,"internal_node_id":"0.0-83.0-0.0","task_version":"screening-mturk","missing":false,"accuracy":0},{"contexts":["blue","red","green"],"outcomes":[0,0,0],"key":37,"choice":0,"rt":260.98000002093613,"outcome":0,"trial":78,"correct":0,"trial_type":"three-arm-trial","trial_index":92,"time_elapsed":420487,"internal_node_id":"0.0-84.0-0.0","task_version":"screening-mturk","missing":false,"accuracy":1},{"contexts":["blue","red","green"],"outcomes":[1,0,0],"key":39,"choice":2,"rt":594.6049999911338,"outcome":0,"trial":79,"correct":0,"trial_type":"three-arm-trial","trial_index":93,"time_elapsed":422288,"internal_node_id":"0.0-85.0-0.0","task_version":"screening-mturk","missing":false,"accuracy":0},{"contexts":["blue","red","green"],"outcomes":[1,0,1],"key":38,"choice":1,"rt":414.67999992892146,"outcome":0,"trial":80,"correct":0,"trial_type":"three-arm-trial","trial_index":94,"time_elapsed":423908,"internal_node_id":"0.0-86.0-0.0","task_version":"screening-mturk","missing":false,"accuracy":0},{"contexts":["blue","red","green"],"outcomes":[1,1,0],"key":37,"choice":0,"rt":423.50499983876944,"outcome":1,"trial":81,"correct":0,"trial_type":"three-arm-trial","trial_index":95,"time_elapsed":425541,"internal_node_id":"0.0-87.0-0.0","task_version":"screening-mturk","missing":false,"accuracy":1},{"contexts":["blue","red","green"],"outcomes":[1,0,0],"key":37,"choice":0,"rt":525.8400000166148,"outcome":1,"trial":82,"correct":0,"trial_type":"three-arm-trial","trial_index":96,"time_elapsed":427273,"internal_node_id":"0.0-88.0-0.0","task_version":"screening-mturk","missing":false,"accuracy":1},{"contexts":["blue","red","green"],"outcomes":[1,0,0],"key":37,"choice":0,"rt":414.30499986745417,"outcome":1,"trial":83,"correct":0,"trial_type":"three-arm-trial","trial_index":97,"time_elapsed":428894,"internal_node_id":"0.0-89.0-0.0","task_version":"screening-mturk","missing":false,"accuracy":1},{"contexts":["blue","red","green"],"outcomes":[1,0,0],"key":37,"choice":0,"rt":343.85499986819923,"outcome":1,"trial":84,"correct":0,"trial_type":"three-arm-trial","trial_index":98,"time_elapsed":430449,"internal_node_id":"0.0-90.0-0.0","task_version":"screening-mturk","missing":false,"accuracy":1},{"contexts":["blue","red","green"],"outcomes":[0,0,0],"key":37,"choice":0,"rt":634.4149999786168,"outcome":0,"trial":85,"correct":0,"trial_type":"three-arm-trial","trial_index":99,"time_elapsed":432290,"internal_node_id":"0.0-91.0-0.0","task_version":"screening-mturk","missing":false,"accuracy":1},{"contexts":["blue","red","green"],"outcomes":[1,0,0],"key":38,"choice":1,"rt":400.15999996103346,"outcome":0,"trial":86,"correct":0,"trial_type":"three-arm-trial","trial_index":100,"time_elapsed":433898,"internal_node_id":"0.0-92.0-0.0","task_version":"screening-mturk","missing":false,"accuracy":0},{"contexts":["blue","red","green"],"outcomes":[0,0,0],"key":39,"choice":2,"rt":85.49999981187284,"outcome":0,"trial":87,"correct":0,"trial_type":"three-arm-trial","trial_index":101,"time_elapsed":435194,"internal_node_id":"0.0-93.0-0.0","task_version":"screening-mturk","missing":false,"accuracy":0},{"contexts":["blue","red","green"],"outcomes":[0,0,0],"key":37,"choice":0,"rt":395.0200001709163,"outcome":0,"trial":88,"correct":0,"trial_type":"three-arm-trial","trial_index":102,"time_elapsed":436795,"internal_node_id":"0.0-94.0-0.0","task_version":"screening-mturk","missing":false,"accuracy":1},{"contexts":["blue","red","green"],"outcomes":[1,0,0],"key":39,"choice":2,"rt":428.11999982222915,"outcome":0,"trial":89,"correct":0,"trial_type":"three-arm-trial","trial_index":103,"time_elapsed":438432,"internal_node_id":"0.0-95.0-0.0","task_version":"screening-mturk","missing":false,"accuracy":0},{"contexts":["blue","red","green"],"outcomes":[1,0,0],"key":38,"choice":1,"rt":384.2949999962002,"outcome":0,"trial":90,"correct":0,"trial_type":"three-arm-trial","trial_index":104,"time_elapsed":440027,"internal_node_id":"0.0-96.0-0.0","task_version":"screening-mturk","missing":false,"accuracy":0},{"rt":22386.7250001058,"responses":{"age":"29","gender-categorical":"Male","gender-free-response":"","ethnicity":"Not Hispanic or Latino","race":["White"],"language":"Yes","fluency":"Very well","prolific":"No","prolific-this-study":"No"},"survey":"demographics","trial_type":"survey-demo","trial_index":105,"time_elapsed":462431,"internal_node_id":"0.0-97.0","task_version":"screening-mturk","interactions":"[{\"event\":\"blur\",\"trial\":12,\"time\":255284},{\"event\":\"focus\",\"trial\":12,\"time\":256613},{\"event\":\"blur\",\"trial\":14,\"time\":273202},{\"event\":\"focus\",\"trial\":14,\"time\":275155}]"}]