[{"responses":{"Q03":"2","Q07":"1","Q01":"2","Q05":"3","Q04":"2","Q08":"2","Q02":"3","Q06":"2"},"rt":77780.07500013337,"survey":"gad7","trial_type":"survey-template","trial_index":0,"time_elapsed":77797,"internal_node_id":"0.0-0.0","task_version":"screening-mturk"},{"responses":{"Q02":"3","Q03":"4","Q01":"3"},"rt":16645.424999995157,"survey":"pswq","trial_type":"survey-template","trial_index":1,"time_elapsed":94445,"internal_node_id":"0.0-1.0","task_version":"screening-mturk"},{"responses":{"Q05":"2","Q02":"3","Q10":"2","Q06":"2","Q03":"3","Q04":"1","Q07":"2","Q15":"2","Q12":"2","Q09":"3","Q08":"1","Q01":"2","Q14":"2","Q13":"3","Q11":"2"},"rt":42641.059999819845,"survey":"shaps","trial_type":"survey-template","trial_index":2,"time_elapsed":137091,"internal_node_id":"0.0-2.0","task_version":"screening-mturk"},{"responses":{"Q03":"2","Q13":"1","Q07":"3","Q06":"2","Q09":"2","Q02":"3","Q11":"2","Q08":"2","Q12":"3","Q04":"2","Q01":"1","Q05":"2","Q10":"2"},"rt":56840.59499995783,"survey":"bisbas","trial_type":"survey-template","trial_index":3,"time_elapsed":193935,"internal_node_id":"0.0-3.0","task_version":"screening-mturk"},{"responses":{"Q10":"2","Q06":"1","Q15":"2","Q09":"2","Q04":"1","Q14":"3","Q12":"2","Q13":"2","Q05":"3","Q03":"2","Q01":"2","Q07":"3","Q08":"2","Q02":"2","Q11":"2"},"rt":36596.24500013888,"survey":"7up7down","trial_type":"survey-template","trial_index":4,"time_elapsed":230536,"internal_node_id":"0.0-4.0","task_version":"screening-mturk"},{"view_history":"[{\"page_index\":0,\"viewing_time\":8514.274999964982},{\"page_index\":1,\"viewing_time\":4079.90499981679},{\"page_index\":0,\"viewing_time\":209.7650000359863},{\"page_index\":1,\"viewing_time\":1075.090000173077},{\"page_index\":0,\"viewing_time\":10269.884999841452},{\"page_index\":1,\"viewing_time\":6025.550000136718},{\"page_index\":2,\"viewing_time\":614.3799999263138},{\"page_index\":1,\"viewing_time\":1825.0049999915063},{\"page_index\":2,\"viewing_time\":420.09499995037913},{\"page_index\":3,\"viewing_time\":28989.58000005223},{\"page_index\":2,\"viewing_time\":4.024999914690852},{\"page_index\":3,\"viewing_time\":1.0550001170486212},{\"page_index\":4,\"viewing_time\":3208.180000074208},{\"page_index\":5,\"viewing_time\":1.8699998036026955},{\"page_index\":6,\"viewing_time\":1.4800000935792923},{\"page_index\":7,\"viewing_time\":1.4750000555068254}]","rt":65241.964999819174,"trial_type":"instructions","trial_index":5,"time_elapsed":295781,"internal_node_id":"0.0-5.0-0.0","task_version":"screening-mturk"},{"responses":["True","True","False","True","True"],"num_errors":1,"rt":25305.984999984503,"trial_type":"three-arm-comprehension","trial_index":6,"time_elapsed":321090,"internal_node_id":"0.0-5.0-1.0","task_version":"screening-mturk"},{"view_history":"[{\"page_index\":0,\"viewing_time\":5113.020000047982},{\"page_index\":1,\"viewing_time\":995.3099999111146},{\"page_index\":2,\"viewing_time\":480.2200000267476},{\"page_index\":3,\"viewing_time\":279.67000007629395},{\"page_index\":4,\"viewing_time\":190.01500005833805},{\"page_index\":5,\"viewing_time\":210.60999995097518},{\"page_index\":6,\"viewing_time\":459.8099999129772},{\"page_index\":7,\"viewing_time\":564.9850000627339}]","rt":8294.230000115931,"trial_type":"instructions","trial_index":7,"time_elapsed":329388,"internal_node_id":"0.0-5.1-0.1","task_version":"screening-mturk"},{"responses":["True","True","False","True","False"],"num_errors":2,"rt":7693.384999874979,"trial_type":"three-arm-comprehension","trial_index":8,"time_elapsed":337084,"internal_node_id":"0.0-5.1-1.1","task_version":"screening-mturk"},{"view_history":"[{\"page_index\":0,\"viewing_time\":1722.279999870807},{\"page_index\":1,\"viewing_time\":832.640000153333},{\"page_index\":2,\"viewing_time\":490.2699999511242},{\"page_index\":3,\"viewing_time\":990.0549999438226},{\"page_index\":4,\"viewing_time\":29.189999913796782},{\"page_index\":5,\"viewing_time\":810.3550001978874},{\"page_index\":6,\"viewing_time\":44.22999988310039},{\"page_index\":7,\"viewing_time\":790.6150000635535}]","rt":5710.160000016913,"trial_type":"instructions","trial_index":9,"time_elapsed":342797,"internal_node_id":"0.0-5.2-0.2","task_version":"screening-mturk"},{"responses":["True","True","False","False","True"],"num_errors":0,"rt":9638.520000036806,"trial_type":"three-arm-comprehension","trial_index":10,"time_elapsed":352439,"internal_node_id":"0.0-5.2-1.2","task_version":"screening-mturk"},{"view_history":"[{\"page_index\":0,\"viewing_time\":1545.5199999269098}]","rt":1546.0049998946488,"trial_type":"instructions","trial_index":11,"time_elapsed":353988,"internal_node_id":"0.0-6.0","task_version":"screening-mturk"},{"contexts":["red","blue","green"],"outcomes":[0,0,1],"key":38,"choice":1,"rt":2517.3499998636544,"outcome":0,"trial":1,"correct":2,"trial_type":"three-arm-trial","trial_index":12,"time_elapsed":357710,"internal_node_id":"0.0-7.0-0.0","task_version":"screening-mturk","missing":false,"accuracy":0},{"contexts":["red","blue","green"],"outcomes":[0,0,0],"key":39,"choice":2,"rt":150.49999998882413,"outcome":0,"trial":2,"correct":2,"trial_type":"three-arm-trial","trial_index":13,"time_elapsed":359063,"internal_node_id":"0.0-8.0-0.0","task_version":"screening-mturk","missing":false,"accuracy":1},{"contexts":["red","blue","green"],"outcomes":[1,0,1],"key":38,"choice":1,"rt":107.67500009387732,"outcome":0,"trial":3,"correct":2,"trial_type":"three-arm-trial","trial_index":14,"time_elapsed":360374,"internal_node_id":"0.0-9.0-0.0","task_version":"screening-mturk","missing":false,"accuracy":0},{"contexts":["red","blue","green"],"outcomes":[0,0,1],"key":38,"choice":1,"rt":136.70499995350838,"outcome":0,"trial":4,"correct":2,"trial_type":"three-arm-trial","trial_index":15,"time_elapsed":361714,"internal_node_id":"0.0-10.0-0.0","task_version":"screening-mturk","missing":false,"accuracy":0},{"contexts":["red","blue","green"],"outcomes":[0,0,1],"key":37,"choice":0,"rt":726.5599998645484,"outcome":0,"trial":5,"correct":2,"trial_type":"three-arm-trial","trial_index":16,"time_elapsed":363646,"internal_node_id":"0.0-11.0-0.0","task_version":"screening-mturk","missing":false,"accuracy":0},{"contexts":["red","blue","green"],"outcomes":[0,1,0],"key":37,"choice":0,"rt":48.75500011257827,"outcome":0,"trial":6,"correct":2,"trial_type":"three-arm-trial","trial_index":17,"time_elapsed":364900,"internal_node_id":"0.0-12.0-0.0","task_version":"screening-mturk","missing":false,"accuracy":0},{"contexts":["red","blue","green"],"outcomes":[1,0,1],"key":39,"choice":2,"rt":225.71499994955957,"outcome":1,"trial":7,"correct":2,"trial_type":"three-arm-trial","trial_index":18,"time_elapsed":366332,"internal_node_id":"0.0-13.0-0.0","task_version":"screening-mturk","missing":false,"accuracy":1},{"contexts":["red","blue","green"],"outcomes":[1,0,1],"key":38,"choice":1,"rt":148.55999988503754,"outcome":0,"trial":8,"correct":2,"trial_type":"three-arm-trial","trial_index":19,"time_elapsed":367685,"internal_node_id":"0.0-14.0-0.0","task_version":"screening-mturk","missing":false,"accuracy":0},{"contexts":["red","blue","green"],"outcomes":[0,0,1],"key":38,"choice":1,"rt":7775.880000088364,"outcome":0,"trial":9,"correct":2,"trial_type":"three-arm-trial","trial_index":20,"time_elapsed":376665,"internal_node_id":"0.0-15.0-0.0","task_version":"screening-mturk","missing":false,"accuracy":0},{"contexts":["red","blue","green"],"outcomes":[0,0,0],"key":37,"choice":0,"rt":634.4649998936802,"outcome":0,"trial":10,"correct":2,"trial_type":"three-arm-trial","trial_index":21,"time_elapsed":378503,"internal_node_id":"0.0-16.0-0.0","task_version":"screening-mturk","missing":false,"accuracy":0},{"contexts":["red","blue","green"],"outcomes":[0,0,1],"key":37,"choice":0,"rt":407.07499999552965,"outcome":0,"trial":11,"correct":2,"trial_type":"three-arm-trial","trial_index":22,"time_elapsed":380114,"internal_node_id":"0.0-17.0-0.0","task_version":"screening-mturk","missing":false,"accuracy":0},{"contexts":["red","blue","green"],"outcomes":[1,0,1],"key":38,"choice":1,"rt":91.56499989330769,"outcome":0,"trial":12,"correct":2,"trial_type":"three-arm-trial","trial_index":23,"time_elapsed":381408,"internal_node_id":"0.0-18.0-0.0","task_version":"screening-mturk","missing":false,"accuracy":0},{"contexts":["red","blue","green"],"outcomes":[0,0,1],"key":37,"choice":0,"rt":292.76500013656914,"outcome":0,"trial":13,"correct":2,"trial_type":"three-arm-trial","trial_index":24,"time_elapsed":382904,"internal_node_id":"0.0-19.0-0.0","task_version":"screening-mturk","missing":false,"accuracy":0},{"contexts":["red","blue","green"],"outcomes":[0,0,1],"key":38,"choice":1,"rt":169.41500012762845,"outcome":0,"trial":14,"correct":2,"trial_type":"three-arm-trial","trial_index":25,"time_elapsed":384276,"internal_node_id":"0.0-20.0-0.0","task_version":"screening-mturk","missing":false,"accuracy":0},{"contexts":["red","blue","green"],"outcomes":[0,0,1],"key":38,"choice":1,"rt":814.795000012964,"outcome":0,"trial":15,"correct":2,"trial_type":"three-arm-trial","trial_index":26,"time_elapsed":386293,"internal_node_id":"0.0-21.0-0.0","task_version":"screening-mturk","missing":false,"accuracy":0},{"contexts":["red","blue","green"],"outcomes":[0,1,0],"key":39,"choice":2,"rt":607.5049999635667,"outcome":0,"trial":16,"correct":1,"trial_type":"three-arm-trial","trial_index":27,"time_elapsed":388106,"internal_node_id":"0.0-22.0-0.0","task_version":"screening-mturk","missing":false,"accuracy":0},{"contexts":["red","blue","green"],"outcomes":[0,1,0],"key":38,"choice":1,"rt":109.56000001169741,"outcome":1,"trial":17,"correct":1,"trial_type":"three-arm-trial","trial_index":28,"time_elapsed":389418,"internal_node_id":"0.0-23.0-0.0","task_version":"screening-mturk","missing":false,"accuracy":1},{"contexts":["red","blue","green"],"outcomes":[0,1,1],"key":39,"choice":2,"rt":492.14500002563,"outcome":1,"trial":18,"correct":1,"trial_type":"three-arm-trial","trial_index":29,"time_elapsed":391114,"internal_node_id":"0.0-24.0-0.0","task_version":"screening-mturk","missing":false,"accuracy":0},{"contexts":["red","blue","green"],"outcomes":[0,1,0],"key":37,"choice":0,"rt":485.61000009067357,"outcome":0,"trial":19,"correct":1,"trial_type":"three-arm-trial","trial_index":30,"time_elapsed":392804,"internal_node_id":"0.0-25.0-0.0","task_version":"screening-mturk","missing":false,"accuracy":0},{"contexts":["red","blue","green"],"outcomes":[1,1,0],"key":39,"choice":2,"rt":416.32500011473894,"outcome":0,"trial":20,"correct":1,"trial_type":"three-arm-trial","trial_index":31,"time_elapsed":394423,"internal_node_id":"0.0-26.0-0.0","task_version":"screening-mturk","missing":false,"accuracy":0},{"contexts":["red","blue","green"],"outcomes":[0,1,0],"key":37,"choice":0,"rt":648.39500002563,"outcome":0,"trial":21,"correct":1,"trial_type":"three-arm-trial","trial_index":32,"time_elapsed":396275,"internal_node_id":"0.0-27.0-0.0","task_version":"screening-mturk","missing":false,"accuracy":0},{"contexts":["red","blue","green"],"outcomes":[0,1,0],"key":37,"choice":0,"rt":205.56500018574297,"outcome":0,"trial":22,"correct":1,"trial_type":"three-arm-trial","trial_index":33,"time_elapsed":397683,"internal_node_id":"0.0-28.0-0.0","task_version":"screening-mturk","missing":false,"accuracy":0},{"contexts":["red","blue","green"],"outcomes":[1,1,0],"key":37,"choice":0,"rt":57.49500007368624,"outcome":1,"trial":23,"correct":1,"trial_type":"three-arm-trial","trial_index":34,"time_elapsed":398944,"internal_node_id":"0.0-29.0-0.0","task_version":"screening-mturk","missing":false,"accuracy":0},{"contexts":["red","blue","green"],"outcomes":[0,1,0],"key":38,"choice":1,"rt":155.31500009819865,"outcome":1,"trial":24,"correct":1,"trial_type":"three-arm-trial","trial_index":35,"time_elapsed":400304,"internal_node_id":"0.0-30.0-0.0","task_version":"screening-mturk","missing":false,"accuracy":1},{"contexts":["red","blue","green"],"outcomes":[1,1,0],"key":37,"choice":0,"rt":300.5999999586493,"outcome":1,"trial":25,"correct":1,"trial_type":"three-arm-trial","trial_index":36,"time_elapsed":401809,"internal_node_id":"0.0-31.0-0.0","task_version":"screening-mturk","missing":false,"accuracy":0},{"contexts":["red","blue","green"],"outcomes":[0,1,0],"key":39,"choice":2,"rt":290.76500004157424,"outcome":0,"trial":26,"correct":1,"trial_type":"three-arm-trial","trial_index":37,"time_elapsed":403303,"internal_node_id":"0.0-32.0-0.0","task_version":"screening-mturk","missing":false,"accuracy":0},{"contexts":["red","blue","green"],"outcomes":[0,1,0],"key":37,"choice":0,"rt":402.46999985538423,"outcome":0,"trial":27,"correct":1,"trial_type":"three-arm-trial","trial_index":38,"time_elapsed":404908,"internal_node_id":"0.0-33.0-0.0","task_version":"screening-mturk","missing":false,"accuracy":0},{"contexts":["red","blue","green"],"outcomes":[1,1,0],"key":37,"choice":0,"rt":231.4699999988079,"outcome":1,"trial":28,"correct":1,"trial_type":"three-arm-trial","trial_index":39,"time_elapsed":406343,"internal_node_id":"0.0-34.0-0.0","task_version":"screening-mturk","missing":false,"accuracy":0},{"contexts":["red","blue","green"],"outcomes":[0,1,0],"key":37,"choice":0,"rt":3647.0950001385063,"outcome":0,"trial":29,"correct":1,"trial_type":"three-arm-trial","trial_index":40,"time_elapsed":411193,"internal_node_id":"0.0-35.0-0.0","task_version":"screening-mturk","missing":false,"accuracy":0},{"contexts":["red","blue","green"],"outcomes":[0,1,1],"key":38,"choice":1,"rt":76.92999998107553,"outcome":1,"trial":30,"correct":1,"trial_type":"three-arm-trial","trial_index":41,"time_elapsed":412473,"internal_node_id":"0.0-36.0-0.0","task_version":"screening-mturk","missing":false,"accuracy":1},{"contexts":["red","blue","green"],"outcomes":[0,0,1],"key":37,"choice":0,"rt":108.05500019341707,"outcome":0,"trial":31,"correct":2,"trial_type":"three-arm-trial","trial_index":42,"time_elapsed":413785,"internal_node_id":"0.0-37.0-0.0","task_version":"screening-mturk","missing":false,"accuracy":0},{"contexts":["red","blue","green"],"outcomes":[0,1,1],"key":39,"choice":2,"rt":185.98000006750226,"outcome":1,"trial":32,"correct":2,"trial_type":"three-arm-trial","trial_index":43,"time_elapsed":415175,"internal_node_id":"0.0-38.0-0.0","task_version":"screening-mturk","missing":false,"accuracy":1},{"contexts":["red","blue","green"],"outcomes":[0,1,1],"key":37,"choice":0,"rt":126.07500003650784,"outcome":0,"trial":33,"correct":2,"trial_type":"three-arm-trial","trial_index":44,"time_elapsed":416504,"internal_node_id":"0.0-39.0-0.0","task_version":"screening-mturk","missing":false,"accuracy":0},{"contexts":["red","blue","green"],"outcomes":[1,0,1],"key":39,"choice":2,"rt":86.27499989233911,"outcome":1,"trial":34,"correct":2,"trial_type":"three-arm-trial","trial_index":45,"time_elapsed":417796,"internal_node_id":"0.0-40.0-0.0","task_version":"screening-mturk","missing":false,"accuracy":1},{"contexts":["red","blue","green"],"outcomes":[0,0,1],"key":37,"choice":0,"rt":464.72500008530915,"outcome":0,"trial":35,"correct":2,"trial_type":"three-arm-trial","trial_index":46,"time_elapsed":419464,"internal_node_id":"0.0-41.0-0.0","task_version":"screening-mturk","missing":false,"accuracy":0},{"contexts":["red","blue","green"],"outcomes":[0,0,1],"key":38,"choice":1,"rt":16.79499982856214,"outcome":0,"trial":36,"correct":2,"trial_type":"three-arm-trial","trial_index":47,"time_elapsed":420684,"internal_node_id":"0.0-42.0-0.0","task_version":"screening-mturk","missing":false,"accuracy":0},{"contexts":["red","blue","green"],"outcomes":[0,0,1],"key":null,"rt":null,"trial":37,"correct":2,"trial_type":"three-arm-trial","trial_index":48,"time_elapsed":435687,"internal_node_id":"0.0-43.0-0.0","task_version":"screening-mturk","missing":true},{"contexts":["red","blue","green"],"outcomes":[0,0,1],"key":38,"choice":1,"rt":843.8549998681992,"outcome":0,"trial":37,"correct":2,"trial_type":"three-arm-trial","trial_index":49,"time_elapsed":437733,"internal_node_id":"0.0-43.1-0.1","task_version":"screening-mturk","missing":false,"accuracy":0},{"contexts":["red","blue","green"],"outcomes":[0,0,0],"key":37,"choice":0,"rt":872.2150002140552,"outcome":0,"trial":38,"correct":2,"trial_type":"three-arm-trial","trial_index":50,"time_elapsed":439808,"internal_node_id":"0.0-44.0-0.0","task_version":"screening-mturk","missing":false,"accuracy":0},{"contexts":["red","blue","green"],"outcomes":[0,0,1],"key":38,"choice":1,"rt":3.1049998942762613,"outcome":0,"trial":39,"correct":2,"trial_type":"three-arm-trial","trial_index":51,"time_elapsed":441014,"internal_node_id":"0.0-45.0-0.0","task_version":"screening-mturk","missing":false,"accuracy":0},{"contexts":["red","blue","green"],"outcomes":[0,0,0],"key":38,"choice":1,"rt":872.3799998406321,"outcome":0,"trial":40,"correct":2,"trial_type":"three-arm-trial","trial_index":52,"time_elapsed":443089,"internal_node_id":"0.0-46.0-0.0","task_version":"screening-mturk","missing":false,"accuracy":0},{"contexts":["red","blue","green"],"outcomes":[0,0,1],"key":38,"choice":1,"rt":2.474999986588955,"outcome":0,"trial":41,"correct":2,"trial_type":"three-arm-trial","trial_index":53,"time_elapsed":444296,"internal_node_id":"0.0-47.0-0.0","task_version":"screening-mturk","missing":false,"accuracy":0},{"contexts":["red","blue","green"],"outcomes":[0,1,1],"key":39,"choice":2,"rt":44.88499998115003,"outcome":1,"trial":42,"correct":2,"trial_type":"three-arm-trial","trial_index":54,"time_elapsed":445543,"internal_node_id":"0.0-48.0-0.0","task_version":"screening-mturk","missing":false,"accuracy":1},{"contexts":["red","blue","green"],"outcomes":[1,0,0],"key":38,"choice":1,"rt":37.09500003606081,"outcome":0,"trial":43,"correct":2,"trial_type":"three-arm-trial","trial_index":55,"time_elapsed":446783,"internal_node_id":"0.0-49.0-0.0","task_version":"screening-mturk","missing":false,"accuracy":0},{"contexts":["red","blue","green"],"outcomes":[0,0,1],"key":39,"choice":2,"rt":323.9200001116842,"outcome":1,"trial":44,"correct":2,"trial_type":"three-arm-trial","trial_index":56,"time_elapsed":448309,"internal_node_id":"0.0-50.0-0.0","task_version":"screening-mturk","missing":false,"accuracy":1},{"contexts":["red","blue","green"],"outcomes":[1,0,0],"key":39,"choice":2,"rt":660.9499999321997,"outcome":0,"trial":45,"correct":2,"trial_type":"three-arm-trial","trial_index":57,"time_elapsed":450173,"internal_node_id":"0.0-51.0-0.0","task_version":"screening-mturk","missing":false,"accuracy":1},{"contexts":["red","blue","green"],"outcomes":[0,1,0],"key":38,"choice":1,"rt":481.7699999548495,"outcome":1,"trial":46,"correct":1,"trial_type":"three-arm-trial","trial_index":58,"time_elapsed":451858,"internal_node_id":"0.0-52.0-0.0","task_version":"screening-mturk","missing":false,"accuracy":1},{"contexts":["red","blue","green"],"outcomes":[0,0,1],"key":39,"choice":2,"rt":607.9800000879914,"outcome":1,"trial":47,"correct":1,"trial_type":"three-arm-trial","trial_index":59,"time_elapsed":453668,"internal_node_id":"0.0-53.0-0.0","task_version":"screening-mturk","missing":false,"accuracy":0},{"contexts":["red","blue","green"],"outcomes":[0,0,0],"key":39,"choice":2,"rt":518.7450000084937,"outcome":0,"trial":48,"correct":1,"trial_type":"three-arm-trial","trial_index":60,"time_elapsed":455390,"internal_node_id":"0.0-54.0-0.0","task_version":"screening-mturk","missing":false,"accuracy":0},{"contexts":["red","blue","green"],"outcomes":[0,1,0],"key":39,"choice":2,"rt":670.7899998873472,"outcome":0,"trial":49,"correct":1,"trial_type":"three-arm-trial","trial_index":61,"time_elapsed":457263,"internal_node_id":"0.0-55.0-0.0","task_version":"screening-mturk","missing":false,"accuracy":0},{"contexts":["red","blue","green"],"outcomes":[0,1,0],"key":39,"choice":2,"rt":1215.9149998333305,"outcome":0,"trial":50,"correct":1,"trial_type":"three-arm-trial","trial_index":62,"time_elapsed":459683,"internal_node_id":"0.0-56.0-0.0","task_version":"screening-mturk","missing":false,"accuracy":0},{"contexts":["red","blue","green"],"outcomes":[0,1,0],"key":38,"choice":1,"rt":1201.005000155419,"outcome":1,"trial":51,"correct":1,"trial_type":"three-arm-trial","trial_index":63,"time_elapsed":462089,"internal_node_id":"0.0-57.0-0.0","task_version":"screening-mturk","missing":false,"accuracy":1},{"contexts":["red","blue","green"],"outcomes":[0,0,1],"key":39,"choice":2,"rt":786.1900001298636,"outcome":1,"trial":52,"correct":1,"trial_type":"three-arm-trial","trial_index":64,"time_elapsed":464079,"internal_node_id":"0.0-58.0-0.0","task_version":"screening-mturk","missing":false,"accuracy":0},{"contexts":["red","blue","green"],"outcomes":[0,0,1],"key":38,"choice":1,"rt":80.65999997779727,"outcome":0,"trial":53,"correct":1,"trial_type":"three-arm-trial","trial_index":65,"time_elapsed":465364,"internal_node_id":"0.0-59.0-0.0","task_version":"screening-mturk","missing":false,"accuracy":1},{"contexts":["red","blue","green"],"outcomes":[0,1,0],"key":37,"choice":0,"rt":495.5349999945611,"outcome":0,"trial":54,"correct":1,"trial_type":"three-arm-trial","trial_index":66,"time_elapsed":467065,"internal_node_id":"0.0-60.0-0.0","task_version":"screening-mturk","missing":false,"accuracy":0},{"contexts":["red","blue","green"],"outcomes":[0,1,0],"key":38,"choice":1,"rt":26.61999990232289,"outcome":1,"trial":55,"correct":1,"trial_type":"three-arm-trial","trial_index":67,"time_elapsed":468294,"internal_node_id":"0.0-61.0-0.0","task_version":"screening-mturk","missing":false,"accuracy":1},{"contexts":["red","blue","green"],"outcomes":[0,1,0],"key":37,"choice":0,"rt":485.6050000526011,"outcome":0,"trial":56,"correct":1,"trial_type":"three-arm-trial","trial_index":68,"time_elapsed":469983,"internal_node_id":"0.0-62.0-0.0","task_version":"screening-mturk","missing":false,"accuracy":0},{"contexts":["red","blue","green"],"outcomes":[0,1,1],"key":38,"choice":1,"rt":806.6000000108033,"outcome":1,"trial":57,"correct":1,"trial_type":"three-arm-trial","trial_index":69,"time_elapsed":471993,"internal_node_id":"0.0-63.0-0.0","task_version":"screening-mturk","missing":false,"accuracy":1},{"contexts":["red","blue","green"],"outcomes":[0,1,1],"key":39,"choice":2,"rt":261.7550001014024,"outcome":1,"trial":58,"correct":1,"trial_type":"three-arm-trial","trial_index":70,"time_elapsed":473457,"internal_node_id":"0.0-64.0-0.0","task_version":"screening-mturk","missing":false,"accuracy":0},{"contexts":["red","blue","green"],"outcomes":[0,1,1],"key":39,"choice":2,"rt":222.83999994397163,"outcome":1,"trial":59,"correct":1,"trial_type":"three-arm-trial","trial_index":71,"time_elapsed":474886,"internal_node_id":"0.0-65.0-0.0","task_version":"screening-mturk","missing":false,"accuracy":0},{"contexts":["red","blue","green"],"outcomes":[0,1,1],"key":39,"choice":2,"rt":434.5299999695271,"outcome":1,"trial":60,"correct":1,"trial_type":"three-arm-trial","trial_index":72,"time_elapsed":476523,"internal_node_id":"0.0-66.0-0.0","task_version":"screening-mturk","missing":false,"accuracy":0},{"contexts":["red","blue","green"],"outcomes":[1,1,1],"key":38,"choice":1,"rt":177.65500000678003,"outcome":1,"trial":61,"correct":0,"trial_type":"three-arm-trial","trial_index":73,"time_elapsed":477904,"internal_node_id":"0.0-67.0-0.0","task_version":"screening-mturk","missing":false,"accuracy":0},{"contexts":["red","blue","green"],"outcomes":[1,0,0],"key":38,"choice":1,"rt":11.274999938905239,"outcome":0,"trial":62,"correct":0,"trial_type":"three-arm-trial","trial_index":74,"time_elapsed":479119,"internal_node_id":"0.0-68.0-0.0","task_version":"screening-mturk","missing":false,"accuracy":0},{"contexts":["red","blue","green"],"outcomes":[1,0,0],"key":37,"choice":0,"rt":2.8200000524520874,"outcome":1,"trial":63,"correct":0,"trial_type":"three-arm-trial","trial_index":75,"time_elapsed":480325,"internal_node_id":"0.0-69.0-0.0","task_version":"screening-mturk","missing":false,"accuracy":1},{"contexts":["red","blue","green"],"outcomes":[1,0,0],"key":37,"choice":0,"rt":200.0500001013279,"outcome":1,"trial":64,"correct":0,"trial_type":"three-arm-trial","trial_index":76,"time_elapsed":481728,"internal_node_id":"0.0-70.0-0.0","task_version":"screening-mturk","missing":false,"accuracy":1},{"contexts":["red","blue","green"],"outcomes":[1,0,0],"key":37,"choice":0,"rt":772.255000192672,"outcome":1,"trial":65,"correct":0,"trial_type":"three-arm-trial","trial_index":77,"time_elapsed":483703,"internal_node_id":"0.0-71.0-0.0","task_version":"screening-mturk","missing":false,"accuracy":1},{"contexts":["red","blue","green"],"outcomes":[1,0,0],"key":39,"choice":2,"rt":1147.1850001253188,"outcome":0,"trial":66,"correct":0,"trial_type":"three-arm-trial","trial_index":78,"time_elapsed":486054,"internal_node_id":"0.0-72.0-0.0","task_version":"screening-mturk","missing":false,"accuracy":0},{"contexts":["red","blue","green"],"outcomes":[1,0,0],"key":38,"choice":1,"rt":155.27500002644956,"outcome":0,"trial":67,"correct":0,"trial_type":"three-arm-trial","trial_index":79,"time_elapsed":487413,"internal_node_id":"0.0-73.0-0.0","task_version":"screening-mturk","missing":false,"accuracy":0},{"contexts":["red","blue","green"],"outcomes":[1,0,0],"key":38,"choice":1,"rt":725.1450000330806,"outcome":0,"trial":68,"correct":0,"trial_type":"three-arm-trial","trial_index":80,"time_elapsed":489341,"internal_node_id":"0.0-74.0-0.0","task_version":"screening-mturk","missing":false,"accuracy":0},{"contexts":["red","blue","green"],"outcomes":[1,0,0],"key":38,"choice":1,"rt":207.23999990150332,"outcome":0,"trial":69,"correct":0,"trial_type":"three-arm-trial","trial_index":81,"time_elapsed":490753,"internal_node_id":"0.0-75.0-0.0","task_version":"screening-mturk","missing":false,"accuracy":0},{"contexts":["red","blue","green"],"outcomes":[1,1,0],"key":38,"choice":1,"rt":648.1100001838058,"outcome":1,"trial":70,"correct":0,"trial_type":"three-arm-trial","trial_index":82,"time_elapsed":492606,"internal_node_id":"0.0-76.0-0.0","task_version":"screening-mturk","missing":false,"accuracy":0},{"contexts":["red","blue","green"],"outcomes":[1,0,0],"key":39,"choice":2,"rt":275.7650001440197,"outcome":0,"trial":71,"correct":0,"trial_type":"three-arm-trial","trial_index":83,"time_elapsed":494086,"internal_node_id":"0.0-77.0-0.0","task_version":"screening-mturk","missing":false,"accuracy":0},{"contexts":["red","blue","green"],"outcomes":[1,0,1],"key":37,"choice":0,"rt":183.9050000999123,"outcome":1,"trial":72,"correct":0,"trial_type":"three-arm-trial","trial_index":84,"time_elapsed":495474,"internal_node_id":"0.0-78.0-0.0","task_version":"screening-mturk","missing":false,"accuracy":1},{"contexts":["red","blue","green"],"outcomes":[0,0,0],"key":37,"choice":0,"rt":3142.4600000027567,"outcome":0,"trial":73,"correct":0,"trial_type":"three-arm-trial","trial_index":85,"time_elapsed":499819,"internal_node_id":"0.0-79.0-0.0","task_version":"screening-mturk","missing":false,"accuracy":1},{"contexts":["red","blue","green"],"outcomes":[1,0,0],"key":38,"choice":1,"rt":252.74999998509884,"outcome":0,"trial":74,"correct":0,"trial_type":"three-arm-trial","trial_index":86,"time_elapsed":501276,"internal_node_id":"0.0-80.0-0.0","task_version":"screening-mturk","missing":false,"accuracy":0},{"contexts":["red","blue","green"],"outcomes":[1,0,0],"key":38,"choice":1,"rt":98.46500004641712,"outcome":0,"trial":75,"correct":0,"trial_type":"three-arm-trial","trial_index":87,"time_elapsed":502578,"internal_node_id":"0.0-81.0-0.0","task_version":"screening-mturk","missing":false,"accuracy":0},{"contexts":["red","blue","green"],"outcomes":[0,0,1],"key":39,"choice":2,"rt":46.62499995902181,"outcome":1,"trial":76,"correct":2,"trial_type":"three-arm-trial","trial_index":88,"time_elapsed":503829,"internal_node_id":"0.0-82.0-0.0","task_version":"screening-mturk","missing":false,"accuracy":1},{"contexts":["red","blue","green"],"outcomes":[0,0,1],"key":37,"choice":0,"rt":431.28000013530254,"outcome":0,"trial":77,"correct":2,"trial_type":"three-arm-trial","trial_index":89,"time_elapsed":505463,"internal_node_id":"0.0-83.0-0.0","task_version":"screening-mturk","missing":false,"accuracy":0},{"contexts":["red","blue","green"],"outcomes":[0,0,1],"key":38,"choice":1,"rt":87.47999998740852,"outcome":0,"trial":78,"correct":2,"trial_type":"three-arm-trial","trial_index":90,"time_elapsed":506753,"internal_node_id":"0.0-84.0-0.0","task_version":"screening-mturk","missing":false,"accuracy":0},{"contexts":["red","blue","green"],"outcomes":[0,0,1],"key":38,"choice":1,"rt":82.42499991320074,"outcome":0,"trial":79,"correct":2,"trial_type":"three-arm-trial","trial_index":91,"time_elapsed":508038,"internal_node_id":"0.0-85.0-0.0","task_version":"screening-mturk","missing":false,"accuracy":0},{"contexts":["red","blue","green"],"outcomes":[0,1,1],"key":38,"choice":1,"rt":101.8300000578165,"outcome":1,"trial":80,"correct":2,"trial_type":"three-arm-trial","trial_index":92,"time_elapsed":509343,"internal_node_id":"0.0-86.0-0.0","task_version":"screening-mturk","missing":false,"accuracy":0},{"contexts":["red","blue","green"],"outcomes":[0,0,0],"key":37,"choice":0,"rt":556.5800000913441,"outcome":0,"trial":81,"correct":2,"trial_type":"three-arm-trial","trial_index":93,"time_elapsed":511103,"internal_node_id":"0.0-87.0-0.0","task_version":"screening-mturk","missing":false,"accuracy":0},{"contexts":["red","blue","green"],"outcomes":[0,1,1],"key":37,"choice":0,"rt":15.690000029280782,"outcome":0,"trial":82,"correct":2,"trial_type":"three-arm-trial","trial_index":94,"time_elapsed":512325,"internal_node_id":"0.0-88.0-0.0","task_version":"screening-mturk","missing":false,"accuracy":0},{"contexts":["red","blue","green"],"outcomes":[1,0,0],"key":37,"choice":0,"rt":2155.6799998506904,"outcome":1,"trial":83,"correct":2,"trial_type":"three-arm-trial","trial_index":95,"time_elapsed":515683,"internal_node_id":"0.0-89.0-0.0","task_version":"screening-mturk","missing":false,"accuracy":0},{"contexts":["red","blue","green"],"outcomes":[0,0,1],"key":37,"choice":0,"rt":32.020000042393804,"outcome":0,"trial":84,"correct":2,"trial_type":"three-arm-trial","trial_index":96,"time_elapsed":516918,"internal_node_id":"0.0-90.0-0.0","task_version":"screening-mturk","missing":false,"accuracy":0},{"contexts":["red","blue","green"],"outcomes":[0,0,1],"key":38,"choice":1,"rt":52.12999996729195,"outcome":0,"trial":85,"correct":2,"trial_type":"three-arm-trial","trial_index":97,"time_elapsed":518174,"internal_node_id":"0.0-91.0-0.0","task_version":"screening-mturk","missing":false,"accuracy":0},{"contexts":["red","blue","green"],"outcomes":[0,0,1],"key":37,"choice":0,"rt":86.0049999319017,"outcome":0,"trial":86,"correct":2,"trial_type":"three-arm-trial","trial_index":98,"time_elapsed":519466,"internal_node_id":"0.0-92.0-0.0","task_version":"screening-mturk","missing":false,"accuracy":0},{"contexts":["red","blue","green"],"outcomes":[0,0,1],"key":39,"choice":2,"rt":94.26499996334314,"outcome":1,"trial":87,"correct":2,"trial_type":"three-arm-trial","trial_index":99,"time_elapsed":520763,"internal_node_id":"0.0-93.0-0.0","task_version":"screening-mturk","missing":false,"accuracy":1},{"contexts":["red","blue","green"],"outcomes":[1,0,0],"key":38,"choice":1,"rt":42.06000012345612,"outcome":0,"trial":88,"correct":2,"trial_type":"three-arm-trial","trial_index":100,"time_elapsed":522009,"internal_node_id":"0.0-94.0-0.0","task_version":"screening-mturk","missing":false,"accuracy":0},{"contexts":["red","blue","green"],"outcomes":[0,0,1],"key":38,"choice":1,"rt":160.9749998897314,"outcome":0,"trial":89,"correct":2,"trial_type":"three-arm-trial","trial_index":101,"time_elapsed":523373,"internal_node_id":"0.0-95.0-0.0","task_version":"screening-mturk","missing":false,"accuracy":0},{"contexts":["red","blue","green"],"outcomes":[0,0,0],"key":39,"choice":2,"rt":137.64999993145466,"outcome":0,"trial":90,"correct":2,"trial_type":"three-arm-trial","trial_index":102,"time_elapsed":524716,"internal_node_id":"0.0-96.0-0.0","task_version":"screening-mturk","missing":false,"accuracy":1},{"rt":25709.895000094548,"responses":{"age":"39","gender-categorical":"Male","gender-free-response":"","ethnicity":"Not Hispanic or Latino","race":["White"],"language":"Yes","fluency":"Very well","prolific":"Yes","prolific-this-study":"No"},"survey":"demographics","trial_type":"survey-demo","trial_index":103,"time_elapsed":550438,"internal_node_id":"0.0-97.0","task_version":"screening-mturk","interactions":"[]"}]