[{"responses":{"Q12":"0","Q08":"0","Q05":"0","Q01":"0","Q09":"0","Q04":"0","Q11":"0","Q02":"0","Q14":"0","Q03":"0","Q10":"0","Q13":"0","Q15":"0","Q07":"1","Q06":"1"},"rt":141584.84999998473,"survey":"7up7down","trial_type":"survey-template","trial_index":0,"time_elapsed":141642,"internal_node_id":"0.0-0.0","task_version":"screening-mturk"},{"responses":{"Q07":"0","Q04":"0","Q06":"1","Q08":"0","Q05":"0","Q03":"1","Q02":"0","Q01":"0"},"rt":26727.680000010878,"survey":"gad7","trial_type":"survey-template","trial_index":1,"time_elapsed":168376,"internal_node_id":"0.0-1.0","task_version":"screening-mturk"},{"responses":{"Q04":"0","Q05":"2","Q13":"3","Q03":"2","Q06":"2","Q02":"2","Q11":"2","Q12":"1","Q08":"2","Q01":"1","Q10":"1","Q07":"2","Q09":"1"},"rt":50779.31499999249,"survey":"bisbas","trial_type":"survey-template","trial_index":2,"time_elapsed":219171,"internal_node_id":"0.0-2.0","task_version":"screening-mturk"},{"responses":{"Q11":"2","Q05":"2","Q06":"2","Q07":"2","Q01":"2","Q14":"2","Q10":"2","Q15":"2","Q02":"3","Q04":"3","Q08":"2","Q03":"3","Q13":"2","Q09":"2","Q12":"3"},"rt":46747.11999995634,"survey":"shaps","trial_type":"survey-template","trial_index":3,"time_elapsed":265926,"internal_node_id":"0.0-3.0","task_version":"screening-mturk"},{"responses":{"Q01":"1","Q03":"1","Q02":"0"},"rt":10047.344999969937,"survey":"pswq","trial_type":"survey-template","trial_index":4,"time_elapsed":275978,"internal_node_id":"0.0-4.0","task_version":"screening-mturk"},{"view_history":"[{\"page_index\":0,\"viewing_time\":16570.94499998493},{\"page_index\":1,\"viewing_time\":7214.535000035539},{\"page_index\":2,\"viewing_time\":16512.88499997463},{\"page_index\":3,\"viewing_time\":23486.37499997858},{\"page_index\":4,\"viewing_time\":5682.330000039656},{\"page_index\":3,\"viewing_time\":7145.274999958929},{\"page_index\":4,\"viewing_time\":2334.08000000054},{\"page_index\":5,\"viewing_time\":1946.4150000130758},{\"page_index\":6,\"viewing_time\":1922.59999999078},{\"page_index\":7,\"viewing_time\":10597.210000036284}]","rt":93413.09499996714,"trial_type":"instructions","trial_index":5,"time_elapsed":369399,"internal_node_id":"0.0-5.0-0.0","task_version":"screening-mturk"},{"responses":["True","True","False","True","True"],"num_errors":1,"rt":16674.229999945965,"trial_type":"three-arm-comprehension","trial_index":6,"time_elapsed":386077,"internal_node_id":"0.0-5.0-1.0","task_version":"screening-mturk"},{"view_history":"[{\"page_index\":0,\"viewing_time\":2391.4499999955297},{\"page_index\":1,\"viewing_time\":2683.16000001505},{\"page_index\":2,\"viewing_time\":4242.700000002515},{\"page_index\":3,\"viewing_time\":2172.985000011977},{\"page_index\":4,\"viewing_time\":1304.1799999773502},{\"page_index\":5,\"viewing_time\":1033.9999999850988},{\"page_index\":6,\"viewing_time\":863.8150000479072},{\"page_index\":7,\"viewing_time\":1041.979999979958}]","rt":15734.600000025239,"trial_type":"instructions","trial_index":7,"time_elapsed":401818,"internal_node_id":"0.0-5.1-0.1","task_version":"screening-mturk"},{"responses":["True","True","False","True","True"],"num_errors":1,"rt":12683.359999966342,"trial_type":"three-arm-comprehension","trial_index":8,"time_elapsed":414504,"internal_node_id":"0.0-5.1-1.1","task_version":"screening-mturk"},{"view_history":"[{\"page_index\":0,\"viewing_time\":1873.6449999851175},{\"page_index\":1,\"viewing_time\":2632.7649999875575},{\"page_index\":2,\"viewing_time\":1736.4200000301935},{\"page_index\":3,\"viewing_time\":1235.0749999750406},{\"page_index\":4,\"viewing_time\":5331.509999989066},{\"page_index\":5,\"viewing_time\":4652.500000025611},{\"page_index\":6,\"viewing_time\":895.9400000167079},{\"page_index\":7,\"viewing_time\":885.1249999715947}]","rt":19243.36999998195,"trial_type":"instructions","trial_index":9,"time_elapsed":433755,"internal_node_id":"0.0-5.2-0.2","task_version":"screening-mturk"},{"responses":["True","True","False","False","True"],"num_errors":0,"rt":13058.414999977686,"trial_type":"three-arm-comprehension","trial_index":10,"time_elapsed":446815,"internal_node_id":"0.0-5.2-1.2","task_version":"screening-mturk"},{"view_history":"[{\"page_index\":0,\"viewing_time\":3074.735000031069}]","rt":3075.0800000387244,"trial_type":"instructions","trial_index":11,"time_elapsed":449896,"internal_node_id":"0.0-6.0","task_version":"screening-mturk"},{"contexts":["green","blue","red"],"outcomes":[1,1,0],"key":39,"choice":2,"rt":3018.099999986589,"outcome":0,"trial":1,"correct":0,"trial_type":"three-arm-trial","trial_index":12,"time_elapsed":454119,"internal_node_id":"0.0-7.0-0.0","task_version":"screening-mturk","missing":false,"accuracy":0},{"contexts":["green","blue","red"],"outcomes":[1,0,0],"key":38,"choice":1,"rt":1103.23500004597,"outcome":0,"trial":2,"correct":0,"trial_type":"three-arm-trial","trial_index":13,"time_elapsed":456429,"internal_node_id":"0.0-8.0-0.0","task_version":"screening-mturk","missing":false,"accuracy":0},{"contexts":["green","blue","red"],"outcomes":[1,0,1],"key":37,"choice":0,"rt":498.72999999206513,"outcome":1,"trial":3,"correct":0,"trial_type":"three-arm-trial","trial_index":14,"time_elapsed":458136,"internal_node_id":"0.0-9.0-0.0","task_version":"screening-mturk","missing":false,"accuracy":1},{"contexts":["green","blue","red"],"outcomes":[1,0,0],"key":37,"choice":0,"rt":445.1550000230782,"outcome":1,"trial":4,"correct":0,"trial_type":"three-arm-trial","trial_index":15,"time_elapsed":459786,"internal_node_id":"0.0-10.0-0.0","task_version":"screening-mturk","missing":false,"accuracy":1},{"contexts":["green","blue","red"],"outcomes":[1,0,0],"key":37,"choice":0,"rt":279.0800000075251,"outcome":1,"trial":5,"correct":0,"trial_type":"three-arm-trial","trial_index":16,"time_elapsed":461271,"internal_node_id":"0.0-11.0-0.0","task_version":"screening-mturk","missing":false,"accuracy":1},{"contexts":["green","blue","red"],"outcomes":[1,0,1],"key":37,"choice":0,"rt":362.2949999989942,"outcome":1,"trial":6,"correct":0,"trial_type":"three-arm-trial","trial_index":17,"time_elapsed":462839,"internal_node_id":"0.0-12.0-0.0","task_version":"screening-mturk","missing":false,"accuracy":1},{"contexts":["green","blue","red"],"outcomes":[1,0,0],"key":37,"choice":0,"rt":269.99500003876165,"outcome":1,"trial":7,"correct":0,"trial_type":"three-arm-trial","trial_index":18,"time_elapsed":464317,"internal_node_id":"0.0-13.0-0.0","task_version":"screening-mturk","missing":false,"accuracy":1},{"contexts":["green","blue","red"],"outcomes":[0,0,0],"key":37,"choice":0,"rt":331.7500000121072,"outcome":0,"trial":8,"correct":0,"trial_type":"three-arm-trial","trial_index":19,"time_elapsed":465856,"internal_node_id":"0.0-14.0-0.0","task_version":"screening-mturk","missing":false,"accuracy":1},{"contexts":["green","blue","red"],"outcomes":[1,0,0],"key":39,"choice":2,"rt":363.3350000018254,"outcome":0,"trial":9,"correct":0,"trial_type":"three-arm-trial","trial_index":20,"time_elapsed":467425,"internal_node_id":"0.0-15.0-0.0","task_version":"screening-mturk","missing":false,"accuracy":0},{"contexts":["green","blue","red"],"outcomes":[1,0,0],"key":38,"choice":1,"rt":377.4250000133179,"outcome":0,"trial":10,"correct":0,"trial_type":"three-arm-trial","trial_index":21,"time_elapsed":469007,"internal_node_id":"0.0-16.0-0.0","task_version":"screening-mturk","missing":false,"accuracy":0},{"contexts":["green","blue","red"],"outcomes":[1,0,0],"key":37,"choice":0,"rt":511.9200000190176,"outcome":1,"trial":11,"correct":0,"trial_type":"three-arm-trial","trial_index":22,"time_elapsed":470724,"internal_node_id":"0.0-17.0-0.0","task_version":"screening-mturk","missing":false,"accuracy":1},{"contexts":["green","blue","red"],"outcomes":[1,0,0],"key":37,"choice":0,"rt":280.5999999982305,"outcome":1,"trial":12,"correct":0,"trial_type":"three-arm-trial","trial_index":23,"time_elapsed":472209,"internal_node_id":"0.0-18.0-0.0","task_version":"screening-mturk","missing":false,"accuracy":1},{"contexts":["green","blue","red"],"outcomes":[1,1,0],"key":37,"choice":0,"rt":65.34500000998378,"outcome":1,"trial":13,"correct":0,"trial_type":"three-arm-trial","trial_index":24,"time_elapsed":473482,"internal_node_id":"0.0-19.0-0.0","task_version":"screening-mturk","missing":false,"accuracy":1},{"contexts":["green","blue","red"],"outcomes":[1,1,1],"key":37,"choice":0,"rt":442.8900000057183,"outcome":1,"trial":14,"correct":0,"trial_type":"three-arm-trial","trial_index":25,"time_elapsed":475131,"internal_node_id":"0.0-20.0-0.0","task_version":"screening-mturk","missing":false,"accuracy":1},{"contexts":["green","blue","red"],"outcomes":[1,1,1],"key":37,"choice":0,"rt":78.47499998752028,"outcome":1,"trial":15,"correct":0,"trial_type":"three-arm-trial","trial_index":26,"time_elapsed":476415,"internal_node_id":"0.0-21.0-0.0","task_version":"screening-mturk","missing":false,"accuracy":1},{"contexts":["green","blue","red"],"outcomes":[0,0,0],"key":37,"choice":0,"rt":91.53999999398366,"outcome":0,"trial":16,"correct":2,"trial_type":"three-arm-trial","trial_index":27,"time_elapsed":477712,"internal_node_id":"0.0-22.0-0.0","task_version":"screening-mturk","missing":false,"accuracy":0},{"contexts":["green","blue","red"],"outcomes":[1,0,0],"key":39,"choice":2,"rt":69.63999994331971,"outcome":0,"trial":17,"correct":2,"trial_type":"three-arm-trial","trial_index":28,"time_elapsed":478989,"internal_node_id":"0.0-23.0-0.0","task_version":"screening-mturk","missing":false,"accuracy":1},{"contexts":["green","blue","red"],"outcomes":[0,0,1],"key":38,"choice":1,"rt":210.61499998904765,"outcome":0,"trial":18,"correct":2,"trial_type":"three-arm-trial","trial_index":29,"time_elapsed":480407,"internal_node_id":"0.0-24.0-0.0","task_version":"screening-mturk","missing":false,"accuracy":0},{"contexts":["green","blue","red"],"outcomes":[1,1,1],"key":38,"choice":1,"rt":147.99500000663102,"outcome":1,"trial":19,"correct":2,"trial_type":"three-arm-trial","trial_index":30,"time_elapsed":481763,"internal_node_id":"0.0-25.0-0.0","task_version":"screening-mturk","missing":false,"accuracy":0},{"contexts":["green","blue","red"],"outcomes":[0,0,1],"key":38,"choice":1,"rt":201.87999994959682,"outcome":0,"trial":20,"correct":2,"trial_type":"three-arm-trial","trial_index":31,"time_elapsed":483173,"internal_node_id":"0.0-26.0-0.0","task_version":"screening-mturk","missing":false,"accuracy":0},{"contexts":["green","blue","red"],"outcomes":[0,1,1],"key":39,"choice":2,"rt":1511.789999960456,"outcome":1,"trial":21,"correct":2,"trial_type":"three-arm-trial","trial_index":32,"time_elapsed":485894,"internal_node_id":"0.0-27.0-0.0","task_version":"screening-mturk","missing":false,"accuracy":1},{"contexts":["green","blue","red"],"outcomes":[0,0,1],"key":39,"choice":2,"rt":597.6200000150129,"outcome":1,"trial":22,"correct":2,"trial_type":"three-arm-trial","trial_index":33,"time_elapsed":487699,"internal_node_id":"0.0-28.0-0.0","task_version":"screening-mturk","missing":false,"accuracy":1},{"contexts":["green","blue","red"],"outcomes":[0,0,1],"key":39,"choice":2,"rt":316.82499998714775,"outcome":1,"trial":23,"correct":2,"trial_type":"three-arm-trial","trial_index":34,"time_elapsed":489222,"internal_node_id":"0.0-29.0-0.0","task_version":"screening-mturk","missing":false,"accuracy":1},{"contexts":["green","blue","red"],"outcomes":[0,0,0],"key":39,"choice":2,"rt":364.3900000024587,"outcome":0,"trial":24,"correct":2,"trial_type":"three-arm-trial","trial_index":35,"time_elapsed":490794,"internal_node_id":"0.0-30.0-0.0","task_version":"screening-mturk","missing":false,"accuracy":1},{"contexts":["green","blue","red"],"outcomes":[0,0,1],"key":37,"choice":0,"rt":299.36499998439103,"outcome":0,"trial":25,"correct":2,"trial_type":"three-arm-trial","trial_index":36,"time_elapsed":492303,"internal_node_id":"0.0-31.0-0.0","task_version":"screening-mturk","missing":false,"accuracy":0},{"contexts":["green","blue","red"],"outcomes":[1,0,1],"key":37,"choice":0,"rt":297.30500001460314,"outcome":1,"trial":26,"correct":2,"trial_type":"three-arm-trial","trial_index":37,"time_elapsed":493807,"internal_node_id":"0.0-32.0-0.0","task_version":"screening-mturk","missing":false,"accuracy":0},{"contexts":["green","blue","red"],"outcomes":[0,0,1],"key":37,"choice":0,"rt":343.1449999916367,"outcome":0,"trial":27,"correct":2,"trial_type":"three-arm-trial","trial_index":38,"time_elapsed":495357,"internal_node_id":"0.0-33.0-0.0","task_version":"screening-mturk","missing":false,"accuracy":0},{"contexts":["green","blue","red"],"outcomes":[0,0,1],"key":39,"choice":2,"rt":308.97000001277775,"outcome":1,"trial":28,"correct":2,"trial_type":"three-arm-trial","trial_index":39,"time_elapsed":496873,"internal_node_id":"0.0-34.0-0.0","task_version":"screening-mturk","missing":false,"accuracy":1},{"contexts":["green","blue","red"],"outcomes":[0,0,1],"key":39,"choice":2,"rt":411.5950000123121,"outcome":1,"trial":29,"correct":2,"trial_type":"three-arm-trial","trial_index":40,"time_elapsed":498491,"internal_node_id":"0.0-35.0-0.0","task_version":"screening-mturk","missing":false,"accuracy":1},{"contexts":["green","blue","red"],"outcomes":[0,0,1],"key":39,"choice":2,"rt":399.1950000054203,"outcome":1,"trial":30,"correct":2,"trial_type":"three-arm-trial","trial_index":41,"time_elapsed":500099,"internal_node_id":"0.0-36.0-0.0","task_version":"screening-mturk","missing":false,"accuracy":1},{"contexts":["green","blue","red"],"outcomes":[1,1,0],"key":39,"choice":2,"rt":351.0799999930896,"outcome":0,"trial":31,"correct":0,"trial_type":"three-arm-trial","trial_index":42,"time_elapsed":501659,"internal_node_id":"0.0-37.0-0.0","task_version":"screening-mturk","missing":false,"accuracy":0},{"contexts":["green","blue","red"],"outcomes":[1,0,0],"key":38,"choice":1,"rt":246.68500002007931,"outcome":0,"trial":32,"correct":0,"trial_type":"three-arm-trial","trial_index":43,"time_elapsed":503110,"internal_node_id":"0.0-38.0-0.0","task_version":"screening-mturk","missing":false,"accuracy":0},{"contexts":["green","blue","red"],"outcomes":[1,0,0],"key":39,"choice":2,"rt":443.9950000378303,"outcome":0,"trial":33,"correct":0,"trial_type":"three-arm-trial","trial_index":44,"time_elapsed":504759,"internal_node_id":"0.0-39.0-0.0","task_version":"screening-mturk","missing":false,"accuracy":0},{"contexts":["green","blue","red"],"outcomes":[1,0,0],"key":37,"choice":0,"rt":95.7349999807775,"outcome":1,"trial":34,"correct":0,"trial_type":"three-arm-trial","trial_index":45,"time_elapsed":506060,"internal_node_id":"0.0-40.0-0.0","task_version":"screening-mturk","missing":false,"accuracy":1},{"contexts":["green","blue","red"],"outcomes":[1,0,1],"key":37,"choice":0,"rt":79.26999998744577,"outcome":1,"trial":35,"correct":0,"trial_type":"three-arm-trial","trial_index":46,"time_elapsed":507345,"internal_node_id":"0.0-41.0-0.0","task_version":"screening-mturk","missing":false,"accuracy":1},{"contexts":["green","blue","red"],"outcomes":[1,0,0],"key":37,"choice":0,"rt":311.9849999784492,"outcome":1,"trial":36,"correct":0,"trial_type":"three-arm-trial","trial_index":47,"time_elapsed":508863,"internal_node_id":"0.0-42.0-0.0","task_version":"screening-mturk","missing":false,"accuracy":1},{"contexts":["green","blue","red"],"outcomes":[1,0,0],"key":37,"choice":0,"rt":377.1349999587983,"outcome":1,"trial":37,"correct":0,"trial_type":"three-arm-trial","trial_index":48,"time_elapsed":510446,"internal_node_id":"0.0-43.0-0.0","task_version":"screening-mturk","missing":false,"accuracy":1},{"contexts":["green","blue","red"],"outcomes":[1,0,1],"key":37,"choice":0,"rt":730.3850000025705,"outcome":1,"trial":38,"correct":0,"trial_type":"three-arm-trial","trial_index":49,"time_elapsed":512381,"internal_node_id":"0.0-44.0-0.0","task_version":"screening-mturk","missing":false,"accuracy":1},{"contexts":["green","blue","red"],"outcomes":[1,0,0],"key":37,"choice":0,"rt":236.43500002799556,"outcome":1,"trial":39,"correct":0,"trial_type":"three-arm-trial","trial_index":50,"time_elapsed":513825,"internal_node_id":"0.0-45.0-0.0","task_version":"screening-mturk","missing":false,"accuracy":1},{"contexts":["green","blue","red"],"outcomes":[1,1,0],"key":37,"choice":0,"rt":206.22500003082678,"outcome":1,"trial":40,"correct":0,"trial_type":"three-arm-trial","trial_index":51,"time_elapsed":515241,"internal_node_id":"0.0-46.0-0.0","task_version":"screening-mturk","missing":false,"accuracy":1},{"contexts":["green","blue","red"],"outcomes":[1,1,0],"key":37,"choice":0,"rt":209.1449999716133,"outcome":1,"trial":41,"correct":0,"trial_type":"three-arm-trial","trial_index":52,"time_elapsed":516659,"internal_node_id":"0.0-47.0-0.0","task_version":"screening-mturk","missing":false,"accuracy":1},{"contexts":["green","blue","red"],"outcomes":[1,0,0],"key":37,"choice":0,"rt":265.3749999590218,"outcome":1,"trial":42,"correct":0,"trial_type":"three-arm-trial","trial_index":53,"time_elapsed":518135,"internal_node_id":"0.0-48.0-0.0","task_version":"screening-mturk","missing":false,"accuracy":1},{"contexts":["green","blue","red"],"outcomes":[1,0,1],"key":37,"choice":0,"rt":209.96000000741333,"outcome":1,"trial":43,"correct":0,"trial_type":"three-arm-trial","trial_index":54,"time_elapsed":519550,"internal_node_id":"0.0-49.0-0.0","task_version":"screening-mturk","missing":false,"accuracy":1},{"contexts":["green","blue","red"],"outcomes":[1,0,0],"key":37,"choice":0,"rt":78.31500004976988,"outcome":1,"trial":44,"correct":0,"trial_type":"three-arm-trial","trial_index":55,"time_elapsed":520835,"internal_node_id":"0.0-50.0-0.0","task_version":"screening-mturk","missing":false,"accuracy":1},{"contexts":["green","blue","red"],"outcomes":[0,0,0],"key":37,"choice":0,"rt":255.475000012666,"outcome":0,"trial":45,"correct":0,"trial_type":"three-arm-trial","trial_index":56,"time_elapsed":522296,"internal_node_id":"0.0-51.0-0.0","task_version":"screening-mturk","missing":false,"accuracy":1},{"contexts":["green","blue","red"],"outcomes":[0,1,0],"key":39,"choice":2,"rt":64.45000000530854,"outcome":0,"trial":46,"correct":1,"trial_type":"three-arm-trial","trial_index":57,"time_elapsed":523569,"internal_node_id":"0.0-52.0-0.0","task_version":"screening-mturk","missing":false,"accuracy":0},{"contexts":["green","blue","red"],"outcomes":[0,1,1],"key":38,"choice":1,"rt":163.47499995026737,"outcome":1,"trial":47,"correct":1,"trial_type":"three-arm-trial","trial_index":58,"time_elapsed":524939,"internal_node_id":"0.0-53.0-0.0","task_version":"screening-mturk","missing":false,"accuracy":1},{"contexts":["green","blue","red"],"outcomes":[0,1,1],"key":38,"choice":1,"rt":117.76499997358769,"outcome":1,"trial":48,"correct":1,"trial_type":"three-arm-trial","trial_index":59,"time_elapsed":526264,"internal_node_id":"0.0-54.0-0.0","task_version":"screening-mturk","missing":false,"accuracy":1},{"contexts":["green","blue","red"],"outcomes":[0,1,1],"key":38,"choice":1,"rt":315.49499998800457,"outcome":1,"trial":49,"correct":1,"trial_type":"three-arm-trial","trial_index":60,"time_elapsed":527787,"internal_node_id":"0.0-55.0-0.0","task_version":"screening-mturk","missing":false,"accuracy":1},{"contexts":["green","blue","red"],"outcomes":[1,1,0],"key":38,"choice":1,"rt":163.29499997664243,"outcome":1,"trial":50,"correct":1,"trial_type":"three-arm-trial","trial_index":61,"time_elapsed":529156,"internal_node_id":"0.0-56.0-0.0","task_version":"screening-mturk","missing":false,"accuracy":1},{"contexts":["green","blue","red"],"outcomes":[0,1,0],"key":38,"choice":1,"rt":332.18999998643994,"outcome":1,"trial":51,"correct":1,"trial_type":"three-arm-trial","trial_index":62,"time_elapsed":530696,"internal_node_id":"0.0-57.0-0.0","task_version":"screening-mturk","missing":false,"accuracy":1},{"contexts":["green","blue","red"],"outcomes":[1,1,0],"key":38,"choice":1,"rt":290.1399999973364,"outcome":1,"trial":52,"correct":1,"trial_type":"three-arm-trial","trial_index":63,"time_elapsed":532193,"internal_node_id":"0.0-58.0-0.0","task_version":"screening-mturk","missing":false,"accuracy":1},{"contexts":["green","blue","red"],"outcomes":[0,1,0],"key":38,"choice":1,"rt":229.66000001179054,"outcome":1,"trial":53,"correct":1,"trial_type":"three-arm-trial","trial_index":64,"time_elapsed":533628,"internal_node_id":"0.0-59.0-0.0","task_version":"screening-mturk","missing":false,"accuracy":1},{"contexts":["green","blue","red"],"outcomes":[0,1,0],"key":38,"choice":1,"rt":127.87999998545274,"outcome":1,"trial":54,"correct":1,"trial_type":"three-arm-trial","trial_index":65,"time_elapsed":534961,"internal_node_id":"0.0-60.0-0.0","task_version":"screening-mturk","missing":false,"accuracy":1},{"contexts":["green","blue","red"],"outcomes":[0,0,0],"key":38,"choice":1,"rt":669.9099999968894,"outcome":0,"trial":55,"correct":1,"trial_type":"three-arm-trial","trial_index":66,"time_elapsed":536837,"internal_node_id":"0.0-61.0-0.0","task_version":"screening-mturk","missing":false,"accuracy":1},{"contexts":["green","blue","red"],"outcomes":[0,0,1],"key":39,"choice":2,"rt":222.09999995538965,"outcome":1,"trial":56,"correct":1,"trial_type":"three-arm-trial","trial_index":67,"time_elapsed":538269,"internal_node_id":"0.0-62.0-0.0","task_version":"screening-mturk","missing":false,"accuracy":0},{"contexts":["green","blue","red"],"outcomes":[1,1,0],"key":39,"choice":2,"rt":353.79999998258427,"outcome":0,"trial":57,"correct":1,"trial_type":"three-arm-trial","trial_index":68,"time_elapsed":539831,"internal_node_id":"0.0-63.0-0.0","task_version":"screening-mturk","missing":false,"accuracy":0},{"contexts":["green","blue","red"],"outcomes":[0,1,0],"key":37,"choice":0,"rt":273.6049999948591,"outcome":0,"trial":58,"correct":1,"trial_type":"three-arm-trial","trial_index":69,"time_elapsed":541311,"internal_node_id":"0.0-64.0-0.0","task_version":"screening-mturk","missing":false,"accuracy":0},{"contexts":["green","blue","red"],"outcomes":[0,1,1],"key":38,"choice":1,"rt":261.70500001171604,"outcome":1,"trial":59,"correct":1,"trial_type":"three-arm-trial","trial_index":70,"time_elapsed":542777,"internal_node_id":"0.0-65.0-0.0","task_version":"screening-mturk","missing":false,"accuracy":1},{"contexts":["green","blue","red"],"outcomes":[0,1,1],"key":38,"choice":1,"rt":237.4849999905564,"outcome":1,"trial":60,"correct":1,"trial_type":"three-arm-trial","trial_index":71,"time_elapsed":544224,"internal_node_id":"0.0-66.0-0.0","task_version":"screening-mturk","missing":false,"accuracy":1},{"contexts":["green","blue","red"],"outcomes":[1,0,0],"key":38,"choice":1,"rt":299.9500000150874,"outcome":0,"trial":61,"correct":0,"trial_type":"three-arm-trial","trial_index":72,"time_elapsed":545732,"internal_node_id":"0.0-67.0-0.0","task_version":"screening-mturk","missing":false,"accuracy":0},{"contexts":["green","blue","red"],"outcomes":[1,1,0],"key":39,"choice":2,"rt":227.23000001860783,"outcome":0,"trial":62,"correct":0,"trial_type":"three-arm-trial","trial_index":73,"time_elapsed":547165,"internal_node_id":"0.0-68.0-0.0","task_version":"screening-mturk","missing":false,"accuracy":0},{"contexts":["green","blue","red"],"outcomes":[1,0,0],"key":37,"choice":0,"rt":137.37000001128763,"outcome":1,"trial":63,"correct":0,"trial_type":"three-arm-trial","trial_index":74,"time_elapsed":548508,"internal_node_id":"0.0-69.0-0.0","task_version":"screening-mturk","missing":false,"accuracy":1},{"contexts":["green","blue","red"],"outcomes":[1,0,1],"key":37,"choice":0,"rt":283.3350000437349,"outcome":1,"trial":64,"correct":0,"trial_type":"three-arm-trial","trial_index":75,"time_elapsed":550001,"internal_node_id":"0.0-70.0-0.0","task_version":"screening-mturk","missing":false,"accuracy":1},{"contexts":["green","blue","red"],"outcomes":[1,0,0],"key":37,"choice":0,"rt":232.33000002801418,"outcome":1,"trial":65,"correct":0,"trial_type":"three-arm-trial","trial_index":76,"time_elapsed":551441,"internal_node_id":"0.0-71.0-0.0","task_version":"screening-mturk","missing":false,"accuracy":1},{"contexts":["green","blue","red"],"outcomes":[1,0,0],"key":37,"choice":0,"rt":125.9250000002794,"outcome":1,"trial":66,"correct":0,"trial_type":"three-arm-trial","trial_index":77,"time_elapsed":552776,"internal_node_id":"0.0-72.0-0.0","task_version":"screening-mturk","missing":false,"accuracy":1},{"contexts":["green","blue","red"],"outcomes":[1,0,0],"key":37,"choice":0,"rt":253.33999999566004,"outcome":1,"trial":67,"correct":0,"trial_type":"three-arm-trial","trial_index":78,"time_elapsed":554238,"internal_node_id":"0.0-73.0-0.0","task_version":"screening-mturk","missing":false,"accuracy":1},{"contexts":["green","blue","red"],"outcomes":[1,1,0],"key":37,"choice":0,"rt":174.7849999810569,"outcome":1,"trial":68,"correct":0,"trial_type":"three-arm-trial","trial_index":79,"time_elapsed":555619,"internal_node_id":"0.0-74.0-0.0","task_version":"screening-mturk","missing":false,"accuracy":1},{"contexts":["green","blue","red"],"outcomes":[0,0,0],"key":37,"choice":0,"rt":328.1149999820627,"outcome":0,"trial":69,"correct":0,"trial_type":"three-arm-trial","trial_index":80,"time_elapsed":557152,"internal_node_id":"0.0-75.0-0.0","task_version":"screening-mturk","missing":false,"accuracy":1},{"contexts":["green","blue","red"],"outcomes":[1,0,1],"key":38,"choice":1,"rt":445.5900000175461,"outcome":0,"trial":70,"correct":0,"trial_type":"three-arm-trial","trial_index":81,"time_elapsed":558802,"internal_node_id":"0.0-76.0-0.0","task_version":"screening-mturk","missing":false,"accuracy":0},{"contexts":["green","blue","red"],"outcomes":[0,0,1],"key":39,"choice":2,"rt":311.93500000517815,"outcome":1,"trial":71,"correct":0,"trial_type":"three-arm-trial","trial_index":82,"time_elapsed":560320,"internal_node_id":"0.0-77.0-0.0","task_version":"screening-mturk","missing":false,"accuracy":0},{"contexts":["green","blue","red"],"outcomes":[1,0,1],"key":39,"choice":2,"rt":1063.3549999911338,"outcome":1,"trial":72,"correct":0,"trial_type":"three-arm-trial","trial_index":83,"time_elapsed":562589,"internal_node_id":"0.0-78.0-0.0","task_version":"screening-mturk","missing":false,"accuracy":0},{"contexts":["green","blue","red"],"outcomes":[0,0,0],"key":39,"choice":2,"rt":387.2799999662675,"outcome":0,"trial":73,"correct":0,"trial_type":"three-arm-trial","trial_index":84,"time_elapsed":564183,"internal_node_id":"0.0-79.0-0.0","task_version":"screening-mturk","missing":false,"accuracy":0},{"contexts":["green","blue","red"],"outcomes":[0,0,0],"key":37,"choice":0,"rt":273.6600000062026,"outcome":0,"trial":74,"correct":0,"trial_type":"three-arm-trial","trial_index":85,"time_elapsed":565667,"internal_node_id":"0.0-80.0-0.0","task_version":"screening-mturk","missing":false,"accuracy":1},{"contexts":["green","blue","red"],"outcomes":[1,0,0],"key":38,"choice":1,"rt":165.5400000163354,"outcome":0,"trial":75,"correct":0,"trial_type":"three-arm-trial","trial_index":86,"time_elapsed":567041,"internal_node_id":"0.0-81.0-0.0","task_version":"screening-mturk","missing":false,"accuracy":0},{"contexts":["green","blue","red"],"outcomes":[0,0,1],"key":39,"choice":2,"rt":329.1150000295602,"outcome":1,"trial":76,"correct":2,"trial_type":"three-arm-trial","trial_index":87,"time_elapsed":568574,"internal_node_id":"0.0-82.0-0.0","task_version":"screening-mturk","missing":false,"accuracy":1},{"contexts":["green","blue","red"],"outcomes":[0,0,1],"key":39,"choice":2,"rt":317.0049999607727,"outcome":1,"trial":77,"correct":2,"trial_type":"three-arm-trial","trial_index":88,"time_elapsed":570099,"internal_node_id":"0.0-83.0-0.0","task_version":"screening-mturk","missing":false,"accuracy":1},{"contexts":["green","blue","red"],"outcomes":[0,0,1],"key":39,"choice":2,"rt":385.91499999165535,"outcome":1,"trial":78,"correct":2,"trial_type":"three-arm-trial","trial_index":89,"time_elapsed":571692,"internal_node_id":"0.0-84.0-0.0","task_version":"screening-mturk","missing":false,"accuracy":1},{"contexts":["green","blue","red"],"outcomes":[1,1,1],"key":39,"choice":2,"rt":330.80499997595325,"outcome":1,"trial":79,"correct":2,"trial_type":"three-arm-trial","trial_index":90,"time_elapsed":573227,"internal_node_id":"0.0-85.0-0.0","task_version":"screening-mturk","missing":false,"accuracy":1},{"contexts":["green","blue","red"],"outcomes":[0,0,1],"key":39,"choice":2,"rt":299.5399999781512,"outcome":1,"trial":80,"correct":2,"trial_type":"three-arm-trial","trial_index":91,"time_elapsed":574734,"internal_node_id":"0.0-86.0-0.0","task_version":"screening-mturk","missing":false,"accuracy":1},{"contexts":["green","blue","red"],"outcomes":[1,0,1],"key":39,"choice":2,"rt":311.86499999603257,"outcome":1,"trial":81,"correct":2,"trial_type":"three-arm-trial","trial_index":92,"time_elapsed":576256,"internal_node_id":"0.0-87.0-0.0","task_version":"screening-mturk","missing":false,"accuracy":1},{"contexts":["green","blue","red"],"outcomes":[0,0,0],"key":39,"choice":2,"rt":606.5999999991618,"outcome":0,"trial":82,"correct":2,"trial_type":"three-arm-trial","trial_index":93,"time_elapsed":578070,"internal_node_id":"0.0-88.0-0.0","task_version":"screening-mturk","missing":false,"accuracy":1},{"contexts":["green","blue","red"],"outcomes":[0,1,1],"key":37,"choice":0,"rt":155.93500004615635,"outcome":0,"trial":83,"correct":2,"trial_type":"three-arm-trial","trial_index":94,"time_elapsed":579434,"internal_node_id":"0.0-89.0-0.0","task_version":"screening-mturk","missing":false,"accuracy":0},{"contexts":["green","blue","red"],"outcomes":[0,0,1],"key":38,"choice":1,"rt":124.58999996306375,"outcome":0,"trial":84,"correct":2,"trial_type":"three-arm-trial","trial_index":95,"time_elapsed":580764,"internal_node_id":"0.0-90.0-0.0","task_version":"screening-mturk","missing":false,"accuracy":0},{"contexts":["green","blue","red"],"outcomes":[0,1,1],"key":39,"choice":2,"rt":77.31999998213723,"outcome":1,"trial":85,"correct":2,"trial_type":"three-arm-trial","trial_index":96,"time_elapsed":582046,"internal_node_id":"0.0-91.0-0.0","task_version":"screening-mturk","missing":false,"accuracy":1},{"contexts":["green","blue","red"],"outcomes":[0,1,1],"key":39,"choice":2,"rt":280.49000003375113,"outcome":1,"trial":86,"correct":2,"trial_type":"three-arm-trial","trial_index":97,"time_elapsed":583533,"internal_node_id":"0.0-92.0-0.0","task_version":"screening-mturk","missing":false,"accuracy":1},{"contexts":["green","blue","red"],"outcomes":[0,0,1],"key":39,"choice":2,"rt":179.35999995097518,"outcome":1,"trial":87,"correct":2,"trial_type":"three-arm-trial","trial_index":98,"time_elapsed":584917,"internal_node_id":"0.0-93.0-0.0","task_version":"screening-mturk","missing":false,"accuracy":1},{"contexts":["green","blue","red"],"outcomes":[0,0,1],"key":39,"choice":2,"rt":62.664999975822866,"outcome":1,"trial":88,"correct":2,"trial_type":"three-arm-trial","trial_index":99,"time_elapsed":586185,"internal_node_id":"0.0-94.0-0.0","task_version":"screening-mturk","missing":false,"accuracy":1},{"contexts":["green","blue","red"],"outcomes":[0,0,0],"key":39,"choice":2,"rt":36.299999977927655,"outcome":0,"trial":89,"correct":2,"trial_type":"three-arm-trial","trial_index":100,"time_elapsed":587427,"internal_node_id":"0.0-95.0-0.0","task_version":"screening-mturk","missing":false,"accuracy":1},{"contexts":["green","blue","red"],"outcomes":[0,0,1],"key":37,"choice":0,"rt":134.27499996032566,"outcome":0,"trial":90,"correct":2,"trial_type":"three-arm-trial","trial_index":101,"time_elapsed":588768,"internal_node_id":"0.0-96.0-0.0","task_version":"screening-mturk","missing":false,"accuracy":0},{"rt":24071.20499998564,"responses":{"age":"46","gender-categorical":"Female","gender-free-response":"","ethnicity":"Not Hispanic or Latino","race":["Asian"],"language":"Yes","fluency":"Very well","prolific":"No","prolific-this-study":"No"},"survey":"demographics","trial_type":"survey-demo","trial_index":102,"time_elapsed":612847,"internal_node_id":"0.0-97.0","task_version":"screening-mturk","interactions":"[{\"event\":\"blur\",\"trial\":0,\"time\":89565},{\"event\":\"focus\",\"trial\":0,\"time\":91507}]"}]