[{"responses":{"Q01":"1","Q02":"2","Q12":"1","Q13":"2","Q09":"2","Q08":"3","Q10":"2","Q11":"2","Q07":"3","Q05":"2","Q04":"1","Q03":"1","Q06":"2"},"rt":50953.18499999121,"survey":"bisbas","trial_type":"survey-template","trial_index":0,"time_elapsed":50979,"internal_node_id":"0.0-0.0","task_version":"screening-mturk"},{"responses":{"Q03":"1","Q01":"2","Q02":"1"},"rt":11097.18000004068,"survey":"pswq","trial_type":"survey-template","trial_index":1,"time_elapsed":62080,"internal_node_id":"0.0-1.0","task_version":"screening-mturk"},{"responses":{"Q02":"2","Q08":"1","Q07":"2","Q14":"1","Q03":"2","Q01":"3","Q15":"2","Q04":"1","Q12":"2","Q11":"1","Q13":"2","Q10":"3","Q06":"2","Q05":"1","Q09":"1"},"rt":66034.11999996752,"survey":"7up7down","trial_type":"survey-template","trial_index":2,"time_elapsed":128120,"internal_node_id":"0.0-2.0","task_version":"screening-mturk"},{"responses":{"Q11":"2","Q13":"3","Q05":"1","Q15":"3","Q01":"2","Q06":"2","Q14":"3","Q10":"2","Q04":"3","Q07":"2","Q12":"2","Q09":"3","Q03":"2","Q08":"2","Q02":"3"},"rt":54922.52499982715,"survey":"shaps","trial_type":"survey-template","trial_index":3,"time_elapsed":183049,"internal_node_id":"0.0-3.0","task_version":"screening-mturk"},{"responses":{"Q08":"1","Q07":"2","Q01":"1","Q04":"1","Q02":"0","Q03":"0","Q05":"1","Q06":"1"},"rt":27625.115000177175,"survey":"gad7","trial_type":"survey-template","trial_index":4,"time_elapsed":210677,"internal_node_id":"0.0-4.0","task_version":"screening-mturk"},{"view_history":"[{\"page_index\":0,\"viewing_time\":11452.280000317842},{\"page_index\":1,\"viewing_time\":24982.45000001043},{\"page_index\":2,\"viewing_time\":17311.539999675006},{\"page_index\":3,\"viewing_time\":12678.025000263005},{\"page_index\":4,\"viewing_time\":10663.135000038892},{\"page_index\":5,\"viewing_time\":7439.7399998269975},{\"page_index\":6,\"viewing_time\":6864.165000151843},{\"page_index\":7,\"viewing_time\":9225.414999760687}]","rt":100617.80500039458,"trial_type":"instructions","trial_index":5,"time_elapsed":311301,"internal_node_id":"0.0-5.0-0.0","task_version":"screening-mturk"},{"responses":["True","False","False","False","True"],"num_errors":1,"rt":31857.179999817163,"trial_type":"three-arm-comprehension","trial_index":6,"time_elapsed":343162,"internal_node_id":"0.0-5.0-1.0","task_version":"screening-mturk"},{"view_history":"[{\"page_index\":0,\"viewing_time\":9738.944999873638},{\"page_index\":1,\"viewing_time\":27317.129999864846},{\"page_index\":2,\"viewing_time\":9016.880000010133},{\"page_index\":3,\"viewing_time\":2294.9700001627207},{\"page_index\":4,\"viewing_time\":16271.650000009686},{\"page_index\":5,\"viewing_time\":28926.93499987945},{\"page_index\":6,\"viewing_time\":1528.0150002799928},{\"page_index\":7,\"viewing_time\":1183.1049998290837}]","rt":96278.10500003397,"trial_type":"instructions","trial_index":7,"time_elapsed":439446,"internal_node_id":"0.0-5.1-0.1","task_version":"screening-mturk"},{"responses":["True","True","False","False","True"],"num_errors":0,"rt":27725.39500007406,"trial_type":"three-arm-comprehension","trial_index":8,"time_elapsed":467176,"internal_node_id":"0.0-5.1-1.1","task_version":"screening-mturk"},{"view_history":"[{\"page_index\":0,\"viewing_time\":5171.180000063032}]","rt":5171.630000229925,"trial_type":"instructions","trial_index":9,"time_elapsed":472351,"internal_node_id":"0.0-6.0","task_version":"screening-mturk"},{"contexts":["blue","red","green"],"outcomes":[1,0,0],"key":38,"choice":1,"rt":4267.475000116974,"outcome":0,"trial":1,"correct":0,"trial_type":"three-arm-trial","trial_index":10,"time_elapsed":477822,"internal_node_id":"0.0-7.0-0.0","task_version":"screening-mturk","missing":false,"accuracy":0},{"contexts":["blue","red","green"],"outcomes":[0,1,1],"key":37,"choice":0,"rt":655.3150000981987,"outcome":0,"trial":2,"correct":0,"trial_type":"three-arm-trial","trial_index":11,"time_elapsed":479681,"internal_node_id":"0.0-8.0-0.0","task_version":"screening-mturk","missing":false,"accuracy":1},{"contexts":["blue","red","green"],"outcomes":[1,0,1],"key":39,"choice":2,"rt":108.30499976873398,"outcome":1,"trial":3,"correct":0,"trial_type":"three-arm-trial","trial_index":12,"time_elapsed":480993,"internal_node_id":"0.0-9.0-0.0","task_version":"screening-mturk","missing":false,"accuracy":0},{"contexts":["blue","red","green"],"outcomes":[1,0,0],"key":39,"choice":2,"rt":866.6999996639788,"outcome":0,"trial":4,"correct":0,"trial_type":"three-arm-trial","trial_index":13,"time_elapsed":483063,"internal_node_id":"0.0-10.0-0.0","task_version":"screening-mturk","missing":false,"accuracy":0},{"contexts":["blue","red","green"],"outcomes":[1,0,0],"key":38,"choice":1,"rt":1255.1400000229478,"outcome":0,"trial":5,"correct":0,"trial_type":"three-arm-trial","trial_index":14,"time_elapsed":485522,"internal_node_id":"0.0-11.0-0.0","task_version":"screening-mturk","missing":false,"accuracy":0},{"contexts":["blue","red","green"],"outcomes":[0,0,0],"key":37,"choice":0,"rt":591.2550003267825,"outcome":0,"trial":6,"correct":0,"trial_type":"three-arm-trial","trial_index":15,"time_elapsed":487318,"internal_node_id":"0.0-12.0-0.0","task_version":"screening-mturk","missing":false,"accuracy":1},{"contexts":["blue","red","green"],"outcomes":[1,0,0],"key":39,"choice":2,"rt":610.6699998490512,"outcome":0,"trial":7,"correct":0,"trial_type":"three-arm-trial","trial_index":16,"time_elapsed":489133,"internal_node_id":"0.0-13.0-0.0","task_version":"screening-mturk","missing":false,"accuracy":0},{"contexts":["blue","red","green"],"outcomes":[0,1,0],"key":38,"choice":1,"rt":636.4199998788536,"outcome":1,"trial":8,"correct":0,"trial_type":"three-arm-trial","trial_index":17,"time_elapsed":490973,"internal_node_id":"0.0-14.0-0.0","task_version":"screening-mturk","missing":false,"accuracy":0},{"contexts":["blue","red","green"],"outcomes":[1,0,0],"key":38,"choice":1,"rt":905.205000191927,"outcome":0,"trial":9,"correct":0,"trial_type":"three-arm-trial","trial_index":18,"time_elapsed":493082,"internal_node_id":"0.0-15.0-0.0","task_version":"screening-mturk","missing":false,"accuracy":0},{"contexts":["blue","red","green"],"outcomes":[0,1,0],"key":39,"choice":2,"rt":66.07000017538667,"outcome":0,"trial":10,"correct":0,"trial_type":"three-arm-trial","trial_index":19,"time_elapsed":494351,"internal_node_id":"0.0-16.0-0.0","task_version":"screening-mturk","missing":false,"accuracy":0},{"contexts":["blue","red","green"],"outcomes":[1,0,0],"key":37,"choice":0,"rt":639.6750002168119,"outcome":1,"trial":11,"correct":0,"trial_type":"three-arm-trial","trial_index":20,"time_elapsed":496197,"internal_node_id":"0.0-17.0-0.0","task_version":"screening-mturk","missing":false,"accuracy":1},{"contexts":["blue","red","green"],"outcomes":[1,0,1],"key":38,"choice":1,"rt":605.6800000369549,"outcome":0,"trial":12,"correct":0,"trial_type":"three-arm-trial","trial_index":21,"time_elapsed":498006,"internal_node_id":"0.0-18.0-0.0","task_version":"screening-mturk","missing":false,"accuracy":0},{"contexts":["blue","red","green"],"outcomes":[1,0,0],"key":37,"choice":0,"rt":571.7700002714992,"outcome":1,"trial":13,"correct":0,"trial_type":"three-arm-trial","trial_index":22,"time_elapsed":499782,"internal_node_id":"0.0-19.0-0.0","task_version":"screening-mturk","missing":false,"accuracy":1},{"contexts":["blue","red","green"],"outcomes":[1,0,1],"key":37,"choice":0,"rt":811.8099998682737,"outcome":1,"trial":14,"correct":0,"trial_type":"three-arm-trial","trial_index":23,"time_elapsed":501798,"internal_node_id":"0.0-20.0-0.0","task_version":"screening-mturk","missing":false,"accuracy":1},{"contexts":["blue","red","green"],"outcomes":[1,1,1],"key":37,"choice":0,"rt":647.859999909997,"outcome":1,"trial":15,"correct":0,"trial_type":"three-arm-trial","trial_index":24,"time_elapsed":503650,"internal_node_id":"0.0-21.0-0.0","task_version":"screening-mturk","missing":false,"accuracy":1},{"contexts":["blue","red","green"],"outcomes":[0,0,1],"key":37,"choice":0,"rt":591.889999806881,"outcome":0,"trial":16,"correct":2,"trial_type":"three-arm-trial","trial_index":25,"time_elapsed":505446,"internal_node_id":"0.0-22.0-0.0","task_version":"screening-mturk","missing":false,"accuracy":0},{"contexts":["blue","red","green"],"outcomes":[0,0,1],"key":39,"choice":2,"rt":552.1749998442829,"outcome":1,"trial":17,"correct":2,"trial_type":"three-arm-trial","trial_index":26,"time_elapsed":507202,"internal_node_id":"0.0-23.0-0.0","task_version":"screening-mturk","missing":false,"accuracy":1},{"contexts":["blue","red","green"],"outcomes":[0,0,1],"key":39,"choice":2,"rt":608.3349999971688,"outcome":1,"trial":18,"correct":2,"trial_type":"three-arm-trial","trial_index":27,"time_elapsed":509013,"internal_node_id":"0.0-24.0-0.0","task_version":"screening-mturk","missing":false,"accuracy":1},{"contexts":["blue","red","green"],"outcomes":[0,0,0],"key":39,"choice":2,"rt":601.4000000432134,"outcome":0,"trial":19,"correct":2,"trial_type":"three-arm-trial","trial_index":28,"time_elapsed":510818,"internal_node_id":"0.0-25.0-0.0","task_version":"screening-mturk","missing":false,"accuracy":1},{"contexts":["blue","red","green"],"outcomes":[1,0,1],"key":37,"choice":0,"rt":162.05500019714236,"outcome":1,"trial":20,"correct":2,"trial_type":"three-arm-trial","trial_index":29,"time_elapsed":512184,"internal_node_id":"0.0-26.0-0.0","task_version":"screening-mturk","missing":false,"accuracy":0},{"contexts":["blue","red","green"],"outcomes":[0,0,0],"key":37,"choice":0,"rt":638.4800001978874,"outcome":0,"trial":21,"correct":2,"trial_type":"three-arm-trial","trial_index":30,"time_elapsed":514026,"internal_node_id":"0.0-27.0-0.0","task_version":"screening-mturk","missing":false,"accuracy":0},{"contexts":["blue","red","green"],"outcomes":[0,0,1],"key":38,"choice":1,"rt":242.12499987334013,"outcome":0,"trial":22,"correct":2,"trial_type":"three-arm-trial","trial_index":31,"time_elapsed":515472,"internal_node_id":"0.0-28.0-0.0","task_version":"screening-mturk","missing":false,"accuracy":0},{"contexts":["blue","red","green"],"outcomes":[1,0,1],"key":39,"choice":2,"rt":943.7150000594556,"outcome":1,"trial":23,"correct":2,"trial_type":"three-arm-trial","trial_index":32,"time_elapsed":517619,"internal_node_id":"0.0-29.0-0.0","task_version":"screening-mturk","missing":false,"accuracy":1},{"contexts":["blue","red","green"],"outcomes":[0,0,1],"key":39,"choice":2,"rt":580.8950001373887,"outcome":1,"trial":24,"correct":2,"trial_type":"three-arm-trial","trial_index":33,"time_elapsed":519403,"internal_node_id":"0.0-30.0-0.0","task_version":"screening-mturk","missing":false,"accuracy":1},{"contexts":["blue","red","green"],"outcomes":[0,1,0],"key":39,"choice":2,"rt":686.6199998185039,"outcome":0,"trial":25,"correct":2,"trial_type":"three-arm-trial","trial_index":34,"time_elapsed":521294,"internal_node_id":"0.0-31.0-0.0","task_version":"screening-mturk","missing":false,"accuracy":1},{"contexts":["blue","red","green"],"outcomes":[0,1,1],"key":37,"choice":0,"rt":651.5149995684624,"outcome":0,"trial":26,"correct":2,"trial_type":"three-arm-trial","trial_index":35,"time_elapsed":523150,"internal_node_id":"0.0-32.0-0.0","task_version":"screening-mturk","missing":false,"accuracy":0},{"contexts":["blue","red","green"],"outcomes":[0,0,1],"key":38,"choice":1,"rt":778.165000025183,"outcome":0,"trial":27,"correct":2,"trial_type":"three-arm-trial","trial_index":36,"time_elapsed":525132,"internal_node_id":"0.0-33.0-0.0","task_version":"screening-mturk","missing":false,"accuracy":0},{"contexts":["blue","red","green"],"outcomes":[0,0,1],"key":37,"choice":0,"rt":638.7050002813339,"outcome":0,"trial":28,"correct":2,"trial_type":"three-arm-trial","trial_index":37,"time_elapsed":526974,"internal_node_id":"0.0-34.0-0.0","task_version":"screening-mturk","missing":false,"accuracy":0},{"contexts":["blue","red","green"],"outcomes":[0,0,1],"key":39,"choice":2,"rt":781.25,"outcome":1,"trial":29,"correct":2,"trial_type":"three-arm-trial","trial_index":38,"time_elapsed":528958,"internal_node_id":"0.0-35.0-0.0","task_version":"screening-mturk","missing":false,"accuracy":1},{"contexts":["blue","red","green"],"outcomes":[0,1,0],"key":39,"choice":2,"rt":665.8550002612174,"outcome":0,"trial":30,"correct":2,"trial_type":"three-arm-trial","trial_index":39,"time_elapsed":530828,"internal_node_id":"0.0-36.0-0.0","task_version":"screening-mturk","missing":false,"accuracy":1},{"contexts":["blue","red","green"],"outcomes":[0,1,0],"key":37,"choice":0,"rt":615.7100000418723,"outcome":0,"trial":31,"correct":1,"trial_type":"three-arm-trial","trial_index":40,"time_elapsed":532648,"internal_node_id":"0.0-37.0-0.0","task_version":"screening-mturk","missing":false,"accuracy":0},{"contexts":["blue","red","green"],"outcomes":[0,0,0],"key":38,"choice":1,"rt":617.7700003609061,"outcome":0,"trial":32,"correct":1,"trial_type":"three-arm-trial","trial_index":41,"time_elapsed":534470,"internal_node_id":"0.0-38.0-0.0","task_version":"screening-mturk","missing":false,"accuracy":1},{"contexts":["blue","red","green"],"outcomes":[0,1,0],"key":39,"choice":2,"rt":634.2450003139675,"outcome":0,"trial":33,"correct":1,"trial_type":"three-arm-trial","trial_index":42,"time_elapsed":536307,"internal_node_id":"0.0-39.0-0.0","task_version":"screening-mturk","missing":false,"accuracy":0},{"contexts":["blue","red","green"],"outcomes":[0,1,0],"key":37,"choice":0,"rt":568.5450001619756,"outcome":0,"trial":34,"correct":1,"trial_type":"three-arm-trial","trial_index":43,"time_elapsed":538079,"internal_node_id":"0.0-40.0-0.0","task_version":"screening-mturk","missing":false,"accuracy":0},{"contexts":["blue","red","green"],"outcomes":[0,0,0],"key":38,"choice":1,"rt":664.9749996140599,"outcome":0,"trial":35,"correct":1,"trial_type":"three-arm-trial","trial_index":44,"time_elapsed":539947,"internal_node_id":"0.0-41.0-0.0","task_version":"screening-mturk","missing":false,"accuracy":1},{"contexts":["blue","red","green"],"outcomes":[1,1,0],"key":39,"choice":2,"rt":656.7549998871982,"outcome":0,"trial":36,"correct":1,"trial_type":"three-arm-trial","trial_index":45,"time_elapsed":541807,"internal_node_id":"0.0-42.0-0.0","task_version":"screening-mturk","missing":false,"accuracy":0},{"contexts":["blue","red","green"],"outcomes":[0,1,0],"key":37,"choice":0,"rt":493.1749999523163,"outcome":0,"trial":37,"correct":1,"trial_type":"three-arm-trial","trial_index":46,"time_elapsed":543503,"internal_node_id":"0.0-43.0-0.0","task_version":"screening-mturk","missing":false,"accuracy":0},{"contexts":["blue","red","green"],"outcomes":[1,0,0],"key":39,"choice":2,"rt":210.2800002321601,"outcome":0,"trial":38,"correct":1,"trial_type":"three-arm-trial","trial_index":47,"time_elapsed":544917,"internal_node_id":"0.0-44.0-0.0","task_version":"screening-mturk","missing":false,"accuracy":0},{"contexts":["blue","red","green"],"outcomes":[1,1,0],"key":37,"choice":0,"rt":788.2600002922118,"outcome":1,"trial":39,"correct":1,"trial_type":"three-arm-trial","trial_index":48,"time_elapsed":546909,"internal_node_id":"0.0-45.0-0.0","task_version":"screening-mturk","missing":false,"accuracy":0},{"contexts":["blue","red","green"],"outcomes":[1,0,0],"key":37,"choice":0,"rt":624.3400000967085,"outcome":1,"trial":40,"correct":1,"trial_type":"three-arm-trial","trial_index":49,"time_elapsed":548736,"internal_node_id":"0.0-46.0-0.0","task_version":"screening-mturk","missing":false,"accuracy":0},{"contexts":["blue","red","green"],"outcomes":[0,1,1],"key":37,"choice":0,"rt":540.5649999156594,"outcome":0,"trial":41,"correct":1,"trial_type":"three-arm-trial","trial_index":50,"time_elapsed":550483,"internal_node_id":"0.0-47.0-0.0","task_version":"screening-mturk","missing":false,"accuracy":0},{"contexts":["blue","red","green"],"outcomes":[0,1,0],"key":39,"choice":2,"rt":692.2400002367795,"outcome":0,"trial":42,"correct":1,"trial_type":"three-arm-trial","trial_index":51,"time_elapsed":552380,"internal_node_id":"0.0-48.0-0.0","task_version":"screening-mturk","missing":false,"accuracy":0},{"contexts":["blue","red","green"],"outcomes":[0,1,0],"key":37,"choice":0,"rt":642.0299997553229,"outcome":0,"trial":43,"correct":1,"trial_type":"three-arm-trial","trial_index":52,"time_elapsed":554225,"internal_node_id":"0.0-49.0-0.0","task_version":"screening-mturk","missing":false,"accuracy":0},{"contexts":["blue","red","green"],"outcomes":[0,1,1],"key":39,"choice":2,"rt":564.8150001652539,"outcome":1,"trial":44,"correct":1,"trial_type":"three-arm-trial","trial_index":53,"time_elapsed":555994,"internal_node_id":"0.0-50.0-0.0","task_version":"screening-mturk","missing":false,"accuracy":0},{"contexts":["blue","red","green"],"outcomes":[0,1,0],"key":39,"choice":2,"rt":524.0949997678399,"outcome":0,"trial":45,"correct":1,"trial_type":"three-arm-trial","trial_index":54,"time_elapsed":557722,"internal_node_id":"0.0-51.0-0.0","task_version":"screening-mturk","missing":false,"accuracy":0},{"contexts":["blue","red","green"],"outcomes":[0,1,0],"key":37,"choice":0,"rt":570.704999845475,"outcome":0,"trial":46,"correct":0,"trial_type":"three-arm-trial","trial_index":55,"time_elapsed":559499,"internal_node_id":"0.0-52.0-0.0","task_version":"screening-mturk","missing":false,"accuracy":1},{"contexts":["blue","red","green"],"outcomes":[0,1,1],"key":39,"choice":2,"rt":476.1500000022352,"outcome":1,"trial":47,"correct":0,"trial_type":"three-arm-trial","trial_index":56,"time_elapsed":561178,"internal_node_id":"0.0-53.0-0.0","task_version":"screening-mturk","missing":false,"accuracy":0},{"contexts":["blue","red","green"],"outcomes":[1,0,0],"key":39,"choice":2,"rt":537.9200000315905,"outcome":0,"trial":48,"correct":0,"trial_type":"three-arm-trial","trial_index":57,"time_elapsed":562922,"internal_node_id":"0.0-54.0-0.0","task_version":"screening-mturk","missing":false,"accuracy":0},{"contexts":["blue","red","green"],"outcomes":[1,1,0],"key":37,"choice":0,"rt":583.515000063926,"outcome":1,"trial":49,"correct":0,"trial_type":"three-arm-trial","trial_index":58,"time_elapsed":564710,"internal_node_id":"0.0-55.0-0.0","task_version":"screening-mturk","missing":false,"accuracy":1},{"contexts":["blue","red","green"],"outcomes":[0,0,0],"key":37,"choice":0,"rt":662.8099996596575,"outcome":0,"trial":50,"correct":0,"trial_type":"three-arm-trial","trial_index":59,"time_elapsed":566577,"internal_node_id":"0.0-56.0-0.0","task_version":"screening-mturk","missing":false,"accuracy":1},{"contexts":["blue","red","green"],"outcomes":[0,0,0],"key":38,"choice":1,"rt":601.2500002980232,"outcome":0,"trial":51,"correct":0,"trial_type":"three-arm-trial","trial_index":60,"time_elapsed":568382,"internal_node_id":"0.0-57.0-0.0","task_version":"screening-mturk","missing":false,"accuracy":0},{"contexts":["blue","red","green"],"outcomes":[1,0,0],"key":39,"choice":2,"rt":565.1899999938905,"outcome":0,"trial":52,"correct":0,"trial_type":"three-arm-trial","trial_index":61,"time_elapsed":570151,"internal_node_id":"0.0-58.0-0.0","task_version":"screening-mturk","missing":false,"accuracy":0},{"contexts":["blue","red","green"],"outcomes":[1,0,0],"key":37,"choice":0,"rt":617.0650003477931,"outcome":1,"trial":53,"correct":0,"trial_type":"three-arm-trial","trial_index":62,"time_elapsed":571971,"internal_node_id":"0.0-59.0-0.0","task_version":"screening-mturk","missing":false,"accuracy":1},{"contexts":["blue","red","green"],"outcomes":[0,0,0],"key":37,"choice":0,"rt":654.039999935776,"outcome":0,"trial":54,"correct":0,"trial_type":"three-arm-trial","trial_index":63,"time_elapsed":573828,"internal_node_id":"0.0-60.0-0.0","task_version":"screening-mturk","missing":false,"accuracy":1},{"contexts":["blue","red","green"],"outcomes":[1,0,1],"key":39,"choice":2,"rt":619.1199999302626,"outcome":1,"trial":55,"correct":0,"trial_type":"three-arm-trial","trial_index":64,"time_elapsed":575653,"internal_node_id":"0.0-61.0-0.0","task_version":"screening-mturk","missing":false,"accuracy":0},{"contexts":["blue","red","green"],"outcomes":[1,0,0],"key":39,"choice":2,"rt":821.5849995613098,"outcome":0,"trial":56,"correct":0,"trial_type":"three-arm-trial","trial_index":65,"time_elapsed":577677,"internal_node_id":"0.0-62.0-0.0","task_version":"screening-mturk","missing":false,"accuracy":0},{"contexts":["blue","red","green"],"outcomes":[1,0,0],"key":39,"choice":2,"rt":650.6449999287724,"outcome":0,"trial":57,"correct":0,"trial_type":"three-arm-trial","trial_index":66,"time_elapsed":579531,"internal_node_id":"0.0-63.0-0.0","task_version":"screening-mturk","missing":false,"accuracy":0},{"contexts":["blue","red","green"],"outcomes":[0,0,0],"key":39,"choice":2,"rt":593.3900000527501,"outcome":0,"trial":58,"correct":0,"trial_type":"three-arm-trial","trial_index":67,"time_elapsed":581328,"internal_node_id":"0.0-64.0-0.0","task_version":"screening-mturk","missing":false,"accuracy":0},{"contexts":["blue","red","green"],"outcomes":[1,0,0],"key":37,"choice":0,"rt":635.0400000810623,"outcome":1,"trial":59,"correct":0,"trial_type":"three-arm-trial","trial_index":68,"time_elapsed":583167,"internal_node_id":"0.0-65.0-0.0","task_version":"screening-mturk","missing":false,"accuracy":1},{"contexts":["blue","red","green"],"outcomes":[0,1,0],"key":37,"choice":0,"rt":659.7649999894202,"outcome":0,"trial":60,"correct":0,"trial_type":"three-arm-trial","trial_index":69,"time_elapsed":585036,"internal_node_id":"0.0-66.0-0.0","task_version":"screening-mturk","missing":false,"accuracy":1},{"contexts":["blue","red","green"],"outcomes":[0,1,1],"key":39,"choice":2,"rt":565.2399999089539,"outcome":1,"trial":61,"correct":1,"trial_type":"three-arm-trial","trial_index":70,"time_elapsed":586804,"internal_node_id":"0.0-67.0-0.0","task_version":"screening-mturk","missing":false,"accuracy":0},{"contexts":["blue","red","green"],"outcomes":[1,1,0],"key":39,"choice":2,"rt":605.6149997748435,"outcome":0,"trial":62,"correct":1,"trial_type":"three-arm-trial","trial_index":71,"time_elapsed":588613,"internal_node_id":"0.0-68.0-0.0","task_version":"screening-mturk","missing":false,"accuracy":0},{"contexts":["blue","red","green"],"outcomes":[1,0,0],"key":37,"choice":0,"rt":620.1599999330938,"outcome":1,"trial":63,"correct":1,"trial_type":"three-arm-trial","trial_index":72,"time_elapsed":590438,"internal_node_id":"0.0-69.0-0.0","task_version":"screening-mturk","missing":false,"accuracy":0},{"contexts":["blue","red","green"],"outcomes":[0,1,0],"key":37,"choice":0,"rt":681.4699997194111,"outcome":0,"trial":64,"correct":1,"trial_type":"three-arm-trial","trial_index":73,"time_elapsed":592322,"internal_node_id":"0.0-70.0-0.0","task_version":"screening-mturk","missing":false,"accuracy":0},{"contexts":["blue","red","green"],"outcomes":[0,1,0],"key":39,"choice":2,"rt":627.7949996292591,"outcome":0,"trial":65,"correct":1,"trial_type":"three-arm-trial","trial_index":74,"time_elapsed":594154,"internal_node_id":"0.0-71.0-0.0","task_version":"screening-mturk","missing":false,"accuracy":0},{"contexts":["blue","red","green"],"outcomes":[0,1,0],"key":38,"choice":1,"rt":773.9249998703599,"outcome":1,"trial":66,"correct":1,"trial_type":"three-arm-trial","trial_index":75,"time_elapsed":596132,"internal_node_id":"0.0-72.0-0.0","task_version":"screening-mturk","missing":false,"accuracy":1},{"contexts":["blue","red","green"],"outcomes":[0,1,0],"key":38,"choice":1,"rt":598.9800002425909,"outcome":1,"trial":67,"correct":1,"trial_type":"three-arm-trial","trial_index":76,"time_elapsed":597934,"internal_node_id":"0.0-73.0-0.0","task_version":"screening-mturk","missing":false,"accuracy":1},{"contexts":["blue","red","green"],"outcomes":[1,1,1],"key":38,"choice":1,"rt":684.7899998538196,"outcome":1,"trial":68,"correct":1,"trial_type":"three-arm-trial","trial_index":77,"time_elapsed":599823,"internal_node_id":"0.0-74.0-0.0","task_version":"screening-mturk","missing":false,"accuracy":1},{"contexts":["blue","red","green"],"outcomes":[0,0,0],"key":38,"choice":1,"rt":506.9900001399219,"outcome":0,"trial":69,"correct":1,"trial_type":"three-arm-trial","trial_index":78,"time_elapsed":601532,"internal_node_id":"0.0-75.0-0.0","task_version":"screening-mturk","missing":false,"accuracy":1},{"contexts":["blue","red","green"],"outcomes":[0,1,0],"key":39,"choice":2,"rt":624.7600000351667,"outcome":0,"trial":70,"correct":1,"trial_type":"three-arm-trial","trial_index":79,"time_elapsed":603362,"internal_node_id":"0.0-76.0-0.0","task_version":"screening-mturk","missing":false,"accuracy":0},{"contexts":["blue","red","green"],"outcomes":[0,1,0],"key":37,"choice":0,"rt":589.9400003254414,"outcome":0,"trial":71,"correct":1,"trial_type":"three-arm-trial","trial_index":80,"time_elapsed":605155,"internal_node_id":"0.0-77.0-0.0","task_version":"screening-mturk","missing":false,"accuracy":0},{"contexts":["blue","red","green"],"outcomes":[0,1,1],"key":39,"choice":2,"rt":485.1049999706447,"outcome":1,"trial":72,"correct":1,"trial_type":"three-arm-trial","trial_index":81,"time_elapsed":606845,"internal_node_id":"0.0-78.0-0.0","task_version":"screening-mturk","missing":false,"accuracy":0},{"contexts":["blue","red","green"],"outcomes":[0,1,0],"key":39,"choice":2,"rt":607.7100001275539,"outcome":0,"trial":73,"correct":1,"trial_type":"three-arm-trial","trial_index":82,"time_elapsed":608656,"internal_node_id":"0.0-79.0-0.0","task_version":"screening-mturk","missing":false,"accuracy":0},{"contexts":["blue","red","green"],"outcomes":[0,0,1],"key":37,"choice":0,"rt":671.0799997672439,"outcome":0,"trial":74,"correct":1,"trial_type":"three-arm-trial","trial_index":83,"time_elapsed":610530,"internal_node_id":"0.0-80.0-0.0","task_version":"screening-mturk","missing":false,"accuracy":0},{"contexts":["blue","red","green"],"outcomes":[0,1,0],"key":39,"choice":2,"rt":625.5000000819564,"outcome":0,"trial":75,"correct":1,"trial_type":"three-arm-trial","trial_index":84,"time_elapsed":612359,"internal_node_id":"0.0-81.0-0.0","task_version":"screening-mturk","missing":false,"accuracy":0},{"contexts":["blue","red","green"],"outcomes":[1,1,0],"key":38,"choice":1,"rt":566.554999910295,"outcome":1,"trial":76,"correct":0,"trial_type":"three-arm-trial","trial_index":85,"time_elapsed":614130,"internal_node_id":"0.0-82.0-0.0","task_version":"screening-mturk","missing":false,"accuracy":0},{"contexts":["blue","red","green"],"outcomes":[1,0,0],"key":38,"choice":1,"rt":601.5249998308718,"outcome":0,"trial":77,"correct":0,"trial_type":"three-arm-trial","trial_index":86,"time_elapsed":615935,"internal_node_id":"0.0-83.0-0.0","task_version":"screening-mturk","missing":false,"accuracy":0},{"contexts":["blue","red","green"],"outcomes":[1,0,0],"key":37,"choice":0,"rt":711.9199996814132,"outcome":1,"trial":78,"correct":0,"trial_type":"three-arm-trial","trial_index":87,"time_elapsed":617856,"internal_node_id":"0.0-84.0-0.0","task_version":"screening-mturk","missing":false,"accuracy":1},{"contexts":["blue","red","green"],"outcomes":[1,0,1],"key":37,"choice":0,"rt":643.8350002281368,"outcome":1,"trial":79,"correct":0,"trial_type":"three-arm-trial","trial_index":88,"time_elapsed":619704,"internal_node_id":"0.0-85.0-0.0","task_version":"screening-mturk","missing":false,"accuracy":1},{"contexts":["blue","red","green"],"outcomes":[0,0,0],"key":37,"choice":0,"rt":656.6599998623133,"outcome":0,"trial":80,"correct":0,"trial_type":"three-arm-trial","trial_index":89,"time_elapsed":621565,"internal_node_id":"0.0-86.0-0.0","task_version":"screening-mturk","missing":false,"accuracy":1},{"contexts":["blue","red","green"],"outcomes":[1,0,0],"key":39,"choice":2,"rt":629.8199999146163,"outcome":0,"trial":81,"correct":0,"trial_type":"three-arm-trial","trial_index":90,"time_elapsed":623400,"internal_node_id":"0.0-87.0-0.0","task_version":"screening-mturk","missing":false,"accuracy":0},{"contexts":["blue","red","green"],"outcomes":[0,0,0],"key":38,"choice":1,"rt":605.6800000369549,"outcome":0,"trial":82,"correct":0,"trial_type":"three-arm-trial","trial_index":91,"time_elapsed":625209,"internal_node_id":"0.0-88.0-0.0","task_version":"screening-mturk","missing":false,"accuracy":0},{"contexts":["blue","red","green"],"outcomes":[1,0,1],"key":37,"choice":0,"rt":541.3850001059473,"outcome":1,"trial":83,"correct":0,"trial_type":"three-arm-trial","trial_index":92,"time_elapsed":626954,"internal_node_id":"0.0-89.0-0.0","task_version":"screening-mturk","missing":false,"accuracy":1},{"contexts":["blue","red","green"],"outcomes":[1,1,1],"key":37,"choice":0,"rt":602.1799999289215,"outcome":1,"trial":84,"correct":0,"trial_type":"three-arm-trial","trial_index":93,"time_elapsed":628763,"internal_node_id":"0.0-90.0-0.0","task_version":"screening-mturk","missing":false,"accuracy":1},{"contexts":["blue","red","green"],"outcomes":[0,1,0],"key":39,"choice":2,"rt":684.6300000324845,"outcome":0,"trial":85,"correct":0,"trial_type":"three-arm-trial","trial_index":94,"time_elapsed":630651,"internal_node_id":"0.0-91.0-0.0","task_version":"screening-mturk","missing":false,"accuracy":0},{"contexts":["blue","red","green"],"outcomes":[1,1,0],"key":38,"choice":1,"rt":580.2150000818074,"outcome":1,"trial":86,"correct":0,"trial_type":"three-arm-trial","trial_index":95,"time_elapsed":632435,"internal_node_id":"0.0-92.0-0.0","task_version":"screening-mturk","missing":false,"accuracy":0},{"contexts":["blue","red","green"],"outcomes":[0,0,0],"key":37,"choice":0,"rt":660.5500001460314,"outcome":0,"trial":87,"correct":0,"trial_type":"three-arm-trial","trial_index":96,"time_elapsed":634300,"internal_node_id":"0.0-93.0-0.0","task_version":"screening-mturk","missing":false,"accuracy":1},{"contexts":["blue","red","green"],"outcomes":[1,1,0],"key":39,"choice":2,"rt":601.869999896735,"outcome":0,"trial":88,"correct":0,"trial_type":"three-arm-trial","trial_index":97,"time_elapsed":636106,"internal_node_id":"0.0-94.0-0.0","task_version":"screening-mturk","missing":false,"accuracy":0},{"contexts":["blue","red","green"],"outcomes":[1,1,1],"key":38,"choice":1,"rt":607.3449999094009,"outcome":1,"trial":89,"correct":0,"trial_type":"three-arm-trial","trial_index":98,"time_elapsed":637917,"internal_node_id":"0.0-95.0-0.0","task_version":"screening-mturk","missing":false,"accuracy":0},{"contexts":["blue","red","green"],"outcomes":[1,0,0],"key":38,"choice":1,"rt":635.7100000604987,"outcome":0,"trial":90,"correct":0,"trial_type":"three-arm-trial","trial_index":99,"time_elapsed":639756,"internal_node_id":"0.0-96.0-0.0","task_version":"screening-mturk","missing":false,"accuracy":0},{"rt":113120.26499956846,"responses":{"age":"34","gender-categorical":"Male","gender-free-response":"","ethnicity":"Not Hispanic or Latino","race":["Black or African American"],"language":"Yes","fluency":"Very well","prolific":"Yes","prolific-this-study":"No"},"survey":"demographics","trial_type":"survey-demo","trial_index":100,"time_elapsed":752885,"internal_node_id":"0.0-97.0","task_version":"screening-mturk","interactions":"[]"}]