[{"responses":{"Q01":"2","Q02":"1","Q03":"3","Q07":"1","Q08":"2","Q05":"2","Q04":"3","Q06":"3"},"rt":64923.99999999907,"survey":"gad7","trial_type":"survey-template","trial_index":0,"time_elapsed":64966,"internal_node_id":"0.0-0.0","task_version":"screening-mturk"},{"responses":{"Q08":"2","Q07":"2","Q06":"1","Q01":"3","Q12":"2","Q03":"1","Q02":"2","Q10":"2","Q05":"1","Q04":"3","Q09":"3","Q13":"2","Q11":"2"},"rt":85701.99999993201,"survey":"bisbas","trial_type":"survey-template","trial_index":1,"time_elapsed":150683,"internal_node_id":"0.0-1.0","task_version":"screening-mturk"},{"responses":{"Q01":"3","Q02":"2","Q03":"1"},"rt":23108.00000000745,"survey":"pswq","trial_type":"survey-template","trial_index":2,"time_elapsed":173823,"internal_node_id":"0.0-2.0","task_version":"screening-mturk"},{"responses":{"Q01":"2","Q15":"1","Q05":"2","Q03":"3","Q12":"3","Q10":"2","Q07":"3","Q08":"1","Q11":"2","Q02":"1","Q09":"2","Q04":"1","Q14":"2","Q06":"2","Q13":"3"},"rt":68594.99999997206,"survey":"shaps","trial_type":"survey-template","trial_index":3,"time_elapsed":242429,"internal_node_id":"0.0-3.0","task_version":"screening-mturk"},{"responses":{"Q07":"1","Q15":"1","Q05":"1","Q08":"2","Q01":"3","Q09":"2","Q11":"1","Q12":"2","Q04":"2","Q03":"1","Q14":"2","Q13":"1","Q06":"2","Q10":"2","Q02":"1"},"rt":94723.99999992922,"survey":"7up7down","trial_type":"survey-template","trial_index":4,"time_elapsed":337164,"internal_node_id":"0.0-4.0","task_version":"screening-mturk"},{"view_history":"[{\"page_index\":0,\"viewing_time\":5163.999999989755},{\"page_index\":1,\"viewing_time\":10309.000000008382},{\"page_index\":2,\"viewing_time\":5827.000000048429},{\"page_index\":3,\"viewing_time\":5000.999999931082},{\"page_index\":4,\"viewing_time\":4913.000000058673},{\"page_index\":5,\"viewing_time\":1851.0000000242144},{\"page_index\":6,\"viewing_time\":2520.0000000186265},{\"page_index\":7,\"viewing_time\":2393.999999971129}]","rt":37979.00000005029,"trial_type":"instructions","trial_index":5,"time_elapsed":375142,"internal_node_id":"0.0-5.0-0.0","task_version":"screening-mturk"},{"responses":["True","False","True","True","True"],"num_errors":3,"rt":27718.999999924563,"trial_type":"three-arm-comprehension","trial_index":6,"time_elapsed":402869,"internal_node_id":"0.0-5.0-1.0","task_version":"screening-mturk"},{"view_history":"[{\"page_index\":0,\"viewing_time\":5408.000000054017},{\"page_index\":1,\"viewing_time\":1719.9999999720603},{\"page_index\":2,\"viewing_time\":9140.00000001397},{\"page_index\":3,\"viewing_time\":2991.000000038184},{\"page_index\":4,\"viewing_time\":1496.999999973923},{\"page_index\":5,\"viewing_time\":1501.0000000474975},{\"page_index\":6,\"viewing_time\":1139.9999998975545},{\"page_index\":7,\"viewing_time\":989.9999999906868}]","rt":24388.00000003539,"trial_type":"instructions","trial_index":7,"time_elapsed":427264,"internal_node_id":"0.0-5.1-0.1","task_version":"screening-mturk"},{"responses":["True","True","True","True","False"],"num_errors":3,"rt":69854.99999998137,"trial_type":"three-arm-comprehension","trial_index":8,"time_elapsed":497131,"internal_node_id":"0.0-5.1-1.1","task_version":"screening-mturk"},{"view_history":"[{\"page_index\":0,\"viewing_time\":2464.0000000363216},{\"page_index\":1,\"viewing_time\":10819.000000017695},{\"page_index\":2,\"viewing_time\":11555.999999982305},{\"page_index\":1,\"viewing_time\":1418.999999994412},{\"page_index\":2,\"viewing_time\":1503.9999999571592},{\"page_index\":3,\"viewing_time\":5135.000000009313},{\"page_index\":4,\"viewing_time\":1589.0000000363216},{\"page_index\":5,\"viewing_time\":1196.9999999273568},{\"page_index\":6,\"viewing_time\":1163.0000000586733},{\"page_index\":7,\"viewing_time\":1174.9999999301508},{\"page_index\":6,\"viewing_time\":1225.0000000931323},{\"page_index\":5,\"viewing_time\":10381.999999983236},{\"page_index\":6,\"viewing_time\":2207.9999999841675},{\"page_index\":7,\"viewing_time\":1554.0000000037253},{\"page_index\":6,\"viewing_time\":2445.9999999962747},{\"page_index\":7,\"viewing_time\":1670.0000000419095}]","rt":57506.000000052154,"trial_type":"instructions","trial_index":9,"time_elapsed":554645,"internal_node_id":"0.0-5.2-0.2","task_version":"screening-mturk"},{"responses":["True","False","True","False","False"],"num_errors":3,"rt":85718.99999992456,"trial_type":"three-arm-comprehension","trial_index":10,"time_elapsed":640371,"internal_node_id":"0.0-5.2-1.2","task_version":"screening-mturk"},{"view_history":"[{\"page_index\":0,\"viewing_time\":2746.999999973923},{\"page_index\":1,\"viewing_time\":435.00000005587935},{\"page_index\":2,\"viewing_time\":492.9999999003485},{\"page_index\":3,\"viewing_time\":246.00000004284084},{\"page_index\":4,\"viewing_time\":804.0000000037253},{\"page_index\":5,\"viewing_time\":354.99999998137355},{\"page_index\":6,\"viewing_time\":422.0000000204891},{\"page_index\":7,\"viewing_time\":300.00000004656613}]","rt":5802.000000025146,"trial_type":"instructions","trial_index":11,"time_elapsed":646194,"internal_node_id":"0.0-5.3-0.3","task_version":"screening-mturk"},{"responses":["True","False","True","True","True"],"num_errors":3,"rt":10559.000000008382,"trial_type":"three-arm-comprehension","trial_index":12,"time_elapsed":656767,"internal_node_id":"0.0-5.3-1.3","task_version":"screening-mturk"},{"view_history":"[{\"page_index\":0,\"viewing_time\":1170.0000000419095},{\"page_index\":1,\"viewing_time\":291.99999989941716},{\"page_index\":2,\"viewing_time\":221.00000001955777},{\"page_index\":3,\"viewing_time\":234.00000005494803},{\"page_index\":4,\"viewing_time\":177.99999995622784},{\"page_index\":5,\"viewing_time\":246.99999997392297},{\"page_index\":6,\"viewing_time\":234.00000005494803},{\"page_index\":7,\"viewing_time\":452.0000000484288}]","rt":3028.00000004936,"trial_type":"instructions","trial_index":13,"time_elapsed":659803,"internal_node_id":"0.0-5.4-0.4","task_version":"screening-mturk"},{"responses":["True","True","False","False","True"],"num_errors":0,"rt":26337.000000057742,"trial_type":"three-arm-comprehension","trial_index":14,"time_elapsed":686152,"internal_node_id":"0.0-5.4-1.4","task_version":"screening-mturk"},{"view_history":"[{\"page_index\":0,\"viewing_time\":6945.999999996275}]","rt":6945.999999996275,"trial_type":"instructions","trial_index":15,"time_elapsed":693104,"internal_node_id":"0.0-6.0","task_version":"screening-mturk"},{"contexts":["blue","red","green"],"outcomes":[0,0,1],"key":38,"choice":1,"rt":3809.000000008382,"outcome":0,"trial":1,"correct":2,"trial_type":"three-arm-trial","trial_index":16,"time_elapsed":698134,"internal_node_id":"0.0-7.0-0.0","task_version":"screening-mturk","missing":false,"accuracy":0},{"contexts":["blue","red","green"],"outcomes":[1,1,1],"key":39,"choice":2,"rt":209.9999999627471,"outcome":1,"trial":2,"correct":2,"trial_type":"three-arm-trial","trial_index":17,"time_elapsed":699558,"internal_node_id":"0.0-8.0-0.0","task_version":"screening-mturk","missing":false,"accuracy":1},{"contexts":["blue","red","green"],"outcomes":[0,0,1],"key":39,"choice":2,"rt":494.00000006426126,"outcome":1,"trial":3,"correct":2,"trial_type":"three-arm-trial","trial_index":18,"time_elapsed":701254,"internal_node_id":"0.0-9.0-0.0","task_version":"screening-mturk","missing":false,"accuracy":1},{"contexts":["blue","red","green"],"outcomes":[0,0,1],"key":39,"choice":2,"rt":2104.0000000502914,"outcome":1,"trial":4,"correct":2,"trial_type":"three-arm-trial","trial_index":19,"time_elapsed":704568,"internal_node_id":"0.0-10.0-0.0","task_version":"screening-mturk","missing":false,"accuracy":1},{"contexts":["blue","red","green"],"outcomes":[1,1,1],"key":37,"choice":0,"rt":1329.0000000270084,"outcome":1,"trial":5,"correct":2,"trial_type":"three-arm-trial","trial_index":20,"time_elapsed":707142,"internal_node_id":"0.0-11.0-0.0","task_version":"screening-mturk","missing":false,"accuracy":0},{"contexts":["blue","red","green"],"outcomes":[0,0,0],"key":38,"choice":1,"rt":1256.9999999832362,"outcome":0,"trial":6,"correct":2,"trial_type":"three-arm-trial","trial_index":21,"time_elapsed":709604,"internal_node_id":"0.0-12.0-0.0","task_version":"screening-mturk","missing":false,"accuracy":0},{"contexts":["blue","red","green"],"outcomes":[0,0,1],"key":37,"choice":0,"rt":229.99999998137355,"outcome":0,"trial":7,"correct":2,"trial_type":"three-arm-trial","trial_index":22,"time_elapsed":711047,"internal_node_id":"0.0-13.0-0.0","task_version":"screening-mturk","missing":false,"accuracy":0},{"contexts":["blue","red","green"],"outcomes":[0,0,1],"key":39,"choice":2,"rt":69.00000001769513,"outcome":1,"trial":8,"correct":2,"trial_type":"three-arm-trial","trial_index":23,"time_elapsed":712320,"internal_node_id":"0.0-14.0-0.0","task_version":"screening-mturk","missing":false,"accuracy":1},{"contexts":["blue","red","green"],"outcomes":[0,1,1],"key":39,"choice":2,"rt":813.0000000819564,"outcome":1,"trial":9,"correct":2,"trial_type":"three-arm-trial","trial_index":24,"time_elapsed":714351,"internal_node_id":"0.0-15.0-0.0","task_version":"screening-mturk","missing":false,"accuracy":1},{"contexts":["blue","red","green"],"outcomes":[1,0,1],"key":39,"choice":2,"rt":641.9999999925494,"outcome":1,"trial":10,"correct":2,"trial_type":"three-arm-trial","trial_index":25,"time_elapsed":716197,"internal_node_id":"0.0-16.0-0.0","task_version":"screening-mturk","missing":false,"accuracy":1},{"contexts":["blue","red","green"],"outcomes":[1,0,1],"key":39,"choice":2,"rt":532.0000000065193,"outcome":1,"trial":11,"correct":2,"trial_type":"three-arm-trial","trial_index":26,"time_elapsed":717935,"internal_node_id":"0.0-17.0-0.0","task_version":"screening-mturk","missing":false,"accuracy":1},{"contexts":["blue","red","green"],"outcomes":[0,0,0],"key":39,"choice":2,"rt":557.0000000298023,"outcome":0,"trial":12,"correct":2,"trial_type":"three-arm-trial","trial_index":27,"time_elapsed":719704,"internal_node_id":"0.0-18.0-0.0","task_version":"screening-mturk","missing":false,"accuracy":1},{"contexts":["blue","red","green"],"outcomes":[0,0,1],"key":37,"choice":0,"rt":1100.999999907799,"outcome":0,"trial":13,"correct":2,"trial_type":"three-arm-trial","trial_index":28,"time_elapsed":722016,"internal_node_id":"0.0-19.0-0.0","task_version":"screening-mturk","missing":false,"accuracy":0},{"contexts":["blue","red","green"],"outcomes":[0,0,1],"key":38,"choice":1,"rt":973.9999999292195,"outcome":0,"trial":14,"correct":2,"trial_type":"three-arm-trial","trial_index":29,"time_elapsed":724213,"internal_node_id":"0.0-20.0-0.0","task_version":"screening-mturk","missing":false,"accuracy":0},{"contexts":["blue","red","green"],"outcomes":[1,0,1],"key":38,"choice":1,"rt":680.9999999823049,"outcome":0,"trial":15,"correct":2,"trial_type":"three-arm-trial","trial_index":30,"time_elapsed":726102,"internal_node_id":"0.0-21.0-0.0","task_version":"screening-mturk","missing":false,"accuracy":0},{"contexts":["blue","red","green"],"outcomes":[1,0,1],"key":39,"choice":2,"rt":433.9999998919666,"outcome":1,"trial":16,"correct":0,"trial_type":"three-arm-trial","trial_index":31,"time_elapsed":727749,"internal_node_id":"0.0-22.0-0.0","task_version":"screening-mturk","missing":false,"accuracy":0},{"contexts":["blue","red","green"],"outcomes":[1,1,0],"key":38,"choice":1,"rt":609.9999999860302,"outcome":1,"trial":17,"correct":0,"trial_type":"three-arm-trial","trial_index":32,"time_elapsed":729575,"internal_node_id":"0.0-23.0-0.0","task_version":"screening-mturk","missing":false,"accuracy":0},{"contexts":["blue","red","green"],"outcomes":[0,0,1],"key":39,"choice":2,"rt":667.9999999469146,"outcome":1,"trial":18,"correct":0,"trial_type":"three-arm-trial","trial_index":33,"time_elapsed":731459,"internal_node_id":"0.0-24.0-0.0","task_version":"screening-mturk","missing":false,"accuracy":0},{"contexts":["blue","red","green"],"outcomes":[1,1,0],"key":38,"choice":1,"rt":410.0000000325963,"outcome":1,"trial":19,"correct":0,"trial_type":"three-arm-trial","trial_index":34,"time_elapsed":733074,"internal_node_id":"0.0-25.0-0.0","task_version":"screening-mturk","missing":false,"accuracy":0},{"contexts":["blue","red","green"],"outcomes":[1,0,0],"key":38,"choice":1,"rt":358.9999999385327,"outcome":0,"trial":20,"correct":0,"trial_type":"three-arm-trial","trial_index":35,"time_elapsed":734642,"internal_node_id":"0.0-26.0-0.0","task_version":"screening-mturk","missing":false,"accuracy":0},{"contexts":["blue","red","green"],"outcomes":[1,1,0],"key":39,"choice":2,"rt":50.99999997764826,"outcome":0,"trial":21,"correct":0,"trial_type":"three-arm-trial","trial_index":36,"time_elapsed":735894,"internal_node_id":"0.0-27.0-0.0","task_version":"screening-mturk","missing":false,"accuracy":0},{"contexts":["blue","red","green"],"outcomes":[1,0,0],"key":38,"choice":1,"rt":97.00000006705523,"outcome":0,"trial":22,"correct":0,"trial_type":"three-arm-trial","trial_index":37,"time_elapsed":737195,"internal_node_id":"0.0-28.0-0.0","task_version":"screening-mturk","missing":false,"accuracy":0},{"contexts":["blue","red","green"],"outcomes":[0,0,0],"key":38,"choice":1,"rt":239.99999999068677,"outcome":0,"trial":23,"correct":0,"trial_type":"three-arm-trial","trial_index":38,"time_elapsed":738635,"internal_node_id":"0.0-29.0-0.0","task_version":"screening-mturk","missing":false,"accuracy":0},{"contexts":["blue","red","green"],"outcomes":[1,0,0],"key":37,"choice":0,"rt":62.999999965541065,"outcome":1,"trial":24,"correct":0,"trial_type":"three-arm-trial","trial_index":39,"time_elapsed":739904,"internal_node_id":"0.0-30.0-0.0","task_version":"screening-mturk","missing":false,"accuracy":1},{"contexts":["blue","red","green"],"outcomes":[0,0,0],"key":37,"choice":0,"rt":305.99999998230487,"outcome":0,"trial":25,"correct":0,"trial_type":"three-arm-trial","trial_index":40,"time_elapsed":741417,"internal_node_id":"0.0-31.0-0.0","task_version":"screening-mturk","missing":false,"accuracy":1},{"contexts":["blue","red","green"],"outcomes":[1,0,0],"key":38,"choice":1,"rt":8.000000030733645,"outcome":0,"trial":26,"correct":0,"trial_type":"three-arm-trial","trial_index":41,"time_elapsed":742635,"internal_node_id":"0.0-32.0-0.0","task_version":"screening-mturk","missing":false,"accuracy":0},{"contexts":["blue","red","green"],"outcomes":[0,1,0],"key":39,"choice":2,"rt":157.00000000651926,"outcome":0,"trial":27,"correct":0,"trial_type":"three-arm-trial","trial_index":42,"time_elapsed":744011,"internal_node_id":"0.0-33.0-0.0","task_version":"screening-mturk","missing":false,"accuracy":0},{"contexts":["blue","red","green"],"outcomes":[0,1,1],"key":38,"choice":1,"rt":1047.9999999515712,"outcome":1,"trial":28,"correct":0,"trial_type":"three-arm-trial","trial_index":43,"time_elapsed":746273,"internal_node_id":"0.0-34.0-0.0","task_version":"screening-mturk","missing":false,"accuracy":0},{"contexts":["blue","red","green"],"outcomes":[1,0,0],"key":38,"choice":1,"rt":677.0000000251457,"outcome":0,"trial":29,"correct":0,"trial_type":"three-arm-trial","trial_index":44,"time_elapsed":748155,"internal_node_id":"0.0-35.0-0.0","task_version":"screening-mturk","missing":false,"accuracy":0},{"contexts":["blue","red","green"],"outcomes":[1,0,0],"key":38,"choice":1,"rt":143.999999971129,"outcome":0,"trial":30,"correct":0,"trial_type":"three-arm-trial","trial_index":45,"time_elapsed":749500,"internal_node_id":"0.0-36.0-0.0","task_version":"screening-mturk","missing":false,"accuracy":0},{"contexts":["blue","red","green"],"outcomes":[0,1,1],"key":38,"choice":1,"rt":472.0000000670552,"outcome":1,"trial":31,"correct":2,"trial_type":"three-arm-trial","trial_index":46,"time_elapsed":751175,"internal_node_id":"0.0-37.0-0.0","task_version":"screening-mturk","missing":false,"accuracy":0},{"contexts":["blue","red","green"],"outcomes":[0,0,0],"key":38,"choice":1,"rt":464.0000000363216,"outcome":0,"trial":32,"correct":2,"trial_type":"three-arm-trial","trial_index":47,"time_elapsed":752850,"internal_node_id":"0.0-38.0-0.0","task_version":"screening-mturk","missing":false,"accuracy":0},{"contexts":["blue","red","green"],"outcomes":[0,0,0],"key":37,"choice":0,"rt":1010.0000000093132,"outcome":0,"trial":33,"correct":2,"trial_type":"three-arm-trial","trial_index":48,"time_elapsed":755079,"internal_node_id":"0.0-39.0-0.0","task_version":"screening-mturk","missing":false,"accuracy":0},{"contexts":["blue","red","green"],"outcomes":[0,0,1],"key":39,"choice":2,"rt":1212.9999999888241,"outcome":1,"trial":34,"correct":2,"trial_type":"three-arm-trial","trial_index":49,"time_elapsed":757511,"internal_node_id":"0.0-40.0-0.0","task_version":"screening-mturk","missing":false,"accuracy":1},{"contexts":["blue","red","green"],"outcomes":[0,1,1],"key":38,"choice":1,"rt":961.0000000102445,"outcome":1,"trial":35,"correct":2,"trial_type":"three-arm-trial","trial_index":50,"time_elapsed":759697,"internal_node_id":"0.0-41.0-0.0","task_version":"screening-mturk","missing":false,"accuracy":0},{"contexts":["blue","red","green"],"outcomes":[0,1,0],"key":39,"choice":2,"rt":606.000000028871,"outcome":0,"trial":36,"correct":2,"trial_type":"three-arm-trial","trial_index":51,"time_elapsed":761518,"internal_node_id":"0.0-42.0-0.0","task_version":"screening-mturk","missing":false,"accuracy":1},{"contexts":["blue","red","green"],"outcomes":[0,0,1],"key":38,"choice":1,"rt":273.9999999757856,"outcome":0,"trial":37,"correct":2,"trial_type":"three-arm-trial","trial_index":52,"time_elapsed":763007,"internal_node_id":"0.0-43.0-0.0","task_version":"screening-mturk","missing":false,"accuracy":0},{"contexts":["blue","red","green"],"outcomes":[0,0,1],"key":39,"choice":2,"rt":146.0000000661239,"outcome":1,"trial":38,"correct":2,"trial_type":"three-arm-trial","trial_index":53,"time_elapsed":764365,"internal_node_id":"0.0-44.0-0.0","task_version":"screening-mturk","missing":false,"accuracy":1},{"contexts":["blue","red","green"],"outcomes":[0,0,1],"key":39,"choice":2,"rt":408.99999998509884,"outcome":1,"trial":39,"correct":2,"trial_type":"three-arm-trial","trial_index":54,"time_elapsed":765982,"internal_node_id":"0.0-45.0-0.0","task_version":"screening-mturk","missing":false,"accuracy":1},{"contexts":["blue","red","green"],"outcomes":[1,0,1],"key":37,"choice":0,"rt":1625,"outcome":1,"trial":40,"correct":2,"trial_type":"three-arm-trial","trial_index":55,"time_elapsed":768834,"internal_node_id":"0.0-46.0-0.0","task_version":"screening-mturk","missing":false,"accuracy":0},{"contexts":["blue","red","green"],"outcomes":[0,0,1],"key":39,"choice":2,"rt":800.0000000465661,"outcome":1,"trial":41,"correct":2,"trial_type":"three-arm-trial","trial_index":56,"time_elapsed":770834,"internal_node_id":"0.0-47.0-0.0","task_version":"screening-mturk","missing":false,"accuracy":1},{"contexts":["blue","red","green"],"outcomes":[0,0,1],"key":38,"choice":1,"rt":2520.0000000186265,"outcome":0,"trial":42,"correct":2,"trial_type":"three-arm-trial","trial_index":57,"time_elapsed":774556,"internal_node_id":"0.0-48.0-0.0","task_version":"screening-mturk","missing":false,"accuracy":0},{"contexts":["blue","red","green"],"outcomes":[0,1,0],"key":39,"choice":2,"rt":1087.9999999888241,"outcome":0,"trial":43,"correct":2,"trial_type":"three-arm-trial","trial_index":58,"time_elapsed":776853,"internal_node_id":"0.0-49.0-0.0","task_version":"screening-mturk","missing":false,"accuracy":1},{"contexts":["blue","red","green"],"outcomes":[1,0,0],"key":37,"choice":0,"rt":846.9999999506399,"outcome":1,"trial":44,"correct":2,"trial_type":"three-arm-trial","trial_index":59,"time_elapsed":778903,"internal_node_id":"0.0-50.0-0.0","task_version":"screening-mturk","missing":false,"accuracy":0},{"contexts":["blue","red","green"],"outcomes":[0,0,1],"key":37,"choice":0,"rt":623.0000000214204,"outcome":0,"trial":45,"correct":2,"trial_type":"three-arm-trial","trial_index":60,"time_elapsed":780735,"internal_node_id":"0.0-51.0-0.0","task_version":"screening-mturk","missing":false,"accuracy":0},{"contexts":["blue","red","green"],"outcomes":[1,0,0],"key":38,"choice":1,"rt":851.9999999552965,"outcome":0,"trial":46,"correct":0,"trial_type":"three-arm-trial","trial_index":61,"time_elapsed":782792,"internal_node_id":"0.0-52.0-0.0","task_version":"screening-mturk","missing":false,"accuracy":0},{"contexts":["blue","red","green"],"outcomes":[0,0,0],"key":37,"choice":0,"rt":770.9999999497086,"outcome":0,"trial":47,"correct":0,"trial_type":"three-arm-trial","trial_index":62,"time_elapsed":784768,"internal_node_id":"0.0-53.0-0.0","task_version":"screening-mturk","missing":false,"accuracy":1},{"contexts":["blue","red","green"],"outcomes":[1,0,0],"key":39,"choice":2,"rt":608.0000000074506,"outcome":0,"trial":48,"correct":0,"trial_type":"three-arm-trial","trial_index":63,"time_elapsed":786578,"internal_node_id":"0.0-54.0-0.0","task_version":"screening-mturk","missing":false,"accuracy":0},{"contexts":["blue","red","green"],"outcomes":[0,1,0],"key":37,"choice":0,"rt":550.0000000465661,"outcome":0,"trial":49,"correct":0,"trial_type":"three-arm-trial","trial_index":64,"time_elapsed":788358,"internal_node_id":"0.0-55.0-0.0","task_version":"screening-mturk","missing":false,"accuracy":1},{"contexts":["blue","red","green"],"outcomes":[1,0,0],"key":39,"choice":2,"rt":548.9999999990687,"outcome":0,"trial":50,"correct":0,"trial_type":"three-arm-trial","trial_index":65,"time_elapsed":790119,"internal_node_id":"0.0-56.0-0.0","task_version":"screening-mturk","missing":false,"accuracy":0},{"contexts":["blue","red","green"],"outcomes":[0,0,0],"key":39,"choice":2,"rt":657.0000000065193,"outcome":0,"trial":51,"correct":0,"trial_type":"three-arm-trial","trial_index":66,"time_elapsed":791986,"internal_node_id":"0.0-57.0-0.0","task_version":"screening-mturk","missing":false,"accuracy":0},{"contexts":["blue","red","green"],"outcomes":[0,1,0],"key":38,"choice":1,"rt":858.0000000074506,"outcome":1,"trial":52,"correct":0,"trial_type":"three-arm-trial","trial_index":67,"time_elapsed":794052,"internal_node_id":"0.0-58.0-0.0","task_version":"screening-mturk","missing":false,"accuracy":0},{"contexts":["blue","red","green"],"outcomes":[1,1,0],"key":38,"choice":1,"rt":1344.9999999720603,"outcome":1,"trial":53,"correct":0,"trial_type":"three-arm-trial","trial_index":68,"time_elapsed":796611,"internal_node_id":"0.0-59.0-0.0","task_version":"screening-mturk","missing":false,"accuracy":0},{"contexts":["blue","red","green"],"outcomes":[1,0,1],"key":38,"choice":1,"rt":492.9999999003485,"outcome":0,"trial":54,"correct":0,"trial_type":"three-arm-trial","trial_index":69,"time_elapsed":798344,"internal_node_id":"0.0-60.0-0.0","task_version":"screening-mturk","missing":false,"accuracy":0},{"contexts":["blue","red","green"],"outcomes":[1,1,0],"key":39,"choice":2,"rt":1027.0000000018626,"outcome":0,"trial":55,"correct":0,"trial_type":"three-arm-trial","trial_index":70,"time_elapsed":800588,"internal_node_id":"0.0-61.0-0.0","task_version":"screening-mturk","missing":false,"accuracy":0},{"contexts":["blue","red","green"],"outcomes":[0,0,0],"key":38,"choice":1,"rt":427.99999995622784,"outcome":0,"trial":56,"correct":0,"trial_type":"three-arm-trial","trial_index":71,"time_elapsed":802224,"internal_node_id":"0.0-62.0-0.0","task_version":"screening-mturk","missing":false,"accuracy":0},{"contexts":["blue","red","green"],"outcomes":[1,0,0],"key":39,"choice":2,"rt":794.9999999254942,"outcome":0,"trial":57,"correct":0,"trial_type":"three-arm-trial","trial_index":72,"time_elapsed":804228,"internal_node_id":"0.0-63.0-0.0","task_version":"screening-mturk","missing":false,"accuracy":0},{"contexts":["blue","red","green"],"outcomes":[1,1,0],"key":38,"choice":1,"rt":748.0000000214204,"outcome":1,"trial":58,"correct":0,"trial_type":"three-arm-trial","trial_index":73,"time_elapsed":806183,"internal_node_id":"0.0-64.0-0.0","task_version":"screening-mturk","missing":false,"accuracy":0},{"contexts":["blue","red","green"],"outcomes":[1,0,0],"key":38,"choice":1,"rt":327.9999999795109,"outcome":0,"trial":59,"correct":0,"trial_type":"three-arm-trial","trial_index":74,"time_elapsed":807712,"internal_node_id":"0.0-65.0-0.0","task_version":"screening-mturk","missing":false,"accuracy":0},{"contexts":["blue","red","green"],"outcomes":[1,0,0],"key":37,"choice":0,"rt":543.9999999944121,"outcome":1,"trial":60,"correct":0,"trial_type":"three-arm-trial","trial_index":75,"time_elapsed":809460,"internal_node_id":"0.0-66.0-0.0","task_version":"screening-mturk","missing":false,"accuracy":1},{"contexts":["blue","red","green"],"outcomes":[0,0,1],"key":37,"choice":0,"rt":261.0000000568107,"outcome":0,"trial":61,"correct":2,"trial_type":"three-arm-trial","trial_index":76,"time_elapsed":810922,"internal_node_id":"0.0-67.0-0.0","task_version":"screening-mturk","missing":false,"accuracy":0},{"contexts":["blue","red","green"],"outcomes":[1,0,1],"key":38,"choice":1,"rt":386.9999999878928,"outcome":0,"trial":62,"correct":2,"trial_type":"three-arm-trial","trial_index":77,"time_elapsed":812510,"internal_node_id":"0.0-68.0-0.0","task_version":"screening-mturk","missing":false,"accuracy":0},{"contexts":["blue","red","green"],"outcomes":[0,0,1],"key":38,"choice":1,"rt":685.9999999869615,"outcome":0,"trial":63,"correct":2,"trial_type":"three-arm-trial","trial_index":78,"time_elapsed":814405,"internal_node_id":"0.0-69.0-0.0","task_version":"screening-mturk","missing":false,"accuracy":0},{"contexts":["blue","red","green"],"outcomes":[0,0,0],"key":39,"choice":2,"rt":488.0000000121072,"outcome":0,"trial":64,"correct":2,"trial_type":"three-arm-trial","trial_index":79,"time_elapsed":816112,"internal_node_id":"0.0-70.0-0.0","task_version":"screening-mturk","missing":false,"accuracy":1},{"contexts":["blue","red","green"],"outcomes":[0,0,0],"key":38,"choice":1,"rt":425.00000004656613,"outcome":0,"trial":65,"correct":2,"trial_type":"three-arm-trial","trial_index":80,"time_elapsed":817764,"internal_node_id":"0.0-71.0-0.0","task_version":"screening-mturk","missing":false,"accuracy":0},{"contexts":["blue","red","green"],"outcomes":[0,0,1],"key":39,"choice":2,"rt":505.0000000046566,"outcome":1,"trial":66,"correct":2,"trial_type":"three-arm-trial","trial_index":81,"time_elapsed":819471,"internal_node_id":"0.0-72.0-0.0","task_version":"screening-mturk","missing":false,"accuracy":1},{"contexts":["blue","red","green"],"outcomes":[0,1,1],"key":39,"choice":2,"rt":295.99999997299165,"outcome":1,"trial":67,"correct":2,"trial_type":"three-arm-trial","trial_index":82,"time_elapsed":820979,"internal_node_id":"0.0-73.0-0.0","task_version":"screening-mturk","missing":false,"accuracy":1},{"contexts":["blue","red","green"],"outcomes":[0,1,1],"key":39,"choice":2,"rt":309.0000000083819,"outcome":1,"trial":68,"correct":2,"trial_type":"three-arm-trial","trial_index":83,"time_elapsed":822499,"internal_node_id":"0.0-74.0-0.0","task_version":"screening-mturk","missing":false,"accuracy":1},{"contexts":["blue","red","green"],"outcomes":[0,0,1],"key":39,"choice":2,"rt":701.9999999320135,"outcome":1,"trial":69,"correct":2,"trial_type":"three-arm-trial","trial_index":84,"time_elapsed":824408,"internal_node_id":"0.0-75.0-0.0","task_version":"screening-mturk","missing":false,"accuracy":1},{"contexts":["blue","red","green"],"outcomes":[0,0,0],"key":39,"choice":2,"rt":349.99999997671694,"outcome":0,"trial":70,"correct":2,"trial_type":"three-arm-trial","trial_index":85,"time_elapsed":825961,"internal_node_id":"0.0-76.0-0.0","task_version":"screening-mturk","missing":false,"accuracy":1},{"contexts":["blue","red","green"],"outcomes":[0,0,0],"key":39,"choice":2,"rt":425.00000004656613,"outcome":0,"trial":71,"correct":2,"trial_type":"three-arm-trial","trial_index":86,"time_elapsed":827592,"internal_node_id":"0.0-77.0-0.0","task_version":"screening-mturk","missing":false,"accuracy":1},{"contexts":["blue","red","green"],"outcomes":[0,1,0],"key":39,"choice":2,"rt":394.0000000875443,"outcome":0,"trial":72,"correct":2,"trial_type":"three-arm-trial","trial_index":87,"time_elapsed":829196,"internal_node_id":"0.0-78.0-0.0","task_version":"screening-mturk","missing":false,"accuracy":1},{"contexts":["blue","red","green"],"outcomes":[0,0,1],"key":38,"choice":1,"rt":231.000000028871,"outcome":0,"trial":73,"correct":2,"trial_type":"three-arm-trial","trial_index":88,"time_elapsed":830639,"internal_node_id":"0.0-79.0-0.0","task_version":"screening-mturk","missing":false,"accuracy":0},{"contexts":["blue","red","green"],"outcomes":[0,0,1],"key":39,"choice":2,"rt":691.9999999227002,"outcome":1,"trial":74,"correct":2,"trial_type":"three-arm-trial","trial_index":89,"time_elapsed":832554,"internal_node_id":"0.0-80.0-0.0","task_version":"screening-mturk","missing":false,"accuracy":1},{"contexts":["blue","red","green"],"outcomes":[0,0,0],"key":39,"choice":2,"rt":282.00000000651926,"outcome":0,"trial":75,"correct":2,"trial_type":"three-arm-trial","trial_index":90,"time_elapsed":834043,"internal_node_id":"0.0-81.0-0.0","task_version":"screening-mturk","missing":false,"accuracy":1},{"contexts":["blue","red","green"],"outcomes":[0,0,0],"key":39,"choice":2,"rt":603.9999999338761,"outcome":0,"trial":76,"correct":0,"trial_type":"three-arm-trial","trial_index":91,"time_elapsed":835855,"internal_node_id":"0.0-82.0-0.0","task_version":"screening-mturk","missing":false,"accuracy":0},{"contexts":["blue","red","green"],"outcomes":[1,0,1],"key":39,"choice":2,"rt":5352.000000071712,"outcome":1,"trial":77,"correct":0,"trial_type":"three-arm-trial","trial_index":92,"time_elapsed":842421,"internal_node_id":"0.0-83.0-0.0","task_version":"screening-mturk","missing":false,"accuracy":0},{"contexts":["blue","red","green"],"outcomes":[1,0,1],"key":39,"choice":2,"rt":579.9999999580905,"outcome":1,"trial":78,"correct":0,"trial_type":"three-arm-trial","trial_index":93,"time_elapsed":844226,"internal_node_id":"0.0-84.0-0.0","task_version":"screening-mturk","missing":false,"accuracy":0},{"contexts":["blue","red","green"],"outcomes":[1,0,0],"key":39,"choice":2,"rt":628.9999999571592,"outcome":0,"trial":79,"correct":0,"trial_type":"three-arm-trial","trial_index":94,"time_elapsed":846065,"internal_node_id":"0.0-85.0-0.0","task_version":"screening-mturk","missing":false,"accuracy":0},{"contexts":["blue","red","green"],"outcomes":[1,0,1],"key":38,"choice":1,"rt":964.9999999674037,"outcome":0,"trial":80,"correct":0,"trial_type":"three-arm-trial","trial_index":95,"time_elapsed":848239,"internal_node_id":"0.0-86.0-0.0","task_version":"screening-mturk","missing":false,"accuracy":0},{"contexts":["blue","red","green"],"outcomes":[0,0,0],"key":39,"choice":2,"rt":364.9999999906868,"outcome":0,"trial":81,"correct":0,"trial_type":"three-arm-trial","trial_index":96,"time_elapsed":849837,"internal_node_id":"0.0-87.0-0.0","task_version":"screening-mturk","missing":false,"accuracy":0},{"contexts":["blue","red","green"],"outcomes":[1,0,0],"key":37,"choice":0,"rt":256.9999999832362,"outcome":1,"trial":82,"correct":0,"trial_type":"three-arm-trial","trial_index":97,"time_elapsed":851307,"internal_node_id":"0.0-88.0-0.0","task_version":"screening-mturk","missing":false,"accuracy":1},{"contexts":["blue","red","green"],"outcomes":[1,1,0],"key":37,"choice":0,"rt":503.00000002607703,"outcome":1,"trial":83,"correct":0,"trial_type":"three-arm-trial","trial_index":98,"time_elapsed":853012,"internal_node_id":"0.0-89.0-0.0","task_version":"screening-mturk","missing":false,"accuracy":1},{"contexts":["blue","red","green"],"outcomes":[1,0,0],"key":37,"choice":0,"rt":231.000000028871,"outcome":1,"trial":84,"correct":0,"trial_type":"three-arm-trial","trial_index":99,"time_elapsed":854448,"internal_node_id":"0.0-90.0-0.0","task_version":"screening-mturk","missing":false,"accuracy":1},{"contexts":["blue","red","green"],"outcomes":[0,0,0],"key":37,"choice":0,"rt":756.0000000521541,"outcome":0,"trial":85,"correct":0,"trial_type":"three-arm-trial","trial_index":100,"time_elapsed":856406,"internal_node_id":"0.0-91.0-0.0","task_version":"screening-mturk","missing":false,"accuracy":1},{"contexts":["blue","red","green"],"outcomes":[0,1,0],"key":39,"choice":2,"rt":530.9999999590218,"outcome":0,"trial":86,"correct":0,"trial_type":"three-arm-trial","trial_index":101,"time_elapsed":858138,"internal_node_id":"0.0-92.0-0.0","task_version":"screening-mturk","missing":false,"accuracy":0},{"contexts":["blue","red","green"],"outcomes":[0,0,0],"key":38,"choice":1,"rt":391.9999999925494,"outcome":0,"trial":87,"correct":0,"trial_type":"three-arm-trial","trial_index":102,"time_elapsed":859730,"internal_node_id":"0.0-93.0-0.0","task_version":"screening-mturk","missing":false,"accuracy":0},{"contexts":["blue","red","green"],"outcomes":[1,1,0],"key":39,"choice":2,"rt":627.0000000949949,"outcome":0,"trial":88,"correct":0,"trial_type":"three-arm-trial","trial_index":103,"time_elapsed":861560,"internal_node_id":"0.0-94.0-0.0","task_version":"screening-mturk","missing":false,"accuracy":0},{"contexts":["blue","red","green"],"outcomes":[1,0,0],"key":37,"choice":0,"rt":476.9999999552965,"outcome":1,"trial":89,"correct":0,"trial_type":"three-arm-trial","trial_index":104,"time_elapsed":863237,"internal_node_id":"0.0-95.0-0.0","task_version":"screening-mturk","missing":false,"accuracy":1},{"contexts":["blue","red","green"],"outcomes":[1,0,0],"key":37,"choice":0,"rt":307.0000000298023,"outcome":1,"trial":90,"correct":0,"trial_type":"three-arm-trial","trial_index":105,"time_elapsed":864759,"internal_node_id":"0.0-96.0-0.0","task_version":"screening-mturk","missing":false,"accuracy":1},{"rt":73221.99999995064,"responses":{"age":"35","gender-categorical":"Male","gender-free-response":"","ethnicity":"Hispanic or Latino","race":["White"],"language":"Yes","fluency":"Very well","prolific":"Yes","prolific-this-study":"No"},"survey":"demographics","trial_type":"survey-demo","trial_index":106,"time_elapsed":937990,"internal_node_id":"0.0-97.0","task_version":"screening-mturk","interactions":"[{\"event\":\"blur\",\"trial\":1,\"time\":123852},{\"event\":\"focus\",\"trial\":1,\"time\":128311},{\"event\":\"blur\",\"trial\":15,\"time\":690594},{\"event\":\"focus\",\"trial\":15,\"time\":692312}]"}]