[{"responses":{"Q01":"4","Q03":"3","Q02":"4"},"rt":20590.360000001965,"survey":"pswq","trial_type":"survey-template","trial_index":0,"time_elapsed":20677,"internal_node_id":"0.0-0.0","task_version":"screening-mturk"},{"responses":{"Q08":"3","Q13":"2","Q14":"2","Q12":"2","Q05":"3","Q07":"3","Q04":"2","Q06":"3","Q11":"3","Q01":"3","Q09":"2","Q02":"3","Q10":"2","Q03":"3","Q15":"3"},"rt":28141.185000000405,"survey":"shaps","trial_type":"survey-template","trial_index":1,"time_elapsed":48835,"internal_node_id":"0.0-1.0","task_version":"screening-mturk"},{"responses":{"Q09":"3","Q01":"3","Q11":"1","Q14":"2","Q03":"3","Q02":"2","Q07":"3","Q10":"2","Q15":"3","Q12":"2","Q13":"1","Q06":"2","Q05":"3","Q04":"2","Q08":"1"},"rt":37803.979999996955,"survey":"7up7down","trial_type":"survey-template","trial_index":2,"time_elapsed":86671,"internal_node_id":"0.0-2.0","task_version":"screening-mturk"},{"responses":{"Q09":"3","Q10":"2","Q06":"1","Q05":"2","Q13":"3","Q03":"2","Q07":"2","Q01":"3","Q12":"2","Q08":"2","Q11":"3","Q02":"2","Q04":"3"},"rt":23622.80499999906,"survey":"bisbas","trial_type":"survey-template","trial_index":3,"time_elapsed":110304,"internal_node_id":"0.0-3.0","task_version":"screening-mturk"},{"responses":{"Q02":"3","Q06":"2","Q05":"2","Q01":"2","Q03":"2","Q04":"2","Q07":"2","Q08":"3"},"rt":13060.600000004342,"survey":"gad7","trial_type":"survey-template","trial_index":4,"time_elapsed":123373,"internal_node_id":"0.0-4.0","task_version":"screening-mturk"},{"view_history":"[{\"page_index\":0,\"viewing_time\":3601.0349999996834},{\"page_index\":1,\"viewing_time\":1227.725000004284},{\"page_index\":2,\"viewing_time\":4650.174999995215},{\"page_index\":3,\"viewing_time\":4327.915000001667},{\"page_index\":4,\"viewing_time\":1077.9049999982817},{\"page_index\":5,\"viewing_time\":616.1950000023353},{\"page_index\":6,\"viewing_time\":524.3150000023888},{\"page_index\":7,\"viewing_time\":553.7199999962468}]","rt":16588.120000000345,"trial_type":"instructions","trial_index":5,"time_elapsed":140025,"internal_node_id":"0.0-5.0-0.0","task_version":"screening-mturk"},{"responses":["True","True","False","False","True"],"num_errors":0,"rt":66569.77000000188,"trial_type":"three-arm-comprehension","trial_index":6,"time_elapsed":206607,"internal_node_id":"0.0-5.0-1.0","task_version":"screening-mturk"},{"view_history":"[{\"page_index\":0,\"viewing_time\":1968.2700000048499}]","rt":1968.9300000027288,"trial_type":"instructions","trial_index":7,"time_elapsed":208584,"internal_node_id":"0.0-6.0","task_version":"screening-mturk"},{"contexts":["blue","green","red"],"outcomes":[0,0,1],"key":null,"rt":null,"trial":1,"correct":2,"trial_type":"three-arm-trial","trial_index":8,"time_elapsed":223595,"internal_node_id":"0.0-7.0-0.0","task_version":"screening-mturk","missing":true},{"contexts":["blue","green","red"],"outcomes":[0,0,1],"key":39,"choice":2,"rt":1368.3099999980186,"outcome":1,"trial":1,"correct":2,"trial_type":"three-arm-trial","trial_index":9,"time_elapsed":226174,"internal_node_id":"0.0-7.1-0.1","task_version":"screening-mturk","missing":false,"accuracy":1},{"contexts":["blue","green","red"],"outcomes":[1,0,1],"key":39,"choice":2,"rt":17.614999997022096,"outcome":1,"trial":2,"correct":2,"trial_type":"three-arm-trial","trial_index":10,"time_elapsed":227398,"internal_node_id":"0.0-8.0-0.0","task_version":"screening-mturk","missing":false,"accuracy":1},{"contexts":["blue","green","red"],"outcomes":[0,0,1],"key":39,"choice":2,"rt":81.82500000111759,"outcome":1,"trial":3,"correct":2,"trial_type":"three-arm-trial","trial_index":11,"time_elapsed":228688,"internal_node_id":"0.0-9.0-0.0","task_version":"screening-mturk","missing":false,"accuracy":1},{"contexts":["blue","green","red"],"outcomes":[0,0,1],"key":38,"choice":1,"rt":103.18000000552274,"outcome":0,"trial":4,"correct":2,"trial_type":"three-arm-trial","trial_index":12,"time_elapsed":230002,"internal_node_id":"0.0-10.0-0.0","task_version":"screening-mturk","missing":false,"accuracy":0},{"contexts":["blue","green","red"],"outcomes":[0,0,1],"key":37,"choice":0,"rt":558.8449999995646,"outcome":0,"trial":5,"correct":2,"trial_type":"three-arm-trial","trial_index":13,"time_elapsed":231774,"internal_node_id":"0.0-11.0-0.0","task_version":"screening-mturk","missing":false,"accuracy":0},{"contexts":["blue","green","red"],"outcomes":[0,0,1],"key":39,"choice":2,"rt":475.0850000054925,"outcome":1,"trial":6,"correct":2,"trial_type":"three-arm-trial","trial_index":14,"time_elapsed":233454,"internal_node_id":"0.0-12.0-0.0","task_version":"screening-mturk","missing":false,"accuracy":1},{"contexts":["blue","green","red"],"outcomes":[0,0,1],"key":39,"choice":2,"rt":58.2799999974668,"outcome":1,"trial":7,"correct":2,"trial_type":"three-arm-trial","trial_index":15,"time_elapsed":234720,"internal_node_id":"0.0-13.0-0.0","task_version":"screening-mturk","missing":false,"accuracy":1},{"contexts":["blue","green","red"],"outcomes":[0,0,1],"key":39,"choice":2,"rt":31.600000002072193,"outcome":1,"trial":8,"correct":2,"trial_type":"three-arm-trial","trial_index":16,"time_elapsed":235957,"internal_node_id":"0.0-14.0-0.0","task_version":"screening-mturk","missing":false,"accuracy":1},{"contexts":["blue","green","red"],"outcomes":[0,0,1],"key":39,"choice":2,"rt":146.06500000081724,"outcome":1,"trial":9,"correct":2,"trial_type":"three-arm-trial","trial_index":17,"time_elapsed":237310,"internal_node_id":"0.0-15.0-0.0","task_version":"screening-mturk","missing":false,"accuracy":1},{"contexts":["blue","green","red"],"outcomes":[0,0,1],"key":39,"choice":2,"rt":187.68999999883818,"outcome":1,"trial":10,"correct":2,"trial_type":"three-arm-trial","trial_index":18,"time_elapsed":238703,"internal_node_id":"0.0-16.0-0.0","task_version":"screening-mturk","missing":false,"accuracy":1},{"contexts":["blue","green","red"],"outcomes":[0,1,1],"key":39,"choice":2,"rt":33.04999999818392,"outcome":1,"trial":11,"correct":2,"trial_type":"three-arm-trial","trial_index":19,"time_elapsed":239942,"internal_node_id":"0.0-17.0-0.0","task_version":"screening-mturk","missing":false,"accuracy":1},{"contexts":["blue","green","red"],"outcomes":[1,0,1],"key":39,"choice":2,"rt":97.54999999859137,"outcome":1,"trial":12,"correct":2,"trial_type":"three-arm-trial","trial_index":20,"time_elapsed":241245,"internal_node_id":"0.0-18.0-0.0","task_version":"screening-mturk","missing":false,"accuracy":1},{"contexts":["blue","green","red"],"outcomes":[1,0,0],"key":39,"choice":2,"rt":57.46499999804655,"outcome":0,"trial":13,"correct":2,"trial_type":"three-arm-trial","trial_index":21,"time_elapsed":242509,"internal_node_id":"0.0-19.0-0.0","task_version":"screening-mturk","missing":false,"accuracy":1},{"contexts":["blue","green","red"],"outcomes":[0,0,1],"key":37,"choice":0,"rt":499.3350000004284,"outcome":0,"trial":14,"correct":2,"trial_type":"three-arm-trial","trial_index":22,"time_elapsed":244215,"internal_node_id":"0.0-20.0-0.0","task_version":"screening-mturk","missing":false,"accuracy":0},{"contexts":["blue","green","red"],"outcomes":[0,1,1],"key":39,"choice":2,"rt":168.3850000044913,"outcome":1,"trial":15,"correct":2,"trial_type":"three-arm-trial","trial_index":23,"time_elapsed":245588,"internal_node_id":"0.0-21.0-0.0","task_version":"screening-mturk","missing":false,"accuracy":1},{"contexts":["blue","green","red"],"outcomes":[0,1,0],"key":39,"choice":2,"rt":235.10499999974854,"outcome":0,"trial":16,"correct":1,"trial_type":"three-arm-trial","trial_index":24,"time_elapsed":247030,"internal_node_id":"0.0-22.0-0.0","task_version":"screening-mturk","missing":false,"accuracy":0},{"contexts":["blue","green","red"],"outcomes":[0,1,0],"key":38,"choice":1,"rt":569.5199999972829,"outcome":1,"trial":17,"correct":1,"trial_type":"three-arm-trial","trial_index":25,"time_elapsed":248806,"internal_node_id":"0.0-23.0-0.0","task_version":"screening-mturk","missing":false,"accuracy":1},{"contexts":["blue","green","red"],"outcomes":[0,1,0],"key":38,"choice":1,"rt":90.73499999794876,"outcome":1,"trial":18,"correct":1,"trial_type":"three-arm-trial","trial_index":26,"time_elapsed":250104,"internal_node_id":"0.0-24.0-0.0","task_version":"screening-mturk","missing":false,"accuracy":1},{"contexts":["blue","green","red"],"outcomes":[0,1,0],"key":38,"choice":1,"rt":178.67499999556458,"outcome":1,"trial":19,"correct":1,"trial_type":"three-arm-trial","trial_index":27,"time_elapsed":251490,"internal_node_id":"0.0-25.0-0.0","task_version":"screening-mturk","missing":false,"accuracy":1},{"contexts":["blue","green","red"],"outcomes":[1,1,0],"key":38,"choice":1,"rt":491.6449999946053,"outcome":1,"trial":20,"correct":1,"trial_type":"three-arm-trial","trial_index":28,"time_elapsed":253191,"internal_node_id":"0.0-26.0-0.0","task_version":"screening-mturk","missing":false,"accuracy":1},{"contexts":["blue","green","red"],"outcomes":[0,1,0],"key":38,"choice":1,"rt":110.49500000081025,"outcome":1,"trial":21,"correct":1,"trial_type":"three-arm-trial","trial_index":29,"time_elapsed":254508,"internal_node_id":"0.0-27.0-0.0","task_version":"screening-mturk","missing":false,"accuracy":1},{"contexts":["blue","green","red"],"outcomes":[1,0,1],"key":38,"choice":1,"rt":403.59000000171363,"outcome":0,"trial":22,"correct":1,"trial_type":"three-arm-trial","trial_index":30,"time_elapsed":256118,"internal_node_id":"0.0-28.0-0.0","task_version":"screening-mturk","missing":false,"accuracy":1},{"contexts":["blue","green","red"],"outcomes":[0,1,1],"key":39,"choice":2,"rt":1408.9999999996508,"outcome":1,"trial":23,"correct":1,"trial_type":"three-arm-trial","trial_index":31,"time_elapsed":258736,"internal_node_id":"0.0-29.0-0.0","task_version":"screening-mturk","missing":false,"accuracy":0},{"contexts":["blue","green","red"],"outcomes":[0,1,0],"key":39,"choice":2,"rt":421.7599999974482,"outcome":0,"trial":24,"correct":1,"trial_type":"three-arm-trial","trial_index":32,"time_elapsed":260367,"internal_node_id":"0.0-30.0-0.0","task_version":"screening-mturk","missing":false,"accuracy":0},{"contexts":["blue","green","red"],"outcomes":[0,1,0],"key":37,"choice":0,"rt":350.29000000213273,"outcome":0,"trial":25,"correct":1,"trial_type":"three-arm-trial","trial_index":33,"time_elapsed":261928,"internal_node_id":"0.0-31.0-0.0","task_version":"screening-mturk","missing":false,"accuracy":0},{"contexts":["blue","green","red"],"outcomes":[0,1,0],"key":38,"choice":1,"rt":540.3050000022631,"outcome":1,"trial":26,"correct":1,"trial_type":"three-arm-trial","trial_index":34,"time_elapsed":263676,"internal_node_id":"0.0-32.0-0.0","task_version":"screening-mturk","missing":false,"accuracy":1},{"contexts":["blue","green","red"],"outcomes":[0,0,1],"key":38,"choice":1,"rt":226.56000000279164,"outcome":0,"trial":27,"correct":1,"trial_type":"three-arm-trial","trial_index":35,"time_elapsed":265110,"internal_node_id":"0.0-33.0-0.0","task_version":"screening-mturk","missing":false,"accuracy":1},{"contexts":["blue","green","red"],"outcomes":[0,0,1],"key":39,"choice":2,"rt":1216.6549999965355,"outcome":1,"trial":28,"correct":1,"trial_type":"three-arm-trial","trial_index":36,"time_elapsed":267536,"internal_node_id":"0.0-34.0-0.0","task_version":"screening-mturk","missing":false,"accuracy":0},{"contexts":["blue","green","red"],"outcomes":[1,1,1],"key":39,"choice":2,"rt":286.33999999874504,"outcome":1,"trial":29,"correct":1,"trial_type":"three-arm-trial","trial_index":37,"time_elapsed":269032,"internal_node_id":"0.0-35.0-0.0","task_version":"screening-mturk","missing":false,"accuracy":0},{"contexts":["blue","green","red"],"outcomes":[0,1,0],"key":39,"choice":2,"rt":14.239999996789265,"outcome":0,"trial":30,"correct":1,"trial_type":"three-arm-trial","trial_index":38,"time_elapsed":270256,"internal_node_id":"0.0-36.0-0.0","task_version":"screening-mturk","missing":false,"accuracy":0},{"contexts":["blue","green","red"],"outcomes":[0,0,0],"key":37,"choice":0,"rt":999.8400000040419,"outcome":0,"trial":31,"correct":0,"trial_type":"three-arm-trial","trial_index":39,"time_elapsed":272463,"internal_node_id":"0.0-37.0-0.0","task_version":"screening-mturk","missing":false,"accuracy":1},{"contexts":["blue","green","red"],"outcomes":[1,0,1],"key":38,"choice":1,"rt":65.02999999793246,"outcome":0,"trial":32,"correct":0,"trial_type":"three-arm-trial","trial_index":40,"time_elapsed":273737,"internal_node_id":"0.0-38.0-0.0","task_version":"screening-mturk","missing":false,"accuracy":0},{"contexts":["blue","green","red"],"outcomes":[1,0,0],"key":39,"choice":2,"rt":429.16999999579275,"outcome":0,"trial":33,"correct":0,"trial_type":"three-arm-trial","trial_index":41,"time_elapsed":275374,"internal_node_id":"0.0-39.0-0.0","task_version":"screening-mturk","missing":false,"accuracy":0},{"contexts":["blue","green","red"],"outcomes":[1,1,1],"key":38,"choice":1,"rt":1065.5699999988428,"outcome":1,"trial":34,"correct":0,"trial_type":"three-arm-trial","trial_index":42,"time_elapsed":277645,"internal_node_id":"0.0-40.0-0.0","task_version":"screening-mturk","missing":false,"accuracy":0},{"contexts":["blue","green","red"],"outcomes":[1,0,0],"key":38,"choice":1,"rt":89.73500000138301,"outcome":0,"trial":35,"correct":0,"trial_type":"three-arm-trial","trial_index":43,"time_elapsed":278942,"internal_node_id":"0.0-41.0-0.0","task_version":"screening-mturk","missing":false,"accuracy":0},{"contexts":["blue","green","red"],"outcomes":[1,1,0],"key":39,"choice":2,"rt":1317.2100000010687,"outcome":0,"trial":36,"correct":0,"trial_type":"three-arm-trial","trial_index":44,"time_elapsed":281469,"internal_node_id":"0.0-42.0-0.0","task_version":"screening-mturk","missing":false,"accuracy":0},{"contexts":["blue","green","red"],"outcomes":[1,0,0],"key":37,"choice":0,"rt":865.0800000032177,"outcome":1,"trial":37,"correct":0,"trial_type":"three-arm-trial","trial_index":45,"time_elapsed":283542,"internal_node_id":"0.0-43.0-0.0","task_version":"screening-mturk","missing":false,"accuracy":1},{"contexts":["blue","green","red"],"outcomes":[1,0,0],"key":37,"choice":0,"rt":1183.4600000001956,"outcome":1,"trial":38,"correct":0,"trial_type":"three-arm-trial","trial_index":46,"time_elapsed":285934,"internal_node_id":"0.0-44.0-0.0","task_version":"screening-mturk","missing":false,"accuracy":1},{"contexts":["blue","green","red"],"outcomes":[1,0,0],"key":37,"choice":0,"rt":18.954999999550637,"outcome":1,"trial":39,"correct":0,"trial_type":"three-arm-trial","trial_index":47,"time_elapsed":287161,"internal_node_id":"0.0-45.0-0.0","task_version":"screening-mturk","missing":false,"accuracy":1},{"contexts":["blue","green","red"],"outcomes":[1,0,0],"key":37,"choice":0,"rt":380.4200000013225,"outcome":1,"trial":40,"correct":0,"trial_type":"three-arm-trial","trial_index":48,"time_elapsed":288750,"internal_node_id":"0.0-46.0-0.0","task_version":"screening-mturk","missing":false,"accuracy":1},{"contexts":["blue","green","red"],"outcomes":[1,1,0],"key":37,"choice":0,"rt":249.8799999957555,"outcome":1,"trial":41,"correct":0,"trial_type":"three-arm-trial","trial_index":49,"time_elapsed":290205,"internal_node_id":"0.0-47.0-0.0","task_version":"screening-mturk","missing":false,"accuracy":1},{"contexts":["blue","green","red"],"outcomes":[1,0,0],"key":37,"choice":0,"rt":377.0749999966938,"outcome":1,"trial":42,"correct":0,"trial_type":"three-arm-trial","trial_index":50,"time_elapsed":291789,"internal_node_id":"0.0-48.0-0.0","task_version":"screening-mturk","missing":false,"accuracy":1},{"contexts":["blue","green","red"],"outcomes":[0,0,0],"key":37,"choice":0,"rt":490.33500000223285,"outcome":0,"trial":43,"correct":0,"trial_type":"three-arm-trial","trial_index":51,"time_elapsed":293486,"internal_node_id":"0.0-49.0-0.0","task_version":"screening-mturk","missing":false,"accuracy":1},{"contexts":["blue","green","red"],"outcomes":[1,0,0],"key":39,"choice":2,"rt":1118.9999999987776,"outcome":0,"trial":44,"correct":0,"trial_type":"three-arm-trial","trial_index":52,"time_elapsed":295815,"internal_node_id":"0.0-50.0-0.0","task_version":"screening-mturk","missing":false,"accuracy":0},{"contexts":["blue","green","red"],"outcomes":[1,1,1],"key":38,"choice":1,"rt":86.00499999738531,"outcome":1,"trial":45,"correct":0,"trial_type":"three-arm-trial","trial_index":53,"time_elapsed":297109,"internal_node_id":"0.0-51.0-0.0","task_version":"screening-mturk","missing":false,"accuracy":0},{"contexts":["blue","green","red"],"outcomes":[1,1,0],"key":38,"choice":1,"rt":213.13999999983935,"outcome":1,"trial":46,"correct":1,"trial_type":"three-arm-trial","trial_index":54,"time_elapsed":298534,"internal_node_id":"0.0-52.0-0.0","task_version":"screening-mturk","missing":false,"accuracy":1},{"contexts":["blue","green","red"],"outcomes":[0,1,1],"key":38,"choice":1,"rt":400.15000000130385,"outcome":1,"trial":47,"correct":1,"trial_type":"three-arm-trial","trial_index":55,"time_elapsed":300143,"internal_node_id":"0.0-53.0-0.0","task_version":"screening-mturk","missing":false,"accuracy":1},{"contexts":["blue","green","red"],"outcomes":[1,1,0],"key":38,"choice":1,"rt":404.4399999984307,"outcome":1,"trial":48,"correct":1,"trial_type":"three-arm-trial","trial_index":56,"time_elapsed":301757,"internal_node_id":"0.0-54.0-0.0","task_version":"screening-mturk","missing":false,"accuracy":1},{"contexts":["blue","green","red"],"outcomes":[0,0,0],"key":38,"choice":1,"rt":469.88499999861233,"outcome":0,"trial":49,"correct":1,"trial_type":"three-arm-trial","trial_index":57,"time_elapsed":303437,"internal_node_id":"0.0-55.0-0.0","task_version":"screening-mturk","missing":false,"accuracy":1},{"contexts":["blue","green","red"],"outcomes":[0,1,0],"key":39,"choice":2,"rt":1890.9249999996973,"outcome":0,"trial":50,"correct":1,"trial_type":"three-arm-trial","trial_index":58,"time_elapsed":306533,"internal_node_id":"0.0-56.0-0.0","task_version":"screening-mturk","missing":false,"accuracy":0},{"contexts":["blue","green","red"],"outcomes":[1,1,0],"key":37,"choice":0,"rt":633.5699999981443,"outcome":1,"trial":51,"correct":1,"trial_type":"three-arm-trial","trial_index":59,"time_elapsed":308374,"internal_node_id":"0.0-57.0-0.0","task_version":"screening-mturk","missing":false,"accuracy":0},{"contexts":["blue","green","red"],"outcomes":[0,1,0],"key":37,"choice":0,"rt":1292.7199999976438,"outcome":0,"trial":52,"correct":1,"trial_type":"three-arm-trial","trial_index":60,"time_elapsed":310879,"internal_node_id":"0.0-58.0-0.0","task_version":"screening-mturk","missing":false,"accuracy":0},{"contexts":["blue","green","red"],"outcomes":[0,1,1],"key":39,"choice":2,"rt":2175.245000005816,"outcome":1,"trial":53,"correct":1,"trial_type":"three-arm-trial","trial_index":61,"time_elapsed":314263,"internal_node_id":"0.0-59.0-0.0","task_version":"screening-mturk","missing":false,"accuracy":0},{"contexts":["blue","green","red"],"outcomes":[1,1,1],"key":39,"choice":2,"rt":1328.1199999983073,"outcome":1,"trial":54,"correct":1,"trial_type":"three-arm-trial","trial_index":62,"time_elapsed":316799,"internal_node_id":"0.0-60.0-0.0","task_version":"screening-mturk","missing":false,"accuracy":0},{"contexts":["blue","green","red"],"outcomes":[0,1,1],"key":39,"choice":2,"rt":632.6249999983702,"outcome":1,"trial":55,"correct":1,"trial_type":"three-arm-trial","trial_index":63,"time_elapsed":318637,"internal_node_id":"0.0-61.0-0.0","task_version":"screening-mturk","missing":false,"accuracy":0},{"contexts":["blue","green","red"],"outcomes":[0,1,0],"key":39,"choice":2,"rt":817.5049999990733,"outcome":0,"trial":56,"correct":1,"trial_type":"three-arm-trial","trial_index":64,"time_elapsed":320664,"internal_node_id":"0.0-62.0-0.0","task_version":"screening-mturk","missing":false,"accuracy":0},{"contexts":["blue","green","red"],"outcomes":[1,1,0],"key":38,"choice":1,"rt":2109.4500000035623,"outcome":1,"trial":57,"correct":1,"trial_type":"three-arm-trial","trial_index":65,"time_elapsed":323982,"internal_node_id":"0.0-63.0-0.0","task_version":"screening-mturk","missing":false,"accuracy":1},{"contexts":["blue","green","red"],"outcomes":[0,0,1],"key":38,"choice":1,"rt":159.2750000054366,"outcome":0,"trial":58,"correct":1,"trial_type":"three-arm-trial","trial_index":66,"time_elapsed":325348,"internal_node_id":"0.0-64.0-0.0","task_version":"screening-mturk","missing":false,"accuracy":1},{"contexts":["blue","green","red"],"outcomes":[0,1,0],"key":37,"choice":0,"rt":1954.360000003362,"outcome":0,"trial":59,"correct":1,"trial_type":"three-arm-trial","trial_index":67,"time_elapsed":328510,"internal_node_id":"0.0-65.0-0.0","task_version":"screening-mturk","missing":false,"accuracy":0},{"contexts":["blue","green","red"],"outcomes":[0,1,0],"key":39,"choice":2,"rt":2334.4399999987218,"outcome":0,"trial":60,"correct":1,"trial_type":"three-arm-trial","trial_index":68,"time_elapsed":332053,"internal_node_id":"0.0-66.0-0.0","task_version":"screening-mturk","missing":false,"accuracy":0},{"contexts":["blue","green","red"],"outcomes":[0,1,1],"key":38,"choice":1,"rt":1572.7200000037556,"outcome":1,"trial":61,"correct":2,"trial_type":"three-arm-trial","trial_index":69,"time_elapsed":334837,"internal_node_id":"0.0-67.0-0.0","task_version":"screening-mturk","missing":false,"accuracy":0},{"contexts":["blue","green","red"],"outcomes":[0,0,0],"key":38,"choice":1,"rt":445.92000000557164,"outcome":0,"trial":62,"correct":2,"trial_type":"three-arm-trial","trial_index":70,"time_elapsed":336493,"internal_node_id":"0.0-68.0-0.0","task_version":"screening-mturk","missing":false,"accuracy":0},{"contexts":["blue","green","red"],"outcomes":[0,0,1],"key":39,"choice":2,"rt":3386.449999998149,"outcome":1,"trial":63,"correct":2,"trial_type":"three-arm-trial","trial_index":71,"time_elapsed":341085,"internal_node_id":"0.0-69.0-0.0","task_version":"screening-mturk","missing":false,"accuracy":1},{"contexts":["blue","green","red"],"outcomes":[0,0,0],"key":39,"choice":2,"rt":723.4749999988708,"outcome":0,"trial":64,"correct":2,"trial_type":"three-arm-trial","trial_index":72,"time_elapsed":343017,"internal_node_id":"0.0-70.0-0.0","task_version":"screening-mturk","missing":false,"accuracy":1},{"contexts":["blue","green","red"],"outcomes":[0,0,1],"key":37,"choice":0,"rt":2340.3500000058557,"outcome":0,"trial":65,"correct":2,"trial_type":"three-arm-trial","trial_index":73,"time_elapsed":346565,"internal_node_id":"0.0-71.0-0.0","task_version":"screening-mturk","missing":false,"accuracy":0},{"contexts":["blue","green","red"],"outcomes":[0,0,1],"key":38,"choice":1,"rt":1946.00999999966,"outcome":0,"trial":66,"correct":2,"trial_type":"three-arm-trial","trial_index":74,"time_elapsed":349716,"internal_node_id":"0.0-72.0-0.0","task_version":"screening-mturk","missing":false,"accuracy":0},{"contexts":["blue","green","red"],"outcomes":[0,0,1],"key":39,"choice":2,"rt":3196.394999999029,"outcome":1,"trial":67,"correct":2,"trial_type":"three-arm-trial","trial_index":75,"time_elapsed":354119,"internal_node_id":"0.0-73.0-0.0","task_version":"screening-mturk","missing":false,"accuracy":1},{"contexts":["blue","green","red"],"outcomes":[1,0,1],"key":39,"choice":2,"rt":2410.844999998517,"outcome":1,"trial":68,"correct":2,"trial_type":"three-arm-trial","trial_index":76,"time_elapsed":357741,"internal_node_id":"0.0-74.0-0.0","task_version":"screening-mturk","missing":false,"accuracy":1},{"contexts":["blue","green","red"],"outcomes":[0,0,0],"key":39,"choice":2,"rt":4882.760000000417,"outcome":0,"trial":69,"correct":2,"trial_type":"three-arm-trial","trial_index":77,"time_elapsed":363829,"internal_node_id":"0.0-75.0-0.0","task_version":"screening-mturk","missing":false,"accuracy":1},{"contexts":["blue","green","red"],"outcomes":[0,0,1],"key":38,"choice":1,"rt":1097.0299999971758,"outcome":0,"trial":70,"correct":2,"trial_type":"three-arm-trial","trial_index":78,"time_elapsed":366133,"internal_node_id":"0.0-76.0-0.0","task_version":"screening-mturk","missing":false,"accuracy":0},{"contexts":["blue","green","red"],"outcomes":[1,0,1],"key":37,"choice":0,"rt":495.8150000020396,"outcome":1,"trial":71,"correct":2,"trial_type":"three-arm-trial","trial_index":79,"time_elapsed":367836,"internal_node_id":"0.0-77.0-0.0","task_version":"screening-mturk","missing":false,"accuracy":0},{"contexts":["blue","green","red"],"outcomes":[1,0,1],"key":37,"choice":0,"rt":338.4449999939534,"outcome":1,"trial":72,"correct":2,"trial_type":"three-arm-trial","trial_index":80,"time_elapsed":369383,"internal_node_id":"0.0-78.0-0.0","task_version":"screening-mturk","missing":false,"accuracy":0},{"contexts":["blue","green","red"],"outcomes":[0,1,1],"key":37,"choice":0,"rt":638.4000000034575,"outcome":0,"trial":73,"correct":2,"trial_type":"three-arm-trial","trial_index":81,"time_elapsed":371228,"internal_node_id":"0.0-79.0-0.0","task_version":"screening-mturk","missing":false,"accuracy":0},{"contexts":["blue","green","red"],"outcomes":[0,0,1],"key":39,"choice":2,"rt":659.8650000014459,"outcome":1,"trial":74,"correct":2,"trial_type":"three-arm-trial","trial_index":82,"time_elapsed":373096,"internal_node_id":"0.0-80.0-0.0","task_version":"screening-mturk","missing":false,"accuracy":1},{"contexts":["blue","green","red"],"outcomes":[0,0,0],"key":39,"choice":2,"rt":514.3700000044191,"outcome":0,"trial":75,"correct":2,"trial_type":"three-arm-trial","trial_index":83,"time_elapsed":374823,"internal_node_id":"0.0-81.0-0.0","task_version":"screening-mturk","missing":false,"accuracy":1},{"contexts":["blue","green","red"],"outcomes":[1,0,0],"key":38,"choice":1,"rt":524.4349999993574,"outcome":0,"trial":76,"correct":0,"trial_type":"three-arm-trial","trial_index":84,"time_elapsed":376558,"internal_node_id":"0.0-82.0-0.0","task_version":"screening-mturk","missing":false,"accuracy":0},{"contexts":["blue","green","red"],"outcomes":[1,0,0],"key":37,"choice":0,"rt":1984.5900000000256,"outcome":1,"trial":77,"correct":0,"trial_type":"three-arm-trial","trial_index":85,"time_elapsed":379749,"internal_node_id":"0.0-83.0-0.0","task_version":"screening-mturk","missing":false,"accuracy":1},{"contexts":["blue","green","red"],"outcomes":[1,0,0],"key":37,"choice":0,"rt":1342.2950000021956,"outcome":1,"trial":78,"correct":0,"trial_type":"three-arm-trial","trial_index":86,"time_elapsed":382299,"internal_node_id":"0.0-84.0-0.0","task_version":"screening-mturk","missing":false,"accuracy":1},{"contexts":["blue","green","red"],"outcomes":[1,0,0],"key":37,"choice":0,"rt":1901.0100000014063,"outcome":1,"trial":79,"correct":0,"trial_type":"three-arm-trial","trial_index":87,"time_elapsed":385414,"internal_node_id":"0.0-85.0-0.0","task_version":"screening-mturk","missing":false,"accuracy":1},{"contexts":["blue","green","red"],"outcomes":[0,0,1],"key":37,"choice":0,"rt":1757.8649999995832,"outcome":0,"trial":80,"correct":0,"trial_type":"three-arm-trial","trial_index":88,"time_elapsed":388380,"internal_node_id":"0.0-86.0-0.0","task_version":"screening-mturk","missing":false,"accuracy":1},{"contexts":["blue","green","red"],"outcomes":[1,0,0],"key":39,"choice":2,"rt":2235.0700000024517,"outcome":0,"trial":81,"correct":0,"trial_type":"three-arm-trial","trial_index":89,"time_elapsed":391824,"internal_node_id":"0.0-87.0-0.0","task_version":"screening-mturk","missing":false,"accuracy":0},{"contexts":["blue","green","red"],"outcomes":[0,0,0],"key":38,"choice":1,"rt":25.710000001708977,"outcome":0,"trial":82,"correct":0,"trial_type":"three-arm-trial","trial_index":90,"time_elapsed":393058,"internal_node_id":"0.0-88.0-0.0","task_version":"screening-mturk","missing":false,"accuracy":0},{"contexts":["blue","green","red"],"outcomes":[1,1,0],"key":37,"choice":0,"rt":1878.3750000002328,"outcome":1,"trial":83,"correct":0,"trial_type":"three-arm-trial","trial_index":91,"time_elapsed":396144,"internal_node_id":"0.0-89.0-0.0","task_version":"screening-mturk","missing":false,"accuracy":1},{"contexts":["blue","green","red"],"outcomes":[1,0,0],"key":37,"choice":0,"rt":478.6500000045635,"outcome":1,"trial":84,"correct":0,"trial_type":"three-arm-trial","trial_index":92,"time_elapsed":397827,"internal_node_id":"0.0-90.0-0.0","task_version":"screening-mturk","missing":false,"accuracy":1},{"contexts":["blue","green","red"],"outcomes":[1,0,0],"key":37,"choice":0,"rt":404.55500000098255,"outcome":1,"trial":85,"correct":0,"trial_type":"three-arm-trial","trial_index":93,"time_elapsed":399440,"internal_node_id":"0.0-91.0-0.0","task_version":"screening-mturk","missing":false,"accuracy":1},{"contexts":["blue","green","red"],"outcomes":[1,0,0],"key":37,"choice":0,"rt":396.6050000017276,"outcome":1,"trial":86,"correct":0,"trial_type":"three-arm-trial","trial_index":94,"time_elapsed":401058,"internal_node_id":"0.0-92.0-0.0","task_version":"screening-mturk","missing":false,"accuracy":1},{"contexts":["blue","green","red"],"outcomes":[1,0,1],"key":37,"choice":0,"rt":363.64500000490807,"outcome":1,"trial":87,"correct":0,"trial_type":"three-arm-trial","trial_index":95,"time_elapsed":402629,"internal_node_id":"0.0-93.0-0.0","task_version":"screening-mturk","missing":false,"accuracy":1},{"contexts":["blue","green","red"],"outcomes":[1,0,0],"key":37,"choice":0,"rt":369.55999999918276,"outcome":1,"trial":88,"correct":0,"trial_type":"three-arm-trial","trial_index":96,"time_elapsed":404206,"internal_node_id":"0.0-94.0-0.0","task_version":"screening-mturk","missing":false,"accuracy":1},{"contexts":["blue","green","red"],"outcomes":[1,0,0],"key":37,"choice":0,"rt":235.88000000017928,"outcome":1,"trial":89,"correct":0,"trial_type":"three-arm-trial","trial_index":97,"time_elapsed":405647,"internal_node_id":"0.0-95.0-0.0","task_version":"screening-mturk","missing":false,"accuracy":1},{"contexts":["blue","green","red"],"outcomes":[1,0,1],"key":37,"choice":0,"rt":351.0900000037509,"outcome":1,"trial":90,"correct":0,"trial_type":"three-arm-trial","trial_index":98,"time_elapsed":407204,"internal_node_id":"0.0-96.0-0.0","task_version":"screening-mturk","missing":false,"accuracy":1},{"rt":71563.30499999603,"responses":{"age":"44","gender-categorical":"Male","gender-free-response":"","ethnicity":"Not Hispanic or Latino","race":["White"],"language":"Yes","fluency":"Very well","prolific":"Yes","prolific-this-study":"No"},"survey":"demographics","trial_type":"survey-demo","trial_index":99,"time_elapsed":478847,"internal_node_id":"0.0-97.0","task_version":"screening-mturk","interactions":"[{\"event\":\"blur\",\"trial\":0,\"time\":0},{\"event\":\"focus\",\"trial\":0,\"time\":3134},{\"event\":\"blur\",\"trial\":2,\"time\":82441},{\"event\":\"focus\",\"trial\":2,\"time\":82744},{\"event\":\"blur\",\"trial\":5,\"time\":134204},{\"event\":\"focus\",\"trial\":5,\"time\":134483},{\"event\":\"blur\",\"trial\":6,\"time\":151311},{\"event\":\"focus\",\"trial\":6,\"time\":154045},{\"event\":\"blur\",\"trial\":6,\"time\":156031},{\"event\":\"focus\",\"trial\":6,\"time\":159256},{\"event\":\"blur\",\"trial\":99,\"time\":447934},{\"event\":\"focus\",\"trial\":99,\"time\":458257},{\"event\":\"blur\",\"trial\":99,\"time\":463316},{\"event\":\"focus\",\"trial\":99,\"time\":476000}]"}]