[{"responses":{"Q12":"2","Q06":"3","Q05":"2","Q10":"1","Q01":"2","Q04":"1","Q07":"2","Q14":"2","Q08":"1","Q03":"2","Q15":"3","Q11":"2","Q13":"1","Q02":"2","Q09":"2"},"rt":37109.72499998752,"survey":"shaps","trial_type":"survey-template","trial_index":0,"time_elapsed":37127,"internal_node_id":"0.0-0.0","task_version":"screening-mturk"},{"responses":{"Q05":"1","Q08":"2","Q13":"3","Q11":"2","Q10":"1","Q09":"2","Q03":"3","Q12":"2","Q14":"2","Q06":"1","Q04":"2","Q07":"3","Q02":"2","Q01":"1","Q15":"2"},"rt":25790.439999953378,"survey":"7up7down","trial_type":"survey-template","trial_index":1,"time_elapsed":62921,"internal_node_id":"0.0-1.0","task_version":"screening-mturk"},{"responses":{"Q03":"3","Q01":"4","Q02":"3"},"rt":23286.744999990333,"survey":"pswq","trial_type":"survey-template","trial_index":2,"time_elapsed":86215,"internal_node_id":"0.0-2.0","task_version":"screening-mturk"},{"responses":{"Q10":"2","Q05":"3","Q07":"2","Q11":"1","Q01":"2","Q13":"2","Q12":"1","Q06":"2","Q08":"3","Q02":"2","Q04":"1","Q03":"2","Q09":"2"},"rt":34174.835000012536,"survey":"bisbas","trial_type":"survey-template","trial_index":3,"time_elapsed":120393,"internal_node_id":"0.0-3.0","task_version":"screening-mturk"},{"responses":{"Q06":"2","Q04":"3","Q07":"2","Q02":"1","Q03":"2","Q01":"2","Q05":"3","Q08":"2"},"rt":39283.88000000268,"survey":"gad7","trial_type":"survey-template","trial_index":4,"time_elapsed":159685,"internal_node_id":"0.0-4.0","task_version":"screening-mturk"},{"view_history":"[{\"page_index\":0,\"viewing_time\":9219.860000011977},{\"page_index\":1,\"viewing_time\":1223.2949999743141},{\"page_index\":2,\"viewing_time\":8685.685000033118},{\"page_index\":3,\"viewing_time\":5647.384999960195},{\"page_index\":4,\"viewing_time\":7029.390000039712},{\"page_index\":5,\"viewing_time\":1936.104999971576},{\"page_index\":6,\"viewing_time\":1534.6450000070035},{\"page_index\":7,\"viewing_time\":1250.125000020489}]","rt":36527.390000002924,"trial_type":"instructions","trial_index":5,"time_elapsed":196213,"internal_node_id":"0.0-5.0-0.0","task_version":"screening-mturk"},{"responses":["True","True","False","True","True"],"num_errors":1,"rt":36693.084999977145,"trial_type":"three-arm-comprehension","trial_index":6,"time_elapsed":232915,"internal_node_id":"0.0-5.0-1.0","task_version":"screening-mturk"},{"view_history":"[{\"page_index\":0,\"viewing_time\":2960.335000010673},{\"page_index\":1,\"viewing_time\":2746.5749999973923},{\"page_index\":2,\"viewing_time\":1584.35499999905},{\"page_index\":3,\"viewing_time\":11109.019999974407},{\"page_index\":4,\"viewing_time\":1159.8400000366382},{\"page_index\":5,\"viewing_time\":866.7600000044331},{\"page_index\":6,\"viewing_time\":829.0799999958836},{\"page_index\":7,\"viewing_time\":871.6949999798089}]","rt":22128.425000002608,"trial_type":"instructions","trial_index":7,"time_elapsed":255046,"internal_node_id":"0.0-5.1-0.1","task_version":"screening-mturk"},{"responses":["True","False","True","True","True"],"num_errors":3,"rt":12033.600000024308,"trial_type":"three-arm-comprehension","trial_index":8,"time_elapsed":267082,"internal_node_id":"0.0-5.1-1.1","task_version":"screening-mturk"},{"view_history":"[{\"page_index\":0,\"viewing_time\":2861.269999993965},{\"page_index\":1,\"viewing_time\":40767.529999953695},{\"page_index\":2,\"viewing_time\":2974.4250000221655},{\"page_index\":3,\"viewing_time\":10514.840000018012},{\"page_index\":4,\"viewing_time\":6585.45499999309},{\"page_index\":5,\"viewing_time\":5263.314999989234},{\"page_index\":6,\"viewing_time\":2980.4149999981746},{\"page_index\":7,\"viewing_time\":3649.3400000035763}]","rt":75596.88999998616,"trial_type":"instructions","trial_index":9,"time_elapsed":342687,"internal_node_id":"0.0-5.2-0.2","task_version":"screening-mturk"},{"responses":["True","True","True","True","True"],"num_errors":2,"rt":8390.010000031907,"trial_type":"three-arm-comprehension","trial_index":10,"time_elapsed":351084,"internal_node_id":"0.0-5.2-1.2","task_version":"screening-mturk"},{"view_history":"[{\"page_index\":0,\"viewing_time\":1858.829999982845},{\"page_index\":1,\"viewing_time\":1033.4650000440888},{\"page_index\":2,\"viewing_time\":808.0249999766238},{\"page_index\":3,\"viewing_time\":294.80500001227483},{\"page_index\":4,\"viewing_time\":1056.784999964293},{\"page_index\":5,\"viewing_time\":26912.25500003202},{\"page_index\":6,\"viewing_time\":1233.0300000030547},{\"page_index\":7,\"viewing_time\":1409.0800000121817}]","rt":34606.57000000356,"trial_type":"instructions","trial_index":11,"time_elapsed":385693,"internal_node_id":"0.0-5.3-0.3","task_version":"screening-mturk"},{"responses":["True","True","False","False","True"],"num_errors":0,"rt":13665.900000021793,"trial_type":"three-arm-comprehension","trial_index":12,"time_elapsed":399361,"internal_node_id":"0.0-5.3-1.3","task_version":"screening-mturk"},{"view_history":"[{\"page_index\":0,\"viewing_time\":2110.9149999683723}]","rt":2111.2049999646842,"trial_type":"instructions","trial_index":13,"time_elapsed":401475,"internal_node_id":"0.0-6.0","task_version":"screening-mturk"},{"contexts":["blue","green","red"],"outcomes":[0,1,0],"key":null,"rt":null,"trial":1,"correct":1,"trial_type":"three-arm-trial","trial_index":14,"time_elapsed":416485,"internal_node_id":"0.0-7.0-0.0","task_version":"screening-mturk","missing":true},{"contexts":["blue","green","red"],"outcomes":[0,1,0],"key":39,"choice":2,"rt":9739.360000006855,"outcome":0,"trial":1,"correct":1,"trial_type":"three-arm-trial","trial_index":15,"time_elapsed":427427,"internal_node_id":"0.0-7.1-0.1","task_version":"screening-mturk","missing":false,"accuracy":0},{"contexts":["blue","green","red"],"outcomes":[1,1,0],"key":39,"choice":2,"rt":300.53999996744096,"outcome":0,"trial":2,"correct":1,"trial_type":"three-arm-trial","trial_index":16,"time_elapsed":428931,"internal_node_id":"0.0-8.0-0.0","task_version":"screening-mturk","missing":false,"accuracy":0},{"contexts":["blue","green","red"],"outcomes":[0,0,0],"key":37,"choice":0,"rt":500.04499999340624,"outcome":0,"trial":3,"correct":1,"trial_type":"three-arm-trial","trial_index":17,"time_elapsed":430634,"internal_node_id":"0.0-9.0-0.0","task_version":"screening-mturk","missing":false,"accuracy":0},{"contexts":["blue","green","red"],"outcomes":[0,1,0],"key":38,"choice":1,"rt":160.75999999884516,"outcome":1,"trial":4,"correct":1,"trial_type":"three-arm-trial","trial_index":18,"time_elapsed":431997,"internal_node_id":"0.0-10.0-0.0","task_version":"screening-mturk","missing":false,"accuracy":1},{"contexts":["blue","green","red"],"outcomes":[0,1,0],"key":38,"choice":1,"rt":702.9949999996461,"outcome":1,"trial":5,"correct":1,"trial_type":"three-arm-trial","trial_index":19,"time_elapsed":433904,"internal_node_id":"0.0-11.0-0.0","task_version":"screening-mturk","missing":false,"accuracy":1},{"contexts":["blue","green","red"],"outcomes":[0,1,0],"key":37,"choice":0,"rt":838.8599999598227,"outcome":0,"trial":6,"correct":1,"trial_type":"three-arm-trial","trial_index":20,"time_elapsed":435946,"internal_node_id":"0.0-12.0-0.0","task_version":"screening-mturk","missing":false,"accuracy":0},{"contexts":["blue","green","red"],"outcomes":[0,1,0],"key":39,"choice":2,"rt":194.17500001145527,"outcome":0,"trial":7,"correct":1,"trial_type":"three-arm-trial","trial_index":21,"time_elapsed":437343,"internal_node_id":"0.0-13.0-0.0","task_version":"screening-mturk","missing":false,"accuracy":0},{"contexts":["blue","green","red"],"outcomes":[0,1,0],"key":38,"choice":1,"rt":194.1600000136532,"outcome":1,"trial":8,"correct":1,"trial_type":"three-arm-trial","trial_index":22,"time_elapsed":438739,"internal_node_id":"0.0-14.0-0.0","task_version":"screening-mturk","missing":false,"accuracy":1},{"contexts":["blue","green","red"],"outcomes":[0,1,0],"key":38,"choice":1,"rt":2058.949999976903,"outcome":1,"trial":9,"correct":1,"trial_type":"three-arm-trial","trial_index":23,"time_elapsed":442004,"internal_node_id":"0.0-15.0-0.0","task_version":"screening-mturk","missing":false,"accuracy":1},{"contexts":["blue","green","red"],"outcomes":[1,1,0],"key":38,"choice":1,"rt":1021.100000012666,"outcome":1,"trial":10,"correct":1,"trial_type":"three-arm-trial","trial_index":24,"time_elapsed":444228,"internal_node_id":"0.0-16.0-0.0","task_version":"screening-mturk","missing":false,"accuracy":1},{"contexts":["blue","green","red"],"outcomes":[0,1,0],"key":38,"choice":1,"rt":407.3050000006333,"outcome":1,"trial":11,"correct":1,"trial_type":"three-arm-trial","trial_index":25,"time_elapsed":445838,"internal_node_id":"0.0-17.0-0.0","task_version":"screening-mturk","missing":false,"accuracy":1},{"contexts":["blue","green","red"],"outcomes":[0,1,0],"key":38,"choice":1,"rt":481.6199999768287,"outcome":1,"trial":12,"correct":1,"trial_type":"three-arm-trial","trial_index":26,"time_elapsed":447523,"internal_node_id":"0.0-18.0-0.0","task_version":"screening-mturk","missing":false,"accuracy":1},{"contexts":["blue","green","red"],"outcomes":[0,1,0],"key":38,"choice":1,"rt":427.350000012666,"outcome":1,"trial":13,"correct":1,"trial_type":"three-arm-trial","trial_index":27,"time_elapsed":449154,"internal_node_id":"0.0-19.0-0.0","task_version":"screening-mturk","missing":false,"accuracy":1},{"contexts":["blue","green","red"],"outcomes":[0,1,0],"key":38,"choice":1,"rt":423.1700000236742,"outcome":1,"trial":14,"correct":1,"trial_type":"three-arm-trial","trial_index":28,"time_elapsed":450779,"internal_node_id":"0.0-20.0-0.0","task_version":"screening-mturk","missing":false,"accuracy":1},{"contexts":["blue","green","red"],"outcomes":[0,1,1],"key":38,"choice":1,"rt":101.77499998826534,"outcome":1,"trial":15,"correct":1,"trial_type":"three-arm-trial","trial_index":29,"time_elapsed":452084,"internal_node_id":"0.0-21.0-0.0","task_version":"screening-mturk","missing":false,"accuracy":1},{"contexts":["blue","green","red"],"outcomes":[0,1,0],"key":37,"choice":0,"rt":1423.4850000357255,"outcome":0,"trial":16,"correct":0,"trial_type":"three-arm-trial","trial_index":30,"time_elapsed":454712,"internal_node_id":"0.0-22.0-0.0","task_version":"screening-mturk","missing":false,"accuracy":1},{"contexts":["blue","green","red"],"outcomes":[1,1,0],"key":39,"choice":2,"rt":663.8749999692664,"outcome":0,"trial":17,"correct":0,"trial_type":"three-arm-trial","trial_index":31,"time_elapsed":456578,"internal_node_id":"0.0-23.0-0.0","task_version":"screening-mturk","missing":false,"accuracy":0},{"contexts":["blue","green","red"],"outcomes":[1,0,0],"key":38,"choice":1,"rt":173.63999999361113,"outcome":0,"trial":18,"correct":0,"trial_type":"three-arm-trial","trial_index":32,"time_elapsed":457955,"internal_node_id":"0.0-24.0-0.0","task_version":"screening-mturk","missing":false,"accuracy":0},{"contexts":["blue","green","red"],"outcomes":[1,0,0],"key":37,"choice":0,"rt":388.9399999752641,"outcome":1,"trial":19,"correct":0,"trial_type":"three-arm-trial","trial_index":33,"time_elapsed":459548,"internal_node_id":"0.0-25.0-0.0","task_version":"screening-mturk","missing":false,"accuracy":1},{"contexts":["blue","green","red"],"outcomes":[1,1,1],"key":37,"choice":0,"rt":303.0949999811128,"outcome":1,"trial":20,"correct":0,"trial_type":"three-arm-trial","trial_index":34,"time_elapsed":461054,"internal_node_id":"0.0-26.0-0.0","task_version":"screening-mturk","missing":false,"accuracy":1},{"contexts":["blue","green","red"],"outcomes":[1,0,0],"key":37,"choice":0,"rt":214.15000001434237,"outcome":1,"trial":21,"correct":0,"trial_type":"three-arm-trial","trial_index":35,"time_elapsed":462472,"internal_node_id":"0.0-27.0-0.0","task_version":"screening-mturk","missing":false,"accuracy":1},{"contexts":["blue","green","red"],"outcomes":[0,0,0],"key":37,"choice":0,"rt":616.1699999938719,"outcome":0,"trial":22,"correct":0,"trial_type":"three-arm-trial","trial_index":36,"time_elapsed":464291,"internal_node_id":"0.0-28.0-0.0","task_version":"screening-mturk","missing":false,"accuracy":1},{"contexts":["blue","green","red"],"outcomes":[1,1,1],"key":39,"choice":2,"rt":4.004999995231628,"outcome":1,"trial":23,"correct":0,"trial_type":"three-arm-trial","trial_index":37,"time_elapsed":465498,"internal_node_id":"0.0-29.0-0.0","task_version":"screening-mturk","missing":false,"accuracy":0},{"contexts":["blue","green","red"],"outcomes":[1,1,0],"key":39,"choice":2,"rt":324.5100000058301,"outcome":0,"trial":24,"correct":0,"trial_type":"three-arm-trial","trial_index":38,"time_elapsed":467026,"internal_node_id":"0.0-30.0-0.0","task_version":"screening-mturk","missing":false,"accuracy":0},{"contexts":["blue","green","red"],"outcomes":[1,0,0],"key":37,"choice":0,"rt":475.9949999861419,"outcome":1,"trial":25,"correct":0,"trial_type":"three-arm-trial","trial_index":39,"time_elapsed":468705,"internal_node_id":"0.0-31.0-0.0","task_version":"screening-mturk","missing":false,"accuracy":1},{"contexts":["blue","green","red"],"outcomes":[1,0,0],"key":37,"choice":0,"rt":716.1850000265986,"outcome":1,"trial":26,"correct":0,"trial_type":"three-arm-trial","trial_index":40,"time_elapsed":470624,"internal_node_id":"0.0-32.0-0.0","task_version":"screening-mturk","missing":false,"accuracy":1},{"contexts":["blue","green","red"],"outcomes":[1,0,0],"key":37,"choice":0,"rt":1944.1800000495277,"outcome":1,"trial":27,"correct":0,"trial_type":"three-arm-trial","trial_index":41,"time_elapsed":473776,"internal_node_id":"0.0-33.0-0.0","task_version":"screening-mturk","missing":false,"accuracy":1},{"contexts":["blue","green","red"],"outcomes":[1,1,0],"key":37,"choice":0,"rt":1283.0749999848194,"outcome":1,"trial":28,"correct":0,"trial_type":"three-arm-trial","trial_index":42,"time_elapsed":476262,"internal_node_id":"0.0-34.0-0.0","task_version":"screening-mturk","missing":false,"accuracy":1},{"contexts":["blue","green","red"],"outcomes":[1,1,1],"key":37,"choice":0,"rt":1185.7549999840558,"outcome":1,"trial":29,"correct":0,"trial_type":"three-arm-trial","trial_index":43,"time_elapsed":478653,"internal_node_id":"0.0-35.0-0.0","task_version":"screening-mturk","missing":false,"accuracy":1},{"contexts":["blue","green","red"],"outcomes":[1,0,0],"key":37,"choice":0,"rt":1586.3399999798276,"outcome":1,"trial":30,"correct":0,"trial_type":"three-arm-trial","trial_index":44,"time_elapsed":481444,"internal_node_id":"0.0-36.0-0.0","task_version":"screening-mturk","missing":false,"accuracy":1},{"contexts":["blue","green","red"],"outcomes":[0,0,0],"key":37,"choice":0,"rt":1045.7400000304915,"outcome":0,"trial":31,"correct":2,"trial_type":"three-arm-trial","trial_index":45,"time_elapsed":483692,"internal_node_id":"0.0-37.0-0.0","task_version":"screening-mturk","missing":false,"accuracy":0},{"contexts":["blue","green","red"],"outcomes":[0,0,1],"key":39,"choice":2,"rt":8.755000017117709,"outcome":1,"trial":32,"correct":2,"trial_type":"three-arm-trial","trial_index":46,"time_elapsed":484904,"internal_node_id":"0.0-38.0-0.0","task_version":"screening-mturk","missing":false,"accuracy":1},{"contexts":["blue","green","red"],"outcomes":[0,0,0],"key":39,"choice":2,"rt":802.605000033509,"outcome":0,"trial":33,"correct":2,"trial_type":"three-arm-trial","trial_index":47,"time_elapsed":486909,"internal_node_id":"0.0-39.0-0.0","task_version":"screening-mturk","missing":false,"accuracy":1},{"contexts":["blue","green","red"],"outcomes":[0,1,1],"key":38,"choice":1,"rt":348.7600000225939,"outcome":1,"trial":34,"correct":2,"trial_type":"three-arm-trial","trial_index":48,"time_elapsed":488460,"internal_node_id":"0.0-40.0-0.0","task_version":"screening-mturk","missing":false,"accuracy":0},{"contexts":["blue","green","red"],"outcomes":[1,0,1],"key":38,"choice":1,"rt":557.7250000205822,"outcome":0,"trial":35,"correct":2,"trial_type":"three-arm-trial","trial_index":49,"time_elapsed":490222,"internal_node_id":"0.0-41.0-0.0","task_version":"screening-mturk","missing":false,"accuracy":0},{"contexts":["blue","green","red"],"outcomes":[0,0,1],"key":37,"choice":0,"rt":435.26500003645197,"outcome":0,"trial":36,"correct":2,"trial_type":"three-arm-trial","trial_index":50,"time_elapsed":491860,"internal_node_id":"0.0-42.0-0.0","task_version":"screening-mturk","missing":false,"accuracy":0},{"contexts":["blue","green","red"],"outcomes":[1,1,1],"key":39,"choice":2,"rt":67.34000000869855,"outcome":1,"trial":37,"correct":2,"trial_type":"three-arm-trial","trial_index":51,"time_elapsed":493132,"internal_node_id":"0.0-43.0-0.0","task_version":"screening-mturk","missing":false,"accuracy":1},{"contexts":["blue","green","red"],"outcomes":[0,0,1],"key":39,"choice":2,"rt":8644.254999991972,"outcome":1,"trial":38,"correct":2,"trial_type":"three-arm-trial","trial_index":52,"time_elapsed":502979,"internal_node_id":"0.0-44.0-0.0","task_version":"screening-mturk","missing":false,"accuracy":1},{"contexts":["blue","green","red"],"outcomes":[0,0,1],"key":39,"choice":2,"rt":1013.840000028722,"outcome":1,"trial":39,"correct":2,"trial_type":"three-arm-trial","trial_index":53,"time_elapsed":505195,"internal_node_id":"0.0-45.0-0.0","task_version":"screening-mturk","missing":false,"accuracy":1},{"contexts":["blue","green","red"],"outcomes":[0,0,0],"key":39,"choice":2,"rt":2220.9850000217557,"outcome":0,"trial":40,"correct":2,"trial_type":"three-arm-trial","trial_index":54,"time_elapsed":508619,"internal_node_id":"0.0-46.0-0.0","task_version":"screening-mturk","missing":false,"accuracy":1},{"contexts":["blue","green","red"],"outcomes":[1,0,0],"key":38,"choice":1,"rt":492.31500003952533,"outcome":0,"trial":41,"correct":2,"trial_type":"three-arm-trial","trial_index":55,"time_elapsed":510314,"internal_node_id":"0.0-47.0-0.0","task_version":"screening-mturk","missing":false,"accuracy":0},{"contexts":["blue","green","red"],"outcomes":[0,0,1],"key":37,"choice":0,"rt":1002.3300000466406,"outcome":0,"trial":42,"correct":2,"trial_type":"three-arm-trial","trial_index":56,"time_elapsed":512520,"internal_node_id":"0.0-48.0-0.0","task_version":"screening-mturk","missing":false,"accuracy":0},{"contexts":["blue","green","red"],"outcomes":[1,0,1],"key":39,"choice":2,"rt":704.6200000331737,"outcome":1,"trial":43,"correct":2,"trial_type":"three-arm-trial","trial_index":57,"time_elapsed":514427,"internal_node_id":"0.0-49.0-0.0","task_version":"screening-mturk","missing":false,"accuracy":1},{"contexts":["blue","green","red"],"outcomes":[0,0,1],"key":39,"choice":2,"rt":1341.9100000173785,"outcome":1,"trial":44,"correct":2,"trial_type":"three-arm-trial","trial_index":58,"time_elapsed":516973,"internal_node_id":"0.0-50.0-0.0","task_version":"screening-mturk","missing":false,"accuracy":1},{"contexts":["blue","green","red"],"outcomes":[0,1,1],"key":39,"choice":2,"rt":762.5300000072457,"outcome":1,"trial":45,"correct":2,"trial_type":"three-arm-trial","trial_index":59,"time_elapsed":518941,"internal_node_id":"0.0-51.0-0.0","task_version":"screening-mturk","missing":false,"accuracy":1},{"contexts":["blue","green","red"],"outcomes":[0,0,0],"key":39,"choice":2,"rt":894.3399999989197,"outcome":0,"trial":46,"correct":0,"trial_type":"three-arm-trial","trial_index":60,"time_elapsed":521040,"internal_node_id":"0.0-52.0-0.0","task_version":"screening-mturk","missing":false,"accuracy":0},{"contexts":["blue","green","red"],"outcomes":[1,0,1],"key":37,"choice":0,"rt":865.7150000217371,"outcome":1,"trial":47,"correct":0,"trial_type":"three-arm-trial","trial_index":61,"time_elapsed":523109,"internal_node_id":"0.0-53.0-0.0","task_version":"screening-mturk","missing":false,"accuracy":1},{"contexts":["blue","green","red"],"outcomes":[1,0,1],"key":37,"choice":0,"rt":778.5300000105053,"outcome":1,"trial":48,"correct":0,"trial_type":"three-arm-trial","trial_index":62,"time_elapsed":525091,"internal_node_id":"0.0-54.0-0.0","task_version":"screening-mturk","missing":false,"accuracy":1},{"contexts":["blue","green","red"],"outcomes":[1,0,0],"key":37,"choice":0,"rt":717.85000001546,"outcome":1,"trial":49,"correct":0,"trial_type":"three-arm-trial","trial_index":63,"time_elapsed":527011,"internal_node_id":"0.0-55.0-0.0","task_version":"screening-mturk","missing":false,"accuracy":1},{"contexts":["blue","green","red"],"outcomes":[1,0,0],"key":37,"choice":0,"rt":6476.3200000161305,"outcome":1,"trial":50,"correct":0,"trial_type":"three-arm-trial","trial_index":64,"time_elapsed":534695,"internal_node_id":"0.0-56.0-0.0","task_version":"screening-mturk","missing":false,"accuracy":1},{"contexts":["blue","green","red"],"outcomes":[1,0,0],"key":37,"choice":0,"rt":980.8399999747053,"outcome":1,"trial":51,"correct":0,"trial_type":"three-arm-trial","trial_index":65,"time_elapsed":536878,"internal_node_id":"0.0-57.0-0.0","task_version":"screening-mturk","missing":false,"accuracy":1},{"contexts":["blue","green","red"],"outcomes":[0,1,0],"key":37,"choice":0,"rt":909.1250000055879,"outcome":0,"trial":52,"correct":0,"trial_type":"three-arm-trial","trial_index":66,"time_elapsed":538990,"internal_node_id":"0.0-58.0-0.0","task_version":"screening-mturk","missing":false,"accuracy":1},{"contexts":["blue","green","red"],"outcomes":[1,0,0],"key":39,"choice":2,"rt":1480.1050000241958,"outcome":0,"trial":53,"correct":0,"trial_type":"three-arm-trial","trial_index":67,"time_elapsed":541673,"internal_node_id":"0.0-59.0-0.0","task_version":"screening-mturk","missing":false,"accuracy":0},{"contexts":["blue","green","red"],"outcomes":[1,0,1],"key":38,"choice":1,"rt":1849.6249999734573,"outcome":0,"trial":54,"correct":0,"trial_type":"three-arm-trial","trial_index":68,"time_elapsed":544746,"internal_node_id":"0.0-60.0-0.0","task_version":"screening-mturk","missing":false,"accuracy":0},{"contexts":["blue","green","red"],"outcomes":[1,1,1],"key":37,"choice":0,"rt":648.5450000036508,"outcome":1,"trial":55,"correct":0,"trial_type":"three-arm-trial","trial_index":69,"time_elapsed":546601,"internal_node_id":"0.0-61.0-0.0","task_version":"screening-mturk","missing":false,"accuracy":1},{"contexts":["blue","green","red"],"outcomes":[0,0,0],"key":37,"choice":0,"rt":872.9300000122748,"outcome":0,"trial":56,"correct":0,"trial_type":"three-arm-trial","trial_index":70,"time_elapsed":548676,"internal_node_id":"0.0-62.0-0.0","task_version":"screening-mturk","missing":false,"accuracy":1},{"contexts":["blue","green","red"],"outcomes":[1,0,0],"key":39,"choice":2,"rt":645.6649999599904,"outcome":0,"trial":57,"correct":0,"trial_type":"three-arm-trial","trial_index":71,"time_elapsed":550527,"internal_node_id":"0.0-63.0-0.0","task_version":"screening-mturk","missing":false,"accuracy":0},{"contexts":["blue","green","red"],"outcomes":[1,0,1],"key":null,"rt":null,"trial":58,"correct":0,"trial_type":"three-arm-trial","trial_index":72,"time_elapsed":565533,"internal_node_id":"0.0-64.0-0.0","task_version":"screening-mturk","missing":true},{"contexts":["blue","green","red"],"outcomes":[1,0,1],"key":39,"choice":2,"rt":9908.21500000311,"outcome":1,"trial":58,"correct":0,"trial_type":"three-arm-trial","trial_index":73,"time_elapsed":576643,"internal_node_id":"0.0-64.1-0.1","task_version":"screening-mturk","missing":false,"accuracy":0},{"contexts":["blue","green","red"],"outcomes":[0,0,0],"key":39,"choice":2,"rt":491.7000000132248,"outcome":0,"trial":59,"correct":0,"trial_type":"three-arm-trial","trial_index":74,"time_elapsed":578337,"internal_node_id":"0.0-65.0-0.0","task_version":"screening-mturk","missing":false,"accuracy":0},{"contexts":["blue","green","red"],"outcomes":[1,0,0],"key":37,"choice":0,"rt":72.77999998768792,"outcome":1,"trial":60,"correct":0,"trial_type":"three-arm-trial","trial_index":75,"time_elapsed":579612,"internal_node_id":"0.0-66.0-0.0","task_version":"screening-mturk","missing":false,"accuracy":1},{"contexts":["blue","green","red"],"outcomes":[0,0,1],"key":38,"choice":1,"rt":375.0899999868125,"outcome":0,"trial":61,"correct":2,"trial_type":"three-arm-trial","trial_index":76,"time_elapsed":581189,"internal_node_id":"0.0-67.0-0.0","task_version":"screening-mturk","missing":false,"accuracy":0},{"contexts":["blue","green","red"],"outcomes":[0,0,1],"key":37,"choice":0,"rt":340.8950000302866,"outcome":0,"trial":62,"correct":2,"trial_type":"three-arm-trial","trial_index":77,"time_elapsed":582732,"internal_node_id":"0.0-68.0-0.0","task_version":"screening-mturk","missing":false,"accuracy":0},{"contexts":["blue","green","red"],"outcomes":[1,0,1],"key":39,"choice":2,"rt":769.0849999780767,"outcome":1,"trial":63,"correct":2,"trial_type":"three-arm-trial","trial_index":78,"time_elapsed":584704,"internal_node_id":"0.0-69.0-0.0","task_version":"screening-mturk","missing":false,"accuracy":1},{"contexts":["blue","green","red"],"outcomes":[0,0,1],"key":39,"choice":2,"rt":579.1099999914877,"outcome":1,"trial":64,"correct":2,"trial_type":"three-arm-trial","trial_index":79,"time_elapsed":586487,"internal_node_id":"0.0-70.0-0.0","task_version":"screening-mturk","missing":false,"accuracy":1},{"contexts":["blue","green","red"],"outcomes":[0,0,1],"key":39,"choice":2,"rt":815.9349999623373,"outcome":1,"trial":65,"correct":2,"trial_type":"three-arm-trial","trial_index":80,"time_elapsed":588506,"internal_node_id":"0.0-71.0-0.0","task_version":"screening-mturk","missing":false,"accuracy":1},{"contexts":["blue","green","red"],"outcomes":[0,1,1],"key":39,"choice":2,"rt":927.8899999917485,"outcome":1,"trial":66,"correct":2,"trial_type":"three-arm-trial","trial_index":81,"time_elapsed":590637,"internal_node_id":"0.0-72.0-0.0","task_version":"screening-mturk","missing":false,"accuracy":1},{"contexts":["blue","green","red"],"outcomes":[0,0,1],"key":39,"choice":2,"rt":758.6299999966286,"outcome":1,"trial":67,"correct":2,"trial_type":"three-arm-trial","trial_index":82,"time_elapsed":592599,"internal_node_id":"0.0-73.0-0.0","task_version":"screening-mturk","missing":false,"accuracy":1},{"contexts":["blue","green","red"],"outcomes":[1,1,1],"key":39,"choice":2,"rt":1023.5699999611825,"outcome":1,"trial":68,"correct":2,"trial_type":"three-arm-trial","trial_index":83,"time_elapsed":594829,"internal_node_id":"0.0-74.0-0.0","task_version":"screening-mturk","missing":false,"accuracy":1},{"contexts":["blue","green","red"],"outcomes":[0,0,0],"key":39,"choice":2,"rt":655.1750000216998,"outcome":0,"trial":69,"correct":2,"trial_type":"three-arm-trial","trial_index":84,"time_elapsed":596688,"internal_node_id":"0.0-75.0-0.0","task_version":"screening-mturk","missing":false,"accuracy":1},{"contexts":["blue","green","red"],"outcomes":[0,0,1],"key":37,"choice":0,"rt":1066.5700000245124,"outcome":0,"trial":70,"correct":2,"trial_type":"three-arm-trial","trial_index":85,"time_elapsed":598966,"internal_node_id":"0.0-76.0-0.0","task_version":"screening-mturk","missing":false,"accuracy":0},{"contexts":["blue","green","red"],"outcomes":[0,0,1],"key":38,"choice":1,"rt":932.5100000132807,"outcome":0,"trial":71,"correct":2,"trial_type":"three-arm-trial","trial_index":86,"time_elapsed":601101,"internal_node_id":"0.0-77.0-0.0","task_version":"screening-mturk","missing":false,"accuracy":0},{"contexts":["blue","green","red"],"outcomes":[0,0,1],"key":39,"choice":2,"rt":334.22499999869615,"outcome":1,"trial":72,"correct":2,"trial_type":"three-arm-trial","trial_index":87,"time_elapsed":602637,"internal_node_id":"0.0-78.0-0.0","task_version":"screening-mturk","missing":false,"accuracy":1},{"contexts":["blue","green","red"],"outcomes":[0,0,0],"key":39,"choice":2,"rt":1792.235000000801,"outcome":0,"trial":73,"correct":2,"trial_type":"three-arm-trial","trial_index":88,"time_elapsed":605634,"internal_node_id":"0.0-79.0-0.0","task_version":"screening-mturk","missing":false,"accuracy":1},{"contexts":["blue","green","red"],"outcomes":[1,1,1],"key":null,"rt":null,"trial":74,"correct":2,"trial_type":"three-arm-trial","trial_index":89,"time_elapsed":620638,"internal_node_id":"0.0-80.0-0.0","task_version":"screening-mturk","missing":true},{"contexts":["blue","green","red"],"outcomes":[1,1,1],"key":39,"choice":2,"rt":1592.5500000012107,"outcome":1,"trial":74,"correct":2,"trial_type":"three-arm-trial","trial_index":90,"time_elapsed":623432,"internal_node_id":"0.0-80.1-0.1","task_version":"screening-mturk","missing":false,"accuracy":1},{"contexts":["blue","green","red"],"outcomes":[1,0,1],"key":39,"choice":2,"rt":800.6799999857321,"outcome":1,"trial":75,"correct":2,"trial_type":"three-arm-trial","trial_index":91,"time_elapsed":625435,"internal_node_id":"0.0-81.0-0.0","task_version":"screening-mturk","missing":false,"accuracy":1},{"contexts":["blue","green","red"],"outcomes":[1,1,0],"key":39,"choice":2,"rt":647.9699999908917,"outcome":0,"trial":76,"correct":0,"trial_type":"three-arm-trial","trial_index":92,"time_elapsed":627289,"internal_node_id":"0.0-82.0-0.0","task_version":"screening-mturk","missing":false,"accuracy":0},{"contexts":["blue","green","red"],"outcomes":[1,0,0],"key":39,"choice":2,"rt":1034.8349999985658,"outcome":0,"trial":77,"correct":0,"trial_type":"three-arm-trial","trial_index":93,"time_elapsed":629527,"internal_node_id":"0.0-83.0-0.0","task_version":"screening-mturk","missing":false,"accuracy":0},{"contexts":["blue","green","red"],"outcomes":[0,0,0],"key":39,"choice":2,"rt":250.44500001240522,"outcome":0,"trial":78,"correct":0,"trial_type":"three-arm-trial","trial_index":94,"time_elapsed":630981,"internal_node_id":"0.0-84.0-0.0","task_version":"screening-mturk","missing":false,"accuracy":0},{"contexts":["blue","green","red"],"outcomes":[1,0,0],"key":37,"choice":0,"rt":539.3549999571405,"outcome":1,"trial":79,"correct":0,"trial_type":"three-arm-trial","trial_index":95,"time_elapsed":632725,"internal_node_id":"0.0-85.0-0.0","task_version":"screening-mturk","missing":false,"accuracy":1},{"contexts":["blue","green","red"],"outcomes":[1,0,0],"key":37,"choice":0,"rt":694.9299999978393,"outcome":1,"trial":80,"correct":0,"trial_type":"three-arm-trial","trial_index":96,"time_elapsed":634623,"internal_node_id":"0.0-86.0-0.0","task_version":"screening-mturk","missing":false,"accuracy":1},{"contexts":["blue","green","red"],"outcomes":[1,0,1],"key":37,"choice":0,"rt":1134.1600000159815,"outcome":1,"trial":81,"correct":0,"trial_type":"three-arm-trial","trial_index":97,"time_elapsed":636960,"internal_node_id":"0.0-87.0-0.0","task_version":"screening-mturk","missing":false,"accuracy":1},{"contexts":["blue","green","red"],"outcomes":[1,0,0],"key":37,"choice":0,"rt":401.0250000283122,"outcome":1,"trial":82,"correct":0,"trial_type":"three-arm-trial","trial_index":98,"time_elapsed":638564,"internal_node_id":"0.0-88.0-0.0","task_version":"screening-mturk","missing":false,"accuracy":1},{"contexts":["blue","green","red"],"outcomes":[0,0,0],"key":37,"choice":0,"rt":968.7399999820627,"outcome":0,"trial":83,"correct":0,"trial_type":"three-arm-trial","trial_index":99,"time_elapsed":640735,"internal_node_id":"0.0-89.0-0.0","task_version":"screening-mturk","missing":false,"accuracy":1},{"contexts":["blue","green","red"],"outcomes":[1,1,1],"key":38,"choice":1,"rt":145.00999997835606,"outcome":1,"trial":84,"correct":0,"trial_type":"three-arm-trial","trial_index":100,"time_elapsed":642082,"internal_node_id":"0.0-90.0-0.0","task_version":"screening-mturk","missing":false,"accuracy":0},{"contexts":["blue","green","red"],"outcomes":[1,1,0],"key":38,"choice":1,"rt":635.9950000187382,"outcome":1,"trial":85,"correct":0,"trial_type":"three-arm-trial","trial_index":101,"time_elapsed":643921,"internal_node_id":"0.0-91.0-0.0","task_version":"screening-mturk","missing":false,"accuracy":0},{"contexts":["blue","green","red"],"outcomes":[1,0,0],"key":38,"choice":1,"rt":63.574999978300184,"outcome":0,"trial":86,"correct":0,"trial_type":"three-arm-trial","trial_index":102,"time_elapsed":645187,"internal_node_id":"0.0-92.0-0.0","task_version":"screening-mturk","missing":false,"accuracy":0},{"contexts":["blue","green","red"],"outcomes":[1,0,0],"key":39,"choice":2,"rt":1379.639999999199,"outcome":0,"trial":87,"correct":0,"trial_type":"three-arm-trial","trial_index":103,"time_elapsed":647769,"internal_node_id":"0.0-93.0-0.0","task_version":"screening-mturk","missing":false,"accuracy":0},{"contexts":["blue","green","red"],"outcomes":[1,0,0],"key":37,"choice":0,"rt":1037.6899999682792,"outcome":1,"trial":88,"correct":0,"trial_type":"three-arm-trial","trial_index":104,"time_elapsed":650009,"internal_node_id":"0.0-94.0-0.0","task_version":"screening-mturk","missing":false,"accuracy":1},{"contexts":["blue","green","red"],"outcomes":[1,0,0],"key":37,"choice":0,"rt":204.32000001892447,"outcome":1,"trial":89,"correct":0,"trial_type":"three-arm-trial","trial_index":105,"time_elapsed":651417,"internal_node_id":"0.0-95.0-0.0","task_version":"screening-mturk","missing":false,"accuracy":1},{"contexts":["blue","green","red"],"outcomes":[1,0,0],"key":37,"choice":0,"rt":262.0050000259653,"outcome":1,"trial":90,"correct":0,"trial_type":"three-arm-trial","trial_index":106,"time_elapsed":652884,"internal_node_id":"0.0-96.0-0.0","task_version":"screening-mturk","missing":false,"accuracy":1},{"rt":58138.88499996392,"responses":{"age":"47","gender-categorical":"Male","gender-free-response":"","ethnicity":"Not Hispanic or Latino","race":["White"],"language":"Yes","fluency":"Very well","prolific":"Yes","prolific-this-study":"No"},"survey":"demographics","trial_type":"survey-demo","trial_index":107,"time_elapsed":711032,"internal_node_id":"0.0-97.0","task_version":"screening-mturk","interactions":"[{\"event\":\"blur\",\"trial\":2,\"time\":64860},{\"event\":\"focus\",\"trial\":2,\"time\":69274},{\"event\":\"blur\",\"trial\":2,\"time\":70528},{\"event\":\"focus\",\"trial\":2,\"time\":71320}]"}]