[{"responses":{"Q01":"0","Q07":"0","Q06":"1","Q02":"0","Q08":"0","Q03":"1","Q04":"1","Q05":"1"},"rt":23634.56000003498,"survey":"gad7","trial_type":"survey-template","trial_index":0,"time_elapsed":23670,"internal_node_id":"0.0-0.0","task_version":"screening-mturk"},{"responses":{"Q02":"2","Q01":"1","Q03":"1"},"rt":14677.73999995552,"survey":"pswq","trial_type":"survey-template","trial_index":1,"time_elapsed":38352,"internal_node_id":"0.0-1.0","task_version":"screening-mturk"},{"responses":{"Q12":"0","Q06":"2","Q01":"1","Q11":"1","Q05":"1","Q04":"1","Q02":"1","Q03":"2","Q07":"1","Q08":"1","Q15":"1","Q14":"0","Q13":"2","Q10":"1","Q09":"1"},"rt":115554.45499997586,"survey":"7up7down","trial_type":"survey-template","trial_index":2,"time_elapsed":153921,"internal_node_id":"0.0-2.0","task_version":"screening-mturk"},{"responses":{"Q07":"2","Q02":"2","Q01":"1","Q03":"2","Q10":"2","Q04":"2","Q13":"3","Q09":"2","Q06":"2","Q11":"2","Q05":"2","Q08":"2","Q12":"1"},"rt":50404.55999993719,"survey":"bisbas","trial_type":"survey-template","trial_index":3,"time_elapsed":204336,"internal_node_id":"0.0-3.0","task_version":"screening-mturk"},{"responses":{"Q15":"2","Q13":"2","Q11":"2","Q12":"2","Q02":"2","Q06":"2","Q03":"2","Q05":"2","Q08":"2","Q01":"2","Q10":"2","Q04":"2","Q09":"2","Q07":"2","Q14":"2"},"rt":51233.40999998618,"survey":"shaps","trial_type":"survey-template","trial_index":4,"time_elapsed":255578,"internal_node_id":"0.0-4.0","task_version":"screening-mturk"},{"view_history":"[{\"page_index\":0,\"viewing_time\":6242.699999944307},{\"page_index\":1,\"viewing_time\":31.935000093653798},{\"page_index\":2,\"viewing_time\":25.670000002719462},{\"page_index\":3,\"viewing_time\":19253.84999997914},{\"page_index\":4,\"viewing_time\":14855.764999985695},{\"page_index\":5,\"viewing_time\":48.76000003423542},{\"page_index\":6,\"viewing_time\":8951.42999989912},{\"page_index\":7,\"viewing_time\":15.9750001039356}]","rt":49427.96500003897,"trial_type":"instructions","trial_index":5,"time_elapsed":305015,"internal_node_id":"0.0-5.0-0.0","task_version":"screening-mturk"},{"responses":["True","True","False","False","True"],"num_errors":0,"rt":29489.489999949,"trial_type":"three-arm-comprehension","trial_index":6,"time_elapsed":334512,"internal_node_id":"0.0-5.0-1.0","task_version":"screening-mturk"},{"view_history":"[{\"page_index\":0,\"viewing_time\":2700.399999972433}]","rt":2701.119999983348,"trial_type":"instructions","trial_index":7,"time_elapsed":337224,"internal_node_id":"0.0-6.0","task_version":"screening-mturk"},{"contexts":["blue","green","red"],"outcomes":[0,1,1],"key":null,"rt":null,"trial":1,"correct":2,"trial_type":"three-arm-trial","trial_index":8,"time_elapsed":352242,"internal_node_id":"0.0-7.0-0.0","task_version":"screening-mturk","missing":true},{"contexts":["blue","green","red"],"outcomes":[0,1,1],"key":null,"rt":null,"trial":1,"correct":2,"trial_type":"three-arm-trial","trial_index":9,"time_elapsed":367254,"internal_node_id":"0.0-7.1-0.1","task_version":"screening-mturk","missing":true},{"contexts":["blue","green","red"],"outcomes":[0,1,1],"key":null,"rt":null,"trial":1,"correct":2,"trial_type":"three-arm-trial","trial_index":10,"time_elapsed":382271,"internal_node_id":"0.0-7.2-0.2","task_version":"screening-mturk","missing":true},{"contexts":["blue","green","red"],"outcomes":[0,1,1],"key":38,"choice":1,"rt":8236.864999984391,"outcome":1,"trial":1,"correct":2,"trial_type":"three-arm-trial","trial_index":11,"time_elapsed":391718,"internal_node_id":"0.0-7.3-0.3","task_version":"screening-mturk","missing":false,"accuracy":0},{"contexts":["blue","green","red"],"outcomes":[0,0,1],"key":39,"choice":2,"rt":52.46500007342547,"outcome":1,"trial":2,"correct":2,"trial_type":"three-arm-trial","trial_index":12,"time_elapsed":392980,"internal_node_id":"0.0-8.0-0.0","task_version":"screening-mturk","missing":false,"accuracy":1},{"contexts":["blue","green","red"],"outcomes":[0,0,1],"key":39,"choice":2,"rt":464.3450001021847,"outcome":1,"trial":3,"correct":2,"trial_type":"three-arm-trial","trial_index":13,"time_elapsed":394655,"internal_node_id":"0.0-9.0-0.0","task_version":"screening-mturk","missing":false,"accuracy":1},{"contexts":["blue","green","red"],"outcomes":[0,0,0],"key":39,"choice":2,"rt":132.0250000571832,"outcome":0,"trial":4,"correct":2,"trial_type":"three-arm-trial","trial_index":14,"time_elapsed":395995,"internal_node_id":"0.0-10.0-0.0","task_version":"screening-mturk","missing":false,"accuracy":1},{"contexts":["blue","green","red"],"outcomes":[0,1,1],"key":37,"choice":0,"rt":3052.5899999774992,"outcome":0,"trial":5,"correct":2,"trial_type":"three-arm-trial","trial_index":15,"time_elapsed":400259,"internal_node_id":"0.0-11.0-0.0","task_version":"screening-mturk","missing":false,"accuracy":0},{"contexts":["blue","green","red"],"outcomes":[0,0,1],"key":39,"choice":2,"rt":589.8300000699237,"outcome":1,"trial":6,"correct":2,"trial_type":"three-arm-trial","trial_index":16,"time_elapsed":402060,"internal_node_id":"0.0-12.0-0.0","task_version":"screening-mturk","missing":false,"accuracy":1},{"contexts":["blue","green","red"],"outcomes":[0,0,1],"key":39,"choice":2,"rt":215.16999998129904,"outcome":1,"trial":7,"correct":2,"trial_type":"three-arm-trial","trial_index":17,"time_elapsed":403481,"internal_node_id":"0.0-13.0-0.0","task_version":"screening-mturk","missing":false,"accuracy":1},{"contexts":["blue","green","red"],"outcomes":[0,0,0],"key":39,"choice":2,"rt":440.9749999176711,"outcome":0,"trial":8,"correct":2,"trial_type":"three-arm-trial","trial_index":18,"time_elapsed":405133,"internal_node_id":"0.0-14.0-0.0","task_version":"screening-mturk","missing":false,"accuracy":1},{"contexts":["blue","green","red"],"outcomes":[0,0,1],"key":38,"choice":1,"rt":144.07000003848225,"outcome":0,"trial":9,"correct":2,"trial_type":"three-arm-trial","trial_index":19,"time_elapsed":406488,"internal_node_id":"0.0-15.0-0.0","task_version":"screening-mturk","missing":false,"accuracy":0},{"contexts":["blue","green","red"],"outcomes":[0,0,1],"key":39,"choice":2,"rt":215.96499998122454,"outcome":1,"trial":10,"correct":2,"trial_type":"three-arm-trial","trial_index":20,"time_elapsed":407914,"internal_node_id":"0.0-16.0-0.0","task_version":"screening-mturk","missing":false,"accuracy":1},{"contexts":["blue","green","red"],"outcomes":[0,0,1],"key":39,"choice":2,"rt":55.554999969899654,"outcome":1,"trial":11,"correct":2,"trial_type":"three-arm-trial","trial_index":21,"time_elapsed":409178,"internal_node_id":"0.0-17.0-0.0","task_version":"screening-mturk","missing":false,"accuracy":1},{"contexts":["blue","green","red"],"outcomes":[1,0,1],"key":37,"choice":0,"rt":12.445000000298023,"outcome":1,"trial":12,"correct":2,"trial_type":"three-arm-trial","trial_index":22,"time_elapsed":410403,"internal_node_id":"0.0-18.0-0.0","task_version":"screening-mturk","missing":false,"accuracy":0},{"contexts":["blue","green","red"],"outcomes":[0,1,1],"key":38,"choice":1,"rt":102.23000007681549,"outcome":1,"trial":13,"correct":2,"trial_type":"three-arm-trial","trial_index":23,"time_elapsed":411711,"internal_node_id":"0.0-19.0-0.0","task_version":"screening-mturk","missing":false,"accuracy":0},{"contexts":["blue","green","red"],"outcomes":[0,0,1],"key":39,"choice":2,"rt":234.23499998170882,"outcome":1,"trial":14,"correct":2,"trial_type":"three-arm-trial","trial_index":24,"time_elapsed":413153,"internal_node_id":"0.0-20.0-0.0","task_version":"screening-mturk","missing":false,"accuracy":1},{"contexts":["blue","green","red"],"outcomes":[0,0,1],"key":38,"choice":1,"rt":106.88500001560897,"outcome":0,"trial":15,"correct":2,"trial_type":"three-arm-trial","trial_index":25,"time_elapsed":414466,"internal_node_id":"0.0-21.0-0.0","task_version":"screening-mturk","missing":false,"accuracy":0},{"contexts":["blue","green","red"],"outcomes":[0,1,0],"key":37,"choice":0,"rt":54.53500000294298,"outcome":0,"trial":16,"correct":1,"trial_type":"three-arm-trial","trial_index":26,"time_elapsed":415728,"internal_node_id":"0.0-22.0-0.0","task_version":"screening-mturk","missing":false,"accuracy":0},{"contexts":["blue","green","red"],"outcomes":[0,1,0],"key":39,"choice":2,"rt":291.49500001221895,"outcome":0,"trial":17,"correct":1,"trial_type":"three-arm-trial","trial_index":27,"time_elapsed":417227,"internal_node_id":"0.0-23.0-0.0","task_version":"screening-mturk","missing":false,"accuracy":0},{"contexts":["blue","green","red"],"outcomes":[0,1,0],"key":39,"choice":2,"rt":778.9900000207126,"outcome":0,"trial":18,"correct":1,"trial_type":"three-arm-trial","trial_index":28,"time_elapsed":419212,"internal_node_id":"0.0-24.0-0.0","task_version":"screening-mturk","missing":false,"accuracy":0},{"contexts":["blue","green","red"],"outcomes":[0,1,0],"key":37,"choice":0,"rt":77.4550000205636,"outcome":0,"trial":19,"correct":1,"trial_type":"three-arm-trial","trial_index":29,"time_elapsed":420496,"internal_node_id":"0.0-25.0-0.0","task_version":"screening-mturk","missing":false,"accuracy":0},{"contexts":["blue","green","red"],"outcomes":[0,0,0],"key":38,"choice":1,"rt":57.53500002902001,"outcome":0,"trial":20,"correct":1,"trial_type":"three-arm-trial","trial_index":30,"time_elapsed":421763,"internal_node_id":"0.0-26.0-0.0","task_version":"screening-mturk","missing":false,"accuracy":1},{"contexts":["blue","green","red"],"outcomes":[1,0,0],"key":39,"choice":2,"rt":200.9899999247864,"outcome":0,"trial":21,"correct":1,"trial_type":"three-arm-trial","trial_index":31,"time_elapsed":423179,"internal_node_id":"0.0-27.0-0.0","task_version":"screening-mturk","missing":false,"accuracy":0},{"contexts":["blue","green","red"],"outcomes":[0,1,0],"key":39,"choice":2,"rt":343.4050000505522,"outcome":0,"trial":22,"correct":1,"trial_type":"three-arm-trial","trial_index":32,"time_elapsed":424728,"internal_node_id":"0.0-28.0-0.0","task_version":"screening-mturk","missing":false,"accuracy":0},{"contexts":["blue","green","red"],"outcomes":[0,1,0],"key":37,"choice":0,"rt":615.9200000111014,"outcome":0,"trial":23,"correct":1,"trial_type":"three-arm-trial","trial_index":33,"time_elapsed":426553,"internal_node_id":"0.0-29.0-0.0","task_version":"screening-mturk","missing":false,"accuracy":0},{"contexts":["blue","green","red"],"outcomes":[0,1,0],"key":38,"choice":1,"rt":1519.77499993518,"outcome":1,"trial":24,"correct":1,"trial_type":"three-arm-trial","trial_index":34,"time_elapsed":429279,"internal_node_id":"0.0-30.0-0.0","task_version":"screening-mturk","missing":false,"accuracy":1},{"contexts":["blue","green","red"],"outcomes":[0,1,0],"key":38,"choice":1,"rt":550.1849999418482,"outcome":1,"trial":25,"correct":1,"trial_type":"three-arm-trial","trial_index":35,"time_elapsed":431040,"internal_node_id":"0.0-31.0-0.0","task_version":"screening-mturk","missing":false,"accuracy":1},{"contexts":["blue","green","red"],"outcomes":[0,1,0],"key":38,"choice":1,"rt":284.37500004656613,"outcome":1,"trial":26,"correct":1,"trial_type":"three-arm-trial","trial_index":36,"time_elapsed":432536,"internal_node_id":"0.0-32.0-0.0","task_version":"screening-mturk","missing":false,"accuracy":1},{"contexts":["blue","green","red"],"outcomes":[0,1,0],"key":38,"choice":1,"rt":296.32500000298023,"outcome":1,"trial":27,"correct":1,"trial_type":"three-arm-trial","trial_index":37,"time_elapsed":434042,"internal_node_id":"0.0-33.0-0.0","task_version":"screening-mturk","missing":false,"accuracy":1},{"contexts":["blue","green","red"],"outcomes":[0,1,0],"key":38,"choice":1,"rt":152.5400000391528,"outcome":1,"trial":28,"correct":1,"trial_type":"three-arm-trial","trial_index":38,"time_elapsed":435402,"internal_node_id":"0.0-34.0-0.0","task_version":"screening-mturk","missing":false,"accuracy":1},{"contexts":["blue","green","red"],"outcomes":[0,1,0],"key":38,"choice":1,"rt":101.5700000571087,"outcome":1,"trial":29,"correct":1,"trial_type":"three-arm-trial","trial_index":39,"time_elapsed":436710,"internal_node_id":"0.0-35.0-0.0","task_version":"screening-mturk","missing":false,"accuracy":1},{"contexts":["blue","green","red"],"outcomes":[0,1,0],"key":38,"choice":1,"rt":384.3450000276789,"outcome":1,"trial":30,"correct":1,"trial_type":"three-arm-trial","trial_index":40,"time_elapsed":438301,"internal_node_id":"0.0-36.0-0.0","task_version":"screening-mturk","missing":false,"accuracy":1},{"contexts":["blue","green","red"],"outcomes":[0,1,1],"key":38,"choice":1,"rt":260.78999997116625,"outcome":1,"trial":31,"correct":2,"trial_type":"three-arm-trial","trial_index":41,"time_elapsed":439775,"internal_node_id":"0.0-37.0-0.0","task_version":"screening-mturk","missing":false,"accuracy":0},{"contexts":["blue","green","red"],"outcomes":[0,1,1],"key":38,"choice":1,"rt":377.28000001516193,"outcome":1,"trial":32,"correct":2,"trial_type":"three-arm-trial","trial_index":42,"time_elapsed":441362,"internal_node_id":"0.0-38.0-0.0","task_version":"screening-mturk","missing":false,"accuracy":0},{"contexts":["blue","green","red"],"outcomes":[0,0,1],"key":38,"choice":1,"rt":89.69499997328967,"outcome":0,"trial":33,"correct":2,"trial_type":"three-arm-trial","trial_index":43,"time_elapsed":442658,"internal_node_id":"0.0-39.0-0.0","task_version":"screening-mturk","missing":false,"accuracy":0},{"contexts":["blue","green","red"],"outcomes":[0,0,1],"key":39,"choice":2,"rt":640.3050000080839,"outcome":1,"trial":34,"correct":2,"trial_type":"three-arm-trial","trial_index":44,"time_elapsed":444511,"internal_node_id":"0.0-40.0-0.0","task_version":"screening-mturk","missing":false,"accuracy":1},{"contexts":["blue","green","red"],"outcomes":[0,0,1],"key":39,"choice":2,"rt":240.62499997671694,"outcome":1,"trial":35,"correct":2,"trial_type":"three-arm-trial","trial_index":45,"time_elapsed":445959,"internal_node_id":"0.0-41.0-0.0","task_version":"screening-mturk","missing":false,"accuracy":1},{"contexts":["blue","green","red"],"outcomes":[1,0,1],"key":39,"choice":2,"rt":362.87000006996095,"outcome":1,"trial":36,"correct":2,"trial_type":"three-arm-trial","trial_index":46,"time_elapsed":447527,"internal_node_id":"0.0-42.0-0.0","task_version":"screening-mturk","missing":false,"accuracy":1},{"contexts":["blue","green","red"],"outcomes":[1,0,1],"key":39,"choice":2,"rt":50.44000002089888,"outcome":1,"trial":37,"correct":2,"trial_type":"three-arm-trial","trial_index":47,"time_elapsed":448792,"internal_node_id":"0.0-43.0-0.0","task_version":"screening-mturk","missing":false,"accuracy":1},{"contexts":["blue","green","red"],"outcomes":[0,0,1],"key":39,"choice":2,"rt":442.9000000236556,"outcome":1,"trial":38,"correct":2,"trial_type":"three-arm-trial","trial_index":48,"time_elapsed":450442,"internal_node_id":"0.0-44.0-0.0","task_version":"screening-mturk","missing":false,"accuracy":1},{"contexts":["blue","green","red"],"outcomes":[0,0,1],"key":39,"choice":2,"rt":184.65499999001622,"outcome":1,"trial":39,"correct":2,"trial_type":"three-arm-trial","trial_index":49,"time_elapsed":451840,"internal_node_id":"0.0-45.0-0.0","task_version":"screening-mturk","missing":false,"accuracy":1},{"contexts":["blue","green","red"],"outcomes":[0,0,1],"key":39,"choice":2,"rt":152.0200000377372,"outcome":1,"trial":40,"correct":2,"trial_type":"three-arm-trial","trial_index":50,"time_elapsed":453203,"internal_node_id":"0.0-46.0-0.0","task_version":"screening-mturk","missing":false,"accuracy":1},{"contexts":["blue","green","red"],"outcomes":[0,0,1],"key":39,"choice":2,"rt":72.43499998003244,"outcome":1,"trial":41,"correct":2,"trial_type":"three-arm-trial","trial_index":51,"time_elapsed":454481,"internal_node_id":"0.0-47.0-0.0","task_version":"screening-mturk","missing":false,"accuracy":1},{"contexts":["blue","green","red"],"outcomes":[0,0,1],"key":39,"choice":2,"rt":290.804999996908,"outcome":1,"trial":42,"correct":2,"trial_type":"three-arm-trial","trial_index":52,"time_elapsed":455985,"internal_node_id":"0.0-48.0-0.0","task_version":"screening-mturk","missing":false,"accuracy":1},{"contexts":["blue","green","red"],"outcomes":[0,1,1],"key":39,"choice":2,"rt":55.554999969899654,"outcome":1,"trial":43,"correct":2,"trial_type":"three-arm-trial","trial_index":53,"time_elapsed":457247,"internal_node_id":"0.0-49.0-0.0","task_version":"screening-mturk","missing":false,"accuracy":1},{"contexts":["blue","green","red"],"outcomes":[0,0,0],"key":39,"choice":2,"rt":188.40999994426966,"outcome":0,"trial":44,"correct":2,"trial_type":"three-arm-trial","trial_index":54,"time_elapsed":458645,"internal_node_id":"0.0-50.0-0.0","task_version":"screening-mturk","missing":false,"accuracy":1},{"contexts":["blue","green","red"],"outcomes":[0,0,1],"key":38,"choice":1,"rt":71.7949999962002,"outcome":0,"trial":45,"correct":2,"trial_type":"three-arm-trial","trial_index":55,"time_elapsed":459929,"internal_node_id":"0.0-51.0-0.0","task_version":"screening-mturk","missing":false,"accuracy":0},{"contexts":["blue","green","red"],"outcomes":[1,1,0],"key":37,"choice":0,"rt":305.85500004235655,"outcome":1,"trial":46,"correct":0,"trial_type":"three-arm-trial","trial_index":56,"time_elapsed":461446,"internal_node_id":"0.0-52.0-0.0","task_version":"screening-mturk","missing":false,"accuracy":1},{"contexts":["blue","green","red"],"outcomes":[1,0,0],"key":37,"choice":0,"rt":134.80999995954335,"outcome":1,"trial":47,"correct":0,"trial_type":"three-arm-trial","trial_index":57,"time_elapsed":462789,"internal_node_id":"0.0-53.0-0.0","task_version":"screening-mturk","missing":false,"accuracy":1},{"contexts":["blue","green","red"],"outcomes":[1,0,0],"key":37,"choice":0,"rt":84.75999999791384,"outcome":1,"trial":48,"correct":0,"trial_type":"three-arm-trial","trial_index":58,"time_elapsed":464081,"internal_node_id":"0.0-54.0-0.0","task_version":"screening-mturk","missing":false,"accuracy":1},{"contexts":["blue","green","red"],"outcomes":[1,0,0],"key":37,"choice":0,"rt":228.86000003200024,"outcome":1,"trial":49,"correct":0,"trial_type":"three-arm-trial","trial_index":59,"time_elapsed":465520,"internal_node_id":"0.0-55.0-0.0","task_version":"screening-mturk","missing":false,"accuracy":1},{"contexts":["blue","green","red"],"outcomes":[1,0,0],"key":37,"choice":0,"rt":274.3000000482425,"outcome":1,"trial":50,"correct":0,"trial_type":"three-arm-trial","trial_index":60,"time_elapsed":467073,"internal_node_id":"0.0-56.0-0.0","task_version":"screening-mturk","missing":false,"accuracy":1},{"contexts":["blue","green","red"],"outcomes":[0,0,0],"key":38,"choice":1,"rt":809.6849999856204,"outcome":0,"trial":51,"correct":0,"trial_type":"three-arm-trial","trial_index":61,"time_elapsed":469090,"internal_node_id":"0.0-57.0-0.0","task_version":"screening-mturk","missing":false,"accuracy":0},{"contexts":["blue","green","red"],"outcomes":[1,0,0],"key":39,"choice":2,"rt":167.77499997988343,"outcome":0,"trial":52,"correct":0,"trial_type":"three-arm-trial","trial_index":62,"time_elapsed":470468,"internal_node_id":"0.0-58.0-0.0","task_version":"screening-mturk","missing":false,"accuracy":0},{"contexts":["blue","green","red"],"outcomes":[1,0,1],"key":37,"choice":0,"rt":165.8450000686571,"outcome":1,"trial":53,"correct":0,"trial_type":"three-arm-trial","trial_index":63,"time_elapsed":471845,"internal_node_id":"0.0-59.0-0.0","task_version":"screening-mturk","missing":false,"accuracy":1},{"contexts":["blue","green","red"],"outcomes":[1,0,0],"key":37,"choice":0,"rt":121.9449999043718,"outcome":1,"trial":54,"correct":0,"trial_type":"three-arm-trial","trial_index":64,"time_elapsed":473174,"internal_node_id":"0.0-60.0-0.0","task_version":"screening-mturk","missing":false,"accuracy":1},{"contexts":["blue","green","red"],"outcomes":[1,0,0],"key":37,"choice":0,"rt":27.72499993443489,"outcome":1,"trial":55,"correct":0,"trial_type":"three-arm-trial","trial_index":65,"time_elapsed":474409,"internal_node_id":"0.0-61.0-0.0","task_version":"screening-mturk","missing":false,"accuracy":1},{"contexts":["blue","green","red"],"outcomes":[1,0,0],"key":37,"choice":0,"rt":247.38499999511987,"outcome":1,"trial":56,"correct":0,"trial_type":"three-arm-trial","trial_index":66,"time_elapsed":475864,"internal_node_id":"0.0-62.0-0.0","task_version":"screening-mturk","missing":false,"accuracy":1},{"contexts":["blue","green","red"],"outcomes":[1,1,0],"key":37,"choice":0,"rt":72.03999999910593,"outcome":1,"trial":57,"correct":0,"trial_type":"three-arm-trial","trial_index":67,"time_elapsed":477143,"internal_node_id":"0.0-63.0-0.0","task_version":"screening-mturk","missing":false,"accuracy":1},{"contexts":["blue","green","red"],"outcomes":[1,1,0],"key":37,"choice":0,"rt":355.6249999674037,"outcome":1,"trial":58,"correct":0,"trial_type":"three-arm-trial","trial_index":68,"time_elapsed":478713,"internal_node_id":"0.0-64.0-0.0","task_version":"screening-mturk","missing":false,"accuracy":1},{"contexts":["blue","green","red"],"outcomes":[1,0,0],"key":37,"choice":0,"rt":47.66499996185303,"outcome":1,"trial":59,"correct":0,"trial_type":"three-arm-trial","trial_index":69,"time_elapsed":479974,"internal_node_id":"0.0-65.0-0.0","task_version":"screening-mturk","missing":false,"accuracy":1},{"contexts":["blue","green","red"],"outcomes":[1,1,0],"key":37,"choice":0,"rt":11.844999971799552,"outcome":1,"trial":60,"correct":0,"trial_type":"three-arm-trial","trial_index":70,"time_elapsed":481191,"internal_node_id":"0.0-66.0-0.0","task_version":"screening-mturk","missing":false,"accuracy":1},{"contexts":["blue","green","red"],"outcomes":[1,0,0],"key":37,"choice":0,"rt":164.60999997798353,"outcome":1,"trial":61,"correct":1,"trial_type":"three-arm-trial","trial_index":71,"time_elapsed":482566,"internal_node_id":"0.0-67.0-0.0","task_version":"screening-mturk","missing":false,"accuracy":0},{"contexts":["blue","green","red"],"outcomes":[1,1,0],"key":37,"choice":0,"rt":214.82999995350838,"outcome":1,"trial":62,"correct":1,"trial_type":"three-arm-trial","trial_index":72,"time_elapsed":483987,"internal_node_id":"0.0-68.0-0.0","task_version":"screening-mturk","missing":false,"accuracy":0},{"contexts":["blue","green","red"],"outcomes":[0,1,0],"key":37,"choice":0,"rt":269.0699999220669,"outcome":0,"trial":63,"correct":1,"trial_type":"three-arm-trial","trial_index":73,"time_elapsed":485461,"internal_node_id":"0.0-69.0-0.0","task_version":"screening-mturk","missing":false,"accuracy":0},{"contexts":["blue","green","red"],"outcomes":[0,1,0],"key":38,"choice":1,"rt":622.2699999343604,"outcome":1,"trial":64,"correct":1,"trial_type":"three-arm-trial","trial_index":74,"time_elapsed":487292,"internal_node_id":"0.0-70.0-0.0","task_version":"screening-mturk","missing":false,"accuracy":1},{"contexts":["blue","green","red"],"outcomes":[0,1,0],"key":38,"choice":1,"rt":229.5199999352917,"outcome":1,"trial":65,"correct":1,"trial_type":"three-arm-trial","trial_index":75,"time_elapsed":488726,"internal_node_id":"0.0-71.0-0.0","task_version":"screening-mturk","missing":false,"accuracy":1},{"contexts":["blue","green","red"],"outcomes":[0,1,1],"key":38,"choice":1,"rt":115.44500000309199,"outcome":1,"trial":66,"correct":1,"trial_type":"three-arm-trial","trial_index":76,"time_elapsed":490051,"internal_node_id":"0.0-72.0-0.0","task_version":"screening-mturk","missing":false,"accuracy":1},{"contexts":["blue","green","red"],"outcomes":[0,0,0],"key":38,"choice":1,"rt":98.59499998856336,"outcome":0,"trial":67,"correct":1,"trial_type":"three-arm-trial","trial_index":77,"time_elapsed":491356,"internal_node_id":"0.0-73.0-0.0","task_version":"screening-mturk","missing":false,"accuracy":1},{"contexts":["blue","green","red"],"outcomes":[0,1,0],"key":39,"choice":2,"rt":129.42500005010515,"outcome":0,"trial":68,"correct":1,"trial_type":"three-arm-trial","trial_index":78,"time_elapsed":492691,"internal_node_id":"0.0-74.0-0.0","task_version":"screening-mturk","missing":false,"accuracy":0},{"contexts":["blue","green","red"],"outcomes":[1,0,0],"key":37,"choice":0,"rt":161.20999993290752,"outcome":1,"trial":69,"correct":1,"trial_type":"three-arm-trial","trial_index":79,"time_elapsed":494061,"internal_node_id":"0.0-75.0-0.0","task_version":"screening-mturk","missing":false,"accuracy":0},{"contexts":["blue","green","red"],"outcomes":[0,1,0],"key":37,"choice":0,"rt":93.20000000298023,"outcome":0,"trial":70,"correct":1,"trial_type":"three-arm-trial","trial_index":80,"time_elapsed":495366,"internal_node_id":"0.0-76.0-0.0","task_version":"screening-mturk","missing":false,"accuracy":0},{"contexts":["blue","green","red"],"outcomes":[0,1,0],"key":38,"choice":1,"rt":637.3150000581518,"outcome":1,"trial":71,"correct":1,"trial_type":"three-arm-trial","trial_index":81,"time_elapsed":497211,"internal_node_id":"0.0-77.0-0.0","task_version":"screening-mturk","missing":false,"accuracy":1},{"contexts":["blue","green","red"],"outcomes":[0,1,0],"key":38,"choice":1,"rt":141.66500000283122,"outcome":1,"trial":72,"correct":1,"trial_type":"three-arm-trial","trial_index":82,"time_elapsed":498562,"internal_node_id":"0.0-78.0-0.0","task_version":"screening-mturk","missing":false,"accuracy":1},{"contexts":["blue","green","red"],"outcomes":[0,1,1],"key":38,"choice":1,"rt":94.19000009074807,"outcome":1,"trial":73,"correct":1,"trial_type":"three-arm-trial","trial_index":83,"time_elapsed":499870,"internal_node_id":"0.0-79.0-0.0","task_version":"screening-mturk","missing":false,"accuracy":1},{"contexts":["blue","green","red"],"outcomes":[0,1,1],"key":38,"choice":1,"rt":331.13499998580664,"outcome":1,"trial":74,"correct":1,"trial_type":"three-arm-trial","trial_index":84,"time_elapsed":501407,"internal_node_id":"0.0-80.0-0.0","task_version":"screening-mturk","missing":false,"accuracy":1},{"contexts":["blue","green","red"],"outcomes":[0,1,0],"key":38,"choice":1,"rt":278.24999997392297,"outcome":1,"trial":75,"correct":1,"trial_type":"three-arm-trial","trial_index":85,"time_elapsed":502893,"internal_node_id":"0.0-81.0-0.0","task_version":"screening-mturk","missing":false,"accuracy":1},{"contexts":["blue","green","red"],"outcomes":[0,1,1],"key":38,"choice":1,"rt":112.68999997992069,"outcome":1,"trial":76,"correct":2,"trial_type":"three-arm-trial","trial_index":86,"time_elapsed":504211,"internal_node_id":"0.0-82.0-0.0","task_version":"screening-mturk","missing":false,"accuracy":0},{"contexts":["blue","green","red"],"outcomes":[0,0,1],"key":38,"choice":1,"rt":226.56999994069338,"outcome":0,"trial":77,"correct":2,"trial_type":"three-arm-trial","trial_index":87,"time_elapsed":505649,"internal_node_id":"0.0-83.0-0.0","task_version":"screening-mturk","missing":false,"accuracy":0},{"contexts":["blue","green","red"],"outcomes":[0,0,0],"key":39,"choice":2,"rt":122.77999997604638,"outcome":0,"trial":78,"correct":2,"trial_type":"three-arm-trial","trial_index":88,"time_elapsed":506986,"internal_node_id":"0.0-84.0-0.0","task_version":"screening-mturk","missing":false,"accuracy":1},{"contexts":["blue","green","red"],"outcomes":[0,1,1],"key":37,"choice":0,"rt":531.2649999978021,"outcome":0,"trial":79,"correct":2,"trial_type":"three-arm-trial","trial_index":89,"time_elapsed":508726,"internal_node_id":"0.0-85.0-0.0","task_version":"screening-mturk","missing":false,"accuracy":0},{"contexts":["blue","green","red"],"outcomes":[0,1,0],"key":38,"choice":1,"rt":221.6550000011921,"outcome":1,"trial":80,"correct":2,"trial_type":"three-arm-trial","trial_index":90,"time_elapsed":510159,"internal_node_id":"0.0-86.0-0.0","task_version":"screening-mturk","missing":false,"accuracy":0},{"contexts":["blue","green","red"],"outcomes":[0,0,1],"key":38,"choice":1,"rt":208.56000005733222,"outcome":0,"trial":81,"correct":2,"trial_type":"three-arm-trial","trial_index":91,"time_elapsed":511575,"internal_node_id":"0.0-87.0-0.0","task_version":"screening-mturk","missing":false,"accuracy":0},{"contexts":["blue","green","red"],"outcomes":[0,1,1],"key":39,"choice":2,"rt":547.60500008706,"outcome":1,"trial":82,"correct":2,"trial_type":"three-arm-trial","trial_index":92,"time_elapsed":513333,"internal_node_id":"0.0-88.0-0.0","task_version":"screening-mturk","missing":false,"accuracy":1},{"contexts":["blue","green","red"],"outcomes":[0,0,1],"key":39,"choice":2,"rt":75.35499997902662,"outcome":1,"trial":83,"correct":2,"trial_type":"three-arm-trial","trial_index":93,"time_elapsed":514620,"internal_node_id":"0.0-89.0-0.0","task_version":"screening-mturk","missing":false,"accuracy":1},{"contexts":["blue","green","red"],"outcomes":[0,1,1],"key":39,"choice":2,"rt":126.46000005770475,"outcome":1,"trial":84,"correct":2,"trial_type":"three-arm-trial","trial_index":94,"time_elapsed":515955,"internal_node_id":"0.0-90.0-0.0","task_version":"screening-mturk","missing":false,"accuracy":1},{"contexts":["blue","green","red"],"outcomes":[0,0,1],"key":39,"choice":2,"rt":232.66500001773238,"outcome":1,"trial":85,"correct":2,"trial_type":"three-arm-trial","trial_index":95,"time_elapsed":517395,"internal_node_id":"0.0-91.0-0.0","task_version":"screening-mturk","missing":false,"accuracy":1},{"contexts":["blue","green","red"],"outcomes":[0,0,0],"key":39,"choice":2,"rt":187.32000002637506,"outcome":0,"trial":86,"correct":2,"trial_type":"three-arm-trial","trial_index":96,"time_elapsed":518788,"internal_node_id":"0.0-92.0-0.0","task_version":"screening-mturk","missing":false,"accuracy":1},{"contexts":["blue","green","red"],"outcomes":[0,0,0],"key":37,"choice":0,"rt":96.59999993164092,"outcome":0,"trial":87,"correct":2,"trial_type":"three-arm-trial","trial_index":97,"time_elapsed":520090,"internal_node_id":"0.0-93.0-0.0","task_version":"screening-mturk","missing":false,"accuracy":0},{"contexts":["blue","green","red"],"outcomes":[1,0,1],"key":38,"choice":1,"rt":26.225000037811697,"outcome":0,"trial":88,"correct":2,"trial_type":"three-arm-trial","trial_index":98,"time_elapsed":521324,"internal_node_id":"0.0-94.0-0.0","task_version":"screening-mturk","missing":false,"accuracy":0},{"contexts":["blue","green","red"],"outcomes":[0,0,1],"key":39,"choice":2,"rt":448.93499999307096,"outcome":1,"trial":89,"correct":2,"trial_type":"three-arm-trial","trial_index":99,"time_elapsed":522982,"internal_node_id":"0.0-95.0-0.0","task_version":"screening-mturk","missing":false,"accuracy":1},{"contexts":["blue","green","red"],"outcomes":[0,1,1],"key":39,"choice":2,"rt":110.82000005990267,"outcome":1,"trial":90,"correct":2,"trial_type":"three-arm-trial","trial_index":100,"time_elapsed":524302,"internal_node_id":"0.0-96.0-0.0","task_version":"screening-mturk","missing":false,"accuracy":1},{"rt":27374.229999957606,"responses":{"age":"28","gender-categorical":"Male","gender-free-response":"","ethnicity":"Not Hispanic or Latino","race":["White"],"language":"Yes","fluency":"Very well","prolific":"No","prolific-this-study":"No"},"survey":"demographics","trial_type":"survey-demo","trial_index":101,"time_elapsed":551692,"internal_node_id":"0.0-97.0","task_version":"screening-mturk","interactions":"[]"}]