[{"responses":{"Q08":"3","Q14":"2","Q11":"2","Q13":"3","Q15":"3","Q01":"2","Q02":"2","Q04":"2","Q03":"3","Q12":"2","Q10":"2","Q07":"2","Q06":"3","Q05":"3","Q09":"2"},"rt":48415.00000000815,"survey":"shaps","trial_type":"survey-template","trial_index":0,"time_elapsed":48441,"internal_node_id":"0.0-0.0","task_version":"screening-mturk"},{"responses":{"Q15":"0","Q06":"0","Q02":"0","Q09":"0","Q04":"0","Q13":"0","Q14":"0","Q10":"0","Q12":"0","Q03":"0","Q05":"0","Q11":"0","Q08":"0","Q07":"0","Q01":"0"},"rt":89904.99999999884,"survey":"7up7down","trial_type":"survey-template","trial_index":1,"time_elapsed":138353,"internal_node_id":"0.0-1.0","task_version":"screening-mturk"},{"responses":{"Q03":"2","Q04":"2","Q11":"2","Q10":"2","Q02":"0","Q08":"2","Q06":"3","Q07":"2","Q09":"2","Q05":"2","Q12":"0","Q01":"0","Q13":"2"},"rt":67320.00000000698,"survey":"bisbas","trial_type":"survey-template","trial_index":2,"time_elapsed":205680,"internal_node_id":"0.0-2.0","task_version":"screening-mturk"},{"responses":{"Q01":"0","Q06":"0","Q08":"0","Q02":"0","Q03":"0","Q07":"0","Q04":"0","Q05":"0"},"rt":14940.000000002328,"survey":"gad7","trial_type":"survey-template","trial_index":3,"time_elapsed":220626,"internal_node_id":"0.0-3.0","task_version":"screening-mturk"},{"responses":{"Q01":"0","Q02":"0","Q03":"0"},"rt":5524.999999994179,"survey":"pswq","trial_type":"survey-template","trial_index":4,"time_elapsed":226155,"internal_node_id":"0.0-4.0","task_version":"screening-mturk"},{"view_history":"[{\"page_index\":0,\"viewing_time\":7110.99999997532},{\"page_index\":1,\"viewing_time\":92.00000000419095},{\"page_index\":2,\"viewing_time\":9201.000000000931},{\"page_index\":3,\"viewing_time\":8184.999999997672},{\"page_index\":4,\"viewing_time\":4251.000000018394},{\"page_index\":5,\"viewing_time\":2600.9999999951106},{\"page_index\":6,\"viewing_time\":3918.0000000051223},{\"page_index\":7,\"viewing_time\":2854.9999999813735}]","rt":38215.9999999858,"trial_type":"instructions","trial_index":5,"time_elapsed":264374,"internal_node_id":"0.0-5.0-0.0","task_version":"screening-mturk"},{"responses":["True","True","True","False","True"],"num_errors":1,"rt":15557.000000000698,"trial_type":"three-arm-comprehension","trial_index":6,"time_elapsed":279934,"internal_node_id":"0.0-5.0-1.0","task_version":"screening-mturk"},{"view_history":"[{\"page_index\":0,\"viewing_time\":3227.000000013504},{\"page_index\":1,\"viewing_time\":5459.999999991851},{\"page_index\":2,\"viewing_time\":4469.000000011874},{\"page_index\":3,\"viewing_time\":2427.9999999853317},{\"page_index\":4,\"viewing_time\":1915.000000008149},{\"page_index\":5,\"viewing_time\":2342.000000004191},{\"page_index\":6,\"viewing_time\":1578.0000000086147},{\"page_index\":7,\"viewing_time\":2054.999999993015}]","rt":23474.00000001653,"trial_type":"instructions","trial_index":7,"time_elapsed":303416,"internal_node_id":"0.0-5.1-0.1","task_version":"screening-mturk"},{"responses":["True","True","False","False","True"],"num_errors":0,"rt":13663.999999989755,"trial_type":"three-arm-comprehension","trial_index":8,"time_elapsed":317085,"internal_node_id":"0.0-5.1-1.1","task_version":"screening-mturk"},{"view_history":"[{\"page_index\":0,\"viewing_time\":1877.0000000076834}]","rt":1877.0000000076834,"trial_type":"instructions","trial_index":9,"time_elapsed":318968,"internal_node_id":"0.0-6.0","task_version":"screening-mturk"},{"contexts":["blue","green","red"],"outcomes":[0,1,0],"key":39,"choice":2,"rt":6320.000000006985,"outcome":0,"trial":1,"correct":0,"trial_type":"three-arm-trial","trial_index":10,"time_elapsed":326494,"internal_node_id":"0.0-7.0-0.0","task_version":"screening-mturk","missing":false,"accuracy":0},{"contexts":["blue","green","red"],"outcomes":[1,1,0],"key":37,"choice":0,"rt":1455.999999976484,"outcome":1,"trial":2,"correct":0,"trial_type":"three-arm-trial","trial_index":11,"time_elapsed":329158,"internal_node_id":"0.0-8.0-0.0","task_version":"screening-mturk","missing":false,"accuracy":1},{"contexts":["blue","green","red"],"outcomes":[1,0,0],"key":37,"choice":0,"rt":1010.999999998603,"outcome":1,"trial":3,"correct":0,"trial_type":"three-arm-trial","trial_index":12,"time_elapsed":331373,"internal_node_id":"0.0-9.0-0.0","task_version":"screening-mturk","missing":false,"accuracy":1},{"contexts":["blue","green","red"],"outcomes":[1,0,0],"key":37,"choice":0,"rt":810.9999999869615,"outcome":1,"trial":4,"correct":0,"trial_type":"three-arm-trial","trial_index":13,"time_elapsed":333389,"internal_node_id":"0.0-10.0-0.0","task_version":"screening-mturk","missing":false,"accuracy":1},{"contexts":["blue","green","red"],"outcomes":[0,1,0],"key":37,"choice":0,"rt":1092.000000004191,"outcome":0,"trial":5,"correct":0,"trial_type":"three-arm-trial","trial_index":14,"time_elapsed":335685,"internal_node_id":"0.0-11.0-0.0","task_version":"screening-mturk","missing":false,"accuracy":1},{"contexts":["blue","green","red"],"outcomes":[1,0,0],"key":37,"choice":0,"rt":866.9999999983702,"outcome":1,"trial":6,"correct":0,"trial_type":"three-arm-trial","trial_index":15,"time_elapsed":337759,"internal_node_id":"0.0-12.0-0.0","task_version":"screening-mturk","missing":false,"accuracy":1},{"contexts":["blue","green","red"],"outcomes":[0,0,1],"key":37,"choice":0,"rt":922.0000000204891,"outcome":0,"trial":7,"correct":0,"trial_type":"three-arm-trial","trial_index":16,"time_elapsed":339886,"internal_node_id":"0.0-13.0-0.0","task_version":"screening-mturk","missing":false,"accuracy":1},{"contexts":["blue","green","red"],"outcomes":[1,0,0],"key":37,"choice":0,"rt":1163.0000000004657,"outcome":1,"trial":8,"correct":0,"trial_type":"three-arm-trial","trial_index":17,"time_elapsed":342252,"internal_node_id":"0.0-14.0-0.0","task_version":"screening-mturk","missing":false,"accuracy":1},{"contexts":["blue","green","red"],"outcomes":[1,0,0],"key":37,"choice":0,"rt":668.9999999944121,"outcome":1,"trial":9,"correct":0,"trial_type":"three-arm-trial","trial_index":18,"time_elapsed":344124,"internal_node_id":"0.0-15.0-0.0","task_version":"screening-mturk","missing":false,"accuracy":1},{"contexts":["blue","green","red"],"outcomes":[1,0,0],"key":37,"choice":0,"rt":842.9999999934807,"outcome":1,"trial":10,"correct":0,"trial_type":"three-arm-trial","trial_index":19,"time_elapsed":346174,"internal_node_id":"0.0-16.0-0.0","task_version":"screening-mturk","missing":false,"accuracy":1},{"contexts":["blue","green","red"],"outcomes":[0,1,0],"key":37,"choice":0,"rt":688.9999999839347,"outcome":0,"trial":11,"correct":0,"trial_type":"three-arm-trial","trial_index":20,"time_elapsed":348069,"internal_node_id":"0.0-17.0-0.0","task_version":"screening-mturk","missing":false,"accuracy":1},{"contexts":["blue","green","red"],"outcomes":[1,0,0],"key":37,"choice":0,"rt":635.0000000093132,"outcome":1,"trial":12,"correct":0,"trial_type":"three-arm-trial","trial_index":21,"time_elapsed":349909,"internal_node_id":"0.0-18.0-0.0","task_version":"screening-mturk","missing":false,"accuracy":1},{"contexts":["blue","green","red"],"outcomes":[0,0,0],"key":37,"choice":0,"rt":739.000000001397,"outcome":0,"trial":13,"correct":0,"trial_type":"three-arm-trial","trial_index":22,"time_elapsed":351852,"internal_node_id":"0.0-19.0-0.0","task_version":"screening-mturk","missing":false,"accuracy":1},{"contexts":["blue","green","red"],"outcomes":[1,0,0],"key":37,"choice":0,"rt":907.999999995809,"outcome":1,"trial":14,"correct":0,"trial_type":"three-arm-trial","trial_index":23,"time_elapsed":353966,"internal_node_id":"0.0-20.0-0.0","task_version":"screening-mturk","missing":false,"accuracy":1},{"contexts":["blue","green","red"],"outcomes":[0,0,0],"key":37,"choice":0,"rt":739.000000001397,"outcome":0,"trial":15,"correct":0,"trial_type":"three-arm-trial","trial_index":24,"time_elapsed":355908,"internal_node_id":"0.0-21.0-0.0","task_version":"screening-mturk","missing":false,"accuracy":1},{"contexts":["blue","green","red"],"outcomes":[1,1,1],"key":37,"choice":0,"rt":541.9999999867287,"outcome":1,"trial":16,"correct":2,"trial_type":"three-arm-trial","trial_index":25,"time_elapsed":357655,"internal_node_id":"0.0-22.0-0.0","task_version":"screening-mturk","missing":false,"accuracy":0},{"contexts":["blue","green","red"],"outcomes":[0,0,0],"key":38,"choice":1,"rt":576.9999999902211,"outcome":0,"trial":17,"correct":2,"trial_type":"three-arm-trial","trial_index":26,"time_elapsed":359436,"internal_node_id":"0.0-23.0-0.0","task_version":"screening-mturk","missing":false,"accuracy":0},{"contexts":["blue","green","red"],"outcomes":[0,0,1],"key":37,"choice":0,"rt":4244.000000006054,"outcome":0,"trial":18,"correct":2,"trial_type":"three-arm-trial","trial_index":27,"time_elapsed":364885,"internal_node_id":"0.0-24.0-0.0","task_version":"screening-mturk","missing":false,"accuracy":0},{"contexts":["blue","green","red"],"outcomes":[0,0,1],"key":39,"choice":2,"rt":722.0000000088476,"outcome":1,"trial":19,"correct":2,"trial_type":"three-arm-trial","trial_index":28,"time_elapsed":366811,"internal_node_id":"0.0-25.0-0.0","task_version":"screening-mturk","missing":false,"accuracy":1},{"contexts":["blue","green","red"],"outcomes":[0,0,1],"key":39,"choice":2,"rt":853.000000002794,"outcome":1,"trial":20,"correct":2,"trial_type":"three-arm-trial","trial_index":29,"time_elapsed":368869,"internal_node_id":"0.0-26.0-0.0","task_version":"screening-mturk","missing":false,"accuracy":1},{"contexts":["blue","green","red"],"outcomes":[0,1,1],"key":39,"choice":2,"rt":644.0000000002328,"outcome":1,"trial":21,"correct":2,"trial_type":"three-arm-trial","trial_index":30,"time_elapsed":370718,"internal_node_id":"0.0-27.0-0.0","task_version":"screening-mturk","missing":false,"accuracy":1},{"contexts":["blue","green","red"],"outcomes":[0,0,1],"key":38,"choice":1,"rt":955.0000000162981,"outcome":0,"trial":22,"correct":2,"trial_type":"three-arm-trial","trial_index":31,"time_elapsed":372876,"internal_node_id":"0.0-28.0-0.0","task_version":"screening-mturk","missing":false,"accuracy":0},{"contexts":["blue","green","red"],"outcomes":[0,1,1],"key":38,"choice":1,"rt":733.0000000074506,"outcome":1,"trial":23,"correct":2,"trial_type":"three-arm-trial","trial_index":32,"time_elapsed":374811,"internal_node_id":"0.0-29.0-0.0","task_version":"screening-mturk","missing":false,"accuracy":0},{"contexts":["blue","green","red"],"outcomes":[1,1,1],"key":38,"choice":1,"rt":573.0000000039581,"outcome":1,"trial":24,"correct":2,"trial_type":"three-arm-trial","trial_index":33,"time_elapsed":376589,"internal_node_id":"0.0-30.0-0.0","task_version":"screening-mturk","missing":false,"accuracy":0},{"contexts":["blue","green","red"],"outcomes":[0,0,1],"key":37,"choice":0,"rt":2348.999999987427,"outcome":0,"trial":25,"correct":2,"trial_type":"three-arm-trial","trial_index":34,"time_elapsed":380142,"internal_node_id":"0.0-31.0-0.0","task_version":"screening-mturk","missing":false,"accuracy":0},{"contexts":["blue","green","red"],"outcomes":[0,0,1],"key":37,"choice":0,"rt":642.9999999818392,"outcome":0,"trial":26,"correct":2,"trial_type":"three-arm-trial","trial_index":35,"time_elapsed":381989,"internal_node_id":"0.0-32.0-0.0","task_version":"screening-mturk","missing":false,"accuracy":0},{"contexts":["blue","green","red"],"outcomes":[0,0,1],"key":37,"choice":0,"rt":460.9999999811407,"outcome":0,"trial":27,"correct":2,"trial_type":"three-arm-trial","trial_index":36,"time_elapsed":383654,"internal_node_id":"0.0-33.0-0.0","task_version":"screening-mturk","missing":false,"accuracy":0},{"contexts":["blue","green","red"],"outcomes":[1,1,1],"key":39,"choice":2,"rt":562.9999999946449,"outcome":1,"trial":28,"correct":2,"trial_type":"three-arm-trial","trial_index":37,"time_elapsed":385421,"internal_node_id":"0.0-34.0-0.0","task_version":"screening-mturk","missing":false,"accuracy":1},{"contexts":["blue","green","red"],"outcomes":[1,0,1],"key":39,"choice":2,"rt":491.9999999983702,"outcome":1,"trial":29,"correct":2,"trial_type":"three-arm-trial","trial_index":38,"time_elapsed":387116,"internal_node_id":"0.0-35.0-0.0","task_version":"screening-mturk","missing":false,"accuracy":1},{"contexts":["blue","green","red"],"outcomes":[0,0,1],"key":39,"choice":2,"rt":486.0000000044238,"outcome":1,"trial":30,"correct":2,"trial_type":"three-arm-trial","trial_index":39,"time_elapsed":388805,"internal_node_id":"0.0-36.0-0.0","task_version":"screening-mturk","missing":false,"accuracy":1},{"contexts":["blue","green","red"],"outcomes":[1,1,0],"key":39,"choice":2,"rt":260.999999998603,"outcome":0,"trial":31,"correct":0,"trial_type":"three-arm-trial","trial_index":40,"time_elapsed":390270,"internal_node_id":"0.0-37.0-0.0","task_version":"screening-mturk","missing":false,"accuracy":0},{"contexts":["blue","green","red"],"outcomes":[1,0,0],"key":38,"choice":1,"rt":89.99999999650754,"outcome":0,"trial":32,"correct":0,"trial_type":"three-arm-trial","trial_index":41,"time_elapsed":391565,"internal_node_id":"0.0-38.0-0.0","task_version":"screening-mturk","missing":false,"accuracy":0},{"contexts":["blue","green","red"],"outcomes":[1,0,0],"key":38,"choice":1,"rt":556.0000000114087,"outcome":0,"trial":33,"correct":0,"trial_type":"three-arm-trial","trial_index":42,"time_elapsed":393324,"internal_node_id":"0.0-39.0-0.0","task_version":"screening-mturk","missing":false,"accuracy":0},{"contexts":["blue","green","red"],"outcomes":[1,0,0],"key":38,"choice":1,"rt":999.0000000107102,"outcome":0,"trial":34,"correct":0,"trial_type":"three-arm-trial","trial_index":43,"time_elapsed":395526,"internal_node_id":"0.0-40.0-0.0","task_version":"screening-mturk","missing":false,"accuracy":0},{"contexts":["blue","green","red"],"outcomes":[1,0,0],"key":37,"choice":0,"rt":489.9999999906868,"outcome":1,"trial":35,"correct":0,"trial_type":"three-arm-trial","trial_index":44,"time_elapsed":397220,"internal_node_id":"0.0-41.0-0.0","task_version":"screening-mturk","missing":false,"accuracy":1},{"contexts":["blue","green","red"],"outcomes":[1,0,0],"key":37,"choice":0,"rt":788.9999999897555,"outcome":1,"trial":36,"correct":0,"trial_type":"three-arm-trial","trial_index":45,"time_elapsed":399213,"internal_node_id":"0.0-42.0-0.0","task_version":"screening-mturk","missing":false,"accuracy":1},{"contexts":["blue","green","red"],"outcomes":[1,0,0],"key":37,"choice":0,"rt":602.0000000135042,"outcome":1,"trial":37,"correct":0,"trial_type":"three-arm-trial","trial_index":46,"time_elapsed":401021,"internal_node_id":"0.0-43.0-0.0","task_version":"screening-mturk","missing":false,"accuracy":1},{"contexts":["blue","green","red"],"outcomes":[1,0,0],"key":37,"choice":0,"rt":515.9999999741558,"outcome":1,"trial":38,"correct":0,"trial_type":"three-arm-trial","trial_index":47,"time_elapsed":402739,"internal_node_id":"0.0-44.0-0.0","task_version":"screening-mturk","missing":false,"accuracy":1},{"contexts":["blue","green","red"],"outcomes":[1,0,0],"key":37,"choice":0,"rt":509.00000002002344,"outcome":1,"trial":39,"correct":0,"trial_type":"three-arm-trial","trial_index":48,"time_elapsed":404457,"internal_node_id":"0.0-45.0-0.0","task_version":"screening-mturk","missing":false,"accuracy":1},{"contexts":["blue","green","red"],"outcomes":[1,0,1],"key":37,"choice":0,"rt":582.9999999841675,"outcome":1,"trial":40,"correct":0,"trial_type":"three-arm-trial","trial_index":49,"time_elapsed":406244,"internal_node_id":"0.0-46.0-0.0","task_version":"screening-mturk","missing":false,"accuracy":1},{"contexts":["blue","green","red"],"outcomes":[1,0,0],"key":37,"choice":0,"rt":503.999999986263,"outcome":1,"trial":41,"correct":0,"trial_type":"three-arm-trial","trial_index":50,"time_elapsed":407951,"internal_node_id":"0.0-47.0-0.0","task_version":"screening-mturk","missing":false,"accuracy":1},{"contexts":["blue","green","red"],"outcomes":[0,0,0],"key":37,"choice":0,"rt":521.0000000079162,"outcome":0,"trial":42,"correct":0,"trial_type":"three-arm-trial","trial_index":51,"time_elapsed":409677,"internal_node_id":"0.0-48.0-0.0","task_version":"screening-mturk","missing":false,"accuracy":1},{"contexts":["blue","green","red"],"outcomes":[1,0,1],"key":39,"choice":2,"rt":85.00000002095476,"outcome":1,"trial":43,"correct":0,"trial_type":"three-arm-trial","trial_index":52,"time_elapsed":410965,"internal_node_id":"0.0-49.0-0.0","task_version":"screening-mturk","missing":false,"accuracy":0},{"contexts":["blue","green","red"],"outcomes":[1,0,1],"key":39,"choice":2,"rt":885.0000000093132,"outcome":1,"trial":44,"correct":0,"trial_type":"three-arm-trial","trial_index":53,"time_elapsed":413054,"internal_node_id":"0.0-50.0-0.0","task_version":"screening-mturk","missing":false,"accuracy":0},{"contexts":["blue","green","red"],"outcomes":[1,0,1],"key":39,"choice":2,"rt":532.999999995809,"outcome":1,"trial":45,"correct":0,"trial_type":"three-arm-trial","trial_index":54,"time_elapsed":414790,"internal_node_id":"0.0-51.0-0.0","task_version":"screening-mturk","missing":false,"accuracy":0},{"contexts":["blue","green","red"],"outcomes":[0,0,1],"key":39,"choice":2,"rt":419.99999998370185,"outcome":1,"trial":46,"correct":2,"trial_type":"three-arm-trial","trial_index":55,"time_elapsed":416415,"internal_node_id":"0.0-52.0-0.0","task_version":"screening-mturk","missing":false,"accuracy":1},{"contexts":["blue","green","red"],"outcomes":[0,0,0],"key":39,"choice":2,"rt":464.99999999650754,"outcome":0,"trial":47,"correct":2,"trial_type":"three-arm-trial","trial_index":56,"time_elapsed":418086,"internal_node_id":"0.0-53.0-0.0","task_version":"screening-mturk","missing":false,"accuracy":1},{"contexts":["blue","green","red"],"outcomes":[1,0,0],"key":38,"choice":1,"rt":98.99999998742715,"outcome":0,"trial":48,"correct":2,"trial_type":"three-arm-trial","trial_index":57,"time_elapsed":419393,"internal_node_id":"0.0-54.0-0.0","task_version":"screening-mturk","missing":false,"accuracy":0},{"contexts":["blue","green","red"],"outcomes":[1,1,1],"key":38,"choice":1,"rt":676.9999999960419,"outcome":1,"trial":49,"correct":2,"trial_type":"three-arm-trial","trial_index":58,"time_elapsed":421277,"internal_node_id":"0.0-55.0-0.0","task_version":"screening-mturk","missing":false,"accuracy":0},{"contexts":["blue","green","red"],"outcomes":[0,0,0],"key":38,"choice":1,"rt":763.9999999955762,"outcome":0,"trial":50,"correct":2,"trial_type":"three-arm-trial","trial_index":59,"time_elapsed":423244,"internal_node_id":"0.0-56.0-0.0","task_version":"screening-mturk","missing":false,"accuracy":0},{"contexts":["blue","green","red"],"outcomes":[1,1,1],"key":38,"choice":1,"rt":989.9999999906868,"outcome":1,"trial":51,"correct":2,"trial_type":"three-arm-trial","trial_index":60,"time_elapsed":425437,"internal_node_id":"0.0-57.0-0.0","task_version":"screening-mturk","missing":false,"accuracy":0},{"contexts":["blue","green","red"],"outcomes":[0,1,1],"key":38,"choice":1,"rt":643.000000010943,"outcome":1,"trial":52,"correct":2,"trial_type":"three-arm-trial","trial_index":61,"time_elapsed":427284,"internal_node_id":"0.0-58.0-0.0","task_version":"screening-mturk","missing":false,"accuracy":0},{"contexts":["blue","green","red"],"outcomes":[0,0,0],"key":38,"choice":1,"rt":638.9999999955762,"outcome":0,"trial":53,"correct":2,"trial_type":"three-arm-trial","trial_index":62,"time_elapsed":429127,"internal_node_id":"0.0-59.0-0.0","task_version":"screening-mturk","missing":false,"accuracy":0},{"contexts":["blue","green","red"],"outcomes":[0,0,1],"key":37,"choice":0,"rt":745.9999999846332,"outcome":0,"trial":54,"correct":2,"trial_type":"three-arm-trial","trial_index":63,"time_elapsed":431077,"internal_node_id":"0.0-60.0-0.0","task_version":"screening-mturk","missing":false,"accuracy":0},{"contexts":["blue","green","red"],"outcomes":[1,0,0],"key":37,"choice":0,"rt":38.00000000046566,"outcome":1,"trial":55,"correct":2,"trial_type":"three-arm-trial","trial_index":64,"time_elapsed":432318,"internal_node_id":"0.0-61.0-0.0","task_version":"screening-mturk","missing":false,"accuracy":0},{"contexts":["blue","green","red"],"outcomes":[0,0,1],"key":37,"choice":0,"rt":585.9999999811407,"outcome":0,"trial":56,"correct":2,"trial_type":"three-arm-trial","trial_index":65,"time_elapsed":434109,"internal_node_id":"0.0-62.0-0.0","task_version":"screening-mturk","missing":false,"accuracy":0},{"contexts":["blue","green","red"],"outcomes":[0,0,1],"key":37,"choice":0,"rt":522.9999999864958,"outcome":0,"trial":57,"correct":2,"trial_type":"three-arm-trial","trial_index":66,"time_elapsed":435837,"internal_node_id":"0.0-63.0-0.0","task_version":"screening-mturk","missing":false,"accuracy":0},{"contexts":["blue","green","red"],"outcomes":[0,0,1],"key":39,"choice":2,"rt":1132.999999972526,"outcome":1,"trial":58,"correct":2,"trial_type":"three-arm-trial","trial_index":67,"time_elapsed":438175,"internal_node_id":"0.0-64.0-0.0","task_version":"screening-mturk","missing":false,"accuracy":1},{"contexts":["blue","green","red"],"outcomes":[0,1,1],"key":39,"choice":2,"rt":448.9999999932479,"outcome":1,"trial":59,"correct":2,"trial_type":"three-arm-trial","trial_index":68,"time_elapsed":439827,"internal_node_id":"0.0-65.0-0.0","task_version":"screening-mturk","missing":false,"accuracy":1},{"contexts":["blue","green","red"],"outcomes":[0,0,1],"key":39,"choice":2,"rt":472.00000000884756,"outcome":1,"trial":60,"correct":2,"trial_type":"three-arm-trial","trial_index":69,"time_elapsed":441503,"internal_node_id":"0.0-66.0-0.0","task_version":"screening-mturk","missing":false,"accuracy":1},{"contexts":["blue","green","red"],"outcomes":[0,1,0],"key":39,"choice":2,"rt":491.9999999983702,"outcome":0,"trial":61,"correct":1,"trial_type":"three-arm-trial","trial_index":70,"time_elapsed":443200,"internal_node_id":"0.0-67.0-0.0","task_version":"screening-mturk","missing":false,"accuracy":0},{"contexts":["blue","green","red"],"outcomes":[0,1,0],"key":38,"choice":1,"rt":880.9999999939464,"outcome":1,"trial":62,"correct":1,"trial_type":"three-arm-trial","trial_index":71,"time_elapsed":445285,"internal_node_id":"0.0-68.0-0.0","task_version":"screening-mturk","missing":false,"accuracy":1},{"contexts":["blue","green","red"],"outcomes":[0,1,0],"key":38,"choice":1,"rt":567.9999999993015,"outcome":1,"trial":63,"correct":1,"trial_type":"three-arm-trial","trial_index":72,"time_elapsed":447057,"internal_node_id":"0.0-69.0-0.0","task_version":"screening-mturk","missing":false,"accuracy":1},{"contexts":["blue","green","red"],"outcomes":[0,1,0],"key":38,"choice":1,"rt":641.0000000032596,"outcome":1,"trial":64,"correct":1,"trial_type":"three-arm-trial","trial_index":73,"time_elapsed":448902,"internal_node_id":"0.0-70.0-0.0","task_version":"screening-mturk","missing":false,"accuracy":1},{"contexts":["blue","green","red"],"outcomes":[0,1,0],"key":38,"choice":1,"rt":546.9999999913853,"outcome":1,"trial":65,"correct":1,"trial_type":"three-arm-trial","trial_index":74,"time_elapsed":450651,"internal_node_id":"0.0-71.0-0.0","task_version":"screening-mturk","missing":false,"accuracy":1},{"contexts":["blue","green","red"],"outcomes":[0,1,0],"key":38,"choice":1,"rt":592.000000004191,"outcome":1,"trial":66,"correct":1,"trial_type":"three-arm-trial","trial_index":75,"time_elapsed":452447,"internal_node_id":"0.0-72.0-0.0","task_version":"screening-mturk","missing":false,"accuracy":1},{"contexts":["blue","green","red"],"outcomes":[0,0,0],"key":38,"choice":1,"rt":624.0000000107102,"outcome":0,"trial":67,"correct":1,"trial_type":"three-arm-trial","trial_index":76,"time_elapsed":454278,"internal_node_id":"0.0-73.0-0.0","task_version":"screening-mturk","missing":false,"accuracy":1},{"contexts":["blue","green","red"],"outcomes":[0,1,0],"key":37,"choice":0,"rt":603.000000002794,"outcome":0,"trial":68,"correct":1,"trial_type":"three-arm-trial","trial_index":77,"time_elapsed":456084,"internal_node_id":"0.0-74.0-0.0","task_version":"screening-mturk","missing":false,"accuracy":0},{"contexts":["blue","green","red"],"outcomes":[0,1,0],"key":37,"choice":0,"rt":522.9999999864958,"outcome":0,"trial":69,"correct":1,"trial_type":"three-arm-trial","trial_index":78,"time_elapsed":457816,"internal_node_id":"0.0-75.0-0.0","task_version":"screening-mturk","missing":false,"accuracy":0},{"contexts":["blue","green","red"],"outcomes":[0,1,0],"key":37,"choice":0,"rt":448.0000000039581,"outcome":0,"trial":70,"correct":1,"trial_type":"three-arm-trial","trial_index":79,"time_elapsed":459469,"internal_node_id":"0.0-76.0-0.0","task_version":"screening-mturk","missing":false,"accuracy":0},{"contexts":["blue","green","red"],"outcomes":[0,1,1],"key":39,"choice":2,"rt":627.9999999969732,"outcome":1,"trial":71,"correct":1,"trial_type":"three-arm-trial","trial_index":80,"time_elapsed":461301,"internal_node_id":"0.0-77.0-0.0","task_version":"screening-mturk","missing":false,"accuracy":0},{"contexts":["blue","green","red"],"outcomes":[0,1,0],"key":39,"choice":2,"rt":578.9999999979045,"outcome":0,"trial":72,"correct":1,"trial_type":"three-arm-trial","trial_index":81,"time_elapsed":463083,"internal_node_id":"0.0-78.0-0.0","task_version":"screening-mturk","missing":false,"accuracy":0},{"contexts":["blue","green","red"],"outcomes":[0,1,0],"key":39,"choice":2,"rt":482.0000000181608,"outcome":0,"trial":73,"correct":1,"trial_type":"three-arm-trial","trial_index":82,"time_elapsed":464771,"internal_node_id":"0.0-79.0-0.0","task_version":"screening-mturk","missing":false,"accuracy":0},{"contexts":["blue","green","red"],"outcomes":[1,1,1],"key":39,"choice":2,"rt":502.0000000076834,"outcome":1,"trial":74,"correct":1,"trial_type":"three-arm-trial","trial_index":83,"time_elapsed":466479,"internal_node_id":"0.0-80.0-0.0","task_version":"screening-mturk","missing":false,"accuracy":0},{"contexts":["blue","green","red"],"outcomes":[0,1,0],"key":39,"choice":2,"rt":432.9999999899883,"outcome":0,"trial":75,"correct":1,"trial_type":"three-arm-trial","trial_index":84,"time_elapsed":468115,"internal_node_id":"0.0-81.0-0.0","task_version":"screening-mturk","missing":false,"accuracy":0},{"contexts":["blue","green","red"],"outcomes":[0,1,0],"key":38,"choice":1,"rt":422.0000000204891,"outcome":1,"trial":76,"correct":0,"trial_type":"three-arm-trial","trial_index":85,"time_elapsed":469741,"internal_node_id":"0.0-82.0-0.0","task_version":"screening-mturk","missing":false,"accuracy":0},{"contexts":["blue","green","red"],"outcomes":[1,1,1],"key":38,"choice":1,"rt":690.9999999916181,"outcome":1,"trial":77,"correct":0,"trial_type":"three-arm-trial","trial_index":86,"time_elapsed":471636,"internal_node_id":"0.0-83.0-0.0","task_version":"screening-mturk","missing":false,"accuracy":0},{"contexts":["blue","green","red"],"outcomes":[1,0,0],"key":38,"choice":1,"rt":539.0000000188593,"outcome":0,"trial":78,"correct":0,"trial_type":"three-arm-trial","trial_index":87,"time_elapsed":473382,"internal_node_id":"0.0-84.0-0.0","task_version":"screening-mturk","missing":false,"accuracy":0},{"contexts":["blue","green","red"],"outcomes":[1,1,0],"key":38,"choice":1,"rt":763.9999999955762,"outcome":1,"trial":79,"correct":0,"trial_type":"three-arm-trial","trial_index":88,"time_elapsed":475386,"internal_node_id":"0.0-85.0-0.0","task_version":"screening-mturk","missing":false,"accuracy":0},{"contexts":["blue","green","red"],"outcomes":[1,0,0],"key":38,"choice":1,"rt":726.9999999844003,"outcome":0,"trial":80,"correct":0,"trial_type":"three-arm-trial","trial_index":89,"time_elapsed":477324,"internal_node_id":"0.0-86.0-0.0","task_version":"screening-mturk","missing":false,"accuracy":0},{"contexts":["blue","green","red"],"outcomes":[1,0,0],"key":38,"choice":1,"rt":691.9999999809079,"outcome":0,"trial":81,"correct":0,"trial_type":"three-arm-trial","trial_index":90,"time_elapsed":479220,"internal_node_id":"0.0-87.0-0.0","task_version":"screening-mturk","missing":false,"accuracy":0},{"contexts":["blue","green","red"],"outcomes":[0,0,0],"key":37,"choice":0,"rt":540.0000000081491,"outcome":0,"trial":82,"correct":0,"trial_type":"three-arm-trial","trial_index":91,"time_elapsed":480966,"internal_node_id":"0.0-88.0-0.0","task_version":"screening-mturk","missing":false,"accuracy":1},{"contexts":["blue","green","red"],"outcomes":[0,0,0],"key":37,"choice":0,"rt":641.9999999925494,"outcome":0,"trial":83,"correct":0,"trial_type":"three-arm-trial","trial_index":92,"time_elapsed":482813,"internal_node_id":"0.0-89.0-0.0","task_version":"screening-mturk","missing":false,"accuracy":1},{"contexts":["blue","green","red"],"outcomes":[1,1,0],"key":37,"choice":0,"rt":596.9999999797437,"outcome":1,"trial":84,"correct":0,"trial_type":"three-arm-trial","trial_index":93,"time_elapsed":484614,"internal_node_id":"0.0-90.0-0.0","task_version":"screening-mturk","missing":false,"accuracy":1},{"contexts":["blue","green","red"],"outcomes":[1,0,0],"key":37,"choice":0,"rt":777.0000000018626,"outcome":1,"trial":85,"correct":0,"trial_type":"three-arm-trial","trial_index":94,"time_elapsed":486595,"internal_node_id":"0.0-91.0-0.0","task_version":"screening-mturk","missing":false,"accuracy":1},{"contexts":["blue","green","red"],"outcomes":[1,0,0],"key":37,"choice":0,"rt":909.0000000142027,"outcome":1,"trial":86,"correct":0,"trial_type":"three-arm-trial","trial_index":95,"time_elapsed":488708,"internal_node_id":"0.0-92.0-0.0","task_version":"screening-mturk","missing":false,"accuracy":1},{"contexts":["blue","green","red"],"outcomes":[1,0,0],"key":37,"choice":0,"rt":660.0000000034925,"outcome":1,"trial":87,"correct":0,"trial_type":"three-arm-trial","trial_index":96,"time_elapsed":490572,"internal_node_id":"0.0-93.0-0.0","task_version":"screening-mturk","missing":false,"accuracy":1},{"contexts":["blue","green","red"],"outcomes":[1,0,0],"key":37,"choice":0,"rt":653.9999999804422,"outcome":1,"trial":88,"correct":0,"trial_type":"three-arm-trial","trial_index":97,"time_elapsed":492430,"internal_node_id":"0.0-94.0-0.0","task_version":"screening-mturk","missing":false,"accuracy":1},{"contexts":["blue","green","red"],"outcomes":[1,0,0],"key":37,"choice":0,"rt":714.0000000072177,"outcome":1,"trial":89,"correct":0,"trial_type":"three-arm-trial","trial_index":98,"time_elapsed":494347,"internal_node_id":"0.0-95.0-0.0","task_version":"screening-mturk","missing":false,"accuracy":1},{"contexts":["blue","green","red"],"outcomes":[1,0,0],"key":37,"choice":0,"rt":654.9999999988358,"outcome":1,"trial":90,"correct":0,"trial_type":"three-arm-trial","trial_index":99,"time_elapsed":496204,"internal_node_id":"0.0-96.0-0.0","task_version":"screening-mturk","missing":false,"accuracy":1},{"rt":18277.000000001863,"responses":{"age":"27","gender-categorical":"Female","gender-free-response":"","ethnicity":"Not Hispanic or Latino","race":["White"],"language":"Yes","fluency":"Very well","prolific":"No","prolific-this-study":"No"},"survey":"demographics","trial_type":"survey-demo","trial_index":100,"time_elapsed":514495,"internal_node_id":"0.0-97.0","task_version":"screening-mturk","interactions":"[]"}]