[{"responses":{"Q03":"3","Q01":"4","Q02":"3"},"rt":36021.999999997206,"survey":"pswq","trial_type":"survey-template","trial_index":0,"time_elapsed":36115,"internal_node_id":"0.0-0.0","task_version":"screening-mturk"},{"responses":{"Q10":"2","Q11":"3","Q13":"2","Q06":"3","Q09":"2","Q08":"3","Q05":"2","Q04":"3","Q03":"2","Q12":"3","Q01":"2","Q02":"3","Q07":"2"},"rt":27871.00000004284,"survey":"bisbas","trial_type":"survey-template","trial_index":1,"time_elapsed":63994,"internal_node_id":"0.0-1.0","task_version":"screening-mturk"},{"responses":{"Q15":"2","Q04":"3","Q03":"2","Q08":"2","Q09":"3","Q01":"2","Q05":"3","Q07":"2","Q12":"2","Q06":"3","Q13":"2","Q10":"3","Q11":"2","Q14":"3","Q02":"2"},"rt":30496.999999973923,"survey":"7up7down","trial_type":"survey-template","trial_index":2,"time_elapsed":94503,"internal_node_id":"0.0-2.0","task_version":"screening-mturk"},{"responses":{"Q08":"2","Q02":"3","Q04":"2","Q06":"3","Q07":"2","Q05":"2","Q03":"3","Q01":"2"},"rt":14513.999999966472,"survey":"gad7","trial_type":"survey-template","trial_index":3,"time_elapsed":109025,"internal_node_id":"0.0-3.0","task_version":"screening-mturk"},{"responses":{"Q03":"2","Q11":"3","Q14":"2","Q15":"2","Q08":"3","Q12":"2","Q04":"3","Q02":"2","Q10":"2","Q06":"3","Q05":"2","Q13":"3","Q07":"2","Q01":"3","Q09":"2"},"rt":33386.00000005681,"survey":"shaps","trial_type":"survey-template","trial_index":4,"time_elapsed":142420,"internal_node_id":"0.0-4.0","task_version":"screening-mturk"},{"view_history":"[{\"page_index\":0,\"viewing_time\":8479.000000050291},{\"page_index\":1,\"viewing_time\":6005.000000004657},{\"page_index\":2,\"viewing_time\":13114.999999990687},{\"page_index\":3,\"viewing_time\":3588.9999999199063},{\"page_index\":2,\"viewing_time\":1823.0000000912696},{\"page_index\":3,\"viewing_time\":4346.99999995064},{\"page_index\":4,\"viewing_time\":1445.9999999962747},{\"page_index\":5,\"viewing_time\":2081.000000005588},{\"page_index\":6,\"viewing_time\":1672.9999999515712},{\"page_index\":7,\"viewing_time\":1819.0000000176951}]","rt":44378.99999995716,"trial_type":"instructions","trial_index":5,"time_elapsed":186803,"internal_node_id":"0.0-5.0-0.0","task_version":"screening-mturk"},{"responses":["True","True","True","True","True"],"num_errors":2,"rt":12366.999999969266,"trial_type":"three-arm-comprehension","trial_index":6,"time_elapsed":199179,"internal_node_id":"0.0-5.0-1.0","task_version":"screening-mturk"},{"view_history":"[{\"page_index\":0,\"viewing_time\":1962.9999999888241},{\"page_index\":1,\"viewing_time\":675.0000000465661},{\"page_index\":2,\"viewing_time\":636.9999999878928},{\"page_index\":3,\"viewing_time\":1131.000000052154},{\"page_index\":4,\"viewing_time\":2671.999999904074},{\"page_index\":5,\"viewing_time\":847.9999999981374},{\"page_index\":6,\"viewing_time\":689.0000000130385},{\"page_index\":7,\"viewing_time\":1461.0000000102445}]","rt":10077.99999997951,"trial_type":"instructions","trial_index":7,"time_elapsed":209276,"internal_node_id":"0.0-5.1-0.1","task_version":"screening-mturk"},{"responses":["True","True","True","True","True"],"num_errors":2,"rt":13691.9999999227,"trial_type":"three-arm-comprehension","trial_index":8,"time_elapsed":222973,"internal_node_id":"0.0-5.1-1.1","task_version":"screening-mturk"},{"view_history":"[{\"page_index\":0,\"viewing_time\":4430.000000051223},{\"page_index\":1,\"viewing_time\":5354.999999981374},{\"page_index\":2,\"viewing_time\":9633.000000030734},{\"page_index\":3,\"viewing_time\":608.0000000074506},{\"page_index\":4,\"viewing_time\":1066.9999999227002},{\"page_index\":5,\"viewing_time\":923.0000000679865},{\"page_index\":6,\"viewing_time\":670.9999999729916},{\"page_index\":7,\"viewing_time\":751.0000000474975}]","rt":23439.00000001304,"trial_type":"instructions","trial_index":9,"time_elapsed":246417,"internal_node_id":"0.0-5.2-0.2","task_version":"screening-mturk"},{"responses":["True","True","True","True","True"],"num_errors":2,"rt":24806.00000009872,"trial_type":"three-arm-comprehension","trial_index":10,"time_elapsed":271228,"internal_node_id":"0.0-5.2-1.2","task_version":"screening-mturk"},{"view_history":"[{\"page_index\":0,\"viewing_time\":21756.999999983236},{\"page_index\":1,\"viewing_time\":11813.000000081956},{\"page_index\":2,\"viewing_time\":17169.999999925494},{\"page_index\":3,\"viewing_time\":2173.9999999990687},{\"page_index\":2,\"viewing_time\":19391.000000061467},{\"page_index\":3,\"viewing_time\":23257.99999991432},{\"page_index\":4,\"viewing_time\":13183.0000000773},{\"page_index\":5,\"viewing_time\":5042.999999946915},{\"page_index\":6,\"viewing_time\":7315.000000060536},{\"page_index\":7,\"viewing_time\":3527.999999932945}]","rt":124633.00000003073,"trial_type":"instructions","trial_index":11,"time_elapsed":395896,"internal_node_id":"0.0-5.3-0.3","task_version":"screening-mturk"},{"responses":["True","False","False","True","True"],"num_errors":2,"rt":61861.99999996461,"trial_type":"three-arm-comprehension","trial_index":12,"time_elapsed":457763,"internal_node_id":"0.0-5.3-1.3","task_version":"screening-mturk"},{"view_history":"[{\"page_index\":0,\"viewing_time\":7814.0000000130385},{\"page_index\":1,\"viewing_time\":8221.000000019558},{\"page_index\":2,\"viewing_time\":4954.000000027008},{\"page_index\":3,\"viewing_time\":1620.9999999264255},{\"page_index\":4,\"viewing_time\":2540.000000037253},{\"page_index\":5,\"viewing_time\":1045.9999999729916},{\"page_index\":4,\"viewing_time\":70192.9999999702},{\"page_index\":5,\"viewing_time\":3415.000000037253},{\"page_index\":6,\"viewing_time\":17736.000000033528},{\"page_index\":7,\"viewing_time\":3508.999999961816}]","rt":121048.99999999907,"trial_type":"instructions","trial_index":13,"time_elapsed":578818,"internal_node_id":"0.0-5.4-0.4","task_version":"screening-mturk"},{"responses":["True","True","False","False","True"],"num_errors":0,"rt":159489.0000000596,"trial_type":"three-arm-comprehension","trial_index":14,"time_elapsed":738311,"internal_node_id":"0.0-5.4-1.4","task_version":"screening-mturk"},{"view_history":"[{\"page_index\":0,\"viewing_time\":12959.999999962747}]","rt":12962.000000057742,"trial_type":"instructions","trial_index":15,"time_elapsed":751280,"internal_node_id":"0.0-6.0","task_version":"screening-mturk"},{"contexts":["blue","red","green"],"outcomes":[1,1,1],"key":null,"rt":null,"trial":1,"correct":1,"trial_type":"three-arm-trial","trial_index":16,"time_elapsed":766322,"internal_node_id":"0.0-7.0-0.0","task_version":"screening-mturk","missing":true},{"contexts":["blue","red","green"],"outcomes":[1,1,1],"key":39,"choice":2,"rt":1168.999999994412,"outcome":1,"trial":1,"correct":1,"trial_type":"three-arm-trial","trial_index":17,"time_elapsed":768698,"internal_node_id":"0.0-7.1-0.1","task_version":"screening-mturk","missing":false,"accuracy":0},{"contexts":["blue","red","green"],"outcomes":[0,1,0],"key":38,"choice":1,"rt":1781.0000000754371,"outcome":1,"trial":2,"correct":1,"trial_type":"three-arm-trial","trial_index":18,"time_elapsed":771690,"internal_node_id":"0.0-8.0-0.0","task_version":"screening-mturk","missing":false,"accuracy":1},{"contexts":["blue","red","green"],"outcomes":[0,1,1],"key":37,"choice":0,"rt":818.9999999012798,"outcome":0,"trial":3,"correct":1,"trial_type":"three-arm-trial","trial_index":19,"time_elapsed":773985,"internal_node_id":"0.0-9.0-0.0","task_version":"screening-mturk","missing":false,"accuracy":0},{"contexts":["blue","red","green"],"outcomes":[0,1,0],"key":38,"choice":1,"rt":826.0000000009313,"outcome":1,"trial":4,"correct":1,"trial_type":"three-arm-trial","trial_index":20,"time_elapsed":776015,"internal_node_id":"0.0-10.0-0.0","task_version":"screening-mturk","missing":false,"accuracy":1},{"contexts":["blue","red","green"],"outcomes":[1,0,0],"key":39,"choice":2,"rt":1062.000000034459,"outcome":0,"trial":5,"correct":1,"trial_type":"three-arm-trial","trial_index":21,"time_elapsed":778286,"internal_node_id":"0.0-11.0-0.0","task_version":"screening-mturk","missing":false,"accuracy":0},{"contexts":["blue","red","green"],"outcomes":[0,1,0],"key":37,"choice":0,"rt":1528.9999999804422,"outcome":0,"trial":6,"correct":1,"trial_type":"three-arm-trial","trial_index":22,"time_elapsed":781022,"internal_node_id":"0.0-12.0-0.0","task_version":"screening-mturk","missing":false,"accuracy":0},{"contexts":["blue","red","green"],"outcomes":[0,1,0],"key":38,"choice":1,"rt":1481.9999999599531,"outcome":1,"trial":7,"correct":1,"trial_type":"three-arm-trial","trial_index":23,"time_elapsed":783710,"internal_node_id":"0.0-13.0-0.0","task_version":"screening-mturk","missing":false,"accuracy":1},{"contexts":["blue","red","green"],"outcomes":[0,1,0],"key":39,"choice":2,"rt":709.9999999627471,"outcome":0,"trial":8,"correct":1,"trial_type":"three-arm-trial","trial_index":24,"time_elapsed":785626,"internal_node_id":"0.0-14.0-0.0","task_version":"screening-mturk","missing":false,"accuracy":0},{"contexts":["blue","red","green"],"outcomes":[0,1,0],"key":38,"choice":1,"rt":783.9999999850988,"outcome":1,"trial":9,"correct":1,"trial_type":"three-arm-trial","trial_index":25,"time_elapsed":788083,"internal_node_id":"0.0-15.0-0.0","task_version":"screening-mturk","missing":false,"accuracy":1},{"contexts":["blue","red","green"],"outcomes":[0,1,0],"key":38,"choice":1,"rt":1229.9999999813735,"outcome":1,"trial":10,"correct":1,"trial_type":"three-arm-trial","trial_index":26,"time_elapsed":790519,"internal_node_id":"0.0-16.0-0.0","task_version":"screening-mturk","missing":false,"accuracy":1},{"contexts":["blue","red","green"],"outcomes":[0,1,0],"key":38,"choice":1,"rt":856.9999999599531,"outcome":1,"trial":11,"correct":1,"trial_type":"three-arm-trial","trial_index":27,"time_elapsed":792583,"internal_node_id":"0.0-17.0-0.0","task_version":"screening-mturk","missing":false,"accuracy":1},{"contexts":["blue","red","green"],"outcomes":[1,1,0],"key":38,"choice":1,"rt":1323.0000000912696,"outcome":1,"trial":12,"correct":1,"trial_type":"three-arm-trial","trial_index":28,"time_elapsed":795116,"internal_node_id":"0.0-18.0-0.0","task_version":"screening-mturk","missing":false,"accuracy":1},{"contexts":["blue","red","green"],"outcomes":[0,1,0],"key":38,"choice":1,"rt":697.9999999748543,"outcome":1,"trial":13,"correct":1,"trial_type":"three-arm-trial","trial_index":29,"time_elapsed":797432,"internal_node_id":"0.0-19.0-0.0","task_version":"screening-mturk","missing":false,"accuracy":1},{"contexts":["blue","red","green"],"outcomes":[0,1,1],"key":38,"choice":1,"rt":881.9999999832362,"outcome":1,"trial":14,"correct":1,"trial_type":"three-arm-trial","trial_index":30,"time_elapsed":799518,"internal_node_id":"0.0-20.0-0.0","task_version":"screening-mturk","missing":false,"accuracy":1},{"contexts":["blue","red","green"],"outcomes":[0,1,0],"key":38,"choice":1,"rt":489.9999999906868,"outcome":1,"trial":15,"correct":1,"trial_type":"three-arm-trial","trial_index":31,"time_elapsed":801214,"internal_node_id":"0.0-21.0-0.0","task_version":"screening-mturk","missing":false,"accuracy":1},{"contexts":["blue","red","green"],"outcomes":[0,0,0],"key":38,"choice":1,"rt":743.9999999478459,"outcome":0,"trial":16,"correct":0,"trial_type":"three-arm-trial","trial_index":32,"time_elapsed":803167,"internal_node_id":"0.0-22.0-0.0","task_version":"screening-mturk","missing":false,"accuracy":0},{"contexts":["blue","red","green"],"outcomes":[1,1,0],"key":37,"choice":0,"rt":347.99999999813735,"outcome":1,"trial":17,"correct":0,"trial_type":"three-arm-trial","trial_index":33,"time_elapsed":804728,"internal_node_id":"0.0-23.0-0.0","task_version":"screening-mturk","missing":false,"accuracy":1},{"contexts":["blue","red","green"],"outcomes":[1,0,0],"key":37,"choice":0,"rt":320.9999999962747,"outcome":1,"trial":18,"correct":0,"trial_type":"three-arm-trial","trial_index":34,"time_elapsed":806385,"internal_node_id":"0.0-24.0-0.0","task_version":"screening-mturk","missing":false,"accuracy":1},{"contexts":["blue","red","green"],"outcomes":[0,1,0],"key":37,"choice":0,"rt":290.0000000372529,"outcome":0,"trial":19,"correct":0,"trial_type":"three-arm-trial","trial_index":35,"time_elapsed":807883,"internal_node_id":"0.0-25.0-0.0","task_version":"screening-mturk","missing":false,"accuracy":1},{"contexts":["blue","red","green"],"outcomes":[0,1,0],"key":39,"choice":2,"rt":603.000000002794,"outcome":0,"trial":20,"correct":0,"trial_type":"three-arm-trial","trial_index":36,"time_elapsed":809694,"internal_node_id":"0.0-26.0-0.0","task_version":"screening-mturk","missing":false,"accuracy":0},{"contexts":["blue","red","green"],"outcomes":[1,0,0],"key":37,"choice":0,"rt":1278.00000004936,"outcome":1,"trial":21,"correct":0,"trial_type":"three-arm-trial","trial_index":37,"time_elapsed":812191,"internal_node_id":"0.0-27.0-0.0","task_version":"screening-mturk","missing":false,"accuracy":1},{"contexts":["blue","red","green"],"outcomes":[1,0,0],"key":37,"choice":0,"rt":2701.0000000009313,"outcome":1,"trial":22,"correct":0,"trial_type":"three-arm-trial","trial_index":38,"time_elapsed":816606,"internal_node_id":"0.0-28.0-0.0","task_version":"screening-mturk","missing":false,"accuracy":1},{"contexts":["blue","red","green"],"outcomes":[1,0,0],"key":37,"choice":0,"rt":1315.999999991618,"outcome":1,"trial":23,"correct":0,"trial_type":"three-arm-trial","trial_index":39,"time_elapsed":819128,"internal_node_id":"0.0-29.0-0.0","task_version":"screening-mturk","missing":false,"accuracy":1},{"contexts":["blue","red","green"],"outcomes":[1,1,0],"key":37,"choice":0,"rt":841.0000000149012,"outcome":1,"trial":24,"correct":0,"trial_type":"three-arm-trial","trial_index":40,"time_elapsed":821174,"internal_node_id":"0.0-30.0-0.0","task_version":"screening-mturk","missing":false,"accuracy":1},{"contexts":["blue","red","green"],"outcomes":[1,0,0],"key":37,"choice":0,"rt":834.000000031665,"outcome":1,"trial":25,"correct":0,"trial_type":"three-arm-trial","trial_index":41,"time_elapsed":823215,"internal_node_id":"0.0-31.0-0.0","task_version":"screening-mturk","missing":false,"accuracy":1},{"contexts":["blue","red","green"],"outcomes":[1,1,1],"key":37,"choice":0,"rt":314.0000000130385,"outcome":1,"trial":26,"correct":0,"trial_type":"three-arm-trial","trial_index":42,"time_elapsed":824898,"internal_node_id":"0.0-32.0-0.0","task_version":"screening-mturk","missing":false,"accuracy":1},{"contexts":["blue","red","green"],"outcomes":[1,0,1],"key":37,"choice":0,"rt":766.0000000614673,"outcome":1,"trial":27,"correct":0,"trial_type":"three-arm-trial","trial_index":43,"time_elapsed":826867,"internal_node_id":"0.0-33.0-0.0","task_version":"screening-mturk","missing":false,"accuracy":1},{"contexts":["blue","red","green"],"outcomes":[1,0,0],"key":37,"choice":0,"rt":1259.000000078231,"outcome":1,"trial":28,"correct":0,"trial_type":"three-arm-trial","trial_index":44,"time_elapsed":829370,"internal_node_id":"0.0-34.0-0.0","task_version":"screening-mturk","missing":false,"accuracy":1},{"contexts":["blue","red","green"],"outcomes":[0,0,0],"key":37,"choice":0,"rt":141.99999999254942,"outcome":0,"trial":29,"correct":0,"trial_type":"three-arm-trial","trial_index":45,"time_elapsed":830720,"internal_node_id":"0.0-35.0-0.0","task_version":"screening-mturk","missing":false,"accuracy":1},{"contexts":["blue","red","green"],"outcomes":[1,1,0],"key":38,"choice":1,"rt":1506.000000052154,"outcome":1,"trial":30,"correct":0,"trial_type":"three-arm-trial","trial_index":46,"time_elapsed":833467,"internal_node_id":"0.0-36.0-0.0","task_version":"screening-mturk","missing":false,"accuracy":0},{"contexts":["blue","red","green"],"outcomes":[1,1,0],"key":38,"choice":1,"rt":638.0000000353903,"outcome":1,"trial":31,"correct":1,"trial_type":"three-arm-trial","trial_index":47,"time_elapsed":835316,"internal_node_id":"0.0-37.0-0.0","task_version":"screening-mturk","missing":false,"accuracy":1},{"contexts":["blue","red","green"],"outcomes":[1,1,1],"key":38,"choice":1,"rt":704.9999999580905,"outcome":1,"trial":32,"correct":1,"trial_type":"three-arm-trial","trial_index":48,"time_elapsed":837490,"internal_node_id":"0.0-38.0-0.0","task_version":"screening-mturk","missing":false,"accuracy":1},{"contexts":["blue","red","green"],"outcomes":[0,1,0],"key":38,"choice":1,"rt":886.9999999878928,"outcome":1,"trial":33,"correct":1,"trial_type":"three-arm-trial","trial_index":49,"time_elapsed":839600,"internal_node_id":"0.0-39.0-0.0","task_version":"screening-mturk","missing":false,"accuracy":1},{"contexts":["blue","red","green"],"outcomes":[0,0,0],"key":38,"choice":1,"rt":618.0000000167638,"outcome":0,"trial":34,"correct":1,"trial_type":"three-arm-trial","trial_index":50,"time_elapsed":841462,"internal_node_id":"0.0-40.0-0.0","task_version":"screening-mturk","missing":false,"accuracy":1},{"contexts":["blue","red","green"],"outcomes":[1,1,0],"key":39,"choice":2,"rt":913.9999999897555,"outcome":0,"trial":35,"correct":1,"trial_type":"three-arm-trial","trial_index":51,"time_elapsed":844010,"internal_node_id":"0.0-41.0-0.0","task_version":"screening-mturk","missing":false,"accuracy":0},{"contexts":["blue","red","green"],"outcomes":[0,1,0],"key":37,"choice":0,"rt":1304.0000000037253,"outcome":0,"trial":36,"correct":1,"trial_type":"three-arm-trial","trial_index":52,"time_elapsed":846520,"internal_node_id":"0.0-42.0-0.0","task_version":"screening-mturk","missing":false,"accuracy":0},{"contexts":["blue","red","green"],"outcomes":[0,0,0],"key":38,"choice":1,"rt":60.000000055879354,"outcome":0,"trial":37,"correct":1,"trial_type":"three-arm-trial","trial_index":53,"time_elapsed":848056,"internal_node_id":"0.0-43.0-0.0","task_version":"screening-mturk","missing":false,"accuracy":1},{"contexts":["blue","red","green"],"outcomes":[0,0,0],"key":37,"choice":0,"rt":136.9999999878928,"outcome":0,"trial":38,"correct":1,"trial_type":"three-arm-trial","trial_index":54,"time_elapsed":849411,"internal_node_id":"0.0-44.0-0.0","task_version":"screening-mturk","missing":false,"accuracy":0},{"contexts":["blue","red","green"],"outcomes":[0,1,0],"key":38,"choice":1,"rt":1603.999999933876,"outcome":1,"trial":39,"correct":1,"trial_type":"three-arm-trial","trial_index":55,"time_elapsed":852221,"internal_node_id":"0.0-45.0-0.0","task_version":"screening-mturk","missing":false,"accuracy":1},{"contexts":["blue","red","green"],"outcomes":[1,1,1],"key":38,"choice":1,"rt":1269.0000000875443,"outcome":1,"trial":40,"correct":1,"trial_type":"three-arm-trial","trial_index":56,"time_elapsed":855086,"internal_node_id":"0.0-46.0-0.0","task_version":"screening-mturk","missing":false,"accuracy":1},{"contexts":["blue","red","green"],"outcomes":[0,1,0],"key":38,"choice":1,"rt":199.00000002235174,"outcome":1,"trial":41,"correct":1,"trial_type":"three-arm-trial","trial_index":57,"time_elapsed":856502,"internal_node_id":"0.0-47.0-0.0","task_version":"screening-mturk","missing":false,"accuracy":1},{"contexts":["blue","red","green"],"outcomes":[0,1,0],"key":38,"choice":1,"rt":485.9999999171123,"outcome":1,"trial":42,"correct":1,"trial_type":"three-arm-trial","trial_index":58,"time_elapsed":858215,"internal_node_id":"0.0-48.0-0.0","task_version":"screening-mturk","missing":false,"accuracy":1},{"contexts":["blue","red","green"],"outcomes":[0,1,0],"key":38,"choice":1,"rt":2070.9999999962747,"outcome":1,"trial":43,"correct":1,"trial_type":"three-arm-trial","trial_index":59,"time_elapsed":861817,"internal_node_id":"0.0-49.0-0.0","task_version":"screening-mturk","missing":false,"accuracy":1},{"contexts":["blue","red","green"],"outcomes":[0,1,0],"key":38,"choice":1,"rt":662.0000000111759,"outcome":1,"trial":44,"correct":1,"trial_type":"three-arm-trial","trial_index":60,"time_elapsed":863696,"internal_node_id":"0.0-50.0-0.0","task_version":"screening-mturk","missing":false,"accuracy":1},{"contexts":["blue","red","green"],"outcomes":[1,1,0],"key":38,"choice":1,"rt":1116.9999999692664,"outcome":1,"trial":45,"correct":1,"trial_type":"three-arm-trial","trial_index":61,"time_elapsed":866400,"internal_node_id":"0.0-51.0-0.0","task_version":"screening-mturk","missing":false,"accuracy":1},{"contexts":["blue","red","green"],"outcomes":[0,0,0],"key":38,"choice":1,"rt":768.0000000400469,"outcome":0,"trial":46,"correct":2,"trial_type":"three-arm-trial","trial_index":62,"time_elapsed":868380,"internal_node_id":"0.0-52.0-0.0","task_version":"screening-mturk","missing":false,"accuracy":0},{"contexts":["blue","red","green"],"outcomes":[1,0,1],"key":38,"choice":1,"rt":974.9999999767169,"outcome":0,"trial":47,"correct":2,"trial_type":"three-arm-trial","trial_index":63,"time_elapsed":870568,"internal_node_id":"0.0-53.0-0.0","task_version":"screening-mturk","missing":false,"accuracy":0},{"contexts":["blue","red","green"],"outcomes":[0,1,1],"key":39,"choice":2,"rt":248.00000002142042,"outcome":1,"trial":48,"correct":2,"trial_type":"three-arm-trial","trial_index":64,"time_elapsed":872021,"internal_node_id":"0.0-54.0-0.0","task_version":"screening-mturk","missing":false,"accuracy":1},{"contexts":["blue","red","green"],"outcomes":[0,0,1],"key":39,"choice":2,"rt":86.00000001024455,"outcome":1,"trial":49,"correct":2,"trial_type":"three-arm-trial","trial_index":65,"time_elapsed":873317,"internal_node_id":"0.0-55.0-0.0","task_version":"screening-mturk","missing":false,"accuracy":1},{"contexts":["blue","red","green"],"outcomes":[1,0,0],"key":39,"choice":2,"rt":858.9999999385327,"outcome":0,"trial":50,"correct":2,"trial_type":"three-arm-trial","trial_index":66,"time_elapsed":875384,"internal_node_id":"0.0-56.0-0.0","task_version":"screening-mturk","missing":false,"accuracy":1},{"contexts":["blue","red","green"],"outcomes":[1,1,0],"key":37,"choice":0,"rt":977.0000000717118,"outcome":1,"trial":51,"correct":2,"trial_type":"three-arm-trial","trial_index":67,"time_elapsed":877567,"internal_node_id":"0.0-57.0-0.0","task_version":"screening-mturk","missing":false,"accuracy":0},{"contexts":["blue","red","green"],"outcomes":[0,1,1],"key":37,"choice":0,"rt":1120.9999999264255,"outcome":0,"trial":52,"correct":2,"trial_type":"three-arm-trial","trial_index":68,"time_elapsed":879895,"internal_node_id":"0.0-58.0-0.0","task_version":"screening-mturk","missing":false,"accuracy":0},{"contexts":["blue","red","green"],"outcomes":[0,0,0],"key":38,"choice":1,"rt":2119.0000000642613,"outcome":0,"trial":53,"correct":2,"trial_type":"three-arm-trial","trial_index":69,"time_elapsed":883224,"internal_node_id":"0.0-59.0-0.0","task_version":"screening-mturk","missing":false,"accuracy":0},{"contexts":["blue","red","green"],"outcomes":[1,0,1],"key":37,"choice":0,"rt":670.9999999729916,"outcome":1,"trial":54,"correct":2,"trial_type":"three-arm-trial","trial_index":70,"time_elapsed":885293,"internal_node_id":"0.0-60.0-0.0","task_version":"screening-mturk","missing":false,"accuracy":0},{"contexts":["blue","red","green"],"outcomes":[0,0,1],"key":39,"choice":2,"rt":8.999999961815774,"outcome":1,"trial":55,"correct":2,"trial_type":"three-arm-trial","trial_index":71,"time_elapsed":886508,"internal_node_id":"0.0-61.0-0.0","task_version":"screening-mturk","missing":false,"accuracy":1},{"contexts":["blue","red","green"],"outcomes":[0,0,1],"key":39,"choice":2,"rt":750.9999999310821,"outcome":1,"trial":56,"correct":2,"trial_type":"three-arm-trial","trial_index":72,"time_elapsed":888477,"internal_node_id":"0.0-62.0-0.0","task_version":"screening-mturk","missing":false,"accuracy":1},{"contexts":["blue","red","green"],"outcomes":[1,0,1],"key":39,"choice":2,"rt":1437.000000034459,"outcome":1,"trial":57,"correct":2,"trial_type":"three-arm-trial","trial_index":73,"time_elapsed":891127,"internal_node_id":"0.0-63.0-0.0","task_version":"screening-mturk","missing":false,"accuracy":1},{"contexts":["blue","red","green"],"outcomes":[0,1,1],"key":39,"choice":2,"rt":885.0000000093132,"outcome":1,"trial":58,"correct":2,"trial_type":"three-arm-trial","trial_index":74,"time_elapsed":893222,"internal_node_id":"0.0-64.0-0.0","task_version":"screening-mturk","missing":false,"accuracy":1},{"contexts":["blue","red","green"],"outcomes":[0,1,1],"key":38,"choice":1,"rt":157.00000000651926,"outcome":1,"trial":59,"correct":2,"trial_type":"three-arm-trial","trial_index":75,"time_elapsed":894583,"internal_node_id":"0.0-65.0-0.0","task_version":"screening-mturk","missing":false,"accuracy":0},{"contexts":["blue","red","green"],"outcomes":[0,1,1],"key":38,"choice":1,"rt":87.99999998882413,"outcome":1,"trial":60,"correct":2,"trial_type":"three-arm-trial","trial_index":76,"time_elapsed":895879,"internal_node_id":"0.0-66.0-0.0","task_version":"screening-mturk","missing":false,"accuracy":0},{"contexts":["blue","red","green"],"outcomes":[0,1,0],"key":38,"choice":1,"rt":1528.00000004936,"outcome":1,"trial":61,"correct":1,"trial_type":"three-arm-trial","trial_index":77,"time_elapsed":898820,"internal_node_id":"0.0-67.0-0.0","task_version":"screening-mturk","missing":false,"accuracy":1},{"contexts":["blue","red","green"],"outcomes":[1,1,1],"key":38,"choice":1,"rt":871.0000000428408,"outcome":1,"trial":62,"correct":1,"trial_type":"three-arm-trial","trial_index":78,"time_elapsed":900907,"internal_node_id":"0.0-68.0-0.0","task_version":"screening-mturk","missing":false,"accuracy":1},{"contexts":["blue","red","green"],"outcomes":[0,1,0],"key":38,"choice":1,"rt":790.999999968335,"outcome":1,"trial":63,"correct":1,"trial_type":"three-arm-trial","trial_index":79,"time_elapsed":902909,"internal_node_id":"0.0-69.0-0.0","task_version":"screening-mturk","missing":false,"accuracy":1},{"contexts":["blue","red","green"],"outcomes":[0,1,0],"key":38,"choice":1,"rt":1077.999999979511,"outcome":1,"trial":64,"correct":1,"trial_type":"three-arm-trial","trial_index":80,"time_elapsed":905201,"internal_node_id":"0.0-70.0-0.0","task_version":"screening-mturk","missing":false,"accuracy":1},{"contexts":["blue","red","green"],"outcomes":[0,1,0],"key":38,"choice":1,"rt":777.9999999329448,"outcome":1,"trial":65,"correct":1,"trial_type":"three-arm-trial","trial_index":81,"time_elapsed":907414,"internal_node_id":"0.0-71.0-0.0","task_version":"screening-mturk","missing":false,"accuracy":1},{"contexts":["blue","red","green"],"outcomes":[0,0,0],"key":38,"choice":1,"rt":813.0000000819564,"outcome":0,"trial":66,"correct":1,"trial_type":"three-arm-trial","trial_index":82,"time_elapsed":909512,"internal_node_id":"0.0-72.0-0.0","task_version":"screening-mturk","missing":false,"accuracy":1},{"contexts":["blue","red","green"],"outcomes":[0,1,0],"key":38,"choice":1,"rt":3861.0000000335276,"outcome":1,"trial":67,"correct":1,"trial_type":"three-arm-trial","trial_index":83,"time_elapsed":915012,"internal_node_id":"0.0-73.0-0.0","task_version":"screening-mturk","missing":false,"accuracy":1},{"contexts":["blue","red","green"],"outcomes":[0,1,1],"key":38,"choice":1,"rt":101.00000002421439,"outcome":1,"trial":68,"correct":1,"trial_type":"three-arm-trial","trial_index":84,"time_elapsed":916376,"internal_node_id":"0.0-74.0-0.0","task_version":"screening-mturk","missing":false,"accuracy":1},{"contexts":["blue","red","green"],"outcomes":[1,1,0],"key":38,"choice":1,"rt":1005.9999999357387,"outcome":1,"trial":69,"correct":1,"trial_type":"three-arm-trial","trial_index":85,"time_elapsed":918604,"internal_node_id":"0.0-75.0-0.0","task_version":"screening-mturk","missing":false,"accuracy":1},{"contexts":["blue","red","green"],"outcomes":[0,1,0],"key":38,"choice":1,"rt":1565.000000060536,"outcome":1,"trial":70,"correct":1,"trial_type":"three-arm-trial","trial_index":86,"time_elapsed":921385,"internal_node_id":"0.0-76.0-0.0","task_version":"screening-mturk","missing":false,"accuracy":1},{"contexts":["blue","red","green"],"outcomes":[0,1,0],"key":38,"choice":1,"rt":630.0000000046566,"outcome":1,"trial":71,"correct":1,"trial_type":"three-arm-trial","trial_index":87,"time_elapsed":923222,"internal_node_id":"0.0-77.0-0.0","task_version":"screening-mturk","missing":false,"accuracy":1},{"contexts":["blue","red","green"],"outcomes":[0,1,1],"key":38,"choice":1,"rt":554.9999999348074,"outcome":1,"trial":72,"correct":1,"trial_type":"three-arm-trial","trial_index":88,"time_elapsed":924987,"internal_node_id":"0.0-78.0-0.0","task_version":"screening-mturk","missing":false,"accuracy":1},{"contexts":["blue","red","green"],"outcomes":[0,1,1],"key":38,"choice":1,"rt":412.999999942258,"outcome":1,"trial":73,"correct":1,"trial_type":"three-arm-trial","trial_index":89,"time_elapsed":926616,"internal_node_id":"0.0-79.0-0.0","task_version":"screening-mturk","missing":false,"accuracy":1},{"contexts":["blue","red","green"],"outcomes":[0,1,0],"key":38,"choice":1,"rt":1248.0000000214204,"outcome":1,"trial":74,"correct":1,"trial_type":"three-arm-trial","trial_index":90,"time_elapsed":929068,"internal_node_id":"0.0-80.0-0.0","task_version":"screening-mturk","missing":false,"accuracy":1},{"contexts":["blue","red","green"],"outcomes":[0,1,0],"key":38,"choice":1,"rt":810.0000000558794,"outcome":1,"trial":75,"correct":1,"trial_type":"three-arm-trial","trial_index":91,"time_elapsed":931083,"internal_node_id":"0.0-81.0-0.0","task_version":"screening-mturk","missing":false,"accuracy":1},{"contexts":["blue","red","green"],"outcomes":[0,0,1],"key":38,"choice":1,"rt":479.99999998137355,"outcome":0,"trial":76,"correct":2,"trial_type":"three-arm-trial","trial_index":92,"time_elapsed":932769,"internal_node_id":"0.0-82.0-0.0","task_version":"screening-mturk","missing":false,"accuracy":0},{"contexts":["blue","red","green"],"outcomes":[0,0,1],"key":38,"choice":1,"rt":1938.0000000819564,"outcome":0,"trial":77,"correct":2,"trial_type":"three-arm-trial","trial_index":93,"time_elapsed":935910,"internal_node_id":"0.0-83.0-0.0","task_version":"screening-mturk","missing":false,"accuracy":0},{"contexts":["blue","red","green"],"outcomes":[1,0,1],"key":37,"choice":0,"rt":1201.9999999320135,"outcome":1,"trial":78,"correct":2,"trial_type":"three-arm-trial","trial_index":94,"time_elapsed":938316,"internal_node_id":"0.0-84.0-0.0","task_version":"screening-mturk","missing":false,"accuracy":0},{"contexts":["blue","red","green"],"outcomes":[0,0,0],"key":37,"choice":0,"rt":974.9999999767169,"outcome":0,"trial":79,"correct":2,"trial_type":"three-arm-trial","trial_index":95,"time_elapsed":940514,"internal_node_id":"0.0-85.0-0.0","task_version":"screening-mturk","missing":false,"accuracy":0},{"contexts":["blue","red","green"],"outcomes":[0,0,1],"key":38,"choice":1,"rt":1714.9999999674037,"outcome":0,"trial":80,"correct":2,"trial_type":"three-arm-trial","trial_index":96,"time_elapsed":943897,"internal_node_id":"0.0-86.0-0.0","task_version":"screening-mturk","missing":false,"accuracy":0},{"contexts":["blue","red","green"],"outcomes":[0,0,1],"key":39,"choice":2,"rt":1057.9999999608845,"outcome":1,"trial":81,"correct":2,"trial_type":"three-arm-trial","trial_index":97,"time_elapsed":946175,"internal_node_id":"0.0-87.0-0.0","task_version":"screening-mturk","missing":false,"accuracy":1},{"contexts":["blue","red","green"],"outcomes":[0,0,1],"key":39,"choice":2,"rt":1396.000000066124,"outcome":1,"trial":82,"correct":2,"trial_type":"three-arm-trial","trial_index":98,"time_elapsed":948782,"internal_node_id":"0.0-88.0-0.0","task_version":"screening-mturk","missing":false,"accuracy":1},{"contexts":["blue","red","green"],"outcomes":[0,0,1],"key":39,"choice":2,"rt":731.000000028871,"outcome":1,"trial":83,"correct":2,"trial_type":"three-arm-trial","trial_index":99,"time_elapsed":951075,"internal_node_id":"0.0-89.0-0.0","task_version":"screening-mturk","missing":false,"accuracy":1},{"contexts":["blue","red","green"],"outcomes":[0,1,1],"key":39,"choice":2,"rt":1304.9999999348074,"outcome":1,"trial":84,"correct":2,"trial_type":"three-arm-trial","trial_index":100,"time_elapsed":954022,"internal_node_id":"0.0-90.0-0.0","task_version":"screening-mturk","missing":false,"accuracy":1},{"contexts":["blue","red","green"],"outcomes":[0,0,1],"key":39,"choice":2,"rt":77.9999999795109,"outcome":1,"trial":85,"correct":2,"trial_type":"three-arm-trial","trial_index":101,"time_elapsed":955386,"internal_node_id":"0.0-91.0-0.0","task_version":"screening-mturk","missing":false,"accuracy":1},{"contexts":["blue","red","green"],"outcomes":[0,0,1],"key":39,"choice":2,"rt":1833.9999999152496,"outcome":1,"trial":86,"correct":2,"trial_type":"three-arm-trial","trial_index":102,"time_elapsed":958517,"internal_node_id":"0.0-92.0-0.0","task_version":"screening-mturk","missing":false,"accuracy":1},{"contexts":["blue","red","green"],"outcomes":[0,0,1],"key":39,"choice":2,"rt":776.0000000707805,"outcome":1,"trial":87,"correct":2,"trial_type":"three-arm-trial","trial_index":103,"time_elapsed":960511,"internal_node_id":"0.0-93.0-0.0","task_version":"screening-mturk","missing":false,"accuracy":1},{"contexts":["blue","red","green"],"outcomes":[0,0,1],"key":39,"choice":2,"rt":864.0000000596046,"outcome":1,"trial":88,"correct":2,"trial_type":"three-arm-trial","trial_index":104,"time_elapsed":962582,"internal_node_id":"0.0-94.0-0.0","task_version":"screening-mturk","missing":false,"accuracy":1},{"contexts":["blue","red","green"],"outcomes":[1,0,0],"key":38,"choice":1,"rt":1091.0000000149012,"outcome":0,"trial":89,"correct":2,"trial_type":"three-arm-trial","trial_index":105,"time_elapsed":965170,"internal_node_id":"0.0-95.0-0.0","task_version":"screening-mturk","missing":false,"accuracy":0},{"contexts":["blue","red","green"],"outcomes":[0,0,1],"key":39,"choice":2,"rt":745.9999999264255,"outcome":1,"trial":90,"correct":2,"trial_type":"three-arm-trial","trial_index":106,"time_elapsed":967127,"internal_node_id":"0.0-96.0-0.0","task_version":"screening-mturk","missing":false,"accuracy":1},{"rt":32913.00000005867,"responses":{"age":"51","gender-categorical":"Female","gender-free-response":"","ethnicity":"Hispanic or Latino","race":["Black or African American"],"language":"Yes","fluency":"Very well","prolific":"Yes","prolific-this-study":"Yes"},"survey":"demographics","trial_type":"survey-demo","trial_index":107,"time_elapsed":1000087,"internal_node_id":"0.0-97.0","task_version":"screening-mturk","interactions":"[]"}]