[{"responses":{"Q01":"0","Q02":"0","Q03":"0"},"rt":9025.379999991856,"survey":"pswq","trial_type":"survey-template","trial_index":0,"time_elapsed":9054,"internal_node_id":"0.0-0.0","task_version":"screening-mturk"},{"responses":{"Q02":"0","Q03":"1","Q06":"3","Q13":"3","Q01":"1","Q09":"3","Q08":"3","Q11":"3","Q05":"3","Q07":"3","Q10":"3","Q04":"1","Q12":"3"},"rt":35484.81999999785,"survey":"bisbas","trial_type":"survey-template","trial_index":1,"time_elapsed":44550,"internal_node_id":"0.0-1.0","task_version":"screening-mturk"},{"responses":{"Q09":"1","Q07":"3","Q02":"3","Q03":"3","Q01":"3","Q12":"3","Q05":"3","Q10":"3","Q15":"3","Q08":"3","Q14":"3","Q04":"3","Q11":"3","Q06":"2","Q13":"3"},"rt":45348.31000000122,"survey":"shaps","trial_type":"survey-template","trial_index":2,"time_elapsed":89906,"internal_node_id":"0.0-2.0","task_version":"screening-mturk"},{"responses":{"Q02":"0","Q07":"0","Q01":"0","Q03":"0","Q06":"0","Q08":"0","Q04":"0","Q05":"0"},"rt":15861.415000006673,"survey":"gad7","trial_type":"survey-template","trial_index":3,"time_elapsed":105773,"internal_node_id":"0.0-3.0","task_version":"screening-mturk"},{"responses":{"Q07":"1","Q04":"0","Q01":"0","Q03":"1","Q10":"0","Q02":"0","Q06":"1","Q11":"0","Q05":"0","Q13":"0","Q09":"0","Q14":"0","Q15":"0","Q12":"0","Q08":"1"},"rt":265811.8350000004,"survey":"7up7down","trial_type":"survey-template","trial_index":4,"time_elapsed":371592,"internal_node_id":"0.0-4.0","task_version":"screening-mturk"},{"view_history":"[{\"page_index\":0,\"viewing_time\":4201.549999997951},{\"page_index\":1,\"viewing_time\":8377.959999997984},{\"page_index\":2,\"viewing_time\":5187.290000001667},{\"page_index\":3,\"viewing_time\":20956.204999994952},{\"page_index\":4,\"viewing_time\":3977.580000006128},{\"page_index\":5,\"viewing_time\":3512.780000004568},{\"page_index\":6,\"viewing_time\":2515.1399999886053},{\"page_index\":7,\"viewing_time\":1820.000000006985}]","rt":50550.26999999245,"trial_type":"instructions","trial_index":5,"time_elapsed":422145,"internal_node_id":"0.0-5.0-0.0","task_version":"screening-mturk"},{"responses":["True","True","False","False","True"],"num_errors":0,"rt":19297.409999999218,"trial_type":"three-arm-comprehension","trial_index":6,"time_elapsed":441451,"internal_node_id":"0.0-5.0-1.0","task_version":"screening-mturk"},{"view_history":"[{\"page_index\":0,\"viewing_time\":2813.9399999927264}]","rt":2814.494999998715,"trial_type":"instructions","trial_index":7,"time_elapsed":444272,"internal_node_id":"0.0-6.0","task_version":"screening-mturk"},{"contexts":["blue","red","green"],"outcomes":[1,1,0],"key":38,"choice":1,"rt":2654.980000006617,"outcome":1,"trial":1,"correct":0,"trial_type":"three-arm-trial","trial_index":8,"time_elapsed":448133,"internal_node_id":"0.0-7.0-0.0","task_version":"screening-mturk","missing":false,"accuracy":0},{"contexts":["blue","red","green"],"outcomes":[1,0,0],"key":38,"choice":1,"rt":535.024999990128,"outcome":0,"trial":2,"correct":0,"trial_type":"three-arm-trial","trial_index":9,"time_elapsed":449877,"internal_node_id":"0.0-8.0-0.0","task_version":"screening-mturk","missing":false,"accuracy":0},{"contexts":["blue","red","green"],"outcomes":[0,0,0],"key":38,"choice":1,"rt":319.3699999974342,"outcome":0,"trial":3,"correct":0,"trial_type":"three-arm-trial","trial_index":10,"time_elapsed":451402,"internal_node_id":"0.0-9.0-0.0","task_version":"screening-mturk","missing":false,"accuracy":0},{"contexts":["blue","red","green"],"outcomes":[1,0,0],"key":37,"choice":0,"rt":342.2499999869615,"outcome":1,"trial":4,"correct":0,"trial_type":"three-arm-trial","trial_index":11,"time_elapsed":452948,"internal_node_id":"0.0-10.0-0.0","task_version":"screening-mturk","missing":false,"accuracy":1},{"contexts":["blue","red","green"],"outcomes":[1,0,0],"key":37,"choice":0,"rt":360.0799999985611,"outcome":1,"trial":5,"correct":0,"trial_type":"three-arm-trial","trial_index":12,"time_elapsed":454513,"internal_node_id":"0.0-11.0-0.0","task_version":"screening-mturk","missing":false,"accuracy":1},{"contexts":["blue","red","green"],"outcomes":[0,1,0],"key":37,"choice":0,"rt":460.39000000746455,"outcome":0,"trial":6,"correct":0,"trial_type":"three-arm-trial","trial_index":13,"time_elapsed":456179,"internal_node_id":"0.0-12.0-0.0","task_version":"screening-mturk","missing":false,"accuracy":1},{"contexts":["blue","red","green"],"outcomes":[1,0,1],"key":39,"choice":2,"rt":355.954999991809,"outcome":1,"trial":7,"correct":0,"trial_type":"three-arm-trial","trial_index":14,"time_elapsed":457740,"internal_node_id":"0.0-13.0-0.0","task_version":"screening-mturk","missing":false,"accuracy":0},{"contexts":["blue","red","green"],"outcomes":[1,0,0],"key":39,"choice":2,"rt":451.76499999070074,"outcome":0,"trial":8,"correct":0,"trial_type":"three-arm-trial","trial_index":15,"time_elapsed":459397,"internal_node_id":"0.0-14.0-0.0","task_version":"screening-mturk","missing":false,"accuracy":0},{"contexts":["blue","red","green"],"outcomes":[1,0,0],"key":38,"choice":1,"rt":330.26000000245403,"outcome":0,"trial":9,"correct":0,"trial_type":"three-arm-trial","trial_index":16,"time_elapsed":460937,"internal_node_id":"0.0-15.0-0.0","task_version":"screening-mturk","missing":false,"accuracy":0},{"contexts":["blue","red","green"],"outcomes":[0,1,0],"key":37,"choice":0,"rt":300.7800000050338,"outcome":0,"trial":10,"correct":0,"trial_type":"three-arm-trial","trial_index":17,"time_elapsed":462443,"internal_node_id":"0.0-16.0-0.0","task_version":"screening-mturk","missing":false,"accuracy":1},{"contexts":["blue","red","green"],"outcomes":[1,1,0],"key":37,"choice":0,"rt":206.48000000801403,"outcome":1,"trial":11,"correct":0,"trial_type":"three-arm-trial","trial_index":18,"time_elapsed":463855,"internal_node_id":"0.0-17.0-0.0","task_version":"screening-mturk","missing":false,"accuracy":1},{"contexts":["blue","red","green"],"outcomes":[1,0,0],"key":37,"choice":0,"rt":309.08000000636093,"outcome":1,"trial":12,"correct":0,"trial_type":"three-arm-trial","trial_index":19,"time_elapsed":465367,"internal_node_id":"0.0-18.0-0.0","task_version":"screening-mturk","missing":false,"accuracy":1},{"contexts":["blue","red","green"],"outcomes":[0,0,1],"key":37,"choice":0,"rt":368.36000000766944,"outcome":0,"trial":13,"correct":0,"trial_type":"three-arm-trial","trial_index":20,"time_elapsed":466940,"internal_node_id":"0.0-19.0-0.0","task_version":"screening-mturk","missing":false,"accuracy":1},{"contexts":["blue","red","green"],"outcomes":[1,0,0],"key":39,"choice":2,"rt":177.17499998980202,"outcome":0,"trial":14,"correct":0,"trial_type":"three-arm-trial","trial_index":21,"time_elapsed":468324,"internal_node_id":"0.0-20.0-0.0","task_version":"screening-mturk","missing":false,"accuracy":0},{"contexts":["blue","red","green"],"outcomes":[1,0,0],"key":39,"choice":2,"rt":504.4950000010431,"outcome":0,"trial":15,"correct":0,"trial_type":"three-arm-trial","trial_index":22,"time_elapsed":470034,"internal_node_id":"0.0-21.0-0.0","task_version":"screening-mturk","missing":false,"accuracy":0},{"contexts":["blue","red","green"],"outcomes":[0,1,0],"key":38,"choice":1,"rt":344.2899999936344,"outcome":1,"trial":16,"correct":1,"trial_type":"three-arm-trial","trial_index":23,"time_elapsed":471583,"internal_node_id":"0.0-22.0-0.0","task_version":"screening-mturk","missing":false,"accuracy":1},{"contexts":["blue","red","green"],"outcomes":[0,0,0],"key":38,"choice":1,"rt":391.35499999974854,"outcome":0,"trial":17,"correct":1,"trial_type":"three-arm-trial","trial_index":24,"time_elapsed":473180,"internal_node_id":"0.0-23.0-0.0","task_version":"screening-mturk","missing":false,"accuracy":1},{"contexts":["blue","red","green"],"outcomes":[0,1,0],"key":37,"choice":0,"rt":362.3899999947753,"outcome":0,"trial":18,"correct":1,"trial_type":"three-arm-trial","trial_index":25,"time_elapsed":474746,"internal_node_id":"0.0-24.0-0.0","task_version":"screening-mturk","missing":false,"accuracy":0},{"contexts":["blue","red","green"],"outcomes":[0,1,1],"key":37,"choice":0,"rt":428.9050000079442,"outcome":0,"trial":19,"correct":1,"trial_type":"three-arm-trial","trial_index":26,"time_elapsed":476379,"internal_node_id":"0.0-25.0-0.0","task_version":"screening-mturk","missing":false,"accuracy":0},{"contexts":["blue","red","green"],"outcomes":[1,1,0],"key":38,"choice":1,"rt":300.2600000036182,"outcome":1,"trial":20,"correct":1,"trial_type":"three-arm-trial","trial_index":27,"time_elapsed":477887,"internal_node_id":"0.0-26.0-0.0","task_version":"screening-mturk","missing":false,"accuracy":1},{"contexts":["blue","red","green"],"outcomes":[0,1,0],"key":39,"choice":2,"rt":338.0600000091363,"outcome":0,"trial":21,"correct":1,"trial_type":"three-arm-trial","trial_index":28,"time_elapsed":479432,"internal_node_id":"0.0-27.0-0.0","task_version":"screening-mturk","missing":false,"accuracy":0},{"contexts":["blue","red","green"],"outcomes":[0,1,0],"key":38,"choice":1,"rt":265.28000000689644,"outcome":1,"trial":22,"correct":1,"trial_type":"three-arm-trial","trial_index":29,"time_elapsed":480903,"internal_node_id":"0.0-28.0-0.0","task_version":"screening-mturk","missing":false,"accuracy":1},{"contexts":["blue","red","green"],"outcomes":[0,1,0],"key":38,"choice":1,"rt":344.3049999914365,"outcome":1,"trial":23,"correct":1,"trial_type":"three-arm-trial","trial_index":30,"time_elapsed":482454,"internal_node_id":"0.0-29.0-0.0","task_version":"screening-mturk","missing":false,"accuracy":1},{"contexts":["blue","red","green"],"outcomes":[0,1,0],"key":38,"choice":1,"rt":308.8900000002468,"outcome":1,"trial":24,"correct":1,"trial_type":"three-arm-trial","trial_index":31,"time_elapsed":483967,"internal_node_id":"0.0-30.0-0.0","task_version":"screening-mturk","missing":false,"accuracy":1},{"contexts":["blue","red","green"],"outcomes":[0,1,1],"key":38,"choice":1,"rt":310.7750000053784,"outcome":1,"trial":25,"correct":1,"trial_type":"three-arm-trial","trial_index":32,"time_elapsed":485481,"internal_node_id":"0.0-31.0-0.0","task_version":"screening-mturk","missing":false,"accuracy":1},{"contexts":["blue","red","green"],"outcomes":[0,1,0],"key":38,"choice":1,"rt":277.2450000047684,"outcome":1,"trial":26,"correct":1,"trial_type":"three-arm-trial","trial_index":33,"time_elapsed":486965,"internal_node_id":"0.0-32.0-0.0","task_version":"screening-mturk","missing":false,"accuracy":1},{"contexts":["blue","red","green"],"outcomes":[0,0,1],"key":38,"choice":1,"rt":267.3499999946216,"outcome":0,"trial":27,"correct":1,"trial_type":"three-arm-trial","trial_index":34,"time_elapsed":488439,"internal_node_id":"0.0-33.0-0.0","task_version":"screening-mturk","missing":false,"accuracy":1},{"contexts":["blue","red","green"],"outcomes":[0,0,0],"key":37,"choice":0,"rt":296.45500000333413,"outcome":0,"trial":28,"correct":1,"trial_type":"three-arm-trial","trial_index":35,"time_elapsed":489942,"internal_node_id":"0.0-34.0-0.0","task_version":"screening-mturk","missing":false,"accuracy":0},{"contexts":["blue","red","green"],"outcomes":[0,0,0],"key":39,"choice":2,"rt":280.14999999140855,"outcome":0,"trial":29,"correct":1,"trial_type":"three-arm-trial","trial_index":36,"time_elapsed":491426,"internal_node_id":"0.0-35.0-0.0","task_version":"screening-mturk","missing":false,"accuracy":0},{"contexts":["blue","red","green"],"outcomes":[1,1,0],"key":38,"choice":1,"rt":78.9199999999255,"outcome":1,"trial":30,"correct":1,"trial_type":"three-arm-trial","trial_index":37,"time_elapsed":492710,"internal_node_id":"0.0-36.0-0.0","task_version":"screening-mturk","missing":false,"accuracy":1},{"contexts":["blue","red","green"],"outcomes":[1,0,0],"key":38,"choice":1,"rt":298.01500000758097,"outcome":0,"trial":31,"correct":0,"trial_type":"three-arm-trial","trial_index":38,"time_elapsed":494213,"internal_node_id":"0.0-37.0-0.0","task_version":"screening-mturk","missing":false,"accuracy":0},{"contexts":["blue","red","green"],"outcomes":[1,0,0],"key":38,"choice":1,"rt":291.81000000971835,"outcome":0,"trial":32,"correct":0,"trial_type":"three-arm-trial","trial_index":39,"time_elapsed":495710,"internal_node_id":"0.0-38.0-0.0","task_version":"screening-mturk","missing":false,"accuracy":0},{"contexts":["blue","red","green"],"outcomes":[1,0,0],"key":37,"choice":0,"rt":335.85499999753665,"outcome":1,"trial":33,"correct":0,"trial_type":"three-arm-trial","trial_index":40,"time_elapsed":497253,"internal_node_id":"0.0-39.0-0.0","task_version":"screening-mturk","missing":false,"accuracy":1},{"contexts":["blue","red","green"],"outcomes":[0,1,0],"key":37,"choice":0,"rt":385.91000001179054,"outcome":0,"trial":34,"correct":0,"trial_type":"three-arm-trial","trial_index":41,"time_elapsed":498845,"internal_node_id":"0.0-40.0-0.0","task_version":"screening-mturk","missing":false,"accuracy":1},{"contexts":["blue","red","green"],"outcomes":[1,0,0],"key":38,"choice":1,"rt":285.6150000006892,"outcome":0,"trial":35,"correct":0,"trial_type":"three-arm-trial","trial_index":42,"time_elapsed":500334,"internal_node_id":"0.0-41.0-0.0","task_version":"screening-mturk","missing":false,"accuracy":0},{"contexts":["blue","red","green"],"outcomes":[0,1,0],"key":39,"choice":2,"rt":245.535000009113,"outcome":0,"trial":36,"correct":0,"trial_type":"three-arm-trial","trial_index":43,"time_elapsed":501785,"internal_node_id":"0.0-42.0-0.0","task_version":"screening-mturk","missing":false,"accuracy":0},{"contexts":["blue","red","green"],"outcomes":[1,0,0],"key":38,"choice":1,"rt":109.10500001045875,"outcome":0,"trial":37,"correct":0,"trial_type":"three-arm-trial","trial_index":44,"time_elapsed":503098,"internal_node_id":"0.0-43.0-0.0","task_version":"screening-mturk","missing":false,"accuracy":0},{"contexts":["blue","red","green"],"outcomes":[1,0,0],"key":37,"choice":0,"rt":277.62999999686144,"outcome":1,"trial":38,"correct":0,"trial_type":"three-arm-trial","trial_index":45,"time_elapsed":504579,"internal_node_id":"0.0-44.0-0.0","task_version":"screening-mturk","missing":false,"accuracy":1},{"contexts":["blue","red","green"],"outcomes":[0,0,0],"key":37,"choice":0,"rt":279.24499999789987,"outcome":0,"trial":39,"correct":0,"trial_type":"three-arm-trial","trial_index":46,"time_elapsed":506063,"internal_node_id":"0.0-45.0-0.0","task_version":"screening-mturk","missing":false,"accuracy":1},{"contexts":["blue","red","green"],"outcomes":[0,0,1],"key":37,"choice":0,"rt":281.5250000130618,"outcome":0,"trial":40,"correct":0,"trial_type":"three-arm-trial","trial_index":47,"time_elapsed":507550,"internal_node_id":"0.0-46.0-0.0","task_version":"screening-mturk","missing":false,"accuracy":1},{"contexts":["blue","red","green"],"outcomes":[1,0,0],"key":38,"choice":1,"rt":267.33499999681953,"outcome":0,"trial":41,"correct":0,"trial_type":"three-arm-trial","trial_index":48,"time_elapsed":509028,"internal_node_id":"0.0-47.0-0.0","task_version":"screening-mturk","missing":false,"accuracy":0},{"contexts":["blue","red","green"],"outcomes":[1,0,0],"key":39,"choice":2,"rt":254.43499999528285,"outcome":0,"trial":42,"correct":0,"trial_type":"three-arm-trial","trial_index":49,"time_elapsed":510488,"internal_node_id":"0.0-48.0-0.0","task_version":"screening-mturk","missing":false,"accuracy":0},{"contexts":["blue","red","green"],"outcomes":[1,0,0],"key":37,"choice":0,"rt":232.12000000057742,"outcome":1,"trial":43,"correct":0,"trial_type":"three-arm-trial","trial_index":50,"time_elapsed":511923,"internal_node_id":"0.0-49.0-0.0","task_version":"screening-mturk","missing":false,"accuracy":1},{"contexts":["blue","red","green"],"outcomes":[1,1,0],"key":37,"choice":0,"rt":296.8200000032084,"outcome":1,"trial":44,"correct":0,"trial_type":"three-arm-trial","trial_index":51,"time_elapsed":513426,"internal_node_id":"0.0-50.0-0.0","task_version":"screening-mturk","missing":false,"accuracy":1},{"contexts":["blue","red","green"],"outcomes":[1,0,0],"key":37,"choice":0,"rt":371.2399999931222,"outcome":1,"trial":45,"correct":0,"trial_type":"three-arm-trial","trial_index":52,"time_elapsed":515003,"internal_node_id":"0.0-51.0-0.0","task_version":"screening-mturk","missing":false,"accuracy":1},{"contexts":["blue","red","green"],"outcomes":[0,0,1],"key":37,"choice":0,"rt":563.8550000003306,"outcome":0,"trial":46,"correct":2,"trial_type":"three-arm-trial","trial_index":53,"time_elapsed":516771,"internal_node_id":"0.0-52.0-0.0","task_version":"screening-mturk","missing":false,"accuracy":0},{"contexts":["blue","red","green"],"outcomes":[0,0,1],"key":38,"choice":1,"rt":196.4799999987008,"outcome":0,"trial":47,"correct":2,"trial_type":"three-arm-trial","trial_index":54,"time_elapsed":518176,"internal_node_id":"0.0-53.0-0.0","task_version":"screening-mturk","missing":false,"accuracy":0},{"contexts":["blue","red","green"],"outcomes":[0,0,1],"key":37,"choice":0,"rt":368.560000002617,"outcome":0,"trial":48,"correct":2,"trial_type":"three-arm-trial","trial_index":55,"time_elapsed":519748,"internal_node_id":"0.0-54.0-0.0","task_version":"screening-mturk","missing":false,"accuracy":0},{"contexts":["blue","red","green"],"outcomes":[1,0,1],"key":38,"choice":1,"rt":103.47999999066815,"outcome":0,"trial":49,"correct":2,"trial_type":"three-arm-trial","trial_index":56,"time_elapsed":521059,"internal_node_id":"0.0-55.0-0.0","task_version":"screening-mturk","missing":false,"accuracy":0},{"contexts":["blue","red","green"],"outcomes":[1,1,1],"key":39,"choice":2,"rt":265.24000000790693,"outcome":1,"trial":50,"correct":2,"trial_type":"three-arm-trial","trial_index":57,"time_elapsed":522530,"internal_node_id":"0.0-56.0-0.0","task_version":"screening-mturk","missing":false,"accuracy":1},{"contexts":["blue","red","green"],"outcomes":[0,0,1],"key":39,"choice":2,"rt":319.4550000043819,"outcome":1,"trial":51,"correct":2,"trial_type":"three-arm-trial","trial_index":58,"time_elapsed":524057,"internal_node_id":"0.0-57.0-0.0","task_version":"screening-mturk","missing":false,"accuracy":1},{"contexts":["blue","red","green"],"outcomes":[0,0,0],"key":39,"choice":2,"rt":323.41500000620726,"outcome":0,"trial":52,"correct":2,"trial_type":"three-arm-trial","trial_index":59,"time_elapsed":525590,"internal_node_id":"0.0-58.0-0.0","task_version":"screening-mturk","missing":false,"accuracy":1},{"contexts":["blue","red","green"],"outcomes":[0,0,1],"key":38,"choice":1,"rt":296.6699999960838,"outcome":0,"trial":53,"correct":2,"trial_type":"three-arm-trial","trial_index":60,"time_elapsed":527090,"internal_node_id":"0.0-59.0-0.0","task_version":"screening-mturk","missing":false,"accuracy":0},{"contexts":["blue","red","green"],"outcomes":[0,0,0],"key":37,"choice":0,"rt":310.3499999997439,"outcome":0,"trial":54,"correct":2,"trial_type":"three-arm-trial","trial_index":61,"time_elapsed":528604,"internal_node_id":"0.0-60.0-0.0","task_version":"screening-mturk","missing":false,"accuracy":0},{"contexts":["blue","red","green"],"outcomes":[0,0,0],"key":39,"choice":2,"rt":281.9949999975506,"outcome":0,"trial":55,"correct":2,"trial_type":"three-arm-trial","trial_index":62,"time_elapsed":530090,"internal_node_id":"0.0-61.0-0.0","task_version":"screening-mturk","missing":false,"accuracy":1},{"contexts":["blue","red","green"],"outcomes":[0,0,1],"key":38,"choice":1,"rt":118.51000000024214,"outcome":0,"trial":56,"correct":2,"trial_type":"three-arm-trial","trial_index":63,"time_elapsed":531418,"internal_node_id":"0.0-62.0-0.0","task_version":"screening-mturk","missing":false,"accuracy":0},{"contexts":["blue","red","green"],"outcomes":[0,0,1],"key":39,"choice":2,"rt":310.27000000176486,"outcome":1,"trial":57,"correct":2,"trial_type":"three-arm-trial","trial_index":64,"time_elapsed":532936,"internal_node_id":"0.0-63.0-0.0","task_version":"screening-mturk","missing":false,"accuracy":1},{"contexts":["blue","red","green"],"outcomes":[0,0,1],"key":39,"choice":2,"rt":285.31500000099186,"outcome":1,"trial":58,"correct":2,"trial_type":"three-arm-trial","trial_index":65,"time_elapsed":534428,"internal_node_id":"0.0-64.0-0.0","task_version":"screening-mturk","missing":false,"accuracy":1},{"contexts":["blue","red","green"],"outcomes":[0,0,1],"key":39,"choice":2,"rt":339.38999999372754,"outcome":1,"trial":59,"correct":2,"trial_type":"three-arm-trial","trial_index":66,"time_elapsed":535979,"internal_node_id":"0.0-65.0-0.0","task_version":"screening-mturk","missing":false,"accuracy":1},{"contexts":["blue","red","green"],"outcomes":[0,0,1],"key":39,"choice":2,"rt":347.1750000026077,"outcome":1,"trial":60,"correct":2,"trial_type":"three-arm-trial","trial_index":67,"time_elapsed":537531,"internal_node_id":"0.0-66.0-0.0","task_version":"screening-mturk","missing":false,"accuracy":1},{"contexts":["blue","red","green"],"outcomes":[0,1,0],"key":39,"choice":2,"rt":382.49000000359956,"outcome":0,"trial":61,"correct":1,"trial_type":"three-arm-trial","trial_index":68,"time_elapsed":539119,"internal_node_id":"0.0-67.0-0.0","task_version":"screening-mturk","missing":false,"accuracy":0},{"contexts":["blue","red","green"],"outcomes":[0,1,1],"key":37,"choice":0,"rt":318.97000000753906,"outcome":0,"trial":62,"correct":1,"trial_type":"three-arm-trial","trial_index":69,"time_elapsed":540646,"internal_node_id":"0.0-68.0-0.0","task_version":"screening-mturk","missing":false,"accuracy":0},{"contexts":["blue","red","green"],"outcomes":[0,1,0],"key":38,"choice":1,"rt":329.68999999866355,"outcome":1,"trial":63,"correct":1,"trial_type":"three-arm-trial","trial_index":70,"time_elapsed":542181,"internal_node_id":"0.0-69.0-0.0","task_version":"screening-mturk","missing":false,"accuracy":1},{"contexts":["blue","red","green"],"outcomes":[0,1,0],"key":38,"choice":1,"rt":289.7999999986496,"outcome":1,"trial":64,"correct":1,"trial_type":"three-arm-trial","trial_index":71,"time_elapsed":543674,"internal_node_id":"0.0-70.0-0.0","task_version":"screening-mturk","missing":false,"accuracy":1},{"contexts":["blue","red","green"],"outcomes":[0,1,0],"key":38,"choice":1,"rt":335.59999999124557,"outcome":1,"trial":65,"correct":1,"trial_type":"three-arm-trial","trial_index":72,"time_elapsed":545220,"internal_node_id":"0.0-71.0-0.0","task_version":"screening-mturk","missing":false,"accuracy":1},{"contexts":["blue","red","green"],"outcomes":[0,1,0],"key":38,"choice":1,"rt":323.74500000150874,"outcome":1,"trial":66,"correct":1,"trial_type":"three-arm-trial","trial_index":73,"time_elapsed":546751,"internal_node_id":"0.0-72.0-0.0","task_version":"screening-mturk","missing":false,"accuracy":1},{"contexts":["blue","red","green"],"outcomes":[0,1,0],"key":38,"choice":1,"rt":384.9199999967823,"outcome":1,"trial":67,"correct":1,"trial_type":"three-arm-trial","trial_index":74,"time_elapsed":548342,"internal_node_id":"0.0-73.0-0.0","task_version":"screening-mturk","missing":false,"accuracy":1},{"contexts":["blue","red","green"],"outcomes":[1,1,0],"key":38,"choice":1,"rt":841.9050000084098,"outcome":1,"trial":68,"correct":1,"trial_type":"three-arm-trial","trial_index":75,"time_elapsed":550389,"internal_node_id":"0.0-74.0-0.0","task_version":"screening-mturk","missing":false,"accuracy":1},{"contexts":["blue","red","green"],"outcomes":[1,1,0],"key":38,"choice":1,"rt":298.8550000009127,"outcome":1,"trial":69,"correct":1,"trial_type":"three-arm-trial","trial_index":76,"time_elapsed":551893,"internal_node_id":"0.0-75.0-0.0","task_version":"screening-mturk","missing":false,"accuracy":1},{"contexts":["blue","red","green"],"outcomes":[0,1,0],"key":38,"choice":1,"rt":349.4549999886658,"outcome":1,"trial":70,"correct":1,"trial_type":"three-arm-trial","trial_index":77,"time_elapsed":553450,"internal_node_id":"0.0-76.0-0.0","task_version":"screening-mturk","missing":false,"accuracy":1},{"contexts":["blue","red","green"],"outcomes":[0,1,0],"key":38,"choice":1,"rt":280.1350000081584,"outcome":1,"trial":71,"correct":1,"trial_type":"three-arm-trial","trial_index":78,"time_elapsed":554936,"internal_node_id":"0.0-77.0-0.0","task_version":"screening-mturk","missing":false,"accuracy":1},{"contexts":["blue","red","green"],"outcomes":[0,1,0],"key":38,"choice":1,"rt":312.76500000967644,"outcome":1,"trial":72,"correct":1,"trial_type":"three-arm-trial","trial_index":79,"time_elapsed":556458,"internal_node_id":"0.0-78.0-0.0","task_version":"screening-mturk","missing":false,"accuracy":1},{"contexts":["blue","red","green"],"outcomes":[1,1,0],"key":38,"choice":1,"rt":334.89499999268446,"outcome":1,"trial":73,"correct":1,"trial_type":"three-arm-trial","trial_index":80,"time_elapsed":557999,"internal_node_id":"0.0-79.0-0.0","task_version":"screening-mturk","missing":false,"accuracy":1},{"contexts":["blue","red","green"],"outcomes":[0,1,0],"key":38,"choice":1,"rt":319.01000000652857,"outcome":1,"trial":74,"correct":1,"trial_type":"three-arm-trial","trial_index":81,"time_elapsed":559525,"internal_node_id":"0.0-80.0-0.0","task_version":"screening-mturk","missing":false,"accuracy":1},{"contexts":["blue","red","green"],"outcomes":[0,1,0],"key":38,"choice":1,"rt":298.34999999729916,"outcome":1,"trial":75,"correct":1,"trial_type":"three-arm-trial","trial_index":82,"time_elapsed":561027,"internal_node_id":"0.0-81.0-0.0","task_version":"screening-mturk","missing":false,"accuracy":1},{"contexts":["blue","red","green"],"outcomes":[0,1,0],"key":38,"choice":1,"rt":309.1149999963818,"outcome":1,"trial":76,"correct":2,"trial_type":"three-arm-trial","trial_index":83,"time_elapsed":562540,"internal_node_id":"0.0-82.0-0.0","task_version":"screening-mturk","missing":false,"accuracy":0},{"contexts":["blue","red","green"],"outcomes":[0,0,1],"key":38,"choice":1,"rt":639.3749999988358,"outcome":0,"trial":77,"correct":2,"trial_type":"three-arm-trial","trial_index":84,"time_elapsed":564385,"internal_node_id":"0.0-83.0-0.0","task_version":"screening-mturk","missing":false,"accuracy":0},{"contexts":["blue","red","green"],"outcomes":[1,0,1],"key":39,"choice":2,"rt":79.86000001255888,"outcome":1,"trial":78,"correct":2,"trial_type":"three-arm-trial","trial_index":85,"time_elapsed":565672,"internal_node_id":"0.0-84.0-0.0","task_version":"screening-mturk","missing":false,"accuracy":1},{"contexts":["blue","red","green"],"outcomes":[0,1,1],"key":39,"choice":2,"rt":335.7150000083493,"outcome":1,"trial":79,"correct":2,"trial_type":"three-arm-trial","trial_index":86,"time_elapsed":567215,"internal_node_id":"0.0-85.0-0.0","task_version":"screening-mturk","missing":false,"accuracy":1},{"contexts":["blue","red","green"],"outcomes":[0,0,1],"key":39,"choice":2,"rt":395.3049999981886,"outcome":1,"trial":80,"correct":2,"trial_type":"three-arm-trial","trial_index":87,"time_elapsed":568817,"internal_node_id":"0.0-86.0-0.0","task_version":"screening-mturk","missing":false,"accuracy":1},{"contexts":["blue","red","green"],"outcomes":[0,1,1],"key":39,"choice":2,"rt":609.2599999974482,"outcome":1,"trial":81,"correct":2,"trial_type":"three-arm-trial","trial_index":88,"time_elapsed":570631,"internal_node_id":"0.0-87.0-0.0","task_version":"screening-mturk","missing":false,"accuracy":1},{"contexts":["blue","red","green"],"outcomes":[0,0,1],"key":39,"choice":2,"rt":493.84499998996034,"outcome":1,"trial":82,"correct":2,"trial_type":"three-arm-trial","trial_index":89,"time_elapsed":572330,"internal_node_id":"0.0-88.0-0.0","task_version":"screening-mturk","missing":false,"accuracy":1},{"contexts":["blue","red","green"],"outcomes":[0,0,0],"key":39,"choice":2,"rt":1013.745000003837,"outcome":0,"trial":83,"correct":2,"trial_type":"three-arm-trial","trial_index":90,"time_elapsed":574547,"internal_node_id":"0.0-89.0-0.0","task_version":"screening-mturk","missing":false,"accuracy":1},{"contexts":["blue","red","green"],"outcomes":[0,0,1],"key":38,"choice":1,"rt":273.6750000040047,"outcome":0,"trial":84,"correct":2,"trial_type":"three-arm-trial","trial_index":91,"time_elapsed":576026,"internal_node_id":"0.0-90.0-0.0","task_version":"screening-mturk","missing":false,"accuracy":0},{"contexts":["blue","red","green"],"outcomes":[0,0,1],"key":39,"choice":2,"rt":354.7450000041863,"outcome":1,"trial":85,"correct":2,"trial_type":"three-arm-trial","trial_index":92,"time_elapsed":577585,"internal_node_id":"0.0-91.0-0.0","task_version":"screening-mturk","missing":false,"accuracy":1},{"contexts":["blue","red","green"],"outcomes":[1,0,0],"key":39,"choice":2,"rt":481.6850000061095,"outcome":0,"trial":86,"correct":2,"trial_type":"three-arm-trial","trial_index":93,"time_elapsed":579274,"internal_node_id":"0.0-92.0-0.0","task_version":"screening-mturk","missing":false,"accuracy":1},{"contexts":["blue","red","green"],"outcomes":[0,0,1],"key":38,"choice":1,"rt":284.55499999108724,"outcome":0,"trial":87,"correct":2,"trial_type":"three-arm-trial","trial_index":94,"time_elapsed":580768,"internal_node_id":"0.0-93.0-0.0","task_version":"screening-mturk","missing":false,"accuracy":0},{"contexts":["blue","red","green"],"outcomes":[0,1,1],"key":37,"choice":0,"rt":195.39500000246335,"outcome":0,"trial":88,"correct":2,"trial_type":"three-arm-trial","trial_index":95,"time_elapsed":582172,"internal_node_id":"0.0-94.0-0.0","task_version":"screening-mturk","missing":false,"accuracy":0},{"contexts":["blue","red","green"],"outcomes":[0,0,1],"key":38,"choice":1,"rt":299.6149999962654,"outcome":0,"trial":89,"correct":2,"trial_type":"three-arm-trial","trial_index":96,"time_elapsed":583683,"internal_node_id":"0.0-95.0-0.0","task_version":"screening-mturk","missing":false,"accuracy":0},{"contexts":["blue","red","green"],"outcomes":[0,1,1],"key":39,"choice":2,"rt":249.23499999567866,"outcome":1,"trial":90,"correct":2,"trial_type":"three-arm-trial","trial_index":97,"time_elapsed":585137,"internal_node_id":"0.0-96.0-0.0","task_version":"screening-mturk","missing":false,"accuracy":1},{"rt":29448.495000004186,"responses":{"age":"38","gender-categorical":"Male","gender-free-response":"","ethnicity":"Not Hispanic or Latino","race":["White"],"language":"Yes","fluency":"Very well","prolific":"Yes","prolific-this-study":"No"},"survey":"demographics","trial_type":"survey-demo","trial_index":98,"time_elapsed":614607,"internal_node_id":"0.0-97.0","task_version":"screening-mturk","interactions":"[{\"event\":\"blur\",\"trial\":4,\"time\":304850},{\"event\":\"focus\",\"trial\":4,\"time\":325139}]"}]