[{"responses":{"Q04":"2","Q05":"2","Q02":"3","Q06":"2","Q03":"3","Q08":"2","Q01":"3","Q07":"2"},"rt":77323.88499996159,"survey":"gad7","trial_type":"survey-template","trial_index":0,"time_elapsed":77353,"internal_node_id":"0.0-0.0","task_version":"screening-mturk"},{"responses":{"Q01":"3","Q03":"4","Q02":"3"},"rt":6120.2350000385195,"survey":"pswq","trial_type":"survey-template","trial_index":1,"time_elapsed":83478,"internal_node_id":"0.0-1.0","task_version":"screening-mturk"},{"responses":{"Q11":"2","Q01":"3","Q07":"2","Q05":"3","Q14":"2","Q03":"3","Q04":"2","Q02":"3","Q08":"3","Q13":"2","Q06":"3","Q10":"3","Q15":"2","Q12":"3","Q09":"3"},"rt":37528.82499998668,"survey":"shaps","trial_type":"survey-template","trial_index":2,"time_elapsed":121013,"internal_node_id":"0.0-2.0","task_version":"screening-mturk"},{"responses":{"Q07":"3","Q15":"2","Q11":"3","Q04":"3","Q14":"2","Q01":"2","Q10":"3","Q09":"3","Q05":"2","Q08":"3","Q12":"3","Q06":"2","Q13":"3","Q03":"3","Q02":"2"},"rt":29122.015000029933,"survey":"7up7down","trial_type":"survey-template","trial_index":3,"time_elapsed":150140,"internal_node_id":"0.0-3.0","task_version":"screening-mturk"},{"responses":{"Q06":"2","Q08":"3","Q11":"2","Q03":"3","Q07":"2","Q02":"3","Q12":"2","Q05":"3","Q09":"2","Q10":"3","Q04":"2","Q13":"3","Q01":"2"},"rt":31141.30999997724,"survey":"bisbas","trial_type":"survey-template","trial_index":4,"time_elapsed":181299,"internal_node_id":"0.0-4.0","task_version":"screening-mturk"},{"view_history":"[{\"page_index\":0,\"viewing_time\":6404.135000018869},{\"page_index\":1,\"viewing_time\":3659.459999995306},{\"page_index\":2,\"viewing_time\":3262.8549999790266},{\"page_index\":3,\"viewing_time\":8118.575000029523},{\"page_index\":4,\"viewing_time\":1199.2099999915808},{\"page_index\":5,\"viewing_time\":5939.31500002509},{\"page_index\":6,\"viewing_time\":1361.1049999599345},{\"page_index\":7,\"viewing_time\":1378.9250000263564}]","rt":31324.85999999335,"trial_type":"instructions","trial_index":5,"time_elapsed":212627,"internal_node_id":"0.0-5.0-0.0","task_version":"screening-mturk"},{"responses":["True","True","True","True","True"],"num_errors":2,"rt":45979.25000003306,"trial_type":"three-arm-comprehension","trial_index":6,"time_elapsed":258616,"internal_node_id":"0.0-5.0-1.0","task_version":"screening-mturk"},{"view_history":"[{\"page_index\":0,\"viewing_time\":2081.975000037346},{\"page_index\":1,\"viewing_time\":940.7249999931082},{\"page_index\":2,\"viewing_time\":618.8499999698251},{\"page_index\":3,\"viewing_time\":720.0450000236742},{\"page_index\":4,\"viewing_time\":720.244999974966},{\"page_index\":5,\"viewing_time\":714.6599999978207},{\"page_index\":6,\"viewing_time\":704.7449999954551},{\"page_index\":7,\"viewing_time\":962.645000021439}]","rt":7464.399999997113,"trial_type":"instructions","trial_index":7,"time_elapsed":266088,"internal_node_id":"0.0-5.1-0.1","task_version":"screening-mturk"},{"responses":["True","True","True","True","True"],"num_errors":2,"rt":8015.805000031833,"trial_type":"three-arm-comprehension","trial_index":8,"time_elapsed":274109,"internal_node_id":"0.0-5.1-1.1","task_version":"screening-mturk"},{"view_history":"[{\"page_index\":0,\"viewing_time\":1993.0299999541603},{\"page_index\":1,\"viewing_time\":246.48000003071502},{\"page_index\":2,\"viewing_time\":194.2399999825284},{\"page_index\":3,\"viewing_time\":295.9099999861792},{\"page_index\":4,\"viewing_time\":1043.6400000471622},{\"page_index\":5,\"viewing_time\":944.6699999971315},{\"page_index\":6,\"viewing_time\":975.0699999858625},{\"page_index\":7,\"viewing_time\":980.3749999846332}]","rt":6673.959999985527,"trial_type":"instructions","trial_index":9,"time_elapsed":280786,"internal_node_id":"0.0-5.2-0.2","task_version":"screening-mturk"},{"responses":["True","False","True","True","False"],"num_errors":4,"rt":12678.239999979269,"trial_type":"three-arm-comprehension","trial_index":10,"time_elapsed":293468,"internal_node_id":"0.0-5.2-1.2","task_version":"screening-mturk"},{"view_history":"[{\"page_index\":0,\"viewing_time\":1573.9799999864772},{\"page_index\":1,\"viewing_time\":200.85500000277534},{\"page_index\":2,\"viewing_time\":219.3200000328943},{\"page_index\":3,\"viewing_time\":200.92499995371327},{\"page_index\":4,\"viewing_time\":195.91000000946224},{\"page_index\":5,\"viewing_time\":1122.9000000166707},{\"page_index\":6,\"viewing_time\":1281.0300000128336},{\"page_index\":7,\"viewing_time\":1458.9999999734573}]","rt":6254.4399999897,"trial_type":"instructions","trial_index":11,"time_elapsed":299726,"internal_node_id":"0.0-5.3-0.3","task_version":"screening-mturk"},{"responses":["True","True","False","True","True"],"num_errors":1,"rt":8975.389999977779,"trial_type":"three-arm-comprehension","trial_index":12,"time_elapsed":308710,"internal_node_id":"0.0-5.3-1.3","task_version":"screening-mturk"},{"view_history":"[{\"page_index\":0,\"viewing_time\":1912.7950000111014},{\"page_index\":1,\"viewing_time\":261.11999998101965},{\"page_index\":2,\"viewing_time\":210.72999999159947},{\"page_index\":3,\"viewing_time\":217.51500002574176},{\"page_index\":4,\"viewing_time\":1075.9850000031292},{\"page_index\":5,\"viewing_time\":935.7799999997951},{\"page_index\":6,\"viewing_time\":924.4049999979325},{\"page_index\":7,\"viewing_time\":894.3149999831803}]","rt":6433.145000017248,"trial_type":"instructions","trial_index":13,"time_elapsed":315146,"internal_node_id":"0.0-5.4-0.4","task_version":"screening-mturk"},{"responses":["True","False","True","False","True"],"num_errors":2,"rt":9399.32000002591,"trial_type":"three-arm-comprehension","trial_index":14,"time_elapsed":324552,"internal_node_id":"0.0-5.4-1.4","task_version":"screening-mturk"},{"view_history":"[{\"page_index\":0,\"viewing_time\":1827.0350000238977},{\"page_index\":1,\"viewing_time\":254.78000001749024},{\"page_index\":2,\"viewing_time\":182.8349999850616},{\"page_index\":3,\"viewing_time\":795.7649999880232},{\"page_index\":4,\"viewing_time\":309.60999999661},{\"page_index\":5,\"viewing_time\":7120.6099999835715},{\"page_index\":6,\"viewing_time\":960.3850000421517},{\"page_index\":7,\"viewing_time\":5053.469999984372}]","rt":16505.310000036843,"trial_type":"instructions","trial_index":15,"time_elapsed":341061,"internal_node_id":"0.0-5.5-0.5","task_version":"screening-mturk"},{"responses":["True","False","True","True","False"],"num_errors":4,"rt":13794.135000032838,"trial_type":"three-arm-comprehension","trial_index":16,"time_elapsed":354858,"internal_node_id":"0.0-5.5-1.5","task_version":"screening-mturk"},{"view_history":"[{\"page_index\":0,\"viewing_time\":2262.685000023339},{\"page_index\":1,\"viewing_time\":825.8849999983795},{\"page_index\":2,\"viewing_time\":934.514999971725},{\"page_index\":3,\"viewing_time\":1194.855000008829},{\"page_index\":4,\"viewing_time\":875.2150000073016},{\"page_index\":5,\"viewing_time\":952.3499999777414},{\"page_index\":6,\"viewing_time\":875.0850000069477},{\"page_index\":7,\"viewing_time\":1012.5750000006519}]","rt":8933.765000023413,"trial_type":"instructions","trial_index":17,"time_elapsed":363796,"internal_node_id":"0.0-5.6-0.6","task_version":"screening-mturk"},{"responses":["True","False","False","True","False"],"num_errors":3,"rt":12716.360000020359,"trial_type":"three-arm-comprehension","trial_index":18,"time_elapsed":376515,"internal_node_id":"0.0-5.6-1.6","task_version":"screening-mturk"},{"view_history":"[{\"page_index\":0,\"viewing_time\":5088.110000011511},{\"page_index\":1,\"viewing_time\":1058.1749999546446},{\"page_index\":2,\"viewing_time\":880.4050000035204},{\"page_index\":3,\"viewing_time\":1249.0499999839813},{\"page_index\":4,\"viewing_time\":850.0650000059977},{\"page_index\":5,\"viewing_time\":935.3000000119209},{\"page_index\":6,\"viewing_time\":784.5550000201911},{\"page_index\":7,\"viewing_time\":1060.5399999767542}]","rt":11909.854999976233,"trial_type":"instructions","trial_index":19,"time_elapsed":388429,"internal_node_id":"0.0-5.7-0.7","task_version":"screening-mturk"},{"responses":["True","False","True","False","True"],"num_errors":2,"rt":8934.949999966193,"trial_type":"three-arm-comprehension","trial_index":20,"time_elapsed":397372,"internal_node_id":"0.0-5.7-1.7","task_version":"screening-mturk"},{"view_history":"[{\"page_index\":0,\"viewing_time\":1881.4949999796227},{\"page_index\":1,\"viewing_time\":218.63000001758337},{\"page_index\":2,\"viewing_time\":226.25999996671453},{\"page_index\":3,\"viewing_time\":143.59500003047287},{\"page_index\":4,\"viewing_time\":200.18499996513128},{\"page_index\":5,\"viewing_time\":1059.6350000123493},{\"page_index\":6,\"viewing_time\":1032.279999984894},{\"page_index\":7,\"viewing_time\":1387.6199999940582}]","rt":6150.184999976773,"trial_type":"instructions","trial_index":21,"time_elapsed":403526,"internal_node_id":"0.0-5.8-0.8","task_version":"screening-mturk"},{"responses":["True","True","True","True","True"],"num_errors":2,"rt":10758.489999978337,"trial_type":"three-arm-comprehension","trial_index":22,"time_elapsed":414289,"internal_node_id":"0.0-5.8-1.8","task_version":"screening-mturk"},{"view_history":"[{\"page_index\":0,\"viewing_time\":1659.0250000008382},{\"page_index\":1,\"viewing_time\":245.63999997917563},{\"page_index\":2,\"viewing_time\":521.5900000184774},{\"page_index\":3,\"viewing_time\":1097.994999960065},{\"page_index\":4,\"viewing_time\":1065.5600000172853},{\"page_index\":5,\"viewing_time\":929.7249999945052},{\"page_index\":6,\"viewing_time\":928.3350000041537},{\"page_index\":7,\"viewing_time\":911.8800000287592}]","rt":7360.419999982696,"trial_type":"instructions","trial_index":23,"time_elapsed":421662,"internal_node_id":"0.0-5.9-0.9","task_version":"screening-mturk"},{"responses":["True","True","False","True","True"],"num_errors":1,"rt":8356.975000002421,"trial_type":"three-arm-comprehension","trial_index":24,"time_elapsed":430023,"internal_node_id":"0.0-5.9-1.9","task_version":"screening-mturk"},{"view_history":"[{\"page_index\":0,\"viewing_time\":1812.3100000084378},{\"page_index\":1,\"viewing_time\":224.58499995991588},{\"page_index\":2,\"viewing_time\":199.74000001093373},{\"page_index\":3,\"viewing_time\":204.22499999403954},{\"page_index\":4,\"viewing_time\":211.34999999776483},{\"page_index\":5,\"viewing_time\":904.1100000031292},{\"page_index\":6,\"viewing_time\":936.9600000209175},{\"page_index\":7,\"viewing_time\":823.3650000183843}]","rt":5317.165000014938,"trial_type":"instructions","trial_index":25,"time_elapsed":435346,"internal_node_id":"0.0-5.10-0.10","task_version":"screening-mturk"},{"responses":["True","True","False","True","False"],"num_errors":2,"rt":9578.014999977313,"trial_type":"three-arm-comprehension","trial_index":26,"time_elapsed":444928,"internal_node_id":"0.0-5.10-1.10","task_version":"screening-mturk"},{"view_history":"[{\"page_index\":0,\"viewing_time\":2099.240000010468},{\"page_index\":1,\"viewing_time\":1064.055000024382},{\"page_index\":2,\"viewing_time\":920.3799999668263},{\"page_index\":3,\"viewing_time\":820.0000000069849},{\"page_index\":4,\"viewing_time\":920.1750000356697},{\"page_index\":5,\"viewing_time\":1079.7549999551848},{\"page_index\":6,\"viewing_time\":1199.590000032913},{\"page_index\":7,\"viewing_time\":960.5299999821}]","rt":9064.175000006799,"trial_type":"instructions","trial_index":27,"time_elapsed":454005,"internal_node_id":"0.0-5.11-0.11","task_version":"screening-mturk"},{"responses":["True","True","False","False","True"],"num_errors":0,"rt":10797.855000011623,"trial_type":"three-arm-comprehension","trial_index":28,"time_elapsed":464807,"internal_node_id":"0.0-5.11-1.11","task_version":"screening-mturk"},{"view_history":"[{\"page_index\":0,\"viewing_time\":4550.58999999892}]","rt":4551.0449999710545,"trial_type":"instructions","trial_index":29,"time_elapsed":469365,"internal_node_id":"0.0-6.0","task_version":"screening-mturk"},{"contexts":["blue","green","red"],"outcomes":[0,1,1],"key":null,"rt":null,"trial":1,"correct":1,"trial_type":"three-arm-trial","trial_index":30,"time_elapsed":484381,"internal_node_id":"0.0-7.0-0.0","task_version":"screening-mturk","missing":true},{"contexts":["blue","green","red"],"outcomes":[0,1,1],"key":null,"rt":null,"trial":1,"correct":1,"trial_type":"three-arm-trial","trial_index":31,"time_elapsed":499390,"internal_node_id":"0.0-7.1-0.1","task_version":"screening-mturk","missing":true},{"contexts":["blue","green","red"],"outcomes":[0,1,1],"key":null,"rt":null,"trial":1,"correct":1,"trial_type":"three-arm-trial","trial_index":32,"time_elapsed":514400,"internal_node_id":"0.0-7.2-0.2","task_version":"screening-mturk","missing":true},{"contexts":["blue","green","red"],"outcomes":[0,1,1],"key":null,"rt":null,"trial":1,"correct":1,"trial_type":"three-arm-trial","trial_index":33,"time_elapsed":529426,"internal_node_id":"0.0-7.3-0.3","task_version":"screening-mturk","missing":true},{"contexts":["blue","green","red"],"outcomes":[0,1,1],"key":null,"rt":null,"trial":1,"correct":1,"trial_type":"three-arm-trial","trial_index":34,"time_elapsed":544450,"internal_node_id":"0.0-7.4-0.4","task_version":"screening-mturk","missing":true},{"contexts":["blue","green","red"],"outcomes":[0,1,1],"key":null,"rt":null,"trial":1,"correct":1,"trial_type":"three-arm-trial","trial_index":35,"time_elapsed":559628,"internal_node_id":"0.0-7.5-0.5","task_version":"screening-mturk","missing":true,"interactions":"[{\"event\":\"blur\",\"trial\":34,\"time\":530395},{\"event\":\"focus\",\"trial\":34,\"time\":530958},{\"event\":\"focus\",\"trial\":34,\"time\":530959},{\"event\":\"blur\",\"trial\":34,\"time\":531203},{\"event\":\"focus\",\"trial\":34,\"time\":531995},{\"event\":\"focus\",\"trial\":34,\"time\":531995},{\"event\":\"blur\",\"trial\":34,\"time\":532645},{\"event\":\"focus\",\"trial\":34,\"time\":533512},{\"event\":\"focus\",\"trial\":34,\"time\":533512},{\"event\":\"blur\",\"trial\":34,\"time\":534983},{\"event\":\"focus\",\"trial\":34,\"time\":541446},{\"event\":\"focus\",\"trial\":34,\"time\":541446}]"}]