[{"responses":{"Q06":"3","Q10":"1","Q14":"1","Q03":"1","Q07":"3","Q09":"3","Q08":"1","Q12":"3","Q05":"3","Q02":"3","Q04":"0","Q01":"3","Q15":"2","Q11":"3","Q13":"3"},"rt":17875.505000003614,"survey":"shaps","trial_type":"survey-template","trial_index":0,"time_elapsed":17904,"internal_node_id":"0.0-0.0","task_version":"screening-mturk"},{"responses":{"Q02":"4","Q01":"1","Q03":"4"},"rt":4688.354999991134,"survey":"pswq","trial_type":"survey-template","trial_index":1,"time_elapsed":22611,"internal_node_id":"0.0-1.0","task_version":"screening-mturk"},{"responses":{"Q01":"1","Q11":"3","Q13":"3","Q08":"3","Q02":"3","Q09":"0","Q10":"3","Q03":"3","Q07":"3","Q04":"1","Q12":"3","Q05":"3","Q06":"1"},"rt":8085.209999931976,"survey":"bisbas","trial_type":"survey-template","trial_index":2,"time_elapsed":30714,"internal_node_id":"0.0-2.0","task_version":"screening-mturk"},{"responses":{"Q14":"2","Q07":"3","Q15":"3","Q08":"2","Q04":"3","Q05":"3","Q12":"3","Q02":"2","Q03":"1","Q13":"1","Q10":"1","Q09":"3","Q06":"1","Q11":"2","Q01":"3"},"rt":8738.414999912493,"survey":"7up7down","trial_type":"survey-template","trial_index":3,"time_elapsed":39466,"internal_node_id":"0.0-3.0","task_version":"screening-mturk"},{"responses":{"Q08":"1","Q05":"3","Q03":"3","Q07":"3","Q04":"0","Q06":"1","Q02":"2","Q01":"3"},"rt":5441.37499993667,"survey":"gad7","trial_type":"survey-template","trial_index":4,"time_elapsed":44923,"internal_node_id":"0.0-4.0","task_version":"screening-mturk"},{"view_history":"[{\"page_index\":0,\"viewing_time\":4300.86499999743},{\"page_index\":1,\"viewing_time\":1711.0450000036508},{\"page_index\":2,\"viewing_time\":1423.534999950789},{\"page_index\":3,\"viewing_time\":2502.6700000744313},{\"page_index\":4,\"viewing_time\":1312.1649998938665},{\"page_index\":5,\"viewing_time\":1225.6599999964237},{\"page_index\":6,\"viewing_time\":1177.93000000529},{\"page_index\":7,\"viewing_time\":1110.5500000994653}]","rt":14766.414999961853,"trial_type":"instructions","trial_index":5,"time_elapsed":59696,"internal_node_id":"0.0-5.0-0.0","task_version":"screening-mturk"},{"responses":["True","True","False","False","True"],"num_errors":0,"rt":6406.654999940656,"trial_type":"three-arm-comprehension","trial_index":6,"time_elapsed":66121,"internal_node_id":"0.0-5.0-1.0","task_version":"screening-mturk"},{"view_history":"[{\"page_index\":0,\"viewing_time\":2484.4649999868125}]","rt":2485.5749999405816,"trial_type":"instructions","trial_index":7,"time_elapsed":68624,"internal_node_id":"0.0-6.0","task_version":"screening-mturk"},{"contexts":["red","green","blue"],"outcomes":[0,0,1],"key":null,"rt":null,"trial":1,"correct":2,"trial_type":"three-arm-trial","trial_index":8,"time_elapsed":83641,"internal_node_id":"0.0-7.0-0.0","task_version":"screening-mturk","missing":true},{"contexts":["red","green","blue"],"outcomes":[0,0,1],"key":null,"rt":null,"trial":1,"correct":2,"trial_type":"three-arm-trial","trial_index":9,"time_elapsed":98655,"internal_node_id":"0.0-7.1-0.1","task_version":"screening-mturk","missing":true},{"contexts":["red","green","blue"],"outcomes":[0,0,1],"key":null,"rt":null,"trial":1,"correct":2,"trial_type":"three-arm-trial","trial_index":10,"time_elapsed":113670,"internal_node_id":"0.0-7.2-0.2","task_version":"screening-mturk","missing":true},{"contexts":["red","green","blue"],"outcomes":[0,0,1],"key":null,"rt":null,"trial":1,"correct":2,"trial_type":"three-arm-trial","trial_index":11,"time_elapsed":128683,"internal_node_id":"0.0-7.3-0.3","task_version":"screening-mturk","missing":true},{"contexts":["red","green","blue"],"outcomes":[0,0,1],"key":null,"rt":null,"trial":1,"correct":2,"trial_type":"three-arm-trial","trial_index":12,"time_elapsed":143695,"internal_node_id":"0.0-7.4-0.4","task_version":"screening-mturk","missing":true},{"contexts":["red","green","blue"],"outcomes":[0,0,1],"key":null,"rt":null,"trial":1,"correct":2,"trial_type":"three-arm-trial","trial_index":13,"time_elapsed":158941,"internal_node_id":"0.0-7.5-0.5","task_version":"screening-mturk","missing":true,"interactions":"[{\"event\":\"blur\",\"trial\":0,\"time\":13931},{\"event\":\"focus\",\"trial\":0,\"time\":17796},{\"event\":\"focus\",\"trial\":0,\"time\":17796},{\"event\":\"blur\",\"trial\":13,\"time\":157155}]"}]