[{"responses":{"Q13":"3","Q02":"1","Q05":"2","Q10":"3","Q01":"2","Q11":"2","Q08":"2","Q03":"1","Q07":"3","Q04":"3","Q09":"3","Q12":"2","Q06":"3"},"rt":45355.0750000004,"survey":"bisbas","trial_type":"survey-template","trial_index":0,"time_elapsed":45376,"internal_node_id":"0.0-0.0","task_version":"screening-mturk"},{"responses":{"Q02":"2","Q01":"2","Q08":"0","Q03":"1","Q05":"0","Q04":"2","Q07":"2","Q06":"1"},"rt":19833.180000000546,"survey":"gad7","trial_type":"survey-template","trial_index":1,"time_elapsed":65219,"internal_node_id":"0.0-1.0","task_version":"screening-mturk"},{"responses":{"Q09":"1","Q10":"0","Q11":"0","Q12":"0","Q02":"0","Q08":"1","Q07":"0","Q14":"0","Q01":"0","Q15":"0","Q03":"0","Q05":"0","Q04":"0","Q06":"0","Q13":"0"},"rt":74805.23499999981,"survey":"7up7down","trial_type":"survey-template","trial_index":2,"time_elapsed":140036,"internal_node_id":"0.0-2.0","task_version":"screening-mturk"},{"responses":{"Q15":"3","Q07":"2","Q05":"2","Q02":"3","Q10":"3","Q11":"2","Q06":"2","Q01":"3","Q13":"2","Q09":"3","Q04":"2","Q12":"2","Q03":"3","Q14":"2","Q08":"3"},"rt":45106.209999999934,"survey":"shaps","trial_type":"survey-template","trial_index":3,"time_elapsed":185155,"internal_node_id":"0.0-3.0","task_version":"screening-mturk"},{"responses":{"Q02":"2","Q03":"2","Q01":"2"},"rt":8955.315000000177,"survey":"pswq","trial_type":"survey-template","trial_index":4,"time_elapsed":194118,"internal_node_id":"0.0-4.0","task_version":"screening-mturk"},{"view_history":"[{\"page_index\":0,\"viewing_time\":3723.090000000404},{\"page_index\":1,\"viewing_time\":6045.269999999611},{\"page_index\":2,\"viewing_time\":5272.235000000364},{\"page_index\":3,\"viewing_time\":5008.280000000028},{\"page_index\":4,\"viewing_time\":5044.334999999584},{\"page_index\":5,\"viewing_time\":3765.084999999992},{\"page_index\":6,\"viewing_time\":3815.859999999695},{\"page_index\":7,\"viewing_time\":2776.9400000006426}]","rt":35453.37500000003,"trial_type":"instructions","trial_index":5,"time_elapsed":229575,"internal_node_id":"0.0-5.0-0.0","task_version":"screening-mturk"},{"responses":["True","True","False","False","True"],"num_errors":0,"rt":12119.714999999822,"trial_type":"three-arm-comprehension","trial_index":6,"time_elapsed":241703,"internal_node_id":"0.0-5.0-1.0","task_version":"screening-mturk"},{"view_history":"[{\"page_index\":0,\"viewing_time\":2429.4749999999185}]","rt":2430.1299999997136,"trial_type":"instructions","trial_index":7,"time_elapsed":244147,"internal_node_id":"0.0-6.0","task_version":"screening-mturk"},{"contexts":["red","blue","green"],"outcomes":[1,1,1],"key":38,"choice":1,"rt":1130.5149999998393,"outcome":1,"trial":1,"correct":2,"trial_type":"three-arm-trial","trial_index":8,"time_elapsed":246488,"internal_node_id":"0.0-7.0-0.0","task_version":"screening-mturk","missing":false,"accuracy":0},{"contexts":["red","blue","green"],"outcomes":[0,0,1],"key":39,"choice":2,"rt":1471.07500000039,"outcome":1,"trial":2,"correct":2,"trial_type":"three-arm-trial","trial_index":9,"time_elapsed":249166,"internal_node_id":"0.0-8.0-0.0","task_version":"screening-mturk","missing":false,"accuracy":1},{"contexts":["red","blue","green"],"outcomes":[0,0,1],"key":37,"choice":0,"rt":840.0899999997055,"outcome":0,"trial":3,"correct":2,"trial_type":"three-arm-trial","trial_index":10,"time_elapsed":251211,"internal_node_id":"0.0-9.0-0.0","task_version":"screening-mturk","missing":false,"accuracy":0},{"contexts":["red","blue","green"],"outcomes":[0,0,1],"key":38,"choice":1,"rt":870.2450000000536,"outcome":0,"trial":4,"correct":2,"trial_type":"three-arm-trial","trial_index":11,"time_elapsed":253290,"internal_node_id":"0.0-10.0-0.0","task_version":"screening-mturk","missing":false,"accuracy":0},{"contexts":["red","blue","green"],"outcomes":[0,0,1],"key":37,"choice":0,"rt":649.3599999994331,"outcome":0,"trial":5,"correct":2,"trial_type":"three-arm-trial","trial_index":12,"time_elapsed":255147,"internal_node_id":"0.0-11.0-0.0","task_version":"screening-mturk","missing":false,"accuracy":0},{"contexts":["red","blue","green"],"outcomes":[0,0,1],"key":38,"choice":1,"rt":545.7050000004529,"outcome":0,"trial":6,"correct":2,"trial_type":"three-arm-trial","trial_index":13,"time_elapsed":256899,"internal_node_id":"0.0-12.0-0.0","task_version":"screening-mturk","missing":false,"accuracy":0},{"contexts":["red","blue","green"],"outcomes":[1,0,1],"key":39,"choice":2,"rt":518.0900000004913,"outcome":1,"trial":7,"correct":2,"trial_type":"three-arm-trial","trial_index":14,"time_elapsed":258620,"internal_node_id":"0.0-13.0-0.0","task_version":"screening-mturk","missing":false,"accuracy":1},{"contexts":["red","blue","green"],"outcomes":[1,1,1],"key":39,"choice":2,"rt":541.7699999998149,"outcome":1,"trial":8,"correct":2,"trial_type":"three-arm-trial","trial_index":15,"time_elapsed":260366,"internal_node_id":"0.0-14.0-0.0","task_version":"screening-mturk","missing":false,"accuracy":1},{"contexts":["red","blue","green"],"outcomes":[1,0,1],"key":39,"choice":2,"rt":700.1150000005728,"outcome":1,"trial":9,"correct":2,"trial_type":"three-arm-trial","trial_index":16,"time_elapsed":262269,"internal_node_id":"0.0-15.0-0.0","task_version":"screening-mturk","missing":false,"accuracy":1},{"contexts":["red","blue","green"],"outcomes":[0,0,1],"key":39,"choice":2,"rt":578.2500000005239,"outcome":1,"trial":10,"correct":2,"trial_type":"three-arm-trial","trial_index":17,"time_elapsed":264051,"internal_node_id":"0.0-16.0-0.0","task_version":"screening-mturk","missing":false,"accuracy":1},{"contexts":["red","blue","green"],"outcomes":[0,0,0],"key":39,"choice":2,"rt":671.1100000002189,"outcome":0,"trial":11,"correct":2,"trial_type":"three-arm-trial","trial_index":18,"time_elapsed":265927,"internal_node_id":"0.0-17.0-0.0","task_version":"screening-mturk","missing":false,"accuracy":1},{"contexts":["red","blue","green"],"outcomes":[0,0,1],"key":39,"choice":2,"rt":594.6999999996624,"outcome":1,"trial":12,"correct":2,"trial_type":"three-arm-trial","trial_index":19,"time_elapsed":267728,"internal_node_id":"0.0-18.0-0.0","task_version":"screening-mturk","missing":false,"accuracy":1},{"contexts":["red","blue","green"],"outcomes":[1,0,1],"key":39,"choice":2,"rt":603.0549999995856,"outcome":1,"trial":13,"correct":2,"trial_type":"three-arm-trial","trial_index":20,"time_elapsed":269536,"internal_node_id":"0.0-19.0-0.0","task_version":"screening-mturk","missing":false,"accuracy":1},{"contexts":["red","blue","green"],"outcomes":[0,0,1],"key":39,"choice":2,"rt":647.5350000000326,"outcome":1,"trial":14,"correct":2,"trial_type":"three-arm-trial","trial_index":21,"time_elapsed":271388,"internal_node_id":"0.0-20.0-0.0","task_version":"screening-mturk","missing":false,"accuracy":1},{"contexts":["red","blue","green"],"outcomes":[0,1,1],"key":39,"choice":2,"rt":591.5949999998556,"outcome":1,"trial":15,"correct":2,"trial_type":"three-arm-trial","trial_index":22,"time_elapsed":273183,"internal_node_id":"0.0-21.0-0.0","task_version":"screening-mturk","missing":false,"accuracy":1},{"contexts":["red","blue","green"],"outcomes":[0,1,1],"key":39,"choice":2,"rt":543.364999999525,"outcome":1,"trial":16,"correct":1,"trial_type":"three-arm-trial","trial_index":23,"time_elapsed":274931,"internal_node_id":"0.0-22.0-0.0","task_version":"screening-mturk","missing":false,"accuracy":0},{"contexts":["red","blue","green"],"outcomes":[0,1,1],"key":39,"choice":2,"rt":672.5700000006473,"outcome":1,"trial":17,"correct":1,"trial_type":"three-arm-trial","trial_index":24,"time_elapsed":276811,"internal_node_id":"0.0-23.0-0.0","task_version":"screening-mturk","missing":false,"accuracy":0},{"contexts":["red","blue","green"],"outcomes":[1,1,0],"key":39,"choice":2,"rt":516.4249999998137,"outcome":0,"trial":18,"correct":1,"trial_type":"three-arm-trial","trial_index":25,"time_elapsed":278532,"internal_node_id":"0.0-24.0-0.0","task_version":"screening-mturk","missing":false,"accuracy":0},{"contexts":["red","blue","green"],"outcomes":[0,0,0],"key":39,"choice":2,"rt":530.2399999991758,"outcome":0,"trial":19,"correct":1,"trial_type":"three-arm-trial","trial_index":26,"time_elapsed":280268,"internal_node_id":"0.0-25.0-0.0","task_version":"screening-mturk","missing":false,"accuracy":0},{"contexts":["red","blue","green"],"outcomes":[0,1,0],"key":38,"choice":1,"rt":549.6600000005565,"outcome":1,"trial":20,"correct":1,"trial_type":"three-arm-trial","trial_index":27,"time_elapsed":282023,"internal_node_id":"0.0-26.0-0.0","task_version":"screening-mturk","missing":false,"accuracy":1},{"contexts":["red","blue","green"],"outcomes":[0,1,0],"key":38,"choice":1,"rt":438.9600000004284,"outcome":1,"trial":21,"correct":1,"trial_type":"three-arm-trial","trial_index":28,"time_elapsed":283666,"internal_node_id":"0.0-27.0-0.0","task_version":"screening-mturk","missing":false,"accuracy":1},{"contexts":["red","blue","green"],"outcomes":[0,1,0],"key":38,"choice":1,"rt":529.059999999823,"outcome":1,"trial":22,"correct":1,"trial_type":"three-arm-trial","trial_index":29,"time_elapsed":285399,"internal_node_id":"0.0-28.0-0.0","task_version":"screening-mturk","missing":false,"accuracy":1},{"contexts":["red","blue","green"],"outcomes":[0,1,0],"key":38,"choice":1,"rt":474.6400000003632,"outcome":1,"trial":23,"correct":1,"trial_type":"three-arm-trial","trial_index":30,"time_elapsed":287077,"internal_node_id":"0.0-29.0-0.0","task_version":"screening-mturk","missing":false,"accuracy":1},{"contexts":["red","blue","green"],"outcomes":[0,1,0],"key":38,"choice":1,"rt":446.855000000156,"outcome":1,"trial":24,"correct":1,"trial_type":"three-arm-trial","trial_index":31,"time_elapsed":288728,"internal_node_id":"0.0-30.0-0.0","task_version":"screening-mturk","missing":false,"accuracy":1},{"contexts":["red","blue","green"],"outcomes":[0,1,0],"key":38,"choice":1,"rt":484.37000000011176,"outcome":1,"trial":25,"correct":1,"trial_type":"three-arm-trial","trial_index":32,"time_elapsed":290418,"internal_node_id":"0.0-31.0-0.0","task_version":"screening-mturk","missing":false,"accuracy":1},{"contexts":["red","blue","green"],"outcomes":[1,1,0],"key":38,"choice":1,"rt":473.10000000015134,"outcome":1,"trial":26,"correct":1,"trial_type":"three-arm-trial","trial_index":33,"time_elapsed":292095,"internal_node_id":"0.0-32.0-0.0","task_version":"screening-mturk","missing":false,"accuracy":1},{"contexts":["red","blue","green"],"outcomes":[0,1,0],"key":38,"choice":1,"rt":461.29000000015367,"outcome":1,"trial":27,"correct":1,"trial_type":"three-arm-trial","trial_index":34,"time_elapsed":293764,"internal_node_id":"0.0-33.0-0.0","task_version":"screening-mturk","missing":false,"accuracy":1},{"contexts":["red","blue","green"],"outcomes":[0,1,0],"key":38,"choice":1,"rt":510.57000000035623,"outcome":1,"trial":28,"correct":1,"trial_type":"three-arm-trial","trial_index":35,"time_elapsed":295481,"internal_node_id":"0.0-34.0-0.0","task_version":"screening-mturk","missing":false,"accuracy":1},{"contexts":["red","blue","green"],"outcomes":[0,0,0],"key":38,"choice":1,"rt":456.9600000004284,"outcome":0,"trial":29,"correct":1,"trial_type":"three-arm-trial","trial_index":36,"time_elapsed":297144,"internal_node_id":"0.0-35.0-0.0","task_version":"screening-mturk","missing":false,"accuracy":1},{"contexts":["red","blue","green"],"outcomes":[0,1,0],"key":38,"choice":1,"rt":515.199999999837,"outcome":1,"trial":30,"correct":1,"trial_type":"three-arm-trial","trial_index":37,"time_elapsed":298877,"internal_node_id":"0.0-36.0-0.0","task_version":"screening-mturk","missing":false,"accuracy":1},{"contexts":["red","blue","green"],"outcomes":[1,1,1],"key":38,"choice":1,"rt":527.4099999996834,"outcome":1,"trial":31,"correct":2,"trial_type":"three-arm-trial","trial_index":38,"time_elapsed":300609,"internal_node_id":"0.0-37.0-0.0","task_version":"screening-mturk","missing":false,"accuracy":0},{"contexts":["red","blue","green"],"outcomes":[0,0,0],"key":38,"choice":1,"rt":474.70000000071013,"outcome":0,"trial":32,"correct":2,"trial_type":"three-arm-trial","trial_index":39,"time_elapsed":302290,"internal_node_id":"0.0-38.0-0.0","task_version":"screening-mturk","missing":false,"accuracy":0},{"contexts":["red","blue","green"],"outcomes":[0,0,0],"key":38,"choice":1,"rt":471.5750000004773,"outcome":0,"trial":33,"correct":2,"trial_type":"three-arm-trial","trial_index":40,"time_elapsed":303965,"internal_node_id":"0.0-39.0-0.0","task_version":"screening-mturk","missing":false,"accuracy":0},{"contexts":["red","blue","green"],"outcomes":[1,0,1],"key":37,"choice":0,"rt":514.9999999994179,"outcome":1,"trial":34,"correct":2,"trial_type":"three-arm-trial","trial_index":41,"time_elapsed":305688,"internal_node_id":"0.0-40.0-0.0","task_version":"screening-mturk","missing":false,"accuracy":0},{"contexts":["red","blue","green"],"outcomes":[0,0,1],"key":37,"choice":0,"rt":404.93500000052154,"outcome":0,"trial":35,"correct":2,"trial_type":"three-arm-trial","trial_index":42,"time_elapsed":307298,"internal_node_id":"0.0-41.0-0.0","task_version":"screening-mturk","missing":false,"accuracy":0},{"contexts":["red","blue","green"],"outcomes":[0,0,1],"key":39,"choice":2,"rt":409.27000000007683,"outcome":1,"trial":36,"correct":2,"trial_type":"three-arm-trial","trial_index":43,"time_elapsed":308913,"internal_node_id":"0.0-42.0-0.0","task_version":"screening-mturk","missing":false,"accuracy":1},{"contexts":["red","blue","green"],"outcomes":[0,0,1],"key":39,"choice":2,"rt":420.129999999539,"outcome":1,"trial":37,"correct":2,"trial_type":"three-arm-trial","trial_index":44,"time_elapsed":310539,"internal_node_id":"0.0-43.0-0.0","task_version":"screening-mturk","missing":false,"accuracy":1},{"contexts":["red","blue","green"],"outcomes":[0,0,1],"key":39,"choice":2,"rt":386.0150000000722,"outcome":1,"trial":38,"correct":2,"trial_type":"three-arm-trial","trial_index":45,"time_elapsed":312128,"internal_node_id":"0.0-44.0-0.0","task_version":"screening-mturk","missing":false,"accuracy":1},{"contexts":["red","blue","green"],"outcomes":[1,0,1],"key":39,"choice":2,"rt":450.6300000002375,"outcome":1,"trial":39,"correct":2,"trial_type":"three-arm-trial","trial_index":46,"time_elapsed":313784,"internal_node_id":"0.0-45.0-0.0","task_version":"screening-mturk","missing":false,"accuracy":1},{"contexts":["red","blue","green"],"outcomes":[0,0,1],"key":39,"choice":2,"rt":374.46999999973923,"outcome":1,"trial":40,"correct":2,"trial_type":"three-arm-trial","trial_index":47,"time_elapsed":315363,"internal_node_id":"0.0-46.0-0.0","task_version":"screening-mturk","missing":false,"accuracy":1},{"contexts":["red","blue","green"],"outcomes":[0,0,1],"key":39,"choice":2,"rt":387.39999999961583,"outcome":1,"trial":41,"correct":2,"trial_type":"three-arm-trial","trial_index":48,"time_elapsed":316955,"internal_node_id":"0.0-47.0-0.0","task_version":"screening-mturk","missing":false,"accuracy":1},{"contexts":["red","blue","green"],"outcomes":[1,0,0],"key":39,"choice":2,"rt":392.65999999956694,"outcome":0,"trial":42,"correct":2,"trial_type":"three-arm-trial","trial_index":49,"time_elapsed":318554,"internal_node_id":"0.0-48.0-0.0","task_version":"screening-mturk","missing":false,"accuracy":1},{"contexts":["red","blue","green"],"outcomes":[0,0,1],"key":39,"choice":2,"rt":525.5450000004494,"outcome":1,"trial":43,"correct":2,"trial_type":"three-arm-trial","trial_index":50,"time_elapsed":320285,"internal_node_id":"0.0-49.0-0.0","task_version":"screening-mturk","missing":false,"accuracy":1},{"contexts":["red","blue","green"],"outcomes":[1,0,1],"key":39,"choice":2,"rt":515.1849999992992,"outcome":1,"trial":44,"correct":2,"trial_type":"three-arm-trial","trial_index":51,"time_elapsed":322004,"internal_node_id":"0.0-50.0-0.0","task_version":"screening-mturk","missing":false,"accuracy":1},{"contexts":["red","blue","green"],"outcomes":[1,0,1],"key":39,"choice":2,"rt":449.9650000007241,"outcome":1,"trial":45,"correct":2,"trial_type":"three-arm-trial","trial_index":52,"time_elapsed":323658,"internal_node_id":"0.0-51.0-0.0","task_version":"screening-mturk","missing":false,"accuracy":1},{"contexts":["red","blue","green"],"outcomes":[1,0,0],"key":39,"choice":2,"rt":464.5449999998091,"outcome":0,"trial":46,"correct":0,"trial_type":"three-arm-trial","trial_index":53,"time_elapsed":325328,"internal_node_id":"0.0-52.0-0.0","task_version":"screening-mturk","missing":false,"accuracy":0},{"contexts":["red","blue","green"],"outcomes":[1,0,0],"key":39,"choice":2,"rt":457.92500000057044,"outcome":0,"trial":47,"correct":0,"trial_type":"three-arm-trial","trial_index":54,"time_elapsed":326995,"internal_node_id":"0.0-53.0-0.0","task_version":"screening-mturk","missing":false,"accuracy":0},{"contexts":["red","blue","green"],"outcomes":[1,0,0],"key":38,"choice":1,"rt":448.7550000003539,"outcome":0,"trial":48,"correct":0,"trial_type":"three-arm-trial","trial_index":55,"time_elapsed":328651,"internal_node_id":"0.0-54.0-0.0","task_version":"screening-mturk","missing":false,"accuracy":0},{"contexts":["red","blue","green"],"outcomes":[1,1,0],"key":38,"choice":1,"rt":439.43000000034226,"outcome":1,"trial":49,"correct":0,"trial_type":"three-arm-trial","trial_index":56,"time_elapsed":330297,"internal_node_id":"0.0-55.0-0.0","task_version":"screening-mturk","missing":false,"accuracy":0},{"contexts":["red","blue","green"],"outcomes":[0,0,0],"key":38,"choice":1,"rt":455.36499999975786,"outcome":0,"trial":50,"correct":0,"trial_type":"three-arm-trial","trial_index":57,"time_elapsed":331956,"internal_node_id":"0.0-56.0-0.0","task_version":"screening-mturk","missing":false,"accuracy":0},{"contexts":["red","blue","green"],"outcomes":[1,0,0],"key":38,"choice":1,"rt":459.3800000002375,"outcome":0,"trial":51,"correct":0,"trial_type":"three-arm-trial","trial_index":58,"time_elapsed":333621,"internal_node_id":"0.0-57.0-0.0","task_version":"screening-mturk","missing":false,"accuracy":0},{"contexts":["red","blue","green"],"outcomes":[1,0,0],"key":37,"choice":0,"rt":420.14999999990687,"outcome":1,"trial":52,"correct":0,"trial_type":"three-arm-trial","trial_index":59,"time_elapsed":335249,"internal_node_id":"0.0-58.0-0.0","task_version":"screening-mturk","missing":false,"accuracy":1},{"contexts":["red","blue","green"],"outcomes":[0,0,0],"key":37,"choice":0,"rt":436.13000000006286,"outcome":0,"trial":53,"correct":0,"trial_type":"three-arm-trial","trial_index":60,"time_elapsed":336891,"internal_node_id":"0.0-59.0-0.0","task_version":"screening-mturk","missing":false,"accuracy":1},{"contexts":["red","blue","green"],"outcomes":[0,1,0],"key":37,"choice":0,"rt":486.73499999946216,"outcome":0,"trial":54,"correct":0,"trial_type":"three-arm-trial","trial_index":61,"time_elapsed":338585,"internal_node_id":"0.0-60.0-0.0","task_version":"screening-mturk","missing":false,"accuracy":1},{"contexts":["red","blue","green"],"outcomes":[0,0,0],"key":38,"choice":1,"rt":446.9899999994668,"outcome":0,"trial":55,"correct":0,"trial_type":"three-arm-trial","trial_index":62,"time_elapsed":340236,"internal_node_id":"0.0-61.0-0.0","task_version":"screening-mturk","missing":false,"accuracy":0},{"contexts":["red","blue","green"],"outcomes":[1,0,0],"key":38,"choice":1,"rt":347.24499999993714,"outcome":0,"trial":56,"correct":0,"trial_type":"three-arm-trial","trial_index":63,"time_elapsed":341787,"internal_node_id":"0.0-62.0-0.0","task_version":"screening-mturk","missing":false,"accuracy":0},{"contexts":["red","blue","green"],"outcomes":[0,0,0],"key":39,"choice":2,"rt":344.26499999972293,"outcome":0,"trial":57,"correct":0,"trial_type":"three-arm-trial","trial_index":64,"time_elapsed":343337,"internal_node_id":"0.0-63.0-0.0","task_version":"screening-mturk","missing":false,"accuracy":0},{"contexts":["red","blue","green"],"outcomes":[0,0,1],"key":39,"choice":2,"rt":515.4750000001513,"outcome":1,"trial":58,"correct":0,"trial_type":"three-arm-trial","trial_index":65,"time_elapsed":345060,"internal_node_id":"0.0-64.0-0.0","task_version":"screening-mturk","missing":false,"accuracy":0},{"contexts":["red","blue","green"],"outcomes":[1,0,0],"key":39,"choice":2,"rt":379.70500000030734,"outcome":0,"trial":59,"correct":0,"trial_type":"three-arm-trial","trial_index":66,"time_elapsed":346645,"internal_node_id":"0.0-65.0-0.0","task_version":"screening-mturk","missing":false,"accuracy":0},{"contexts":["red","blue","green"],"outcomes":[1,0,0],"key":39,"choice":2,"rt":362.56000000052154,"outcome":0,"trial":60,"correct":0,"trial_type":"three-arm-trial","trial_index":67,"time_elapsed":348213,"internal_node_id":"0.0-66.0-0.0","task_version":"screening-mturk","missing":false,"accuracy":0},{"contexts":["red","blue","green"],"outcomes":[0,0,1],"key":39,"choice":2,"rt":389.0799999999581,"outcome":1,"trial":61,"correct":2,"trial_type":"three-arm-trial","trial_index":68,"time_elapsed":349805,"internal_node_id":"0.0-67.0-0.0","task_version":"screening-mturk","missing":false,"accuracy":1},{"contexts":["red","blue","green"],"outcomes":[0,1,1],"key":39,"choice":2,"rt":723.3599999999278,"outcome":1,"trial":62,"correct":2,"trial_type":"three-arm-trial","trial_index":69,"time_elapsed":351736,"internal_node_id":"0.0-68.0-0.0","task_version":"screening-mturk","missing":false,"accuracy":1},{"contexts":["red","blue","green"],"outcomes":[0,0,1],"key":39,"choice":2,"rt":426.39000000053784,"outcome":1,"trial":63,"correct":2,"trial_type":"three-arm-trial","trial_index":70,"time_elapsed":353366,"internal_node_id":"0.0-69.0-0.0","task_version":"screening-mturk","missing":false,"accuracy":1},{"contexts":["red","blue","green"],"outcomes":[0,0,1],"key":39,"choice":2,"rt":490.39999999973224,"outcome":1,"trial":64,"correct":2,"trial_type":"three-arm-trial","trial_index":71,"time_elapsed":355062,"internal_node_id":"0.0-70.0-0.0","task_version":"screening-mturk","missing":false,"accuracy":1},{"contexts":["red","blue","green"],"outcomes":[0,1,1],"key":39,"choice":2,"rt":413.7199999995064,"outcome":1,"trial":65,"correct":2,"trial_type":"three-arm-trial","trial_index":72,"time_elapsed":356680,"internal_node_id":"0.0-71.0-0.0","task_version":"screening-mturk","missing":false,"accuracy":1},{"contexts":["red","blue","green"],"outcomes":[0,0,1],"key":39,"choice":2,"rt":398.5800000000745,"outcome":1,"trial":66,"correct":2,"trial_type":"three-arm-trial","trial_index":73,"time_elapsed":358283,"internal_node_id":"0.0-72.0-0.0","task_version":"screening-mturk","missing":false,"accuracy":1},{"contexts":["red","blue","green"],"outcomes":[0,1,1],"key":39,"choice":2,"rt":379.75499999994645,"outcome":1,"trial":67,"correct":2,"trial_type":"three-arm-trial","trial_index":74,"time_elapsed":359867,"internal_node_id":"0.0-73.0-0.0","task_version":"screening-mturk","missing":false,"accuracy":1},{"contexts":["red","blue","green"],"outcomes":[0,0,0],"key":39,"choice":2,"rt":392.3599999998114,"outcome":0,"trial":68,"correct":2,"trial_type":"three-arm-trial","trial_index":75,"time_elapsed":361465,"internal_node_id":"0.0-74.0-0.0","task_version":"screening-mturk","missing":false,"accuracy":1},{"contexts":["red","blue","green"],"outcomes":[0,0,0],"key":39,"choice":2,"rt":481.76999999943655,"outcome":0,"trial":69,"correct":2,"trial_type":"three-arm-trial","trial_index":76,"time_elapsed":363149,"internal_node_id":"0.0-75.0-0.0","task_version":"screening-mturk","missing":false,"accuracy":1},{"contexts":["red","blue","green"],"outcomes":[0,0,0],"key":39,"choice":2,"rt":455.2999999995809,"outcome":0,"trial":70,"correct":2,"trial_type":"three-arm-trial","trial_index":77,"time_elapsed":364808,"internal_node_id":"0.0-76.0-0.0","task_version":"screening-mturk","missing":false,"accuracy":1},{"contexts":["red","blue","green"],"outcomes":[1,0,1],"key":38,"choice":1,"rt":414.550000000454,"outcome":0,"trial":71,"correct":2,"trial_type":"three-arm-trial","trial_index":78,"time_elapsed":366428,"internal_node_id":"0.0-77.0-0.0","task_version":"screening-mturk","missing":false,"accuracy":0},{"contexts":["red","blue","green"],"outcomes":[0,0,1],"key":38,"choice":1,"rt":351.8949999997858,"outcome":0,"trial":72,"correct":2,"trial_type":"three-arm-trial","trial_index":79,"time_elapsed":367984,"internal_node_id":"0.0-78.0-0.0","task_version":"screening-mturk","missing":false,"accuracy":0},{"contexts":["red","blue","green"],"outcomes":[0,0,1],"key":38,"choice":1,"rt":390.2199999993318,"outcome":0,"trial":73,"correct":2,"trial_type":"three-arm-trial","trial_index":80,"time_elapsed":369581,"internal_node_id":"0.0-79.0-0.0","task_version":"screening-mturk","missing":false,"accuracy":0},{"contexts":["red","blue","green"],"outcomes":[0,0,1],"key":37,"choice":0,"rt":452.6500000001397,"outcome":0,"trial":74,"correct":2,"trial_type":"three-arm-trial","trial_index":81,"time_elapsed":371240,"internal_node_id":"0.0-80.0-0.0","task_version":"screening-mturk","missing":false,"accuracy":0},{"contexts":["red","blue","green"],"outcomes":[0,0,1],"key":37,"choice":0,"rt":363.4599999995553,"outcome":0,"trial":75,"correct":2,"trial_type":"three-arm-trial","trial_index":82,"time_elapsed":372808,"internal_node_id":"0.0-81.0-0.0","task_version":"screening-mturk","missing":false,"accuracy":0},{"contexts":["red","blue","green"],"outcomes":[1,0,1],"key":37,"choice":0,"rt":350.7300000000978,"outcome":1,"trial":76,"correct":0,"trial_type":"three-arm-trial","trial_index":83,"time_elapsed":374362,"internal_node_id":"0.0-82.0-0.0","task_version":"screening-mturk","missing":false,"accuracy":1},{"contexts":["red","blue","green"],"outcomes":[1,0,0],"key":37,"choice":0,"rt":408.9650000004913,"outcome":1,"trial":77,"correct":0,"trial_type":"three-arm-trial","trial_index":84,"time_elapsed":375976,"internal_node_id":"0.0-83.0-0.0","task_version":"screening-mturk","missing":false,"accuracy":1},{"contexts":["red","blue","green"],"outcomes":[0,0,1],"key":37,"choice":0,"rt":384.7450000002864,"outcome":0,"trial":78,"correct":0,"trial_type":"three-arm-trial","trial_index":85,"time_elapsed":377571,"internal_node_id":"0.0-84.0-0.0","task_version":"screening-mturk","missing":false,"accuracy":1},{"contexts":["red","blue","green"],"outcomes":[1,0,1],"key":37,"choice":0,"rt":398.0350000002072,"outcome":1,"trial":79,"correct":0,"trial_type":"three-arm-trial","trial_index":86,"time_elapsed":379176,"internal_node_id":"0.0-85.0-0.0","task_version":"screening-mturk","missing":false,"accuracy":1},{"contexts":["red","blue","green"],"outcomes":[1,0,0],"key":37,"choice":0,"rt":442.03000000014435,"outcome":1,"trial":80,"correct":0,"trial_type":"three-arm-trial","trial_index":87,"time_elapsed":380823,"internal_node_id":"0.0-86.0-0.0","task_version":"screening-mturk","missing":false,"accuracy":1},{"contexts":["red","blue","green"],"outcomes":[1,0,0],"key":37,"choice":0,"rt":444.1100000003353,"outcome":1,"trial":81,"correct":0,"trial_type":"three-arm-trial","trial_index":88,"time_elapsed":382471,"internal_node_id":"0.0-87.0-0.0","task_version":"screening-mturk","missing":false,"accuracy":1},{"contexts":["red","blue","green"],"outcomes":[0,0,1],"key":37,"choice":0,"rt":442.1400000000722,"outcome":0,"trial":82,"correct":0,"trial_type":"three-arm-trial","trial_index":89,"time_elapsed":384118,"internal_node_id":"0.0-88.0-0.0","task_version":"screening-mturk","missing":false,"accuracy":1},{"contexts":["red","blue","green"],"outcomes":[1,1,0],"key":37,"choice":0,"rt":355.71499999967637,"outcome":1,"trial":83,"correct":0,"trial_type":"three-arm-trial","trial_index":90,"time_elapsed":385678,"internal_node_id":"0.0-89.0-0.0","task_version":"screening-mturk","missing":false,"accuracy":1},{"contexts":["red","blue","green"],"outcomes":[1,0,0],"key":37,"choice":0,"rt":450.3349999995553,"outcome":1,"trial":84,"correct":0,"trial_type":"three-arm-trial","trial_index":91,"time_elapsed":387337,"internal_node_id":"0.0-90.0-0.0","task_version":"screening-mturk","missing":false,"accuracy":1},{"contexts":["red","blue","green"],"outcomes":[1,0,0],"key":37,"choice":0,"rt":378.5749999997206,"outcome":1,"trial":85,"correct":0,"trial_type":"three-arm-trial","trial_index":92,"time_elapsed":388919,"internal_node_id":"0.0-91.0-0.0","task_version":"screening-mturk","missing":false,"accuracy":1},{"contexts":["red","blue","green"],"outcomes":[1,0,1],"key":37,"choice":0,"rt":382.63999999983935,"outcome":1,"trial":86,"correct":0,"trial_type":"three-arm-trial","trial_index":93,"time_elapsed":390505,"internal_node_id":"0.0-92.0-0.0","task_version":"screening-mturk","missing":false,"accuracy":1},{"contexts":["red","blue","green"],"outcomes":[1,1,0],"key":37,"choice":0,"rt":437.50499999988824,"outcome":1,"trial":87,"correct":0,"trial_type":"three-arm-trial","trial_index":94,"time_elapsed":392151,"internal_node_id":"0.0-93.0-0.0","task_version":"screening-mturk","missing":false,"accuracy":1},{"contexts":["red","blue","green"],"outcomes":[1,1,0],"key":37,"choice":0,"rt":354.6000000005588,"outcome":1,"trial":88,"correct":0,"trial_type":"three-arm-trial","trial_index":95,"time_elapsed":393712,"internal_node_id":"0.0-94.0-0.0","task_version":"screening-mturk","missing":false,"accuracy":1},{"contexts":["red","blue","green"],"outcomes":[1,0,0],"key":37,"choice":0,"rt":366.3400000004913,"outcome":1,"trial":89,"correct":0,"trial_type":"three-arm-trial","trial_index":96,"time_elapsed":395286,"internal_node_id":"0.0-95.0-0.0","task_version":"screening-mturk","missing":false,"accuracy":1},{"contexts":["red","blue","green"],"outcomes":[1,0,0],"key":37,"choice":0,"rt":311.8350000004284,"outcome":1,"trial":90,"correct":0,"trial_type":"three-arm-trial","trial_index":97,"time_elapsed":396802,"internal_node_id":"0.0-96.0-0.0","task_version":"screening-mturk","missing":false,"accuracy":1},{"rt":20388.394999999902,"responses":{"age":"64","gender-categorical":"Female","gender-free-response":"","ethnicity":"Not Hispanic or Latino","race":["White"],"language":"Yes","fluency":"Very well","prolific":"No","prolific-this-study":"No"},"survey":"demographics","trial_type":"survey-demo","trial_index":98,"time_elapsed":417211,"internal_node_id":"0.0-97.0","task_version":"screening-mturk","interactions":"[]"}]