[{"responses":{"Q01":"2","Q02":"3","Q03":"0"},"rt":22478.000000002794,"survey":"pswq","trial_type":"survey-template","trial_index":0,"time_elapsed":22556,"internal_node_id":"0.0-0.0","task_version":"screening-mturk"},{"responses":{"Q11":"1","Q13":"2","Q01":"1","Q06":"2","Q04":"3","Q08":"2","Q12":"1","Q10":"2","Q02":"1","Q14":"3","Q07":"2","Q15":"2","Q03":"1","Q05":"2","Q09":"3"},"rt":43976.9999999553,"survey":"7up7down","trial_type":"survey-template","trial_index":1,"time_elapsed":66554,"internal_node_id":"0.0-1.0","task_version":"screening-mturk"},{"responses":{"Q04":"1","Q05":"1","Q08":"2","Q03":"2","Q02":"1","Q01":"2","Q07":"1","Q06":"3"},"rt":11807.999999960884,"survey":"gad7","trial_type":"survey-template","trial_index":2,"time_elapsed":78374,"internal_node_id":"0.0-2.0","task_version":"screening-mturk"},{"responses":{"Q05":"3","Q08":"2","Q09":"2","Q12":"1","Q02":"2","Q13":"3","Q07":"2","Q04":"1","Q10":"1","Q01":"3","Q06":"2","Q03":"2","Q11":"3"},"rt":29091.0000000149,"survey":"bisbas","trial_type":"survey-template","trial_index":3,"time_elapsed":107474,"internal_node_id":"0.0-3.0","task_version":"screening-mturk"},{"responses":{"Q09":"2","Q14":"1","Q02":"3","Q07":"2","Q12":"2","Q06":"1","Q03":"2","Q08":"2","Q13":"1","Q04":"2","Q01":"2","Q11":"3","Q05":"1","Q15":"3","Q10":"2"},"rt":30711.999999941327,"survey":"shaps","trial_type":"survey-template","trial_index":4,"time_elapsed":138196,"internal_node_id":"0.0-4.0","task_version":"screening-mturk"},{"view_history":"[{\"page_index\":0,\"viewing_time\":7842.999999993481},{\"page_index\":1,\"viewing_time\":4945.999999996275},{\"page_index\":2,\"viewing_time\":12169.999999925494},{\"page_index\":3,\"viewing_time\":7048.999999999069},{\"page_index\":4,\"viewing_time\":160.0000000325963},{\"page_index\":5,\"viewing_time\":1680.0000000512227},{\"page_index\":6,\"viewing_time\":160.99999996367842},{\"page_index\":7,\"viewing_time\":2072.000000043772}]","rt":36081.99999993667,"trial_type":"instructions","trial_index":5,"time_elapsed":174285,"internal_node_id":"0.0-5.0-0.0","task_version":"screening-mturk"},{"responses":["True","False","True","False","True"],"num_errors":2,"rt":174696.99999992736,"trial_type":"three-arm-comprehension","trial_index":6,"time_elapsed":348993,"internal_node_id":"0.0-5.0-1.0","task_version":"screening-mturk"},{"view_history":"[{\"page_index\":0,\"viewing_time\":2237.000000081025},{\"page_index\":1,\"viewing_time\":1360.9999999171123},{\"page_index\":2,\"viewing_time\":1220.0000000884756},{\"page_index\":3,\"viewing_time\":1348.9999999292195},{\"page_index\":4,\"viewing_time\":1231.000000028871},{\"page_index\":5,\"viewing_time\":839.9999999674037},{\"page_index\":6,\"viewing_time\":979.0000000502914},{\"page_index\":7,\"viewing_time\":1140.999999945052}]","rt":10359.000000054948,"trial_type":"instructions","trial_index":7,"time_elapsed":359360,"internal_node_id":"0.0-5.1-0.1","task_version":"screening-mturk"},{"responses":["True","False","True","False","True"],"num_errors":2,"rt":18665.000000037253,"trial_type":"three-arm-comprehension","trial_index":8,"time_elapsed":378031,"internal_node_id":"0.0-5.1-1.1","task_version":"screening-mturk"},{"view_history":"[{\"page_index\":0,\"viewing_time\":1939.0000000130385},{\"page_index\":1,\"viewing_time\":1010.0000000093132},{\"page_index\":2,\"viewing_time\":769.0000000875443},{\"page_index\":3,\"viewing_time\":759.9999998928979},{\"page_index\":4,\"viewing_time\":730.0000000977889},{\"page_index\":5,\"viewing_time\":1169.9999999254942},{\"page_index\":6,\"viewing_time\":1369.9999999953434},{\"page_index\":7,\"viewing_time\":1460.0000000791624}]","rt":9210.000000079162,"trial_type":"instructions","trial_index":9,"time_elapsed":387250,"internal_node_id":"0.0-5.2-0.2","task_version":"screening-mturk"},{"responses":["True","False","True","False","True"],"num_errors":2,"rt":16325.00000006985,"trial_type":"three-arm-comprehension","trial_index":10,"time_elapsed":403584,"internal_node_id":"0.0-5.2-1.2","task_version":"screening-mturk"},{"view_history":"[{\"page_index\":0,\"viewing_time\":4041.0000000847504},{\"page_index\":1,\"viewing_time\":1255.9999999357387},{\"page_index\":0,\"viewing_time\":878.9999999571592},{\"page_index\":1,\"viewing_time\":747.0000000903383},{\"page_index\":0,\"viewing_time\":679.9999999348074},{\"page_index\":1,\"viewing_time\":1393.0000000400469},{\"page_index\":0,\"viewing_time\":1300.9999999776483},{\"page_index\":1,\"viewing_time\":1258.9999999618158},{\"page_index\":0,\"viewing_time\":1684.000000008382},{\"page_index\":1,\"viewing_time\":810.9999999869615},{\"page_index\":2,\"viewing_time\":675.0000000465661},{\"page_index\":3,\"viewing_time\":170.00000004190952},{\"page_index\":4,\"viewing_time\":709.9999999627471},{\"page_index\":5,\"viewing_time\":1150.9999999543652},{\"page_index\":6,\"viewing_time\":840.000000083819},{\"page_index\":7,\"viewing_time\":1301.9999999087304}]","rt":18900.000000023283,"trial_type":"instructions","trial_index":11,"time_elapsed":422493,"internal_node_id":"0.0-5.3-0.3","task_version":"screening-mturk"},{"responses":["True","True","False","True","True"],"num_errors":1,"rt":23748.999999952503,"trial_type":"three-arm-comprehension","trial_index":12,"time_elapsed":446251,"internal_node_id":"0.0-5.3-1.3","task_version":"screening-mturk"},{"view_history":"[{\"page_index\":0,\"viewing_time\":3150.000000023283},{\"page_index\":1,\"viewing_time\":1069.9999999487773},{\"page_index\":2,\"viewing_time\":929.0000000037253},{\"page_index\":3,\"viewing_time\":981.000000028871},{\"page_index\":4,\"viewing_time\":1079.9999999580905},{\"page_index\":5,\"viewing_time\":919.0000001108274},{\"page_index\":6,\"viewing_time\":1254.9999998882413},{\"page_index\":7,\"viewing_time\":1055.0000000512227}]","rt":10440.000000060536,"trial_type":"instructions","trial_index":13,"time_elapsed":456699,"internal_node_id":"0.0-5.4-0.4","task_version":"screening-mturk"},{"responses":["True","True","True","False","True"],"num_errors":1,"rt":19697.000000043772,"trial_type":"three-arm-comprehension","trial_index":14,"time_elapsed":476402,"internal_node_id":"0.0-5.4-1.4","task_version":"screening-mturk"},{"view_history":"[{\"page_index\":0,\"viewing_time\":2418.999999994412},{\"page_index\":1,\"viewing_time\":849.9999999767169},{\"page_index\":2,\"viewing_time\":640.0000000139698},{\"page_index\":3,\"viewing_time\":250},{\"page_index\":4,\"viewing_time\":141.0000000614673},{\"page_index\":5,\"viewing_time\":217.99999999348074},{\"page_index\":6,\"viewing_time\":180.99999998230487},{\"page_index\":7,\"viewing_time\":498.0000000214204}]","rt":5197.999999974854,"trial_type":"instructions","trial_index":15,"time_elapsed":481607,"internal_node_id":"0.0-5.5-0.5","task_version":"screening-mturk"},{"responses":["True","False","False","False","True"],"num_errors":1,"rt":181826.00000000093,"trial_type":"three-arm-comprehension","trial_index":16,"time_elapsed":663463,"internal_node_id":"0.0-5.5-1.5","task_version":"screening-mturk"},{"view_history":"[{\"page_index\":0,\"viewing_time\":4187.999999965541},{\"page_index\":1,\"viewing_time\":300.00000004656613},{\"page_index\":2,\"viewing_time\":150.9999999543652},{\"page_index\":3,\"viewing_time\":129.00000007357448},{\"page_index\":4,\"viewing_time\":109.99999998603016},{\"page_index\":5,\"viewing_time\":97.99999999813735},{\"page_index\":6,\"viewing_time\":45.999999972991645},{\"page_index\":7,\"viewing_time\":96.9999999506399}]","rt":5119.999999995343,"trial_type":"instructions","trial_index":17,"time_elapsed":668590,"internal_node_id":"0.0-5.6-0.6","task_version":"screening-mturk"},{"responses":["True","True","False","False","True"],"num_errors":0,"rt":13707.000000053085,"trial_type":"three-arm-comprehension","trial_index":18,"time_elapsed":682302,"internal_node_id":"0.0-5.6-1.6","task_version":"screening-mturk"},{"view_history":"[{\"page_index\":0,\"viewing_time\":2554.0000000037253}]","rt":2554.9999999348074,"trial_type":"instructions","trial_index":19,"time_elapsed":684869,"internal_node_id":"0.0-6.0","task_version":"screening-mturk"},{"contexts":["green","red","blue"],"outcomes":[0,1,0],"key":null,"rt":null,"trial":1,"correct":1,"trial_type":"three-arm-trial","trial_index":20,"time_elapsed":699879,"internal_node_id":"0.0-7.0-0.0","task_version":"screening-mturk","missing":true},{"contexts":["green","red","blue"],"outcomes":[0,1,0],"key":null,"rt":null,"trial":1,"correct":1,"trial_type":"three-arm-trial","trial_index":21,"time_elapsed":714893,"internal_node_id":"0.0-7.1-0.1","task_version":"screening-mturk","missing":true},{"contexts":["green","red","blue"],"outcomes":[0,1,0],"key":null,"rt":null,"trial":1,"correct":1,"trial_type":"three-arm-trial","trial_index":22,"time_elapsed":729901,"internal_node_id":"0.0-7.2-0.2","task_version":"screening-mturk","missing":true},{"contexts":["green","red","blue"],"outcomes":[0,1,0],"key":39,"choice":2,"rt":7907.000000006519,"outcome":0,"trial":1,"correct":1,"trial_type":"three-arm-trial","trial_index":23,"time_elapsed":739019,"internal_node_id":"0.0-7.3-0.3","task_version":"screening-mturk","missing":false,"accuracy":0},{"contexts":["green","red","blue"],"outcomes":[1,1,0],"key":39,"choice":2,"rt":346.0000000195578,"outcome":0,"trial":2,"correct":1,"trial_type":"three-arm-trial","trial_index":24,"time_elapsed":740585,"internal_node_id":"0.0-8.0-0.0","task_version":"screening-mturk","missing":false,"accuracy":0},{"contexts":["green","red","blue"],"outcomes":[0,1,0],"key":39,"choice":2,"rt":3026.0000000707805,"outcome":0,"trial":3,"correct":1,"trial_type":"three-arm-trial","trial_index":25,"time_elapsed":744817,"internal_node_id":"0.0-9.0-0.0","task_version":"screening-mturk","missing":false,"accuracy":0},{"contexts":["green","red","blue"],"outcomes":[1,1,1],"key":37,"choice":0,"rt":488.0000000121072,"outcome":1,"trial":4,"correct":1,"trial_type":"three-arm-trial","trial_index":26,"time_elapsed":746516,"internal_node_id":"0.0-10.0-0.0","task_version":"screening-mturk","missing":false,"accuracy":0},{"contexts":["green","red","blue"],"outcomes":[0,1,0],"key":37,"choice":0,"rt":1474.0000000456348,"outcome":0,"trial":5,"correct":1,"trial_type":"three-arm-trial","trial_index":27,"time_elapsed":749202,"internal_node_id":"0.0-11.0-0.0","task_version":"screening-mturk","missing":false,"accuracy":0},{"contexts":["green","red","blue"],"outcomes":[1,1,0],"key":39,"choice":2,"rt":1062.000000034459,"outcome":0,"trial":6,"correct":1,"trial_type":"three-arm-trial","trial_index":28,"time_elapsed":751471,"internal_node_id":"0.0-12.0-0.0","task_version":"screening-mturk","missing":false,"accuracy":0},{"contexts":["green","red","blue"],"outcomes":[0,1,0],"key":37,"choice":0,"rt":800.9999999776483,"outcome":0,"trial":7,"correct":1,"trial_type":"three-arm-trial","trial_index":29,"time_elapsed":753508,"internal_node_id":"0.0-13.0-0.0","task_version":"screening-mturk","missing":false,"accuracy":0},{"contexts":["green","red","blue"],"outcomes":[0,1,0],"key":39,"choice":2,"rt":141.99999999254942,"outcome":0,"trial":8,"correct":1,"trial_type":"three-arm-trial","trial_index":30,"time_elapsed":754857,"internal_node_id":"0.0-14.0-0.0","task_version":"screening-mturk","missing":false,"accuracy":0},{"contexts":["green","red","blue"],"outcomes":[1,1,0],"key":38,"choice":1,"rt":298.00000006798655,"outcome":1,"trial":9,"correct":1,"trial_type":"three-arm-trial","trial_index":31,"time_elapsed":756367,"internal_node_id":"0.0-15.0-0.0","task_version":"screening-mturk","missing":false,"accuracy":1},{"contexts":["green","red","blue"],"outcomes":[0,1,0],"key":37,"choice":0,"rt":2368.999999947846,"outcome":0,"trial":10,"correct":1,"trial_type":"three-arm-trial","trial_index":32,"time_elapsed":759941,"internal_node_id":"0.0-16.0-0.0","task_version":"screening-mturk","missing":false,"accuracy":0},{"contexts":["green","red","blue"],"outcomes":[0,1,0],"key":39,"choice":2,"rt":923.9999999990687,"outcome":0,"trial":11,"correct":1,"trial_type":"three-arm-trial","trial_index":33,"time_elapsed":762085,"internal_node_id":"0.0-17.0-0.0","task_version":"screening-mturk","missing":false,"accuracy":0},{"contexts":["green","red","blue"],"outcomes":[0,0,0],"key":38,"choice":1,"rt":528.9999999804422,"outcome":0,"trial":12,"correct":1,"trial_type":"three-arm-trial","trial_index":34,"time_elapsed":763822,"internal_node_id":"0.0-18.0-0.0","task_version":"screening-mturk","missing":false,"accuracy":1},{"contexts":["green","red","blue"],"outcomes":[0,0,0],"key":37,"choice":0,"rt":170.00000004190952,"outcome":0,"trial":13,"correct":1,"trial_type":"three-arm-trial","trial_index":35,"time_elapsed":765202,"internal_node_id":"0.0-19.0-0.0","task_version":"screening-mturk","missing":false,"accuracy":0},{"contexts":["green","red","blue"],"outcomes":[0,0,1],"key":39,"choice":2,"rt":881.9999999832362,"outcome":1,"trial":14,"correct":1,"trial_type":"three-arm-trial","trial_index":36,"time_elapsed":767305,"internal_node_id":"0.0-20.0-0.0","task_version":"screening-mturk","missing":false,"accuracy":0},{"contexts":["green","red","blue"],"outcomes":[0,1,0],"key":37,"choice":0,"rt":1617.9999999003485,"outcome":0,"trial":15,"correct":1,"trial_type":"three-arm-trial","trial_index":37,"time_elapsed":770127,"internal_node_id":"0.0-21.0-0.0","task_version":"screening-mturk","missing":false,"accuracy":0},{"contexts":["green","red","blue"],"outcomes":[1,0,1],"key":39,"choice":2,"rt":858.0000000074506,"outcome":1,"trial":16,"correct":0,"trial_type":"three-arm-trial","trial_index":38,"time_elapsed":772191,"internal_node_id":"0.0-22.0-0.0","task_version":"screening-mturk","missing":false,"accuracy":0},{"contexts":["green","red","blue"],"outcomes":[1,1,1],"key":38,"choice":1,"rt":1643.999999971129,"outcome":1,"trial":17,"correct":0,"trial_type":"three-arm-trial","trial_index":39,"time_elapsed":775050,"internal_node_id":"0.0-23.0-0.0","task_version":"screening-mturk","missing":false,"accuracy":0},{"contexts":["green","red","blue"],"outcomes":[1,1,1],"key":37,"choice":0,"rt":1527.9999999329448,"outcome":1,"trial":18,"correct":0,"trial_type":"three-arm-trial","trial_index":40,"time_elapsed":777810,"internal_node_id":"0.0-24.0-0.0","task_version":"screening-mturk","missing":false,"accuracy":1},{"contexts":["green","red","blue"],"outcomes":[0,0,0],"key":39,"choice":2,"rt":1154.9999999115244,"outcome":0,"trial":19,"correct":0,"trial_type":"three-arm-trial","trial_index":41,"time_elapsed":780177,"internal_node_id":"0.0-25.0-0.0","task_version":"screening-mturk","missing":false,"accuracy":0},{"contexts":["green","red","blue"],"outcomes":[1,0,0],"key":38,"choice":1,"rt":819.0000000176951,"outcome":0,"trial":20,"correct":0,"trial_type":"three-arm-trial","trial_index":42,"time_elapsed":782206,"internal_node_id":"0.0-26.0-0.0","task_version":"screening-mturk","missing":false,"accuracy":0},{"contexts":["green","red","blue"],"outcomes":[1,0,0],"key":37,"choice":0,"rt":202.00000004842877,"outcome":1,"trial":21,"correct":0,"trial_type":"three-arm-trial","trial_index":43,"time_elapsed":783613,"internal_node_id":"0.0-27.0-0.0","task_version":"screening-mturk","missing":false,"accuracy":1},{"contexts":["green","red","blue"],"outcomes":[0,0,1],"key":39,"choice":2,"rt":1123.0000000214204,"outcome":1,"trial":22,"correct":0,"trial_type":"three-arm-trial","trial_index":44,"time_elapsed":785941,"internal_node_id":"0.0-28.0-0.0","task_version":"screening-mturk","missing":false,"accuracy":0},{"contexts":["green","red","blue"],"outcomes":[1,0,0],"key":38,"choice":1,"rt":1336.0000000102445,"outcome":0,"trial":23,"correct":0,"trial_type":"three-arm-trial","trial_index":45,"time_elapsed":788488,"internal_node_id":"0.0-29.0-0.0","task_version":"screening-mturk","missing":false,"accuracy":0},{"contexts":["green","red","blue"],"outcomes":[0,0,0],"key":37,"choice":0,"rt":1423.9999999990687,"outcome":0,"trial":24,"correct":0,"trial_type":"three-arm-trial","trial_index":46,"time_elapsed":791127,"internal_node_id":"0.0-30.0-0.0","task_version":"screening-mturk","missing":false,"accuracy":1},{"contexts":["green","red","blue"],"outcomes":[1,0,0],"key":39,"choice":2,"rt":946.9999999273568,"outcome":0,"trial":25,"correct":0,"trial_type":"three-arm-trial","trial_index":47,"time_elapsed":793300,"internal_node_id":"0.0-31.0-0.0","task_version":"screening-mturk","missing":false,"accuracy":0},{"contexts":["green","red","blue"],"outcomes":[1,0,0],"key":39,"choice":2,"rt":74.99999995343387,"outcome":0,"trial":26,"correct":0,"trial_type":"three-arm-trial","trial_index":48,"time_elapsed":794584,"internal_node_id":"0.0-32.0-0.0","task_version":"screening-mturk","missing":false,"accuracy":0},{"contexts":["green","red","blue"],"outcomes":[1,1,0],"key":38,"choice":1,"rt":2684.000000008382,"outcome":1,"trial":27,"correct":0,"trial_type":"three-arm-trial","trial_index":49,"time_elapsed":798473,"internal_node_id":"0.0-33.0-0.0","task_version":"screening-mturk","missing":false,"accuracy":0},{"contexts":["green","red","blue"],"outcomes":[0,0,0],"key":37,"choice":0,"rt":2143.000000040047,"outcome":0,"trial":28,"correct":0,"trial_type":"three-arm-trial","trial_index":50,"time_elapsed":801837,"internal_node_id":"0.0-34.0-0.0","task_version":"screening-mturk","missing":false,"accuracy":1},{"contexts":["green","red","blue"],"outcomes":[0,1,0],"key":39,"choice":2,"rt":378.00000002607703,"outcome":0,"trial":29,"correct":0,"trial_type":"three-arm-trial","trial_index":51,"time_elapsed":803427,"internal_node_id":"0.0-35.0-0.0","task_version":"screening-mturk","missing":false,"accuracy":0},{"contexts":["green","red","blue"],"outcomes":[1,1,0],"key":38,"choice":1,"rt":183.00000007729977,"outcome":1,"trial":30,"correct":0,"trial_type":"three-arm-trial","trial_index":52,"time_elapsed":804815,"internal_node_id":"0.0-36.0-0.0","task_version":"screening-mturk","missing":false,"accuracy":0},{"contexts":["green","red","blue"],"outcomes":[0,0,1],"key":37,"choice":0,"rt":2171.000000089407,"outcome":0,"trial":31,"correct":2,"trial_type":"three-arm-trial","trial_index":53,"time_elapsed":808192,"internal_node_id":"0.0-37.0-0.0","task_version":"screening-mturk","missing":false,"accuracy":0},{"contexts":["green","red","blue"],"outcomes":[0,0,1],"key":39,"choice":2,"rt":322.9999999748543,"outcome":1,"trial":32,"correct":2,"trial_type":"three-arm-trial","trial_index":54,"time_elapsed":809721,"internal_node_id":"0.0-38.0-0.0","task_version":"screening-mturk","missing":false,"accuracy":1},{"contexts":["green","red","blue"],"outcomes":[0,0,1],"key":38,"choice":1,"rt":1554.0000000037253,"outcome":0,"trial":33,"correct":2,"trial_type":"three-arm-trial","trial_index":55,"time_elapsed":812491,"internal_node_id":"0.0-39.0-0.0","task_version":"screening-mturk","missing":false,"accuracy":0},{"contexts":["green","red","blue"],"outcomes":[0,0,1],"key":37,"choice":0,"rt":74.99999995343387,"outcome":0,"trial":34,"correct":2,"trial_type":"three-arm-trial","trial_index":56,"time_elapsed":813776,"internal_node_id":"0.0-40.0-0.0","task_version":"screening-mturk","missing":false,"accuracy":0},{"contexts":["green","red","blue"],"outcomes":[0,1,1],"key":39,"choice":2,"rt":939.0000000130385,"outcome":1,"trial":35,"correct":2,"trial_type":"three-arm-trial","trial_index":57,"time_elapsed":815923,"internal_node_id":"0.0-41.0-0.0","task_version":"screening-mturk","missing":false,"accuracy":1},{"contexts":["green","red","blue"],"outcomes":[0,0,1],"key":38,"choice":1,"rt":1249.0000000689179,"outcome":0,"trial":36,"correct":2,"trial_type":"three-arm-trial","trial_index":58,"time_elapsed":818380,"internal_node_id":"0.0-42.0-0.0","task_version":"screening-mturk","missing":false,"accuracy":0},{"contexts":["green","red","blue"],"outcomes":[0,0,1],"key":37,"choice":0,"rt":537.0000000111759,"outcome":0,"trial":37,"correct":2,"trial_type":"three-arm-trial","trial_index":59,"time_elapsed":820125,"internal_node_id":"0.0-43.0-0.0","task_version":"screening-mturk","missing":false,"accuracy":0},{"contexts":["green","red","blue"],"outcomes":[0,0,1],"key":39,"choice":2,"rt":234.99999998603016,"outcome":1,"trial":38,"correct":2,"trial_type":"three-arm-trial","trial_index":60,"time_elapsed":821565,"internal_node_id":"0.0-44.0-0.0","task_version":"screening-mturk","missing":false,"accuracy":1},{"contexts":["green","red","blue"],"outcomes":[1,1,1],"key":38,"choice":1,"rt":1621.999999973923,"outcome":1,"trial":39,"correct":2,"trial_type":"three-arm-trial","trial_index":61,"time_elapsed":824408,"internal_node_id":"0.0-45.0-0.0","task_version":"screening-mturk","missing":false,"accuracy":0},{"contexts":["green","red","blue"],"outcomes":[0,0,1],"key":37,"choice":0,"rt":1461.9999999413267,"outcome":0,"trial":40,"correct":2,"trial_type":"three-arm-trial","trial_index":62,"time_elapsed":827093,"internal_node_id":"0.0-46.0-0.0","task_version":"screening-mturk","missing":false,"accuracy":0},{"contexts":["green","red","blue"],"outcomes":[0,0,1],"key":39,"choice":2,"rt":1133.0000000307336,"outcome":1,"trial":41,"correct":2,"trial_type":"three-arm-trial","trial_index":63,"time_elapsed":829431,"internal_node_id":"0.0-47.0-0.0","task_version":"screening-mturk","missing":false,"accuracy":1},{"contexts":["green","red","blue"],"outcomes":[0,0,0],"key":38,"choice":1,"rt":1369.9999999953434,"outcome":0,"trial":42,"correct":2,"trial_type":"three-arm-trial","trial_index":64,"time_elapsed":832006,"internal_node_id":"0.0-48.0-0.0","task_version":"screening-mturk","missing":false,"accuracy":0},{"contexts":["green","red","blue"],"outcomes":[0,0,1],"key":37,"choice":0,"rt":952.0000000484288,"outcome":0,"trial":43,"correct":2,"trial_type":"three-arm-trial","trial_index":65,"time_elapsed":834172,"internal_node_id":"0.0-49.0-0.0","task_version":"screening-mturk","missing":false,"accuracy":0},{"contexts":["green","red","blue"],"outcomes":[0,0,1],"key":39,"choice":2,"rt":48.99999999906868,"outcome":1,"trial":44,"correct":2,"trial_type":"three-arm-trial","trial_index":66,"time_elapsed":835426,"internal_node_id":"0.0-50.0-0.0","task_version":"screening-mturk","missing":false,"accuracy":1},{"contexts":["green","red","blue"],"outcomes":[0,0,1],"key":38,"choice":1,"rt":2326.9999999320135,"outcome":0,"trial":45,"correct":2,"trial_type":"three-arm-trial","trial_index":67,"time_elapsed":838969,"internal_node_id":"0.0-51.0-0.0","task_version":"screening-mturk","missing":false,"accuracy":0},{"contexts":["green","red","blue"],"outcomes":[1,0,1],"key":37,"choice":0,"rt":146.0000000661239,"outcome":1,"trial":46,"correct":0,"trial_type":"three-arm-trial","trial_index":68,"time_elapsed":840333,"internal_node_id":"0.0-52.0-0.0","task_version":"screening-mturk","missing":false,"accuracy":1},{"contexts":["green","red","blue"],"outcomes":[1,0,0],"key":39,"choice":2,"rt":1339.0000000363216,"outcome":0,"trial":47,"correct":0,"trial_type":"three-arm-trial","trial_index":69,"time_elapsed":842897,"internal_node_id":"0.0-53.0-0.0","task_version":"screening-mturk","missing":false,"accuracy":0},{"contexts":["green","red","blue"],"outcomes":[1,0,1],"key":38,"choice":1,"rt":186.9999999180436,"outcome":0,"trial":48,"correct":0,"trial_type":"three-arm-trial","trial_index":70,"time_elapsed":844296,"internal_node_id":"0.0-54.0-0.0","task_version":"screening-mturk","missing":false,"accuracy":0},{"contexts":["green","red","blue"],"outcomes":[0,1,1],"key":37,"choice":0,"rt":949.0000000223517,"outcome":0,"trial":49,"correct":0,"trial_type":"three-arm-trial","trial_index":71,"time_elapsed":846455,"internal_node_id":"0.0-55.0-0.0","task_version":"screening-mturk","missing":false,"accuracy":1},{"contexts":["green","red","blue"],"outcomes":[1,0,0],"key":39,"choice":2,"rt":1040.000000037253,"outcome":0,"trial":50,"correct":0,"trial_type":"three-arm-trial","trial_index":72,"time_elapsed":848705,"internal_node_id":"0.0-56.0-0.0","task_version":"screening-mturk","missing":false,"accuracy":0},{"contexts":["green","red","blue"],"outcomes":[1,0,0],"key":38,"choice":1,"rt":183.00000007729977,"outcome":0,"trial":51,"correct":0,"trial_type":"three-arm-trial","trial_index":73,"time_elapsed":850121,"internal_node_id":"0.0-57.0-0.0","task_version":"screening-mturk","missing":false,"accuracy":0},{"contexts":["green","red","blue"],"outcomes":[1,0,0],"key":37,"choice":0,"rt":174.9999999301508,"outcome":1,"trial":52,"correct":0,"trial_type":"three-arm-trial","trial_index":74,"time_elapsed":851505,"internal_node_id":"0.0-58.0-0.0","task_version":"screening-mturk","missing":false,"accuracy":1},{"contexts":["green","red","blue"],"outcomes":[1,0,0],"key":39,"choice":2,"rt":1368.999999947846,"outcome":0,"trial":53,"correct":0,"trial_type":"three-arm-trial","trial_index":75,"time_elapsed":854081,"internal_node_id":"0.0-59.0-0.0","task_version":"screening-mturk","missing":false,"accuracy":0},{"contexts":["green","red","blue"],"outcomes":[1,1,1],"key":38,"choice":1,"rt":402.00000000186265,"outcome":1,"trial":54,"correct":0,"trial_type":"three-arm-trial","trial_index":76,"time_elapsed":855717,"internal_node_id":"0.0-60.0-0.0","task_version":"screening-mturk","missing":false,"accuracy":0},{"contexts":["green","red","blue"],"outcomes":[1,0,0],"key":37,"choice":0,"rt":1493.999999947846,"outcome":1,"trial":55,"correct":0,"trial_type":"three-arm-trial","trial_index":77,"time_elapsed":858426,"internal_node_id":"0.0-61.0-0.0","task_version":"screening-mturk","missing":false,"accuracy":1},{"contexts":["green","red","blue"],"outcomes":[1,0,0],"key":39,"choice":2,"rt":3831.000000005588,"outcome":0,"trial":56,"correct":0,"trial_type":"three-arm-trial","trial_index":78,"time_elapsed":863493,"internal_node_id":"0.0-62.0-0.0","task_version":"screening-mturk","missing":false,"accuracy":0},{"contexts":["green","red","blue"],"outcomes":[0,0,1],"key":38,"choice":1,"rt":181.0000000987202,"outcome":0,"trial":57,"correct":0,"trial_type":"three-arm-trial","trial_index":79,"time_elapsed":864895,"internal_node_id":"0.0-63.0-0.0","task_version":"screening-mturk","missing":false,"accuracy":0},{"contexts":["green","red","blue"],"outcomes":[1,0,0],"key":37,"choice":0,"rt":258.00000003073364,"outcome":1,"trial":58,"correct":0,"trial_type":"three-arm-trial","trial_index":80,"time_elapsed":866369,"internal_node_id":"0.0-64.0-0.0","task_version":"screening-mturk","missing":false,"accuracy":1},{"contexts":["green","red","blue"],"outcomes":[1,0,1],"key":39,"choice":2,"rt":1319.9999999487773,"outcome":1,"trial":59,"correct":0,"trial_type":"three-arm-trial","trial_index":81,"time_elapsed":868899,"internal_node_id":"0.0-65.0-0.0","task_version":"screening-mturk","missing":false,"accuracy":0},{"contexts":["green","red","blue"],"outcomes":[1,0,0],"key":38,"choice":1,"rt":2125,"outcome":0,"trial":60,"correct":0,"trial_type":"three-arm-trial","trial_index":82,"time_elapsed":872233,"internal_node_id":"0.0-66.0-0.0","task_version":"screening-mturk","missing":false,"accuracy":0},{"contexts":["green","red","blue"],"outcomes":[0,1,0],"key":37,"choice":0,"rt":403.9999999804422,"outcome":0,"trial":61,"correct":1,"trial_type":"three-arm-trial","trial_index":83,"time_elapsed":873843,"internal_node_id":"0.0-67.0-0.0","task_version":"screening-mturk","missing":false,"accuracy":0},{"contexts":["green","red","blue"],"outcomes":[1,1,1],"key":39,"choice":2,"rt":111.00000003352761,"outcome":1,"trial":62,"correct":1,"trial_type":"three-arm-trial","trial_index":84,"time_elapsed":875159,"internal_node_id":"0.0-68.0-0.0","task_version":"screening-mturk","missing":false,"accuracy":0},{"contexts":["green","red","blue"],"outcomes":[0,0,1],"key":38,"choice":1,"rt":1496.0000000428408,"outcome":0,"trial":63,"correct":1,"trial_type":"three-arm-trial","trial_index":85,"time_elapsed":877863,"internal_node_id":"0.0-69.0-0.0","task_version":"screening-mturk","missing":false,"accuracy":1},{"contexts":["green","red","blue"],"outcomes":[0,1,0],"key":37,"choice":0,"rt":151.00000007078052,"outcome":0,"trial":64,"correct":1,"trial_type":"three-arm-trial","trial_index":86,"time_elapsed":879220,"internal_node_id":"0.0-70.0-0.0","task_version":"screening-mturk","missing":false,"accuracy":0},{"contexts":["green","red","blue"],"outcomes":[0,1,1],"key":39,"choice":2,"rt":163.99999998975545,"outcome":1,"trial":65,"correct":1,"trial_type":"three-arm-trial","trial_index":87,"time_elapsed":880599,"internal_node_id":"0.0-71.0-0.0","task_version":"screening-mturk","missing":false,"accuracy":0},{"contexts":["green","red","blue"],"outcomes":[1,1,0],"key":38,"choice":1,"rt":1507.9999999143183,"outcome":1,"trial":66,"correct":1,"trial_type":"three-arm-trial","trial_index":88,"time_elapsed":883316,"internal_node_id":"0.0-72.0-0.0","task_version":"screening-mturk","missing":false,"accuracy":1},{"contexts":["green","red","blue"],"outcomes":[0,0,0],"key":37,"choice":0,"rt":1385.0000000093132,"outcome":0,"trial":67,"correct":1,"trial_type":"three-arm-trial","trial_index":89,"time_elapsed":885906,"internal_node_id":"0.0-73.0-0.0","task_version":"screening-mturk","missing":false,"accuracy":0},{"contexts":["green","red","blue"],"outcomes":[1,1,0],"key":39,"choice":2,"rt":1228.000000002794,"outcome":0,"trial":68,"correct":1,"trial_type":"three-arm-trial","trial_index":90,"time_elapsed":888349,"internal_node_id":"0.0-74.0-0.0","task_version":"screening-mturk","missing":false,"accuracy":0},{"contexts":["green","red","blue"],"outcomes":[0,1,0],"key":38,"choice":1,"rt":163.99999998975545,"outcome":1,"trial":69,"correct":1,"trial_type":"three-arm-trial","trial_index":91,"time_elapsed":889724,"internal_node_id":"0.0-75.0-0.0","task_version":"screening-mturk","missing":false,"accuracy":1},{"contexts":["green","red","blue"],"outcomes":[1,1,0],"key":37,"choice":0,"rt":1241.0000000381842,"outcome":1,"trial":70,"correct":1,"trial_type":"three-arm-trial","trial_index":92,"time_elapsed":892186,"internal_node_id":"0.0-76.0-0.0","task_version":"screening-mturk","missing":false,"accuracy":0},{"contexts":["green","red","blue"],"outcomes":[0,1,0],"key":39,"choice":2,"rt":547.9999999515712,"outcome":0,"trial":71,"correct":1,"trial_type":"three-arm-trial","trial_index":93,"time_elapsed":893940,"internal_node_id":"0.0-77.0-0.0","task_version":"screening-mturk","missing":false,"accuracy":0},{"contexts":["green","red","blue"],"outcomes":[0,1,0],"key":38,"choice":1,"rt":138.9999999664724,"outcome":1,"trial":72,"correct":1,"trial_type":"three-arm-trial","trial_index":94,"time_elapsed":895283,"internal_node_id":"0.0-78.0-0.0","task_version":"screening-mturk","missing":false,"accuracy":1},{"contexts":["green","red","blue"],"outcomes":[1,1,1],"key":37,"choice":0,"rt":1143.0000000400469,"outcome":1,"trial":73,"correct":1,"trial_type":"three-arm-trial","trial_index":95,"time_elapsed":897651,"internal_node_id":"0.0-79.0-0.0","task_version":"screening-mturk","missing":false,"accuracy":0},{"contexts":["green","red","blue"],"outcomes":[0,1,0],"key":39,"choice":2,"rt":1377.000000094995,"outcome":0,"trial":74,"correct":1,"trial_type":"three-arm-trial","trial_index":96,"time_elapsed":900235,"internal_node_id":"0.0-80.0-0.0","task_version":"screening-mturk","missing":false,"accuracy":0},{"contexts":["green","red","blue"],"outcomes":[0,1,0],"key":38,"choice":1,"rt":81.00000000558794,"outcome":1,"trial":75,"correct":1,"trial_type":"three-arm-trial","trial_index":97,"time_elapsed":901522,"internal_node_id":"0.0-81.0-0.0","task_version":"screening-mturk","missing":false,"accuracy":1},{"contexts":["green","red","blue"],"outcomes":[1,0,0],"key":37,"choice":0,"rt":1293.999999994412,"outcome":1,"trial":76,"correct":0,"trial_type":"three-arm-trial","trial_index":98,"time_elapsed":904025,"internal_node_id":"0.0-82.0-0.0","task_version":"screening-mturk","missing":false,"accuracy":1},{"contexts":["green","red","blue"],"outcomes":[1,0,1],"key":39,"choice":2,"rt":1021.0000000661239,"outcome":1,"trial":77,"correct":0,"trial_type":"three-arm-trial","trial_index":99,"time_elapsed":906256,"internal_node_id":"0.0-83.0-0.0","task_version":"screening-mturk","missing":false,"accuracy":0},{"contexts":["green","red","blue"],"outcomes":[0,1,0],"key":38,"choice":1,"rt":2389.9999998975545,"outcome":1,"trial":78,"correct":0,"trial_type":"three-arm-trial","trial_index":100,"time_elapsed":909874,"internal_node_id":"0.0-84.0-0.0","task_version":"screening-mturk","missing":false,"accuracy":0},{"contexts":["green","red","blue"],"outcomes":[1,0,0],"key":37,"choice":0,"rt":1180.0000000512227,"outcome":1,"trial":79,"correct":0,"trial_type":"three-arm-trial","trial_index":101,"time_elapsed":912277,"internal_node_id":"0.0-85.0-0.0","task_version":"screening-mturk","missing":false,"accuracy":1},{"contexts":["green","red","blue"],"outcomes":[0,0,0],"key":39,"choice":2,"rt":787.999999942258,"outcome":0,"trial":80,"correct":0,"trial_type":"three-arm-trial","trial_index":102,"time_elapsed":914272,"internal_node_id":"0.0-86.0-0.0","task_version":"screening-mturk","missing":false,"accuracy":0},{"contexts":["green","red","blue"],"outcomes":[1,0,0],"key":38,"choice":1,"rt":202.9999999795109,"outcome":0,"trial":81,"correct":0,"trial_type":"three-arm-trial","trial_index":103,"time_elapsed":915692,"internal_node_id":"0.0-87.0-0.0","task_version":"screening-mturk","missing":false,"accuracy":0},{"contexts":["green","red","blue"],"outcomes":[1,0,0],"key":37,"choice":0,"rt":373.99999995250255,"outcome":1,"trial":82,"correct":0,"trial_type":"three-arm-trial","trial_index":104,"time_elapsed":917272,"internal_node_id":"0.0-88.0-0.0","task_version":"screening-mturk","missing":false,"accuracy":1},{"contexts":["green","red","blue"],"outcomes":[1,1,1],"key":39,"choice":2,"rt":1342.9999999934807,"outcome":1,"trial":83,"correct":0,"trial_type":"three-arm-trial","trial_index":105,"time_elapsed":919828,"internal_node_id":"0.0-89.0-0.0","task_version":"screening-mturk","missing":false,"accuracy":0},{"contexts":["green","red","blue"],"outcomes":[1,0,0],"key":38,"choice":1,"rt":1504.0000000735745,"outcome":0,"trial":84,"correct":0,"trial_type":"three-arm-trial","trial_index":106,"time_elapsed":922537,"internal_node_id":"0.0-90.0-0.0","task_version":"screening-mturk","missing":false,"accuracy":0},{"contexts":["green","red","blue"],"outcomes":[1,0,0],"key":37,"choice":0,"rt":197.9999999748543,"outcome":1,"trial":85,"correct":0,"trial_type":"three-arm-trial","trial_index":107,"time_elapsed":923963,"internal_node_id":"0.0-91.0-0.0","task_version":"screening-mturk","missing":false,"accuracy":1},{"contexts":["green","red","blue"],"outcomes":[1,0,0],"key":39,"choice":2,"rt":753.000000026077,"outcome":0,"trial":86,"correct":0,"trial_type":"three-arm-trial","trial_index":108,"time_elapsed":925935,"internal_node_id":"0.0-92.0-0.0","task_version":"screening-mturk","missing":false,"accuracy":0},{"contexts":["green","red","blue"],"outcomes":[1,0,0],"key":38,"choice":1,"rt":1331.000000005588,"outcome":0,"trial":87,"correct":0,"trial_type":"three-arm-trial","trial_index":109,"time_elapsed":928470,"internal_node_id":"0.0-93.0-0.0","task_version":"screening-mturk","missing":false,"accuracy":0},{"contexts":["green","red","blue"],"outcomes":[1,0,1],"key":37,"choice":0,"rt":935.9999999869615,"outcome":1,"trial":88,"correct":0,"trial_type":"three-arm-trial","trial_index":110,"time_elapsed":930614,"internal_node_id":"0.0-94.0-0.0","task_version":"screening-mturk","missing":false,"accuracy":1},{"contexts":["green","red","blue"],"outcomes":[1,1,0],"key":39,"choice":2,"rt":442.00000003911555,"outcome":0,"trial":89,"correct":0,"trial_type":"three-arm-trial","trial_index":111,"time_elapsed":932273,"internal_node_id":"0.0-95.0-0.0","task_version":"screening-mturk","missing":false,"accuracy":0},{"contexts":["green","red","blue"],"outcomes":[1,1,1],"key":38,"choice":1,"rt":433.0000000772998,"outcome":1,"trial":90,"correct":0,"trial_type":"three-arm-trial","trial_index":112,"time_elapsed":933912,"internal_node_id":"0.0-96.0-0.0","task_version":"screening-mturk","missing":false,"accuracy":0},{"rt":36393.99999997113,"responses":{"age":"65","gender-categorical":"Male","gender-free-response":"","ethnicity":"Hispanic or Latino","race":["Black or African American"],"language":"Yes","fluency":"Well","prolific":"Yes","prolific-this-study":"Yes"},"survey":"demographics","trial_type":"survey-demo","trial_index":113,"time_elapsed":970323,"internal_node_id":"0.0-97.0","task_version":"screening-mturk","interactions":"[{\"event\":\"blur\",\"trial\":4,\"time\":131911},{\"event\":\"focus\",\"trial\":4,\"time\":133781},{\"event\":\"focus\",\"trial\":4,\"time\":133782},{\"event\":\"blur\",\"trial\":6,\"time\":193123},{\"event\":\"focus\",\"trial\":6,\"time\":211340},{\"event\":\"blur\",\"trial\":6,\"time\":228002},{\"event\":\"focus\",\"trial\":6,\"time\":243833},{\"event\":\"blur\",\"trial\":6,\"time\":255556},{\"event\":\"focus\",\"trial\":6,\"time\":268057},{\"event\":\"blur\",\"trial\":6,\"time\":289609},{\"event\":\"focus\",\"trial\":6,\"time\":311765},{\"event\":\"blur\",\"trial\":6,\"time\":333873},{\"event\":\"focus\",\"trial\":6,\"time\":343129},{\"event\":\"blur\",\"trial\":16,\"time\":493517},{\"event\":\"focus\",\"trial\":16,\"time\":520947},{\"event\":\"blur\",\"trial\":16,\"time\":530285},{\"event\":\"focus\",\"trial\":16,\"time\":546234},{\"event\":\"blur\",\"trial\":16,\"time\":549205},{\"event\":\"focus\",\"trial\":16,\"time\":557982},{\"event\":\"blur\",\"trial\":16,\"time\":572482},{\"event\":\"focus\",\"trial\":16,\"time\":589116},{\"event\":\"blur\",\"trial\":16,\"time\":600672},{\"event\":\"focus\",\"trial\":16,\"time\":610062},{\"event\":\"blur\",\"trial\":16,\"time\":624098},{\"event\":\"focus\",\"trial\":16,\"time\":645915}]"}]