[{"responses":{"Q14":"1","Q06":"0","Q12":"2","Q09":"1","Q02":"0","Q07":"1","Q13":"0","Q15":"2","Q11":"2","Q03":"1","Q01":"2","Q08":"3","Q05":"1","Q04":"2","Q10":"1"},"rt":73488.20499994326,"survey":"7up7down","trial_type":"survey-template","trial_index":0,"time_elapsed":73534,"internal_node_id":"0.0-0.0","task_version":"screening-mturk"},{"responses":{"Q15":"2","Q05":"1","Q04":"3","Q14":"3","Q02":"2","Q08":"2","Q03":"0","Q06":"2","Q12":"2","Q01":"1","Q11":"3","Q13":"2","Q10":"3","Q09":"1","Q07":"3"},"rt":61482.98500000965,"survey":"shaps","trial_type":"survey-template","trial_index":1,"time_elapsed":135029,"internal_node_id":"0.0-1.0","task_version":"screening-mturk"},{"responses":{"Q02":"1","Q03":"3","Q01":"2"},"rt":13030.120000010356,"survey":"pswq","trial_type":"survey-template","trial_index":2,"time_elapsed":148066,"internal_node_id":"0.0-2.0","task_version":"screening-mturk"},{"responses":{"Q11":"1","Q03":"0","Q10":"2","Q13":"1","Q07":"3","Q08":"2","Q05":"1","Q04":"0","Q06":"2","Q01":"0","Q12":"1","Q09":"3","Q02":"2"},"rt":34992.06499999855,"survey":"bisbas","trial_type":"survey-template","trial_index":3,"time_elapsed":183068,"internal_node_id":"0.0-3.0","task_version":"screening-mturk"},{"responses":{"Q08":"1","Q01":"0","Q04":"0","Q05":"2","Q02":"1","Q07":"2","Q03":"0","Q06":"1"},"rt":26551.29999993369,"survey":"gad7","trial_type":"survey-template","trial_index":4,"time_elapsed":209626,"internal_node_id":"0.0-4.0","task_version":"screening-mturk"},{"view_history":"[{\"page_index\":0,\"viewing_time\":4643.670000019483},{\"page_index\":1,\"viewing_time\":3440.2899999404326},{\"page_index\":2,\"viewing_time\":2022.7799999993294},{\"page_index\":3,\"viewing_time\":1098.7899999599904},{\"page_index\":2,\"viewing_time\":2134.40000009723},{\"page_index\":3,\"viewing_time\":2394.1999999806285},{\"page_index\":4,\"viewing_time\":1480.4999999469146},{\"page_index\":5,\"viewing_time\":1277.750000008382},{\"page_index\":6,\"viewing_time\":4628.565000020899},{\"page_index\":7,\"viewing_time\":837.375000002794}]","rt":23960.244999965653,"trial_type":"instructions","trial_index":5,"time_elapsed":233590,"internal_node_id":"0.0-5.0-0.0","task_version":"screening-mturk"},{"responses":["False","False","True","False","True"],"num_errors":3,"rt":9945.515000028536,"trial_type":"three-arm-comprehension","trial_index":6,"time_elapsed":243545,"internal_node_id":"0.0-5.0-1.0","task_version":"screening-mturk"},{"view_history":"[{\"page_index\":0,\"viewing_time\":6317.38999998197},{\"page_index\":1,\"viewing_time\":2009.8099999595433},{\"page_index\":2,\"viewing_time\":541.410000063479},{\"page_index\":3,\"viewing_time\":764.3199999583885},{\"page_index\":4,\"viewing_time\":768.4850000077859},{\"page_index\":5,\"viewing_time\":520.1200000010431},{\"page_index\":6,\"viewing_time\":475.414999993518},{\"page_index\":7,\"viewing_time\":508.29499994870275}]","rt":11906.4500000095,"trial_type":"instructions","trial_index":7,"time_elapsed":255459,"internal_node_id":"0.0-5.1-0.1","task_version":"screening-mturk"},{"responses":["False","True","False","True","False"],"num_errors":3,"rt":12708.35500000976,"trial_type":"three-arm-comprehension","trial_index":8,"time_elapsed":268174,"internal_node_id":"0.0-5.1-1.1","task_version":"screening-mturk"},{"view_history":"[{\"page_index\":0,\"viewing_time\":2715.6349999131635},{\"page_index\":1,\"viewing_time\":9136.030000052415},{\"page_index\":2,\"viewing_time\":1705.835000029765},{\"page_index\":3,\"viewing_time\":14886.92999992054},{\"page_index\":4,\"viewing_time\":688.7400000123307},{\"page_index\":5,\"viewing_time\":5124.460000079125},{\"page_index\":6,\"viewing_time\":6066.484999959357},{\"page_index\":7,\"viewing_time\":8324.56999993883}]","rt":48649.340000003576,"trial_type":"instructions","trial_index":9,"time_elapsed":316829,"internal_node_id":"0.0-5.2-0.2","task_version":"screening-mturk"},{"responses":["True","False","True","True","True"],"num_errors":3,"rt":10396.60500001628,"trial_type":"three-arm-comprehension","trial_index":10,"time_elapsed":327233,"internal_node_id":"0.0-5.2-1.2","task_version":"screening-mturk"},{"view_history":"[{\"page_index\":0,\"viewing_time\":31279.99000006821},{\"page_index\":1,\"viewing_time\":380.2199999336153},{\"page_index\":2,\"viewing_time\":248.22000006679446},{\"page_index\":3,\"viewing_time\":170.06499995477498},{\"page_index\":4,\"viewing_time\":171.16500006522983},{\"page_index\":5,\"viewing_time\":332.3600000003353},{\"page_index\":6,\"viewing_time\":194.80999989900738},{\"page_index\":7,\"viewing_time\":301.355000003241}]","rt":33078.80000001751,"trial_type":"instructions","trial_index":11,"time_elapsed":360318,"internal_node_id":"0.0-5.3-0.3","task_version":"screening-mturk"},{"responses":["False","True","True","True","False"],"num_errors":4,"rt":5764.700000057928,"trial_type":"three-arm-comprehension","trial_index":12,"time_elapsed":366088,"internal_node_id":"0.0-5.3-1.3","task_version":"screening-mturk"},{"view_history":"[{\"page_index\":0,\"viewing_time\":943.1999999796972},{\"page_index\":1,\"viewing_time\":441.4000000106171},{\"page_index\":2,\"viewing_time\":225.79500009305775},{\"page_index\":3,\"viewing_time\":172.65999992378056},{\"page_index\":4,\"viewing_time\":153.73999997973442},{\"page_index\":5,\"viewing_time\":448.00500001292676},{\"page_index\":6,\"viewing_time\":234.1550000710413},{\"page_index\":7,\"viewing_time\":256.39499991666526}]","rt":2876.135000027716,"trial_type":"instructions","trial_index":13,"time_elapsed":368970,"internal_node_id":"0.0-5.4-0.4","task_version":"screening-mturk"},{"responses":["True","False","False","False","False"],"num_errors":2,"rt":5877.820000052452,"trial_type":"three-arm-comprehension","trial_index":14,"time_elapsed":374855,"internal_node_id":"0.0-5.4-1.4","task_version":"screening-mturk"},{"view_history":"[{\"page_index\":0,\"viewing_time\":1784.6100000897422},{\"page_index\":1,\"viewing_time\":911.614999989979},{\"page_index\":2,\"viewing_time\":497.19499994535},{\"page_index\":3,\"viewing_time\":346.3550000451505},{\"page_index\":4,\"viewing_time\":178.4399999305606},{\"page_index\":5,\"viewing_time\":324.8250000178814},{\"page_index\":6,\"viewing_time\":186.30499998107553},{\"page_index\":7,\"viewing_time\":8520.690000033937}]","rt":12750.785000040196,"trial_type":"instructions","trial_index":15,"time_elapsed":387610,"internal_node_id":"0.0-5.5-0.5","task_version":"screening-mturk"},{"responses":["True","False","True","True","True"],"num_errors":3,"rt":6201.364999986254,"trial_type":"three-arm-comprehension","trial_index":16,"time_elapsed":393817,"internal_node_id":"0.0-5.5-1.5","task_version":"screening-mturk"},{"view_history":"[{\"page_index\":0,\"viewing_time\":4851.494999951683},{\"page_index\":1,\"viewing_time\":8263.129999977536},{\"page_index\":2,\"viewing_time\":12278.395000030287},{\"page_index\":3,\"viewing_time\":10495.24499999825},{\"page_index\":4,\"viewing_time\":8100.425000069663},{\"page_index\":5,\"viewing_time\":4636.6449999623},{\"page_index\":6,\"viewing_time\":3308.119999943301},{\"page_index\":7,\"viewing_time\":3487.569999997504}]","rt":55421.75999993924,"trial_type":"instructions","trial_index":17,"time_elapsed":449245,"internal_node_id":"0.0-5.6-0.6","task_version":"screening-mturk"},{"responses":["True","False","True","True","True"],"num_errors":3,"rt":26962.030000053346,"trial_type":"three-arm-comprehension","trial_index":18,"time_elapsed":476212,"internal_node_id":"0.0-5.6-1.6","task_version":"screening-mturk"},{"view_history":"[{\"page_index\":0,\"viewing_time\":1397.8049999568611},{\"page_index\":1,\"viewing_time\":541.605000034906},{\"page_index\":2,\"viewing_time\":528.0099998926744},{\"page_index\":3,\"viewing_time\":337.69000007305294},{\"page_index\":4,\"viewing_time\":220.48000001814216},{\"page_index\":5,\"viewing_time\":388.5000000009313},{\"page_index\":6,\"viewing_time\":417.4199999542907},{\"page_index\":7,\"viewing_time\":472.27000002749264}]","rt":4304.834999958985,"trial_type":"instructions","trial_index":19,"time_elapsed":480525,"internal_node_id":"0.0-5.7-0.7","task_version":"screening-mturk"},{"responses":["True","False","True","True","False"],"num_errors":4,"rt":5306.184999994002,"trial_type":"three-arm-comprehension","trial_index":20,"time_elapsed":485838,"internal_node_id":"0.0-5.7-1.7","task_version":"screening-mturk"},{"view_history":"[{\"page_index\":0,\"viewing_time\":1089.6250000223517},{\"page_index\":1,\"viewing_time\":392.2849999507889},{\"page_index\":2,\"viewing_time\":260.02000004518777},{\"page_index\":3,\"viewing_time\":535.7349999248981},{\"page_index\":4,\"viewing_time\":1224.4950000895187},{\"page_index\":5,\"viewing_time\":851.9599999999627},{\"page_index\":6,\"viewing_time\":333.1899999175221},{\"page_index\":7,\"viewing_time\":401.769999996759}]","rt":5089.765000040643,"trial_type":"instructions","trial_index":21,"time_elapsed":490933,"internal_node_id":"0.0-5.8-0.8","task_version":"screening-mturk"},{"responses":["True","False","True","False","True"],"num_errors":2,"rt":11863.560000085272,"trial_type":"three-arm-comprehension","trial_index":22,"time_elapsed":502802,"internal_node_id":"0.0-5.8-1.8","task_version":"screening-mturk"},{"view_history":"[{\"page_index\":0,\"viewing_time\":1020.8750000456348},{\"page_index\":1,\"viewing_time\":301.22499994467944},{\"page_index\":2,\"viewing_time\":200.64000005368143},{\"page_index\":3,\"viewing_time\":249.7999999905005},{\"page_index\":4,\"viewing_time\":481.33999994024634},{\"page_index\":5,\"viewing_time\":506.3050000462681},{\"page_index\":6,\"viewing_time\":467.7199999568984},{\"page_index\":7,\"viewing_time\":520.3200000105426}]","rt":3748.8349999766797,"trial_type":"instructions","trial_index":23,"time_elapsed":506557,"internal_node_id":"0.0-5.9-0.9","task_version":"screening-mturk"},{"responses":["True","False","False","True","True"],"num_errors":2,"rt":15255.70500001777,"trial_type":"three-arm-comprehension","trial_index":24,"time_elapsed":521817,"internal_node_id":"0.0-5.9-1.9","task_version":"screening-mturk"},{"view_history":"[{\"page_index\":0,\"viewing_time\":1232.1549999760464},{\"page_index\":1,\"viewing_time\":271.805000025779},{\"page_index\":2,\"viewing_time\":162.16499998699874},{\"page_index\":3,\"viewing_time\":185.64499996136874},{\"page_index\":4,\"viewing_time\":442.2499999636784},{\"page_index\":5,\"viewing_time\":440.1350000407547},{\"page_index\":6,\"viewing_time\":464.975000009872},{\"page_index\":7,\"viewing_time\":458.2749999826774}]","rt":3657.9999999376014,"trial_type":"instructions","trial_index":25,"time_elapsed":525482,"internal_node_id":"0.0-5.10-0.10","task_version":"screening-mturk"},{"responses":["True","False","False","True","True"],"num_errors":2,"rt":7846.339999930933,"trial_type":"three-arm-comprehension","trial_index":26,"time_elapsed":533335,"internal_node_id":"0.0-5.10-1.10","task_version":"screening-mturk"},{"view_history":"[{\"page_index\":0,\"viewing_time\":972.4399999249727},{\"page_index\":1,\"viewing_time\":315.88500004727393},{\"page_index\":2,\"viewing_time\":549.654999980703},{\"page_index\":3,\"viewing_time\":568.4350000228733},{\"page_index\":4,\"viewing_time\":386.0700000077486},{\"page_index\":5,\"viewing_time\":247.34999996144325},{\"page_index\":6,\"viewing_time\":342.3600000096485},{\"page_index\":7,\"viewing_time\":541.9149999506772}]","rt":3924.684999976307,"trial_type":"instructions","trial_index":27,"time_elapsed":537269,"internal_node_id":"0.0-5.11-0.11","task_version":"screening-mturk"},{"responses":["True","False","False","False","True"],"num_errors":1,"rt":4902.314999955706,"trial_type":"three-arm-comprehension","trial_index":28,"time_elapsed":542175,"internal_node_id":"0.0-5.11-1.11","task_version":"screening-mturk"},{"view_history":"[{\"page_index\":0,\"viewing_time\":959.984999964945},{\"page_index\":1,\"viewing_time\":178.66000009234995},{\"page_index\":2,\"viewing_time\":210.16499993856996},{\"page_index\":3,\"viewing_time\":255.06999995559454},{\"page_index\":4,\"viewing_time\":464.3050000304356},{\"page_index\":5,\"viewing_time\":388.43499997165054},{\"page_index\":6,\"viewing_time\":413.4750000666827},{\"page_index\":7,\"viewing_time\":407.5149999698624}]","rt":3278.2000000588596,"trial_type":"instructions","trial_index":29,"time_elapsed":545459,"internal_node_id":"0.0-5.12-0.12","task_version":"screening-mturk"},{"responses":["True","False","True","True","True"],"num_errors":3,"rt":5855.180000071414,"trial_type":"three-arm-comprehension","trial_index":30,"time_elapsed":551322,"internal_node_id":"0.0-5.12-1.12","task_version":"screening-mturk"},{"view_history":"[{\"page_index\":0,\"viewing_time\":919.9400000507012},{\"page_index\":1,\"viewing_time\":201.62999990861863},{\"page_index\":2,\"viewing_time\":178.34500002209097},{\"page_index\":3,\"viewing_time\":247.80999997165054},{\"page_index\":4,\"viewing_time\":487.1050000656396},{\"page_index\":5,\"viewing_time\":177.945000003092},{\"page_index\":6,\"viewing_time\":173.04499994497746},{\"page_index\":7,\"viewing_time\":286.07000003103167}]","rt":2672.6900000358,"trial_type":"instructions","trial_index":31,"time_elapsed":554002,"internal_node_id":"0.0-5.13-0.13","task_version":"screening-mturk"},{"responses":["True","True","True","True","False"],"num_errors":3,"rt":16016.44999999553,"trial_type":"three-arm-comprehension","trial_index":32,"time_elapsed":570024,"internal_node_id":"0.0-5.13-1.13","task_version":"screening-mturk"},{"view_history":"[{\"page_index\":0,\"viewing_time\":1375.7299999706447},{\"page_index\":1,\"viewing_time\":315.8999999286607},{\"page_index\":2,\"viewing_time\":180.50500005483627},{\"page_index\":3,\"viewing_time\":186.36499997228384},{\"page_index\":4,\"viewing_time\":495.79000007361174},{\"page_index\":5,\"viewing_time\":466.81999997235835},{\"page_index\":6,\"viewing_time\":648.105000029318},{\"page_index\":7,\"viewing_time\":190.4149999609217}]","rt":3860.2699999464676,"trial_type":"instructions","trial_index":33,"time_elapsed":573889,"internal_node_id":"0.0-5.14-0.14","task_version":"screening-mturk"},{"responses":["False","False","True","False","False"],"num_errors":4,"rt":4781.210000044666,"trial_type":"three-arm-comprehension","trial_index":34,"time_elapsed":578679,"internal_node_id":"0.0-5.14-1.14","task_version":"screening-mturk"},{"view_history":"[{\"page_index\":0,\"viewing_time\":858.2300000125542},{\"page_index\":1,\"viewing_time\":449.72999999299645},{\"page_index\":2,\"viewing_time\":946.9550000503659},{\"page_index\":1,\"viewing_time\":176.91499995999038},{\"page_index\":0,\"viewing_time\":9217.124999966472},{\"page_index\":1,\"viewing_time\":33475.0950000016},{\"page_index\":2,\"viewing_time\":12903.490000055172},{\"page_index\":3,\"viewing_time\":26555.48500001896},{\"page_index\":4,\"viewing_time\":26093.85999990627},{\"page_index\":5,\"viewing_time\":3894.165000063367},{\"page_index\":6,\"viewing_time\":993.0099999764934},{\"page_index\":7,\"viewing_time\":335.02999995835125}]","rt":115900.03000001889,"trial_type":"instructions","trial_index":35,"time_elapsed":694584,"internal_node_id":"0.0-5.15-0.15","task_version":"screening-mturk"},{"responses":["True","False","False","True","True"],"num_errors":2,"rt":24954.230000032112,"trial_type":"three-arm-comprehension","trial_index":36,"time_elapsed":719543,"internal_node_id":"0.0-5.15-1.15","task_version":"screening-mturk"},{"view_history":"[{\"page_index\":0,\"viewing_time\":1354.9150000326335},{\"page_index\":1,\"viewing_time\":147.36999990418553},{\"page_index\":2,\"viewing_time\":153.6200001137331},{\"page_index\":3,\"viewing_time\":304.26499992609024},{\"page_index\":4,\"viewing_time\":517.809999990277},{\"page_index\":5,\"viewing_time\":412.1700000250712},{\"page_index\":6,\"viewing_time\":541.1150000290945},{\"page_index\":7,\"viewing_time\":488.03000000771135}]","rt":3919.9200000148267,"trial_type":"instructions","trial_index":37,"time_elapsed":723469,"internal_node_id":"0.0-5.16-0.16","task_version":"screening-mturk"},{"responses":["True","False","True","False","True"],"num_errors":2,"rt":8236.370000056922,"trial_type":"three-arm-comprehension","trial_index":38,"time_elapsed":731712,"internal_node_id":"0.0-5.16-1.16","task_version":"screening-mturk"},{"view_history":"[{\"page_index\":0,\"viewing_time\":982.2350000031292},{\"page_index\":1,\"viewing_time\":695.0199999846518},{\"page_index\":2,\"viewing_time\":1042.0500000473112},{\"page_index\":3,\"viewing_time\":626.0049999691546},{\"page_index\":4,\"viewing_time\":486.84000002685934},{\"page_index\":5,\"viewing_time\":417.95000003185123},{\"page_index\":6,\"viewing_time\":468.5499999905005},{\"page_index\":7,\"viewing_time\":663.2949999766424}]","rt":5382.4599999934435,"trial_type":"instructions","trial_index":39,"time_elapsed":737101,"internal_node_id":"0.0-5.17-0.17","task_version":"screening-mturk"},{"responses":["True","True","False","True","True"],"num_errors":1,"rt":5808.864999911748,"trial_type":"three-arm-comprehension","trial_index":40,"time_elapsed":742915,"internal_node_id":"0.0-5.17-1.17","task_version":"screening-mturk"},{"view_history":"[{\"page_index\":0,\"viewing_time\":935.9849999891594},{\"page_index\":1,\"viewing_time\":163.94499992020428},{\"page_index\":2,\"viewing_time\":177.9950000345707},{\"page_index\":3,\"viewing_time\":348.14000001642853},{\"page_index\":4,\"viewing_time\":520.9000000031665},{\"page_index\":5,\"viewing_time\":168.55499998200685},{\"page_index\":6,\"viewing_time\":219.21500004827976},{\"page_index\":7,\"viewing_time\":153.8899999577552}]","rt":2689.409999991767,"trial_type":"instructions","trial_index":41,"time_elapsed":745612,"internal_node_id":"0.0-5.18-0.18","task_version":"screening-mturk"},{"responses":["True","True","False","False","True"],"num_errors":0,"rt":17958.814999903552,"trial_type":"three-arm-comprehension","trial_index":42,"time_elapsed":763577,"internal_node_id":"0.0-5.18-1.18","task_version":"screening-mturk"},{"view_history":"[{\"page_index\":0,\"viewing_time\":1314.9299999931827}]","rt":1315.4649999924004,"trial_type":"instructions","trial_index":43,"time_elapsed":764898,"internal_node_id":"0.0-6.0","task_version":"screening-mturk"},{"contexts":["blue","green","red"],"outcomes":[0,0,1],"key":39,"choice":2,"rt":2884.859999991022,"outcome":1,"trial":1,"correct":2,"trial_type":"three-arm-trial","trial_index":44,"time_elapsed":768989,"internal_node_id":"0.0-7.0-0.0","task_version":"screening-mturk","missing":false,"accuracy":1},{"contexts":["blue","green","red"],"outcomes":[0,0,1],"key":39,"choice":2,"rt":408.97500002756715,"outcome":1,"trial":2,"correct":2,"trial_type":"three-arm-trial","trial_index":45,"time_elapsed":770604,"internal_node_id":"0.0-8.0-0.0","task_version":"screening-mturk","missing":false,"accuracy":1},{"contexts":["blue","green","red"],"outcomes":[0,1,0],"key":37,"choice":0,"rt":379.61000006180257,"outcome":0,"trial":3,"correct":2,"trial_type":"three-arm-trial","trial_index":46,"time_elapsed":772190,"internal_node_id":"0.0-9.0-0.0","task_version":"screening-mturk","missing":false,"accuracy":0},{"contexts":["blue","green","red"],"outcomes":[0,1,0],"key":39,"choice":2,"rt":393.97999993525445,"outcome":0,"trial":4,"correct":2,"trial_type":"three-arm-trial","trial_index":47,"time_elapsed":773790,"internal_node_id":"0.0-10.0-0.0","task_version":"screening-mturk","missing":false,"accuracy":1},{"contexts":["blue","green","red"],"outcomes":[1,0,1],"key":38,"choice":1,"rt":323.60000000335276,"outcome":0,"trial":5,"correct":2,"trial_type":"three-arm-trial","trial_index":48,"time_elapsed":775321,"internal_node_id":"0.0-11.0-0.0","task_version":"screening-mturk","missing":false,"accuracy":0},{"contexts":["blue","green","red"],"outcomes":[0,0,1],"key":39,"choice":2,"rt":765.2450000168756,"outcome":1,"trial":6,"correct":2,"trial_type":"three-arm-trial","trial_index":49,"time_elapsed":777293,"internal_node_id":"0.0-12.0-0.0","task_version":"screening-mturk","missing":false,"accuracy":1},{"contexts":["blue","green","red"],"outcomes":[0,0,1],"key":37,"choice":0,"rt":530.8400000212714,"outcome":0,"trial":7,"correct":2,"trial_type":"three-arm-trial","trial_index":50,"time_elapsed":779028,"internal_node_id":"0.0-13.0-0.0","task_version":"screening-mturk","missing":false,"accuracy":0},{"contexts":["blue","green","red"],"outcomes":[0,0,0],"key":39,"choice":2,"rt":251.02500000502914,"outcome":0,"trial":8,"correct":2,"trial_type":"three-arm-trial","trial_index":51,"time_elapsed":780489,"internal_node_id":"0.0-14.0-0.0","task_version":"screening-mturk","missing":false,"accuracy":1},{"contexts":["blue","green","red"],"outcomes":[1,1,1],"key":38,"choice":1,"rt":264.25500004552305,"outcome":1,"trial":9,"correct":2,"trial_type":"three-arm-trial","trial_index":52,"time_elapsed":781959,"internal_node_id":"0.0-15.0-0.0","task_version":"screening-mturk","missing":false,"accuracy":0},{"contexts":["blue","green","red"],"outcomes":[0,0,1],"key":38,"choice":1,"rt":152.3249999154359,"outcome":0,"trial":10,"correct":2,"trial_type":"three-arm-trial","trial_index":53,"time_elapsed":783318,"internal_node_id":"0.0-16.0-0.0","task_version":"screening-mturk","missing":false,"accuracy":0},{"contexts":["blue","green","red"],"outcomes":[0,0,0],"key":39,"choice":2,"rt":86.72500005923212,"outcome":0,"trial":11,"correct":2,"trial_type":"three-arm-trial","trial_index":54,"time_elapsed":784609,"internal_node_id":"0.0-17.0-0.0","task_version":"screening-mturk","missing":false,"accuracy":1},{"contexts":["blue","green","red"],"outcomes":[0,0,0],"key":37,"choice":0,"rt":18.00000004004687,"outcome":0,"trial":12,"correct":2,"trial_type":"three-arm-trial","trial_index":55,"time_elapsed":785832,"internal_node_id":"0.0-18.0-0.0","task_version":"screening-mturk","missing":false,"accuracy":0},{"contexts":["blue","green","red"],"outcomes":[0,0,1],"key":39,"choice":2,"rt":264.13000002503395,"outcome":1,"trial":13,"correct":2,"trial_type":"three-arm-trial","trial_index":56,"time_elapsed":787300,"internal_node_id":"0.0-19.0-0.0","task_version":"screening-mturk","missing":false,"accuracy":1},{"contexts":["blue","green","red"],"outcomes":[0,0,1],"key":37,"choice":0,"rt":53.39000001549721,"outcome":0,"trial":14,"correct":2,"trial_type":"three-arm-trial","trial_index":57,"time_elapsed":788562,"internal_node_id":"0.0-20.0-0.0","task_version":"screening-mturk","missing":false,"accuracy":0},{"contexts":["blue","green","red"],"outcomes":[0,0,1],"key":39,"choice":2,"rt":29.485000064596534,"outcome":1,"trial":15,"correct":2,"trial_type":"three-arm-trial","trial_index":58,"time_elapsed":789796,"internal_node_id":"0.0-21.0-0.0","task_version":"screening-mturk","missing":false,"accuracy":1},{"contexts":["blue","green","red"],"outcomes":[0,1,0],"key":39,"choice":2,"rt":215.5000000493601,"outcome":0,"trial":16,"correct":0,"trial_type":"three-arm-trial","trial_index":59,"time_elapsed":791220,"internal_node_id":"0.0-22.0-0.0","task_version":"screening-mturk","missing":false,"accuracy":0},{"contexts":["blue","green","red"],"outcomes":[1,0,0],"key":37,"choice":0,"rt":256.5200000535697,"outcome":1,"trial":17,"correct":0,"trial_type":"three-arm-trial","trial_index":60,"time_elapsed":792687,"internal_node_id":"0.0-23.0-0.0","task_version":"screening-mturk","missing":false,"accuracy":1},{"contexts":["blue","green","red"],"outcomes":[1,0,0],"key":39,"choice":2,"rt":287.9749999847263,"outcome":0,"trial":18,"correct":0,"trial_type":"three-arm-trial","trial_index":61,"time_elapsed":794184,"internal_node_id":"0.0-24.0-0.0","task_version":"screening-mturk","missing":false,"accuracy":0},{"contexts":["blue","green","red"],"outcomes":[1,0,0],"key":37,"choice":0,"rt":78.94000003580004,"outcome":1,"trial":19,"correct":0,"trial_type":"three-arm-trial","trial_index":62,"time_elapsed":795470,"internal_node_id":"0.0-25.0-0.0","task_version":"screening-mturk","missing":false,"accuracy":1},{"contexts":["blue","green","red"],"outcomes":[1,0,1],"key":37,"choice":0,"rt":0.7249999325722456,"outcome":1,"trial":20,"correct":0,"trial_type":"three-arm-trial","trial_index":63,"time_elapsed":796680,"internal_node_id":"0.0-26.0-0.0","task_version":"screening-mturk","missing":false,"accuracy":1},{"contexts":["blue","green","red"],"outcomes":[1,0,0],"key":37,"choice":0,"rt":330.99499996751547,"outcome":1,"trial":21,"correct":0,"trial_type":"three-arm-trial","trial_index":64,"time_elapsed":798216,"internal_node_id":"0.0-27.0-0.0","task_version":"screening-mturk","missing":false,"accuracy":1},{"contexts":["blue","green","red"],"outcomes":[0,0,0],"key":37,"choice":0,"rt":662.8550000023097,"outcome":0,"trial":22,"correct":0,"trial_type":"three-arm-trial","trial_index":65,"time_elapsed":800086,"internal_node_id":"0.0-28.0-0.0","task_version":"screening-mturk","missing":false,"accuracy":1},{"contexts":["blue","green","red"],"outcomes":[1,1,1],"key":38,"choice":1,"rt":3547.729999991134,"outcome":1,"trial":23,"correct":0,"trial_type":"three-arm-trial","trial_index":66,"time_elapsed":804847,"internal_node_id":"0.0-29.0-0.0","task_version":"screening-mturk","missing":false,"accuracy":0},{"contexts":["blue","green","red"],"outcomes":[1,0,0],"key":39,"choice":2,"rt":3137.789999949746,"outcome":0,"trial":24,"correct":0,"trial_type":"three-arm-trial","trial_index":67,"time_elapsed":809189,"internal_node_id":"0.0-30.0-0.0","task_version":"screening-mturk","missing":false,"accuracy":0},{"contexts":["blue","green","red"],"outcomes":[1,0,0],"key":37,"choice":0,"rt":22.76500000152737,"outcome":1,"trial":25,"correct":0,"trial_type":"three-arm-trial","trial_index":68,"time_elapsed":810421,"internal_node_id":"0.0-31.0-0.0","task_version":"screening-mturk","missing":false,"accuracy":1},{"contexts":["blue","green","red"],"outcomes":[1,0,0],"key":37,"choice":0,"rt":282.6549999881536,"outcome":1,"trial":26,"correct":0,"trial_type":"three-arm-trial","trial_index":69,"time_elapsed":811908,"internal_node_id":"0.0-32.0-0.0","task_version":"screening-mturk","missing":false,"accuracy":1},{"contexts":["blue","green","red"],"outcomes":[0,0,0],"key":37,"choice":0,"rt":211.64500003214926,"outcome":0,"trial":27,"correct":0,"trial_type":"three-arm-trial","trial_index":70,"time_elapsed":813327,"internal_node_id":"0.0-33.0-0.0","task_version":"screening-mturk","missing":false,"accuracy":1},{"contexts":["blue","green","red"],"outcomes":[1,0,0],"key":39,"choice":2,"rt":2032.4300000211224,"outcome":0,"trial":28,"correct":0,"trial_type":"three-arm-trial","trial_index":71,"time_elapsed":816565,"internal_node_id":"0.0-34.0-0.0","task_version":"screening-mturk","missing":false,"accuracy":0},{"contexts":["blue","green","red"],"outcomes":[1,0,1],"key":37,"choice":0,"rt":520.5850000493228,"outcome":1,"trial":29,"correct":0,"trial_type":"three-arm-trial","trial_index":72,"time_elapsed":818292,"internal_node_id":"0.0-35.0-0.0","task_version":"screening-mturk","missing":false,"accuracy":1},{"contexts":["blue","green","red"],"outcomes":[1,0,0],"key":37,"choice":0,"rt":49.34000002685934,"outcome":1,"trial":30,"correct":0,"trial_type":"three-arm-trial","trial_index":73,"time_elapsed":819548,"internal_node_id":"0.0-36.0-0.0","task_version":"screening-mturk","missing":false,"accuracy":1},{"contexts":["blue","green","red"],"outcomes":[0,1,0],"key":37,"choice":0,"rt":8.049999945797026,"outcome":0,"trial":31,"correct":1,"trial_type":"three-arm-trial","trial_index":74,"time_elapsed":820763,"internal_node_id":"0.0-37.0-0.0","task_version":"screening-mturk","missing":false,"accuracy":0},{"contexts":["blue","green","red"],"outcomes":[0,1,0],"key":39,"choice":2,"rt":408.97500002756715,"outcome":0,"trial":32,"correct":1,"trial_type":"three-arm-trial","trial_index":75,"time_elapsed":822377,"internal_node_id":"0.0-38.0-0.0","task_version":"screening-mturk","missing":false,"accuracy":0},{"contexts":["blue","green","red"],"outcomes":[0,1,0],"key":37,"choice":0,"rt":318.6049999203533,"outcome":0,"trial":33,"correct":1,"trial_type":"three-arm-trial","trial_index":76,"time_elapsed":823900,"internal_node_id":"0.0-39.0-0.0","task_version":"screening-mturk","missing":false,"accuracy":0},{"contexts":["blue","green","red"],"outcomes":[0,1,0],"key":37,"choice":0,"rt":303.8749999832362,"outcome":0,"trial":34,"correct":1,"trial_type":"three-arm-trial","trial_index":77,"time_elapsed":825412,"internal_node_id":"0.0-40.0-0.0","task_version":"screening-mturk","missing":false,"accuracy":0},{"contexts":["blue","green","red"],"outcomes":[0,1,0],"key":39,"choice":2,"rt":387.48000003397465,"outcome":0,"trial":35,"correct":1,"trial_type":"three-arm-trial","trial_index":78,"time_elapsed":827006,"internal_node_id":"0.0-41.0-0.0","task_version":"screening-mturk","missing":false,"accuracy":0},{"contexts":["blue","green","red"],"outcomes":[0,1,0],"key":37,"choice":0,"rt":241.03500007186085,"outcome":0,"trial":36,"correct":1,"trial_type":"three-arm-trial","trial_index":79,"time_elapsed":828452,"internal_node_id":"0.0-42.0-0.0","task_version":"screening-mturk","missing":false,"accuracy":0},{"contexts":["blue","green","red"],"outcomes":[0,1,0],"key":38,"choice":1,"rt":333.70499999728054,"outcome":1,"trial":37,"correct":1,"trial_type":"three-arm-trial","trial_index":80,"time_elapsed":829995,"internal_node_id":"0.0-43.0-0.0","task_version":"screening-mturk","missing":false,"accuracy":1},{"contexts":["blue","green","red"],"outcomes":[0,1,0],"key":39,"choice":2,"rt":932.230000034906,"outcome":0,"trial":38,"correct":1,"trial_type":"three-arm-trial","trial_index":81,"time_elapsed":832132,"internal_node_id":"0.0-44.0-0.0","task_version":"screening-mturk","missing":false,"accuracy":0},{"contexts":["blue","green","red"],"outcomes":[0,1,0],"key":37,"choice":0,"rt":78.34499992895871,"outcome":0,"trial":39,"correct":1,"trial_type":"three-arm-trial","trial_index":82,"time_elapsed":833416,"internal_node_id":"0.0-45.0-0.0","task_version":"screening-mturk","missing":false,"accuracy":0},{"contexts":["blue","green","red"],"outcomes":[0,0,1],"key":39,"choice":2,"rt":261.30000001285225,"outcome":1,"trial":40,"correct":1,"trial_type":"three-arm-trial","trial_index":83,"time_elapsed":834885,"internal_node_id":"0.0-46.0-0.0","task_version":"screening-mturk","missing":false,"accuracy":0},{"contexts":["blue","green","red"],"outcomes":[0,1,0],"key":39,"choice":2,"rt":5337.354999966919,"outcome":0,"trial":41,"correct":1,"trial_type":"three-arm-trial","trial_index":84,"time_elapsed":841438,"internal_node_id":"0.0-47.0-0.0","task_version":"screening-mturk","missing":false,"accuracy":0},{"contexts":["blue","green","red"],"outcomes":[0,1,1],"key":37,"choice":0,"rt":109.5000000204891,"outcome":0,"trial":42,"correct":1,"trial_type":"three-arm-trial","trial_index":85,"time_elapsed":842752,"internal_node_id":"0.0-48.0-0.0","task_version":"screening-mturk","missing":false,"accuracy":0},{"contexts":["blue","green","red"],"outcomes":[0,1,0],"key":37,"choice":0,"rt":811.8950000498444,"outcome":0,"trial":43,"correct":1,"trial_type":"three-arm-trial","trial_index":86,"time_elapsed":844769,"internal_node_id":"0.0-49.0-0.0","task_version":"screening-mturk","missing":false,"accuracy":0},{"contexts":["blue","green","red"],"outcomes":[1,1,0],"key":38,"choice":1,"rt":1112.280000001192,"outcome":1,"trial":44,"correct":1,"trial_type":"three-arm-trial","trial_index":87,"time_elapsed":847091,"internal_node_id":"0.0-50.0-0.0","task_version":"screening-mturk","missing":false,"accuracy":1},{"contexts":["blue","green","red"],"outcomes":[0,1,0],"key":38,"choice":1,"rt":1444.290000014007,"outcome":1,"trial":45,"correct":1,"trial_type":"three-arm-trial","trial_index":88,"time_elapsed":849740,"internal_node_id":"0.0-51.0-0.0","task_version":"screening-mturk","missing":false,"accuracy":1},{"contexts":["blue","green","red"],"outcomes":[0,0,0],"key":37,"choice":0,"rt":1145.4849999863654,"outcome":0,"trial":46,"correct":0,"trial_type":"three-arm-trial","trial_index":89,"time_elapsed":852095,"internal_node_id":"0.0-52.0-0.0","task_version":"screening-mturk","missing":false,"accuracy":1},{"contexts":["blue","green","red"],"outcomes":[1,0,0],"key":39,"choice":2,"rt":3209.9600000074133,"outcome":0,"trial":47,"correct":0,"trial_type":"three-arm-trial","trial_index":90,"time_elapsed":856511,"internal_node_id":"0.0-53.0-0.0","task_version":"screening-mturk","missing":false,"accuracy":0},{"contexts":["blue","green","red"],"outcomes":[1,0,0],"key":37,"choice":0,"rt":300.76500005088747,"outcome":1,"trial":48,"correct":0,"trial_type":"three-arm-trial","trial_index":91,"time_elapsed":861575,"internal_node_id":"0.0-54.0-0.0","task_version":"screening-mturk","missing":false,"accuracy":1},{"contexts":["blue","green","red"],"outcomes":[1,0,0],"key":39,"choice":2,"rt":4630.959999980405,"outcome":0,"trial":49,"correct":0,"trial_type":"three-arm-trial","trial_index":92,"time_elapsed":867454,"internal_node_id":"0.0-55.0-0.0","task_version":"screening-mturk","missing":false,"accuracy":0},{"contexts":["blue","green","red"],"outcomes":[1,0,0],"key":37,"choice":0,"rt":306.17500003427267,"outcome":1,"trial":50,"correct":0,"trial_type":"three-arm-trial","trial_index":93,"time_elapsed":868974,"internal_node_id":"0.0-56.0-0.0","task_version":"screening-mturk","missing":false,"accuracy":1},{"contexts":["blue","green","red"],"outcomes":[1,0,1],"key":38,"choice":1,"rt":240.80499995034188,"outcome":0,"trial":51,"correct":0,"trial_type":"three-arm-trial","trial_index":94,"time_elapsed":870420,"internal_node_id":"0.0-57.0-0.0","task_version":"screening-mturk","missing":false,"accuracy":0},{"contexts":["blue","green","red"],"outcomes":[1,1,0],"key":37,"choice":0,"rt":207.28999993298203,"outcome":1,"trial":52,"correct":0,"trial_type":"three-arm-trial","trial_index":95,"time_elapsed":871834,"internal_node_id":"0.0-58.0-0.0","task_version":"screening-mturk","missing":false,"accuracy":1},{"contexts":["blue","green","red"],"outcomes":[1,0,1],"key":39,"choice":2,"rt":61.66500004474074,"outcome":1,"trial":53,"correct":0,"trial_type":"three-arm-trial","trial_index":96,"time_elapsed":873099,"internal_node_id":"0.0-59.0-0.0","task_version":"screening-mturk","missing":false,"accuracy":0},{"contexts":["blue","green","red"],"outcomes":[1,0,1],"key":37,"choice":0,"rt":81.24500000849366,"outcome":1,"trial":54,"correct":0,"trial_type":"three-arm-trial","trial_index":97,"time_elapsed":874387,"internal_node_id":"0.0-60.0-0.0","task_version":"screening-mturk","missing":false,"accuracy":1},{"contexts":["blue","green","red"],"outcomes":[1,1,0],"key":39,"choice":2,"rt":344.15500005707145,"outcome":0,"trial":55,"correct":0,"trial_type":"three-arm-trial","trial_index":98,"time_elapsed":875937,"internal_node_id":"0.0-61.0-0.0","task_version":"screening-mturk","missing":false,"accuracy":0},{"contexts":["blue","green","red"],"outcomes":[1,0,0],"key":38,"choice":1,"rt":293.4750000713393,"outcome":0,"trial":56,"correct":0,"trial_type":"three-arm-trial","trial_index":99,"time_elapsed":877438,"internal_node_id":"0.0-62.0-0.0","task_version":"screening-mturk","missing":false,"accuracy":0},{"contexts":["blue","green","red"],"outcomes":[1,0,0],"key":37,"choice":0,"rt":312.7699999604374,"outcome":1,"trial":57,"correct":0,"trial_type":"three-arm-trial","trial_index":100,"time_elapsed":878956,"internal_node_id":"0.0-63.0-0.0","task_version":"screening-mturk","missing":false,"accuracy":1},{"contexts":["blue","green","red"],"outcomes":[1,0,0],"key":39,"choice":2,"rt":136.63500000257045,"outcome":0,"trial":58,"correct":0,"trial_type":"three-arm-trial","trial_index":101,"time_elapsed":880304,"internal_node_id":"0.0-64.0-0.0","task_version":"screening-mturk","missing":false,"accuracy":0},{"contexts":["blue","green","red"],"outcomes":[1,1,0],"key":37,"choice":0,"rt":695.2850000234321,"outcome":1,"trial":59,"correct":0,"trial_type":"three-arm-trial","trial_index":102,"time_elapsed":882204,"internal_node_id":"0.0-65.0-0.0","task_version":"screening-mturk","missing":false,"accuracy":1},{"contexts":["blue","green","red"],"outcomes":[1,0,0],"key":39,"choice":2,"rt":1096.4249999960884,"outcome":0,"trial":60,"correct":0,"trial_type":"three-arm-trial","trial_index":103,"time_elapsed":884506,"internal_node_id":"0.0-66.0-0.0","task_version":"screening-mturk","missing":false,"accuracy":0},{"contexts":["blue","green","red"],"outcomes":[0,1,0],"key":38,"choice":1,"rt":413.00499998033047,"outcome":1,"trial":61,"correct":1,"trial_type":"three-arm-trial","trial_index":104,"time_elapsed":886124,"internal_node_id":"0.0-67.0-0.0","task_version":"screening-mturk","missing":false,"accuracy":1},{"contexts":["blue","green","red"],"outcomes":[1,1,0],"key":37,"choice":0,"rt":412.34999999869615,"outcome":1,"trial":62,"correct":1,"trial_type":"three-arm-trial","trial_index":105,"time_elapsed":887742,"internal_node_id":"0.0-68.0-0.0","task_version":"screening-mturk","missing":false,"accuracy":0},{"contexts":["blue","green","red"],"outcomes":[0,0,0],"key":37,"choice":0,"rt":64.81500004883856,"outcome":0,"trial":63,"correct":1,"trial_type":"three-arm-trial","trial_index":106,"time_elapsed":889012,"internal_node_id":"0.0-69.0-0.0","task_version":"screening-mturk","missing":false,"accuracy":0},{"contexts":["blue","green","red"],"outcomes":[0,0,1],"key":39,"choice":2,"rt":361.4250000100583,"outcome":1,"trial":64,"correct":1,"trial_type":"three-arm-trial","trial_index":107,"time_elapsed":890580,"internal_node_id":"0.0-70.0-0.0","task_version":"screening-mturk","missing":false,"accuracy":0},{"contexts":["blue","green","red"],"outcomes":[1,1,0],"key":39,"choice":2,"rt":1009.275000076741,"outcome":0,"trial":65,"correct":1,"trial_type":"three-arm-trial","trial_index":108,"time_elapsed":892797,"internal_node_id":"0.0-71.0-0.0","task_version":"screening-mturk","missing":false,"accuracy":0},{"contexts":["blue","green","red"],"outcomes":[0,1,0],"key":37,"choice":0,"rt":139.39999998547137,"outcome":0,"trial":66,"correct":1,"trial_type":"three-arm-trial","trial_index":109,"time_elapsed":894143,"internal_node_id":"0.0-72.0-0.0","task_version":"screening-mturk","missing":false,"accuracy":0},{"contexts":["blue","green","red"],"outcomes":[1,1,1],"key":38,"choice":1,"rt":462.5099999830127,"outcome":1,"trial":67,"correct":1,"trial_type":"three-arm-trial","trial_index":110,"time_elapsed":895810,"internal_node_id":"0.0-73.0-0.0","task_version":"screening-mturk","missing":false,"accuracy":1},{"contexts":["blue","green","red"],"outcomes":[0,1,0],"key":39,"choice":2,"rt":348.15999993588775,"outcome":0,"trial":68,"correct":1,"trial_type":"three-arm-trial","trial_index":111,"time_elapsed":897363,"internal_node_id":"0.0-74.0-0.0","task_version":"screening-mturk","missing":false,"accuracy":0},{"contexts":["blue","green","red"],"outcomes":[0,1,0],"key":37,"choice":0,"rt":530.8000000659376,"outcome":0,"trial":69,"correct":1,"trial_type":"three-arm-trial","trial_index":112,"time_elapsed":899100,"internal_node_id":"0.0-75.0-0.0","task_version":"screening-mturk","missing":false,"accuracy":0},{"contexts":["blue","green","red"],"outcomes":[0,1,0],"key":38,"choice":1,"rt":303.30999998841435,"outcome":1,"trial":70,"correct":1,"trial_type":"three-arm-trial","trial_index":113,"time_elapsed":900610,"internal_node_id":"0.0-76.0-0.0","task_version":"screening-mturk","missing":false,"accuracy":1},{"contexts":["blue","green","red"],"outcomes":[0,0,1],"key":39,"choice":2,"rt":62.98000004608184,"outcome":1,"trial":71,"correct":1,"trial_type":"three-arm-trial","trial_index":114,"time_elapsed":901878,"internal_node_id":"0.0-77.0-0.0","task_version":"screening-mturk","missing":false,"accuracy":0},{"contexts":["blue","green","red"],"outcomes":[0,1,1],"key":37,"choice":0,"rt":13.489999924786389,"outcome":0,"trial":72,"correct":1,"trial_type":"three-arm-trial","trial_index":115,"time_elapsed":903099,"internal_node_id":"0.0-78.0-0.0","task_version":"screening-mturk","missing":false,"accuracy":0},{"contexts":["blue","green","red"],"outcomes":[0,1,0],"key":38,"choice":1,"rt":348.02499995566905,"outcome":1,"trial":73,"correct":1,"trial_type":"three-arm-trial","trial_index":116,"time_elapsed":904653,"internal_node_id":"0.0-79.0-0.0","task_version":"screening-mturk","missing":false,"accuracy":1},{"contexts":["blue","green","red"],"outcomes":[0,0,1],"key":39,"choice":2,"rt":303.9000000571832,"outcome":1,"trial":74,"correct":1,"trial_type":"three-arm-trial","trial_index":117,"time_elapsed":906164,"internal_node_id":"0.0-80.0-0.0","task_version":"screening-mturk","missing":false,"accuracy":0},{"contexts":["blue","green","red"],"outcomes":[0,1,0],"key":37,"choice":0,"rt":228.1950000906363,"outcome":0,"trial":75,"correct":1,"trial_type":"three-arm-trial","trial_index":118,"time_elapsed":907598,"internal_node_id":"0.0-81.0-0.0","task_version":"screening-mturk","missing":false,"accuracy":0},{"contexts":["blue","green","red"],"outcomes":[1,0,0],"key":38,"choice":1,"rt":381.9099999964237,"outcome":0,"trial":76,"correct":0,"trial_type":"three-arm-trial","trial_index":119,"time_elapsed":909188,"internal_node_id":"0.0-82.0-0.0","task_version":"screening-mturk","missing":false,"accuracy":0},{"contexts":["blue","green","red"],"outcomes":[1,0,0],"key":39,"choice":2,"rt":120.67500001285225,"outcome":0,"trial":77,"correct":0,"trial_type":"three-arm-trial","trial_index":120,"time_elapsed":910515,"internal_node_id":"0.0-83.0-0.0","task_version":"screening-mturk","missing":false,"accuracy":0},{"contexts":["blue","green","red"],"outcomes":[1,0,0],"key":37,"choice":0,"rt":266.2700000219047,"outcome":1,"trial":78,"correct":0,"trial_type":"three-arm-trial","trial_index":121,"time_elapsed":911988,"internal_node_id":"0.0-84.0-0.0","task_version":"screening-mturk","missing":false,"accuracy":1},{"contexts":["blue","green","red"],"outcomes":[0,0,0],"key":39,"choice":2,"rt":23.04500003810972,"outcome":0,"trial":79,"correct":0,"trial_type":"three-arm-trial","trial_index":122,"time_elapsed":913215,"internal_node_id":"0.0-85.0-0.0","task_version":"screening-mturk","missing":false,"accuracy":0},{"contexts":["blue","green","red"],"outcomes":[1,0,0],"key":37,"choice":0,"rt":383.3800000138581,"outcome":1,"trial":80,"correct":0,"trial_type":"three-arm-trial","trial_index":123,"time_elapsed":914808,"internal_node_id":"0.0-86.0-0.0","task_version":"screening-mturk","missing":false,"accuracy":1},{"contexts":["blue","green","red"],"outcomes":[1,0,0],"key":37,"choice":0,"rt":488.05500008165836,"outcome":1,"trial":81,"correct":0,"trial_type":"three-arm-trial","trial_index":124,"time_elapsed":916503,"internal_node_id":"0.0-87.0-0.0","task_version":"screening-mturk","missing":false,"accuracy":1},{"contexts":["blue","green","red"],"outcomes":[0,0,0],"key":37,"choice":0,"rt":260.76500001363456,"outcome":0,"trial":82,"correct":0,"trial_type":"three-arm-trial","trial_index":125,"time_elapsed":917968,"internal_node_id":"0.0-88.0-0.0","task_version":"screening-mturk","missing":false,"accuracy":1},{"contexts":["blue","green","red"],"outcomes":[1,1,0],"key":39,"choice":2,"rt":221.98499995283782,"outcome":0,"trial":83,"correct":0,"trial_type":"three-arm-trial","trial_index":126,"time_elapsed":919397,"internal_node_id":"0.0-89.0-0.0","task_version":"screening-mturk","missing":false,"accuracy":0},{"contexts":["blue","green","red"],"outcomes":[1,0,0],"key":37,"choice":0,"rt":103.5050000064075,"outcome":1,"trial":84,"correct":0,"trial_type":"three-arm-trial","trial_index":127,"time_elapsed":920708,"internal_node_id":"0.0-90.0-0.0","task_version":"screening-mturk","missing":false,"accuracy":1},{"contexts":["blue","green","red"],"outcomes":[1,0,0],"key":37,"choice":0,"rt":379.60999994538724,"outcome":1,"trial":85,"correct":0,"trial_type":"three-arm-trial","trial_index":128,"time_elapsed":922291,"internal_node_id":"0.0-91.0-0.0","task_version":"screening-mturk","missing":false,"accuracy":1},{"contexts":["blue","green","red"],"outcomes":[1,1,1],"key":37,"choice":0,"rt":204.7749999910593,"outcome":1,"trial":86,"correct":0,"trial_type":"three-arm-trial","trial_index":129,"time_elapsed":923702,"internal_node_id":"0.0-92.0-0.0","task_version":"screening-mturk","missing":false,"accuracy":1},{"contexts":["blue","green","red"],"outcomes":[1,0,0],"key":37,"choice":0,"rt":384.639999945648,"outcome":1,"trial":87,"correct":0,"trial_type":"three-arm-trial","trial_index":130,"time_elapsed":925292,"internal_node_id":"0.0-93.0-0.0","task_version":"screening-mturk","missing":false,"accuracy":1},{"contexts":["blue","green","red"],"outcomes":[1,0,0],"key":37,"choice":0,"rt":882.054999936372,"outcome":1,"trial":88,"correct":0,"trial_type":"three-arm-trial","trial_index":131,"time_elapsed":927379,"internal_node_id":"0.0-94.0-0.0","task_version":"screening-mturk","missing":false,"accuracy":1},{"contexts":["blue","green","red"],"outcomes":[1,0,0],"key":39,"choice":2,"rt":1088.5149999521673,"outcome":0,"trial":89,"correct":0,"trial_type":"three-arm-trial","trial_index":132,"time_elapsed":929673,"internal_node_id":"0.0-95.0-0.0","task_version":"screening-mturk","missing":false,"accuracy":0},{"contexts":["blue","green","red"],"outcomes":[0,0,0],"key":37,"choice":0,"rt":96.23499994631857,"outcome":0,"trial":90,"correct":0,"trial_type":"three-arm-trial","trial_index":133,"time_elapsed":930973,"internal_node_id":"0.0-96.0-0.0","task_version":"screening-mturk","missing":false,"accuracy":1},{"rt":17931.274999980815,"responses":{"age":"34","gender-categorical":"Male","gender-free-response":"","ethnicity":"Not Hispanic or Latino","race":["White"],"language":"Yes","fluency":"Well","prolific":"No","prolific-this-study":"No"},"survey":"demographics","trial_type":"survey-demo","trial_index":134,"time_elapsed":948923,"internal_node_id":"0.0-97.0","task_version":"screening-mturk","interactions":"[{\"event\":\"focus\",\"trial\":0,\"time\":8257},{\"event\":\"blur\",\"trial\":0,\"time\":23006},{\"event\":\"focus\",\"trial\":0,\"time\":25478},{\"event\":\"blur\",\"trial\":0,\"time\":34516},{\"event\":\"focus\",\"trial\":0,\"time\":35928},{\"event\":\"blur\",\"trial\":0,\"time\":37717},{\"event\":\"focus\",\"trial\":0,\"time\":38849},{\"event\":\"blur\",\"trial\":0,\"time\":39308},{\"event\":\"focus\",\"trial\":0,\"time\":43947},{\"event\":\"blur\",\"trial\":0,\"time\":45987},{\"event\":\"focus\",\"trial\":0,\"time\":46250},{\"event\":\"blur\",\"trial\":0,\"time\":60269},{\"event\":\"focus\",\"trial\":0,\"time\":61758},{\"event\":\"blur\",\"trial\":1,\"time\":76022},{\"event\":\"focus\",\"trial\":1,\"time\":87415},{\"event\":\"blur\",\"trial\":1,\"time\":110680},{\"event\":\"focus\",\"trial\":1,\"time\":122332},{\"event\":\"blur\",\"trial\":1,\"time\":130637},{\"event\":\"focus\",\"trial\":1,\"time\":133689},{\"event\":\"blur\",\"trial\":2,\"time\":136669},{\"event\":\"focus\",\"trial\":2,\"time\":142337},{\"event\":\"blur\",\"trial\":3,\"time\":149156},{\"event\":\"focus\",\"trial\":3,\"time\":155946},{\"event\":\"blur\",\"trial\":4,\"time\":183912},{\"event\":\"focus\",\"trial\":4,\"time\":184519},{\"event\":\"blur\",\"trial\":4,\"time\":185394},{\"event\":\"focus\",\"trial\":4,\"time\":187533},{\"event\":\"blur\",\"trial\":4,\"time\":188647},{\"event\":\"focus\",\"trial\":4,\"time\":193660},{\"event\":\"blur\",\"trial\":5,\"time\":212789},{\"event\":\"focus\",\"trial\":5,\"time\":212789},{\"event\":\"blur\",\"trial\":7,\"time\":244464},{\"event\":\"focus\",\"trial\":7,\"time\":248000},{\"event\":\"blur\",\"trial\":8,\"time\":257958},{\"event\":\"focus\",\"trial\":8,\"time\":261946},{\"event\":\"blur\",\"trial\":9,\"time\":271719},{\"event\":\"focus\",\"trial\":9,\"time\":277061},{\"event\":\"blur\",\"trial\":9,\"time\":282041},{\"event\":\"focus\",\"trial\":9,\"time\":285079},{\"event\":\"blur\",\"trial\":9,\"time\":291077},{\"event\":\"focus\",\"trial\":9,\"time\":295180},{\"event\":\"blur\",\"trial\":9,\"time\":297612},{\"event\":\"focus\",\"trial\":9,\"time\":301146},{\"event\":\"blur\",\"trial\":9,\"time\":303161},{\"event\":\"focus\",\"trial\":9,\"time\":306377},{\"event\":\"blur\",\"trial\":9,\"time\":306732},{\"event\":\"focus\",\"trial\":9,\"time\":307013},{\"event\":\"blur\",\"trial\":9,\"time\":308687},{\"event\":\"focus\",\"trial\":9,\"time\":314486},{\"event\":\"blur\",\"trial\":11,\"time\":328741},{\"event\":\"focus\",\"trial\":11,\"time\":341336},{\"event\":\"blur\",\"trial\":11,\"time\":343317},{\"event\":\"focus\",\"trial\":11,\"time\":356829},{\"event\":\"blur\",\"trial\":15,\"time\":379517},{\"event\":\"focus\",\"trial\":15,\"time\":386088},{\"event\":\"blur\",\"trial\":35,\"time\":584570},{\"event\":\"focus\",\"trial\":35,\"time\":589487},{\"event\":\"blur\",\"trial\":35,\"time\":593692},{\"event\":\"focus\",\"trial\":35,\"time\":607649},{\"event\":\"blur\",\"trial\":35,\"time\":608715},{\"event\":\"focus\",\"trial\":35,\"time\":622640},{\"event\":\"blur\",\"trial\":35,\"time\":630694},{\"event\":\"focus\",\"trial\":35,\"time\":635512},{\"event\":\"blur\",\"trial\":35,\"time\":644221},{\"event\":\"focus\",\"trial\":35,\"time\":653806},{\"event\":\"blur\",\"trial\":35,\"time\":654341},{\"event\":\"focus\",\"trial\":35,\"time\":655657},{\"event\":\"blur\",\"trial\":35,\"time\":656808},{\"event\":\"focus\",\"trial\":35,\"time\":662301},{\"event\":\"blur\",\"trial\":35,\"time\":665539},{\"event\":\"focus\",\"trial\":35,\"time\":679525},{\"event\":\"blur\",\"trial\":35,\"time\":680731},{\"event\":\"focus\",\"trial\":35,\"time\":688421},{\"event\":\"blur\",\"trial\":36,\"time\":702107},{\"event\":\"focus\",\"trial\":36,\"time\":712632},{\"event\":\"blur\",\"trial\":42,\"time\":746099},{\"event\":\"focus\",\"trial\":42,\"time\":747209},{\"event\":\"blur\",\"trial\":65,\"time\":799818},{\"event\":\"focus\",\"trial\":66,\"time\":802603},{\"event\":\"blur\",\"trial\":67,\"time\":805254},{\"event\":\"focus\",\"trial\":67,\"time\":806632},{\"event\":\"blur\",\"trial\":71,\"time\":813973},{\"event\":\"focus\",\"trial\":71,\"time\":814156},{\"event\":\"blur\",\"trial\":84,\"time\":835087},{\"event\":\"focus\",\"trial\":84,\"time\":839189},{\"event\":\"blur\",\"trial\":91,\"time\":859307},{\"event\":\"focus\",\"trial\":92,\"time\":865001}]"}]