[{"responses":{"Q10":"2","Q07":"3","Q13":"3","Q02":"3","Q12":"1","Q03":"0","Q01":"3","Q09":"2","Q08":"3","Q06":"3","Q04":"1","Q11":"3","Q05":"2"},"rt":141901.52499999932,"survey":"bisbas","trial_type":"survey-template","trial_index":0,"time_elapsed":141976,"internal_node_id":"0.0-0.0","task_version":"screening-mturk"},{"responses":{"Q01":"0","Q02":"0","Q03":"0"},"rt":12640.86500000031,"survey":"pswq","trial_type":"survey-template","trial_index":1,"time_elapsed":154623,"internal_node_id":"0.0-1.0","task_version":"screening-mturk"},{"responses":{"Q04":"1","Q02":"0","Q03":"1","Q01":"1","Q06":"0","Q08":"0","Q05":"2","Q07":"0"},"rt":46677.17999999967,"survey":"gad7","trial_type":"survey-template","trial_index":2,"time_elapsed":201304,"internal_node_id":"0.0-2.0","task_version":"screening-mturk"},{"responses":{"Q07":"3","Q05":"3","Q08":"3","Q06":"2","Q15":"2","Q01":"3","Q03":"2","Q11":"3","Q14":"2","Q12":"2","Q02":"3","Q09":"3","Q04":"2","Q13":"3","Q10":"3"},"rt":59773.149999999965,"survey":"shaps","trial_type":"survey-template","trial_index":3,"time_elapsed":261082,"internal_node_id":"0.0-3.0","task_version":"screening-mturk"},{"responses":{"Q04":"3","Q05":"1","Q11":"1","Q02":"0","Q12":"0","Q08":"2","Q15":"0","Q13":"2","Q03":"2","Q10":"1","Q14":"1","Q09":"2","Q07":"2","Q06":"1","Q01":"2"},"rt":104145.29500000027,"survey":"7up7down","trial_type":"survey-template","trial_index":4,"time_elapsed":365233,"internal_node_id":"0.0-4.0","task_version":"screening-mturk"},{"view_history":"[{\"page_index\":0,\"viewing_time\":10090.135000000359},{\"page_index\":1,\"viewing_time\":9031.425000000105},{\"page_index\":2,\"viewing_time\":14639.919999999634},{\"page_index\":3,\"viewing_time\":11127.975000000326},{\"page_index\":4,\"viewing_time\":3302.609999999753},{\"page_index\":3,\"viewing_time\":813.2249999998603},{\"page_index\":4,\"viewing_time\":2908.2000000007683},{\"page_index\":5,\"viewing_time\":2784.114999999467},{\"page_index\":6,\"viewing_time\":2015.8600000004517},{\"page_index\":7,\"viewing_time\":3319.889999999723}]","rt":60033.77500000078,"trial_type":"instructions","trial_index":5,"time_elapsed":425269,"internal_node_id":"0.0-5.0-0.0","task_version":"screening-mturk"},{"responses":["True","False","False","True","True"],"num_errors":2,"rt":20286.535000000207,"trial_type":"three-arm-comprehension","trial_index":6,"time_elapsed":445560,"internal_node_id":"0.0-5.0-1.0","task_version":"screening-mturk"},{"view_history":"[{\"page_index\":0,\"viewing_time\":2115.4349999997066},{\"page_index\":1,\"viewing_time\":527.8349999999045},{\"page_index\":2,\"viewing_time\":879.9650000000838},{\"page_index\":3,\"viewing_time\":720.2200000001467},{\"page_index\":4,\"viewing_time\":815.7900000005611},{\"page_index\":5,\"viewing_time\":728.2949999998673},{\"page_index\":6,\"viewing_time\":1640.2099999995553},{\"page_index\":7,\"viewing_time\":4055.664999999921},{\"page_index\":6,\"viewing_time\":280.05500000016764},{\"page_index\":5,\"viewing_time\":216.50000000040745},{\"page_index\":4,\"viewing_time\":335.4649999992107},{\"page_index\":3,\"viewing_time\":712.1800000004587},{\"page_index\":2,\"viewing_time\":544.1899999995949},{\"page_index\":1,\"viewing_time\":1463.8300000005984},{\"page_index\":0,\"viewing_time\":4727.815000000235},{\"page_index\":1,\"viewing_time\":10975.894999999553},{\"page_index\":2,\"viewing_time\":8876.865000000165},{\"page_index\":3,\"viewing_time\":476.80500000028405},{\"page_index\":2,\"viewing_time\":1806.389999999723},{\"page_index\":3,\"viewing_time\":6960.180000000051},{\"page_index\":4,\"viewing_time\":24343.74000000028},{\"page_index\":5,\"viewing_time\":2351.814999999944},{\"page_index\":6,\"viewing_time\":3056.1549999993294},{\"page_index\":7,\"viewing_time\":1368.0199999999022}]","rt":79979.8000000001,"trial_type":"instructions","trial_index":7,"time_elapsed":525549,"internal_node_id":"0.0-5.1-0.1","task_version":"screening-mturk"},{"responses":["True","True","False","True","False"],"num_errors":2,"rt":43773.79999999993,"trial_type":"three-arm-comprehension","trial_index":8,"time_elapsed":569326,"internal_node_id":"0.0-5.1-1.1","task_version":"screening-mturk"},{"view_history":"[{\"page_index\":0,\"viewing_time\":1411.33499999973},{\"page_index\":1,\"viewing_time\":271.60000000009313},{\"page_index\":2,\"viewing_time\":216.07500000030268},{\"page_index\":3,\"viewing_time\":295.914999999688},{\"page_index\":4,\"viewing_time\":512.1050000006799},{\"page_index\":5,\"viewing_time\":455.2249999997439},{\"page_index\":6,\"viewing_time\":504.9650000000838},{\"page_index\":7,\"viewing_time\":511.77499999990687}]","rt":4179.519999999669,"trial_type":"instructions","trial_index":9,"time_elapsed":573509,"internal_node_id":"0.0-5.2-0.2","task_version":"screening-mturk"},{"responses":["True","True","True","True","True"],"num_errors":2,"rt":8726.03000000061,"trial_type":"three-arm-comprehension","trial_index":10,"time_elapsed":582238,"internal_node_id":"0.0-5.2-1.2","task_version":"screening-mturk"},{"view_history":"[{\"page_index\":0,\"viewing_time\":1307.6799999999348},{\"page_index\":1,\"viewing_time\":671.7049999997253},{\"page_index\":2,\"viewing_time\":104.08499999996275},{\"page_index\":3,\"viewing_time\":583.945000000298},{\"page_index\":4,\"viewing_time\":504.0200000003679},{\"page_index\":5,\"viewing_time\":671.9999999995343},{\"page_index\":6,\"viewing_time\":727.9799999996321},{\"page_index\":7,\"viewing_time\":736.1700000001583}]","rt":5308.549999999814,"trial_type":"instructions","trial_index":11,"time_elapsed":587550,"internal_node_id":"0.0-5.3-0.3","task_version":"screening-mturk"},{"responses":["False","False","False","False","False"],"num_errors":3,"rt":15045.22499999986,"trial_type":"three-arm-comprehension","trial_index":12,"time_elapsed":602599,"internal_node_id":"0.0-5.3-1.3","task_version":"screening-mturk"},{"view_history":"[{\"page_index\":0,\"viewing_time\":2131.404999999213},{\"page_index\":1,\"viewing_time\":148.06000000040513},{\"page_index\":2,\"viewing_time\":168.5749999997206},{\"page_index\":3,\"viewing_time\":175.06500000029337},{\"page_index\":4,\"viewing_time\":218.31999999994878},{\"page_index\":5,\"viewing_time\":188.82000000029802},{\"page_index\":6,\"viewing_time\":171.15999999991618},{\"page_index\":7,\"viewing_time\":152.629999999539}]","rt":3354.4649999995017,"trial_type":"instructions","trial_index":13,"time_elapsed":605957,"internal_node_id":"0.0-5.4-0.4","task_version":"screening-mturk"},{"responses":["True","True","False","False","False"],"num_errors":1,"rt":18293.73000000033,"trial_type":"three-arm-comprehension","trial_index":14,"time_elapsed":624254,"internal_node_id":"0.0-5.4-1.4","task_version":"screening-mturk"},{"view_history":"[{\"page_index\":0,\"viewing_time\":1971.215000000433},{\"page_index\":1,\"viewing_time\":202.39999999920838},{\"page_index\":2,\"viewing_time\":210.84500000055414},{\"page_index\":3,\"viewing_time\":149.83000000030734},{\"page_index\":4,\"viewing_time\":207.75999999931082},{\"page_index\":5,\"viewing_time\":100.34499999985565},{\"page_index\":6,\"viewing_time\":217.6200000003446},{\"page_index\":7,\"viewing_time\":207.36000000033528}]","rt":3267.7400000002235,"trial_type":"instructions","trial_index":15,"time_elapsed":627526,"internal_node_id":"0.0-5.5-0.5","task_version":"screening-mturk"},{"responses":["True","True","False","False","True"],"num_errors":0,"rt":18317.310000000405,"trial_type":"three-arm-comprehension","trial_index":16,"time_elapsed":645845,"internal_node_id":"0.0-5.5-1.5","task_version":"screening-mturk"},{"view_history":"[{\"page_index\":0,\"viewing_time\":2891.410000000149}]","rt":2891.8499999999767,"trial_type":"instructions","trial_index":17,"time_elapsed":648740,"internal_node_id":"0.0-6.0","task_version":"screening-mturk"},{"contexts":["red","green","blue"],"outcomes":[1,1,0],"key":38,"choice":1,"rt":2449.1149999994086,"outcome":1,"trial":1,"correct":1,"trial_type":"three-arm-trial","trial_index":18,"time_elapsed":652395,"internal_node_id":"0.0-7.0-0.0","task_version":"screening-mturk","missing":false,"accuracy":1},{"contexts":["red","green","blue"],"outcomes":[1,1,1],"key":38,"choice":1,"rt":499.010000000475,"outcome":1,"trial":2,"correct":1,"trial_type":"three-arm-trial","trial_index":19,"time_elapsed":654100,"internal_node_id":"0.0-8.0-0.0","task_version":"screening-mturk","missing":false,"accuracy":1},{"contexts":["red","green","blue"],"outcomes":[0,1,0],"key":38,"choice":1,"rt":332.9450000000652,"outcome":1,"trial":3,"correct":1,"trial_type":"three-arm-trial","trial_index":20,"time_elapsed":655637,"internal_node_id":"0.0-9.0-0.0","task_version":"screening-mturk","missing":false,"accuracy":1},{"contexts":["red","green","blue"],"outcomes":[0,1,0],"key":38,"choice":1,"rt":347.3450000000885,"outcome":1,"trial":4,"correct":1,"trial_type":"three-arm-trial","trial_index":21,"time_elapsed":657189,"internal_node_id":"0.0-10.0-0.0","task_version":"screening-mturk","missing":false,"accuracy":1},{"contexts":["red","green","blue"],"outcomes":[0,1,0],"key":38,"choice":1,"rt":41.91499999980442,"outcome":1,"trial":5,"correct":1,"trial_type":"three-arm-trial","trial_index":22,"time_elapsed":658435,"internal_node_id":"0.0-11.0-0.0","task_version":"screening-mturk","missing":false,"accuracy":1},{"contexts":["red","green","blue"],"outcomes":[0,1,0],"key":38,"choice":1,"rt":344.8799999996554,"outcome":1,"trial":6,"correct":1,"trial_type":"three-arm-trial","trial_index":23,"time_elapsed":659986,"internal_node_id":"0.0-12.0-0.0","task_version":"screening-mturk","missing":false,"accuracy":1},{"contexts":["red","green","blue"],"outcomes":[0,1,0],"key":37,"choice":0,"rt":431.2049999999581,"outcome":0,"trial":7,"correct":1,"trial_type":"three-arm-trial","trial_index":24,"time_elapsed":661625,"internal_node_id":"0.0-13.0-0.0","task_version":"screening-mturk","missing":false,"accuracy":0},{"contexts":["red","green","blue"],"outcomes":[0,1,0],"key":38,"choice":1,"rt":1159.7099999998463,"outcome":1,"trial":8,"correct":1,"trial_type":"three-arm-trial","trial_index":25,"time_elapsed":663990,"internal_node_id":"0.0-14.0-0.0","task_version":"screening-mturk","missing":false,"accuracy":1},{"contexts":["red","green","blue"],"outcomes":[1,0,0],"key":39,"choice":2,"rt":846.3049999999348,"outcome":0,"trial":9,"correct":1,"trial_type":"three-arm-trial","trial_index":26,"time_elapsed":666045,"internal_node_id":"0.0-15.0-0.0","task_version":"screening-mturk","missing":false,"accuracy":0},{"contexts":["red","green","blue"],"outcomes":[1,0,0],"key":38,"choice":1,"rt":411,"outcome":0,"trial":10,"correct":1,"trial_type":"three-arm-trial","trial_index":27,"time_elapsed":667661,"internal_node_id":"0.0-16.0-0.0","task_version":"screening-mturk","missing":false,"accuracy":1},{"contexts":["red","green","blue"],"outcomes":[0,1,0],"key":39,"choice":2,"rt":476.85499999986496,"outcome":0,"trial":11,"correct":1,"trial_type":"three-arm-trial","trial_index":28,"time_elapsed":669342,"internal_node_id":"0.0-17.0-0.0","task_version":"screening-mturk","missing":false,"accuracy":0},{"contexts":["red","green","blue"],"outcomes":[0,1,1],"key":38,"choice":1,"rt":101.62000000034459,"outcome":1,"trial":12,"correct":1,"trial_type":"three-arm-trial","trial_index":29,"time_elapsed":670650,"internal_node_id":"0.0-18.0-0.0","task_version":"screening-mturk","missing":false,"accuracy":1},{"contexts":["red","green","blue"],"outcomes":[0,1,0],"key":38,"choice":1,"rt":271.23499999928754,"outcome":1,"trial":13,"correct":1,"trial_type":"three-arm-trial","trial_index":30,"time_elapsed":672125,"internal_node_id":"0.0-19.0-0.0","task_version":"screening-mturk","missing":false,"accuracy":1},{"contexts":["red","green","blue"],"outcomes":[1,1,0],"key":38,"choice":1,"rt":106.0500000002794,"outcome":1,"trial":14,"correct":1,"trial_type":"three-arm-trial","trial_index":31,"time_elapsed":673440,"internal_node_id":"0.0-20.0-0.0","task_version":"screening-mturk","missing":false,"accuracy":1},{"contexts":["red","green","blue"],"outcomes":[0,1,0],"key":38,"choice":1,"rt":316.6700000001583,"outcome":1,"trial":15,"correct":1,"trial_type":"three-arm-trial","trial_index":32,"time_elapsed":674961,"internal_node_id":"0.0-21.0-0.0","task_version":"screening-mturk","missing":false,"accuracy":1},{"contexts":["red","green","blue"],"outcomes":[0,0,1],"key":38,"choice":1,"rt":287.5300000004936,"outcome":0,"trial":16,"correct":2,"trial_type":"three-arm-trial","trial_index":33,"time_elapsed":676454,"internal_node_id":"0.0-22.0-0.0","task_version":"screening-mturk","missing":false,"accuracy":0},{"contexts":["red","green","blue"],"outcomes":[0,0,0],"key":37,"choice":0,"rt":461.4700000002049,"outcome":0,"trial":17,"correct":2,"trial_type":"three-arm-trial","trial_index":34,"time_elapsed":678122,"internal_node_id":"0.0-23.0-0.0","task_version":"screening-mturk","missing":false,"accuracy":0},{"contexts":["red","green","blue"],"outcomes":[0,0,1],"key":37,"choice":0,"rt":133.31999999983236,"outcome":0,"trial":18,"correct":2,"trial_type":"three-arm-trial","trial_index":35,"time_elapsed":679461,"internal_node_id":"0.0-24.0-0.0","task_version":"screening-mturk","missing":false,"accuracy":0},{"contexts":["red","green","blue"],"outcomes":[0,0,1],"key":37,"choice":0,"rt":268.28000000026077,"outcome":0,"trial":19,"correct":2,"trial_type":"three-arm-trial","trial_index":36,"time_elapsed":680938,"internal_node_id":"0.0-25.0-0.0","task_version":"screening-mturk","missing":false,"accuracy":0},{"contexts":["red","green","blue"],"outcomes":[0,0,0],"key":38,"choice":1,"rt":76.13500000024214,"outcome":0,"trial":20,"correct":2,"trial_type":"three-arm-trial","trial_index":37,"time_elapsed":682224,"internal_node_id":"0.0-26.0-0.0","task_version":"screening-mturk","missing":false,"accuracy":0},{"contexts":["red","green","blue"],"outcomes":[0,0,1],"key":38,"choice":1,"rt":319.44999999995343,"outcome":0,"trial":21,"correct":2,"trial_type":"three-arm-trial","trial_index":38,"time_elapsed":683748,"internal_node_id":"0.0-27.0-0.0","task_version":"screening-mturk","missing":false,"accuracy":0},{"contexts":["red","green","blue"],"outcomes":[0,0,1],"key":39,"choice":2,"rt":159.24999999976717,"outcome":1,"trial":22,"correct":2,"trial_type":"three-arm-trial","trial_index":39,"time_elapsed":685112,"internal_node_id":"0.0-28.0-0.0","task_version":"screening-mturk","missing":false,"accuracy":1},{"contexts":["red","green","blue"],"outcomes":[0,1,0],"key":39,"choice":2,"rt":324.09499999985565,"outcome":0,"trial":23,"correct":2,"trial_type":"three-arm-trial","trial_index":40,"time_elapsed":686640,"internal_node_id":"0.0-29.0-0.0","task_version":"screening-mturk","missing":false,"accuracy":1},{"contexts":["red","green","blue"],"outcomes":[0,0,1],"key":37,"choice":0,"rt":538.1449999994365,"outcome":0,"trial":24,"correct":2,"trial_type":"three-arm-trial","trial_index":41,"time_elapsed":688383,"internal_node_id":"0.0-30.0-0.0","task_version":"screening-mturk","missing":false,"accuracy":0},{"contexts":["red","green","blue"],"outcomes":[0,0,1],"key":38,"choice":1,"rt":161.9250000003958,"outcome":0,"trial":25,"correct":2,"trial_type":"three-arm-trial","trial_index":42,"time_elapsed":689752,"internal_node_id":"0.0-31.0-0.0","task_version":"screening-mturk","missing":false,"accuracy":0},{"contexts":["red","green","blue"],"outcomes":[1,1,1],"key":37,"choice":0,"rt":81.65499999991152,"outcome":1,"trial":26,"correct":2,"trial_type":"three-arm-trial","trial_index":43,"time_elapsed":691041,"internal_node_id":"0.0-32.0-0.0","task_version":"screening-mturk","missing":false,"accuracy":0},{"contexts":["red","green","blue"],"outcomes":[0,1,0],"key":37,"choice":0,"rt":301.13499999966007,"outcome":0,"trial":27,"correct":2,"trial_type":"three-arm-trial","trial_index":44,"time_elapsed":692546,"internal_node_id":"0.0-33.0-0.0","task_version":"screening-mturk","missing":false,"accuracy":0},{"contexts":["red","green","blue"],"outcomes":[0,1,1],"key":39,"choice":2,"rt":316.6550000004936,"outcome":1,"trial":28,"correct":2,"trial_type":"three-arm-trial","trial_index":45,"time_elapsed":694067,"internal_node_id":"0.0-34.0-0.0","task_version":"screening-mturk","missing":false,"accuracy":1},{"contexts":["red","green","blue"],"outcomes":[0,1,1],"key":38,"choice":1,"rt":160.25499999977183,"outcome":1,"trial":29,"correct":2,"trial_type":"three-arm-trial","trial_index":46,"time_elapsed":695433,"internal_node_id":"0.0-35.0-0.0","task_version":"screening-mturk","missing":false,"accuracy":0},{"contexts":["red","green","blue"],"outcomes":[0,0,1],"key":37,"choice":0,"rt":264.70499999960884,"outcome":0,"trial":30,"correct":2,"trial_type":"three-arm-trial","trial_index":47,"time_elapsed":696904,"internal_node_id":"0.0-36.0-0.0","task_version":"screening-mturk","missing":false,"accuracy":0},{"contexts":["red","green","blue"],"outcomes":[0,1,0],"key":38,"choice":1,"rt":327.44000000006054,"outcome":1,"trial":31,"correct":1,"trial_type":"three-arm-trial","trial_index":48,"time_elapsed":698437,"internal_node_id":"0.0-37.0-0.0","task_version":"screening-mturk","missing":false,"accuracy":1},{"contexts":["red","green","blue"],"outcomes":[0,0,0],"key":39,"choice":2,"rt":477.06999999983236,"outcome":0,"trial":32,"correct":1,"trial_type":"three-arm-trial","trial_index":49,"time_elapsed":700121,"internal_node_id":"0.0-38.0-0.0","task_version":"screening-mturk","missing":false,"accuracy":0},{"contexts":["red","green","blue"],"outcomes":[0,1,0],"key":38,"choice":1,"rt":289.9400000005262,"outcome":1,"trial":33,"correct":1,"trial_type":"three-arm-trial","trial_index":50,"time_elapsed":701617,"internal_node_id":"0.0-39.0-0.0","task_version":"screening-mturk","missing":false,"accuracy":1},{"contexts":["red","green","blue"],"outcomes":[0,1,0],"key":38,"choice":1,"rt":309.7249999991618,"outcome":1,"trial":34,"correct":1,"trial_type":"three-arm-trial","trial_index":51,"time_elapsed":703133,"internal_node_id":"0.0-40.0-0.0","task_version":"screening-mturk","missing":false,"accuracy":1},{"contexts":["red","green","blue"],"outcomes":[0,1,0],"key":38,"choice":1,"rt":274.63000000081956,"outcome":1,"trial":35,"correct":1,"trial_type":"three-arm-trial","trial_index":52,"time_elapsed":704612,"internal_node_id":"0.0-41.0-0.0","task_version":"screening-mturk","missing":false,"accuracy":1},{"contexts":["red","green","blue"],"outcomes":[0,1,0],"key":38,"choice":1,"rt":552.445000000298,"outcome":1,"trial":36,"correct":1,"trial_type":"three-arm-trial","trial_index":53,"time_elapsed":706371,"internal_node_id":"0.0-42.0-0.0","task_version":"screening-mturk","missing":false,"accuracy":1},{"contexts":["red","green","blue"],"outcomes":[0,0,0],"key":38,"choice":1,"rt":403.10999999928754,"outcome":0,"trial":37,"correct":1,"trial_type":"three-arm-trial","trial_index":54,"time_elapsed":707979,"internal_node_id":"0.0-43.0-0.0","task_version":"screening-mturk","missing":false,"accuracy":1},{"contexts":["red","green","blue"],"outcomes":[0,1,0],"key":37,"choice":0,"rt":322.9000000001397,"outcome":0,"trial":38,"correct":1,"trial_type":"three-arm-trial","trial_index":55,"time_elapsed":709508,"internal_node_id":"0.0-44.0-0.0","task_version":"screening-mturk","missing":false,"accuracy":0},{"contexts":["red","green","blue"],"outcomes":[1,1,0],"key":37,"choice":0,"rt":40.700000000419095,"outcome":1,"trial":39,"correct":1,"trial_type":"three-arm-trial","trial_index":56,"time_elapsed":710754,"internal_node_id":"0.0-45.0-0.0","task_version":"screening-mturk","missing":false,"accuracy":0},{"contexts":["red","green","blue"],"outcomes":[0,1,0],"key":37,"choice":0,"rt":674.9499999996042,"outcome":0,"trial":40,"correct":1,"trial_type":"three-arm-trial","trial_index":57,"time_elapsed":712636,"internal_node_id":"0.0-46.0-0.0","task_version":"screening-mturk","missing":false,"accuracy":0},{"contexts":["red","green","blue"],"outcomes":[0,1,0],"key":39,"choice":2,"rt":237.48000000067987,"outcome":0,"trial":41,"correct":1,"trial_type":"three-arm-trial","trial_index":58,"time_elapsed":714078,"internal_node_id":"0.0-47.0-0.0","task_version":"screening-mturk","missing":false,"accuracy":0},{"contexts":["red","green","blue"],"outcomes":[0,1,0],"key":39,"choice":2,"rt":138.29000000073574,"outcome":0,"trial":42,"correct":1,"trial_type":"three-arm-trial","trial_index":59,"time_elapsed":715421,"internal_node_id":"0.0-48.0-0.0","task_version":"screening-mturk","missing":false,"accuracy":0},{"contexts":["red","green","blue"],"outcomes":[0,1,0],"key":38,"choice":1,"rt":232.26499999966472,"outcome":1,"trial":43,"correct":1,"trial_type":"three-arm-trial","trial_index":60,"time_elapsed":716860,"internal_node_id":"0.0-49.0-0.0","task_version":"screening-mturk","missing":false,"accuracy":1},{"contexts":["red","green","blue"],"outcomes":[0,0,0],"key":38,"choice":1,"rt":472.38500000012573,"outcome":0,"trial":44,"correct":1,"trial_type":"three-arm-trial","trial_index":61,"time_elapsed":718537,"internal_node_id":"0.0-50.0-0.0","task_version":"screening-mturk","missing":false,"accuracy":1},{"contexts":["red","green","blue"],"outcomes":[1,0,0],"key":38,"choice":1,"rt":1060.2149999995017,"outcome":0,"trial":45,"correct":1,"trial_type":"three-arm-trial","trial_index":62,"time_elapsed":720802,"internal_node_id":"0.0-51.0-0.0","task_version":"screening-mturk","missing":false,"accuracy":1},{"contexts":["red","green","blue"],"outcomes":[0,0,1],"key":39,"choice":2,"rt":310.2650000001304,"outcome":1,"trial":46,"correct":2,"trial_type":"three-arm-trial","trial_index":63,"time_elapsed":722318,"internal_node_id":"0.0-52.0-0.0","task_version":"screening-mturk","missing":false,"accuracy":1},{"contexts":["red","green","blue"],"outcomes":[0,0,1],"key":39,"choice":2,"rt":571.6549999997951,"outcome":1,"trial":47,"correct":2,"trial_type":"three-arm-trial","trial_index":64,"time_elapsed":724096,"internal_node_id":"0.0-53.0-0.0","task_version":"screening-mturk","missing":false,"accuracy":1},{"contexts":["red","green","blue"],"outcomes":[0,1,0],"key":39,"choice":2,"rt":2059.5899999997346,"outcome":0,"trial":48,"correct":2,"trial_type":"three-arm-trial","trial_index":65,"time_elapsed":727363,"internal_node_id":"0.0-54.0-0.0","task_version":"screening-mturk","missing":false,"accuracy":1},{"contexts":["red","green","blue"],"outcomes":[0,0,1],"key":37,"choice":0,"rt":1502.5650000006426,"outcome":0,"trial":49,"correct":2,"trial_type":"three-arm-trial","trial_index":66,"time_elapsed":730074,"internal_node_id":"0.0-55.0-0.0","task_version":"screening-mturk","missing":false,"accuracy":0},{"contexts":["red","green","blue"],"outcomes":[0,0,0],"key":39,"choice":2,"rt":496.3800000004703,"outcome":0,"trial":50,"correct":2,"trial_type":"three-arm-trial","trial_index":67,"time_elapsed":731775,"internal_node_id":"0.0-56.0-0.0","task_version":"screening-mturk","missing":false,"accuracy":1},{"contexts":["red","green","blue"],"outcomes":[0,0,1],"key":38,"choice":1,"rt":316.3349999994971,"outcome":0,"trial":51,"correct":2,"trial_type":"three-arm-trial","trial_index":68,"time_elapsed":733300,"internal_node_id":"0.0-57.0-0.0","task_version":"screening-mturk","missing":false,"accuracy":0},{"contexts":["red","green","blue"],"outcomes":[0,0,1],"key":39,"choice":2,"rt":305.5899999999674,"outcome":1,"trial":52,"correct":2,"trial_type":"three-arm-trial","trial_index":69,"time_elapsed":734817,"internal_node_id":"0.0-58.0-0.0","task_version":"screening-mturk","missing":false,"accuracy":1},{"contexts":["red","green","blue"],"outcomes":[0,0,0],"key":39,"choice":2,"rt":884.2449999992969,"outcome":0,"trial":53,"correct":2,"trial_type":"three-arm-trial","trial_index":70,"time_elapsed":736910,"internal_node_id":"0.0-59.0-0.0","task_version":"screening-mturk","missing":false,"accuracy":1},{"contexts":["red","green","blue"],"outcomes":[0,0,1],"key":38,"choice":1,"rt":324.1950000000652,"outcome":0,"trial":54,"correct":2,"trial_type":"three-arm-trial","trial_index":71,"time_elapsed":738440,"internal_node_id":"0.0-60.0-0.0","task_version":"screening-mturk","missing":false,"accuracy":0},{"contexts":["red","green","blue"],"outcomes":[0,1,1],"key":37,"choice":0,"rt":116.55499999958556,"outcome":0,"trial":55,"correct":2,"trial_type":"three-arm-trial","trial_index":72,"time_elapsed":739769,"internal_node_id":"0.0-61.0-0.0","task_version":"screening-mturk","missing":false,"accuracy":0},{"contexts":["red","green","blue"],"outcomes":[0,0,1],"key":38,"choice":1,"rt":848.940000000759,"outcome":0,"trial":56,"correct":2,"trial_type":"three-arm-trial","trial_index":73,"time_elapsed":741823,"internal_node_id":"0.0-62.0-0.0","task_version":"screening-mturk","missing":false,"accuracy":0},{"contexts":["red","green","blue"],"outcomes":[1,0,1],"key":39,"choice":2,"rt":118.24500000057742,"outcome":1,"trial":57,"correct":2,"trial_type":"three-arm-trial","trial_index":74,"time_elapsed":743150,"internal_node_id":"0.0-63.0-0.0","task_version":"screening-mturk","missing":false,"accuracy":1},{"contexts":["red","green","blue"],"outcomes":[0,1,1],"key":39,"choice":2,"rt":359.79500000027474,"outcome":1,"trial":58,"correct":2,"trial_type":"three-arm-trial","trial_index":75,"time_elapsed":744715,"internal_node_id":"0.0-64.0-0.0","task_version":"screening-mturk","missing":false,"accuracy":1},{"contexts":["red","green","blue"],"outcomes":[0,0,1],"key":39,"choice":2,"rt":412.625,"outcome":1,"trial":59,"correct":2,"trial_type":"three-arm-trial","trial_index":76,"time_elapsed":746333,"internal_node_id":"0.0-65.0-0.0","task_version":"screening-mturk","missing":false,"accuracy":1},{"contexts":["red","green","blue"],"outcomes":[1,0,1],"key":39,"choice":2,"rt":398.0449999999255,"outcome":1,"trial":60,"correct":2,"trial_type":"three-arm-trial","trial_index":77,"time_elapsed":747935,"internal_node_id":"0.0-66.0-0.0","task_version":"screening-mturk","missing":false,"accuracy":1},{"contexts":["red","green","blue"],"outcomes":[1,0,0],"key":39,"choice":2,"rt":459.11000000080094,"outcome":0,"trial":61,"correct":0,"trial_type":"three-arm-trial","trial_index":78,"time_elapsed":749599,"internal_node_id":"0.0-67.0-0.0","task_version":"screening-mturk","missing":false,"accuracy":0},{"contexts":["red","green","blue"],"outcomes":[1,0,1],"key":38,"choice":1,"rt":425.0700000001816,"outcome":0,"trial":62,"correct":0,"trial_type":"three-arm-trial","trial_index":79,"time_elapsed":751229,"internal_node_id":"0.0-68.0-0.0","task_version":"screening-mturk","missing":false,"accuracy":0},{"contexts":["red","green","blue"],"outcomes":[1,0,1],"key":38,"choice":1,"rt":253.86499999964144,"outcome":0,"trial":63,"correct":0,"trial_type":"three-arm-trial","trial_index":80,"time_elapsed":752686,"internal_node_id":"0.0-69.0-0.0","task_version":"screening-mturk","missing":false,"accuracy":0},{"contexts":["red","green","blue"],"outcomes":[1,0,0],"key":38,"choice":1,"rt":319.8350000001956,"outcome":0,"trial":64,"correct":0,"trial_type":"three-arm-trial","trial_index":81,"time_elapsed":754209,"internal_node_id":"0.0-70.0-0.0","task_version":"screening-mturk","missing":false,"accuracy":0},{"contexts":["red","green","blue"],"outcomes":[0,0,1],"key":37,"choice":0,"rt":164.67000000015832,"outcome":0,"trial":65,"correct":0,"trial_type":"three-arm-trial","trial_index":82,"time_elapsed":755579,"internal_node_id":"0.0-71.0-0.0","task_version":"screening-mturk","missing":false,"accuracy":1},{"contexts":["red","green","blue"],"outcomes":[1,0,0],"key":38,"choice":1,"rt":128.49499999987893,"outcome":0,"trial":66,"correct":0,"trial_type":"three-arm-trial","trial_index":83,"time_elapsed":756911,"internal_node_id":"0.0-72.0-0.0","task_version":"screening-mturk","missing":false,"accuracy":0},{"contexts":["red","green","blue"],"outcomes":[1,0,0],"key":39,"choice":2,"rt":48.049999999348074,"outcome":0,"trial":67,"correct":0,"trial_type":"three-arm-trial","trial_index":84,"time_elapsed":758162,"internal_node_id":"0.0-73.0-0.0","task_version":"screening-mturk","missing":false,"accuracy":0},{"contexts":["red","green","blue"],"outcomes":[1,1,0],"key":38,"choice":1,"rt":367.2000000005355,"outcome":1,"trial":68,"correct":0,"trial_type":"three-arm-trial","trial_index":85,"time_elapsed":759735,"internal_node_id":"0.0-74.0-0.0","task_version":"screening-mturk","missing":false,"accuracy":0},{"contexts":["red","green","blue"],"outcomes":[1,0,1],"key":38,"choice":1,"rt":164.95500000019092,"outcome":0,"trial":69,"correct":0,"trial_type":"three-arm-trial","trial_index":86,"time_elapsed":761106,"internal_node_id":"0.0-75.0-0.0","task_version":"screening-mturk","missing":false,"accuracy":0},{"contexts":["red","green","blue"],"outcomes":[1,0,0],"key":39,"choice":2,"rt":346.7299999992829,"outcome":0,"trial":70,"correct":0,"trial_type":"three-arm-trial","trial_index":87,"time_elapsed":762661,"internal_node_id":"0.0-76.0-0.0","task_version":"screening-mturk","missing":false,"accuracy":0},{"contexts":["red","green","blue"],"outcomes":[1,0,0],"key":37,"choice":0,"rt":409.70999999984633,"outcome":1,"trial":71,"correct":0,"trial_type":"three-arm-trial","trial_index":88,"time_elapsed":764277,"internal_node_id":"0.0-77.0-0.0","task_version":"screening-mturk","missing":false,"accuracy":1},{"contexts":["red","green","blue"],"outcomes":[0,0,0],"key":37,"choice":0,"rt":341.58500000007916,"outcome":0,"trial":72,"correct":0,"trial_type":"three-arm-trial","trial_index":89,"time_elapsed":765825,"internal_node_id":"0.0-78.0-0.0","task_version":"screening-mturk","missing":false,"accuracy":1},{"contexts":["red","green","blue"],"outcomes":[1,1,0],"key":39,"choice":2,"rt":464.46000000007916,"outcome":0,"trial":73,"correct":0,"trial_type":"three-arm-trial","trial_index":90,"time_elapsed":767496,"internal_node_id":"0.0-79.0-0.0","task_version":"screening-mturk","missing":false,"accuracy":0},{"contexts":["red","green","blue"],"outcomes":[1,0,0],"key":37,"choice":0,"rt":280.4900000001071,"outcome":1,"trial":74,"correct":0,"trial_type":"three-arm-trial","trial_index":91,"time_elapsed":768981,"internal_node_id":"0.0-80.0-0.0","task_version":"screening-mturk","missing":false,"accuracy":1},{"contexts":["red","green","blue"],"outcomes":[1,0,0],"key":39,"choice":2,"rt":450.30500000028405,"outcome":0,"trial":75,"correct":0,"trial_type":"three-arm-trial","trial_index":92,"time_elapsed":770635,"internal_node_id":"0.0-81.0-0.0","task_version":"screening-mturk","missing":false,"accuracy":0},{"contexts":["red","green","blue"],"outcomes":[0,0,1],"key":38,"choice":1,"rt":341.6349999997765,"outcome":0,"trial":76,"correct":2,"trial_type":"three-arm-trial","trial_index":93,"time_elapsed":772180,"internal_node_id":"0.0-82.0-0.0","task_version":"screening-mturk","missing":false,"accuracy":0},{"contexts":["red","green","blue"],"outcomes":[0,0,0],"key":39,"choice":2,"rt":61.765000000363216,"outcome":0,"trial":77,"correct":2,"trial_type":"three-arm-trial","trial_index":94,"time_elapsed":773445,"internal_node_id":"0.0-83.0-0.0","task_version":"screening-mturk","missing":false,"accuracy":1},{"contexts":["red","green","blue"],"outcomes":[1,0,1],"key":37,"choice":0,"rt":176.88000000000466,"outcome":1,"trial":78,"correct":2,"trial_type":"three-arm-trial","trial_index":95,"time_elapsed":774826,"internal_node_id":"0.0-84.0-0.0","task_version":"screening-mturk","missing":false,"accuracy":0},{"contexts":["red","green","blue"],"outcomes":[0,0,1],"key":37,"choice":0,"rt":216.3049999999348,"outcome":0,"trial":79,"correct":2,"trial_type":"three-arm-trial","trial_index":96,"time_elapsed":776246,"internal_node_id":"0.0-85.0-0.0","task_version":"screening-mturk","missing":false,"accuracy":0},{"contexts":["red","green","blue"],"outcomes":[1,0,1],"key":39,"choice":2,"rt":378.9050000003772,"outcome":1,"trial":80,"correct":2,"trial_type":"three-arm-trial","trial_index":97,"time_elapsed":777830,"internal_node_id":"0.0-86.0-0.0","task_version":"screening-mturk","missing":false,"accuracy":1},{"contexts":["red","green","blue"],"outcomes":[0,1,1],"key":39,"choice":2,"rt":258.54499999969266,"outcome":1,"trial":81,"correct":2,"trial_type":"three-arm-trial","trial_index":98,"time_elapsed":779292,"internal_node_id":"0.0-87.0-0.0","task_version":"screening-mturk","missing":false,"accuracy":1},{"contexts":["red","green","blue"],"outcomes":[0,0,0],"key":39,"choice":2,"rt":548.9050000004936,"outcome":0,"trial":82,"correct":2,"trial_type":"three-arm-trial","trial_index":99,"time_elapsed":781044,"internal_node_id":"0.0-88.0-0.0","task_version":"screening-mturk","missing":false,"accuracy":1},{"contexts":["red","green","blue"],"outcomes":[0,1,1],"key":38,"choice":1,"rt":264.4700000000885,"outcome":1,"trial":83,"correct":2,"trial_type":"three-arm-trial","trial_index":100,"time_elapsed":782512,"internal_node_id":"0.0-89.0-0.0","task_version":"screening-mturk","missing":false,"accuracy":0},{"contexts":["red","green","blue"],"outcomes":[0,0,1],"key":38,"choice":1,"rt":276.8700000005774,"outcome":0,"trial":84,"correct":2,"trial_type":"three-arm-trial","trial_index":101,"time_elapsed":783994,"internal_node_id":"0.0-90.0-0.0","task_version":"screening-mturk","missing":false,"accuracy":0},{"contexts":["red","green","blue"],"outcomes":[0,0,1],"key":39,"choice":2,"rt":178.67500000016298,"outcome":1,"trial":85,"correct":2,"trial_type":"three-arm-trial","trial_index":102,"time_elapsed":785376,"internal_node_id":"0.0-91.0-0.0","task_version":"screening-mturk","missing":false,"accuracy":1},{"contexts":["red","green","blue"],"outcomes":[0,1,1],"key":39,"choice":2,"rt":930.5400000002701,"outcome":1,"trial":86,"correct":2,"trial_type":"three-arm-trial","trial_index":103,"time_elapsed":787510,"internal_node_id":"0.0-92.0-0.0","task_version":"screening-mturk","missing":false,"accuracy":1},{"contexts":["red","green","blue"],"outcomes":[0,0,0],"key":38,"choice":1,"rt":996.1400000001304,"outcome":0,"trial":87,"correct":2,"trial_type":"three-arm-trial","trial_index":104,"time_elapsed":789712,"internal_node_id":"0.0-93.0-0.0","task_version":"screening-mturk","missing":false,"accuracy":0},{"contexts":["red","green","blue"],"outcomes":[0,1,1],"key":39,"choice":2,"rt":306.6550000003772,"outcome":1,"trial":88,"correct":2,"trial_type":"three-arm-trial","trial_index":105,"time_elapsed":791222,"internal_node_id":"0.0-94.0-0.0","task_version":"screening-mturk","missing":false,"accuracy":1},{"contexts":["red","green","blue"],"outcomes":[0,1,1],"key":37,"choice":0,"rt":498.94999999925494,"outcome":0,"trial":89,"correct":2,"trial_type":"three-arm-trial","trial_index":106,"time_elapsed":792926,"internal_node_id":"0.0-95.0-0.0","task_version":"screening-mturk","missing":false,"accuracy":0},{"contexts":["red","green","blue"],"outcomes":[0,0,1],"key":39,"choice":2,"rt":347.4299999998184,"outcome":1,"trial":90,"correct":2,"trial_type":"three-arm-trial","trial_index":107,"time_elapsed":794478,"internal_node_id":"0.0-96.0-0.0","task_version":"screening-mturk","missing":false,"accuracy":1},{"rt":49900.7500000007,"responses":{"age":"25","gender-categorical":"Male","gender-free-response":"","ethnicity":"Not Hispanic or Latino","race":["White"],"language":"Yes","fluency":"Very well","prolific":"Yes","prolific-this-study":"No"},"survey":"demographics","trial_type":"survey-demo","trial_index":108,"time_elapsed":844427,"internal_node_id":"0.0-97.0","task_version":"screening-mturk","interactions":"[{\"event\":\"blur\",\"trial\":108,\"time\":810201},{\"event\":\"focus\",\"trial\":108,\"time\":814144},{\"event\":\"blur\",\"trial\":108,\"time\":815541},{\"event\":\"focus\",\"trial\":108,\"time\":826689}]"}]