[{"responses":{"Q01":"2","Q03":"3","Q04":"3","Q05":"2","Q07":"2","Q08":"3","Q02":"3","Q06":"3"},"rt":14147.999999928288,"survey":"gad7","trial_type":"survey-template","trial_index":0,"time_elapsed":14279,"internal_node_id":"0.0-0.0","task_version":"screening-mturk"},{"responses":{"Q01":"3","Q03":"4","Q02":"4"},"rt":11126.000000047497,"survey":"pswq","trial_type":"survey-template","trial_index":1,"time_elapsed":25421,"internal_node_id":"0.0-1.0","task_version":"screening-mturk"},{"responses":{"Q06":"2","Q08":"3","Q09":"3","Q10":"3","Q07":"2","Q05":"1","Q03":"3","Q04":"2","Q01":"3","Q12":"3","Q13":"2","Q02":"3","Q11":"3"},"rt":31150.000000023283,"survey":"bisbas","trial_type":"survey-template","trial_index":2,"time_elapsed":56601,"internal_node_id":"0.0-2.0","task_version":"screening-mturk"},{"responses":{"Q12":"1","Q07":"3","Q11":"2","Q04":"2","Q01":"3","Q06":"2","Q10":"2","Q02":"3","Q09":"2","Q05":"3","Q03":"2","Q13":"3","Q08":"2","Q14":"2","Q15":"3"},"rt":8224.000000045635,"survey":"7up7down","trial_type":"survey-template","trial_index":3,"time_elapsed":64838,"internal_node_id":"0.0-3.0","task_version":"screening-mturk"},{"responses":{"Q11":"2","Q08":"2","Q07":"3","Q14":"2","Q06":"2","Q05":"3","Q10":"2","Q12":"3","Q02":"2","Q01":"3","Q03":"3","Q09":"2","Q15":"2","Q04":"3","Q13":"3"},"rt":14209.000000031665,"survey":"shaps","trial_type":"survey-template","trial_index":4,"time_elapsed":79048,"internal_node_id":"0.0-4.0","task_version":"screening-mturk"},{"view_history":"[{\"page_index\":0,\"viewing_time\":3388.9999999664724},{\"page_index\":1,\"viewing_time\":1761.0000000568107},{\"page_index\":2,\"viewing_time\":1359.9999999860302},{\"page_index\":3,\"viewing_time\":2326.9999999320135},{\"page_index\":4,\"viewing_time\":922.0000000204891},{\"page_index\":5,\"viewing_time\":579.9999999580905},{\"page_index\":6,\"viewing_time\":880.0000000046566},{\"page_index\":7,\"viewing_time\":656.0000000754371}]","rt":11875.999999931082,"trial_type":"instructions","trial_index":5,"time_elapsed":90924,"internal_node_id":"0.0-5.0-0.0","task_version":"screening-mturk"},{"responses":["True","False","False","False","True"],"num_errors":1,"rt":14819.000000017695,"trial_type":"three-arm-comprehension","trial_index":6,"time_elapsed":105774,"internal_node_id":"0.0-5.0-1.0","task_version":"screening-mturk"},{"view_history":"[{\"page_index\":0,\"viewing_time\":2545.0000000419095},{\"page_index\":1,\"viewing_time\":736.9999999646097},{\"page_index\":2,\"viewing_time\":405.9999999590218},{\"page_index\":3,\"viewing_time\":290.0000000372529},{\"page_index\":4,\"viewing_time\":226.0000000242144},{\"page_index\":5,\"viewing_time\":235.9999999171123},{\"page_index\":6,\"viewing_time\":224.0000000456348},{\"page_index\":7,\"viewing_time\":280.9999999590218}]","rt":4944.999999948777,"trial_type":"instructions","trial_index":7,"time_elapsed":110762,"internal_node_id":"0.0-5.1-0.1","task_version":"screening-mturk"},{"responses":["True","False","False","False","False"],"num_errors":2,"rt":5260.999999940395,"trial_type":"three-arm-comprehension","trial_index":8,"time_elapsed":116046,"internal_node_id":"0.0-5.1-1.1","task_version":"screening-mturk"},{"view_history":"[{\"page_index\":0,\"viewing_time\":5228.000000002794},{\"page_index\":1,\"viewing_time\":145.00000001862645},{\"page_index\":2,\"viewing_time\":233.00000000745058},{\"page_index\":3,\"viewing_time\":158.99999998509884},{\"page_index\":4,\"viewing_time\":143.00000004004687},{\"page_index\":5,\"viewing_time\":206.00000000558794},{\"page_index\":6,\"viewing_time\":177.0000000251457},{\"page_index\":7,\"viewing_time\":197.9999999748543}]","rt":6489.000000059605,"trial_type":"instructions","trial_index":9,"time_elapsed":122567,"internal_node_id":"0.0-5.2-0.2","task_version":"screening-mturk"},{"responses":["True","True","False","False","False"],"num_errors":1,"rt":6820.000000065193,"trial_type":"three-arm-comprehension","trial_index":10,"time_elapsed":129394,"internal_node_id":"0.0-5.2-1.2","task_version":"screening-mturk"},{"view_history":"[{\"page_index\":0,\"viewing_time\":3140.00000001397},{\"page_index\":1,\"viewing_time\":243.0000000167638},{\"page_index\":2,\"viewing_time\":214.00000003632158},{\"page_index\":3,\"viewing_time\":199.00000002235174},{\"page_index\":4,\"viewing_time\":193.9999999012798},{\"page_index\":5,\"viewing_time\":1502.000000094995},{\"page_index\":6,\"viewing_time\":567.9999999701977},{\"page_index\":7,\"viewing_time\":310.9999999869615}]","rt":6371.000000042841,"trial_type":"instructions","trial_index":11,"time_elapsed":135780,"internal_node_id":"0.0-5.3-0.3","task_version":"screening-mturk"},{"responses":["True","True","True","False","False"],"num_errors":2,"rt":4775.000000023283,"trial_type":"three-arm-comprehension","trial_index":12,"time_elapsed":140585,"internal_node_id":"0.0-5.3-1.3","task_version":"screening-mturk"},{"view_history":"[{\"page_index\":0,\"viewing_time\":1349.999999976717},{\"page_index\":1,\"viewing_time\":1548.9999999990687},{\"page_index\":2,\"viewing_time\":266.9999999925494},{\"page_index\":3,\"viewing_time\":194.00000001769513},{\"page_index\":4,\"viewing_time\":376.00000004749745},{\"page_index\":5,\"viewing_time\":211.00000001024455},{\"page_index\":6,\"viewing_time\":210.99999989382923},{\"page_index\":7,\"viewing_time\":259.0000000782311}]","rt":4417.999999946915,"trial_type":"instructions","trial_index":13,"time_elapsed":145012,"internal_node_id":"0.0-5.4-0.4","task_version":"screening-mturk"},{"responses":["True","True","True","True","False"],"num_errors":3,"rt":6834.000000031665,"trial_type":"three-arm-comprehension","trial_index":14,"time_elapsed":151852,"internal_node_id":"0.0-5.4-1.4","task_version":"screening-mturk"},{"view_history":"[{\"page_index\":0,\"viewing_time\":1624.0000000689179},{\"page_index\":1,\"viewing_time\":194.99999994877726},{\"page_index\":2,\"viewing_time\":238.0000000121072},{\"page_index\":3,\"viewing_time\":180.00000005122274},{\"page_index\":4,\"viewing_time\":251.99999997857958},{\"page_index\":5,\"viewing_time\":194.00000001769513},{\"page_index\":6,\"viewing_time\":219.99999997206032},{\"page_index\":7,\"viewing_time\":238.99999994318932}]","rt":3141.9999999925494,"trial_type":"instructions","trial_index":15,"time_elapsed":154995,"internal_node_id":"0.0-5.5-0.5","task_version":"screening-mturk"},{"responses":["False","True","True","True","True"],"num_errors":3,"rt":8501.000000047497,"trial_type":"three-arm-comprehension","trial_index":16,"time_elapsed":163502,"internal_node_id":"0.0-5.5-1.5","task_version":"screening-mturk"},{"view_history":"[{\"page_index\":0,\"viewing_time\":1547.000000020489},{\"page_index\":1,\"viewing_time\":1417.0000000158325},{\"page_index\":2,\"viewing_time\":216.00000001490116},{\"page_index\":3,\"viewing_time\":152.99999993294477},{\"page_index\":4,\"viewing_time\":212.99999998882413},{\"page_index\":5,\"viewing_time\":167.00000001583248},{\"page_index\":6,\"viewing_time\":430.99999998230487},{\"page_index\":7,\"viewing_time\":561.0000001033768}]","rt":4706.000000005588,"trial_type":"instructions","trial_index":17,"time_elapsed":168216,"internal_node_id":"0.0-5.6-0.6","task_version":"screening-mturk"},{"responses":["False","False","True","True","True"],"num_errors":4,"rt":7669.999999925494,"trial_type":"three-arm-comprehension","trial_index":18,"time_elapsed":175894,"internal_node_id":"0.0-5.6-1.6","task_version":"screening-mturk"},{"view_history":"[{\"page_index\":0,\"viewing_time\":1153.00000004936},{\"page_index\":1,\"viewing_time\":208.99999991524965},{\"page_index\":2,\"viewing_time\":221.00000001955777},{\"page_index\":3,\"viewing_time\":216.00000001490116},{\"page_index\":4,\"viewing_time\":195.00000006519258},{\"page_index\":5,\"viewing_time\":242.99999990034848},{\"page_index\":6,\"viewing_time\":590.000000083819},{\"page_index\":7,\"viewing_time\":427.99999995622784}]","rt":3255.0000000046566,"trial_type":"instructions","trial_index":19,"time_elapsed":179167,"internal_node_id":"0.0-5.7-0.7","task_version":"screening-mturk"},{"responses":["True","True","False","True","True"],"num_errors":1,"rt":6004.0000000735745,"trial_type":"three-arm-comprehension","trial_index":20,"time_elapsed":185202,"internal_node_id":"0.0-5.7-1.7","task_version":"screening-mturk"},{"view_history":"[{\"page_index\":0,\"viewing_time\":1753.9999999571592},{\"page_index\":1,\"viewing_time\":255.0000000046566},{\"page_index\":2,\"viewing_time\":199.99999995343387},{\"page_index\":3,\"viewing_time\":194.00000001769513},{\"page_index\":4,\"viewing_time\":183.00000007729977},{\"page_index\":5,\"viewing_time\":208.99999991524965},{\"page_index\":6,\"viewing_time\":241.99999996926636},{\"page_index\":7,\"viewing_time\":214.00000003632158}]","rt":3250.999999931082,"trial_type":"instructions","trial_index":21,"time_elapsed":188489,"internal_node_id":"0.0-5.8-0.8","task_version":"screening-mturk"},{"responses":["True","False","True","True","False"],"num_errors":4,"rt":53768.00000004005,"trial_type":"three-arm-comprehension","trial_index":22,"time_elapsed":242279,"internal_node_id":"0.0-5.8-1.8","task_version":"screening-mturk"},{"view_history":"[{\"page_index\":0,\"viewing_time\":1415.999999968335},{\"page_index\":1,\"viewing_time\":251.99999997857958},{\"page_index\":2,\"viewing_time\":293.99999999441206},{\"page_index\":3,\"viewing_time\":314.0000000130385},{\"page_index\":4,\"viewing_time\":238.0000000121072},{\"page_index\":5,\"viewing_time\":238.0000000121072},{\"page_index\":6,\"viewing_time\":214.00000003632158},{\"page_index\":7,\"viewing_time\":363.0000000121072}]","rt":3329.0000000270084,"trial_type":"instructions","trial_index":23,"time_elapsed":245630,"internal_node_id":"0.0-5.9-0.9","task_version":"screening-mturk"},{"responses":["True","False","True","True","True"],"num_errors":3,"rt":19202.00000004843,"trial_type":"three-arm-comprehension","trial_index":24,"time_elapsed":264853,"internal_node_id":"0.0-5.9-1.9","task_version":"screening-mturk"},{"view_history":"[{\"page_index\":0,\"viewing_time\":1457.9999999841675},{\"page_index\":1,\"viewing_time\":158.0000000540167},{\"page_index\":2,\"viewing_time\":293.99999999441206},{\"page_index\":3,\"viewing_time\":116.00000003818423},{\"page_index\":4,\"viewing_time\":184.0000000083819},{\"page_index\":5,\"viewing_time\":186.9999999180436},{\"page_index\":6,\"viewing_time\":205.0000000745058},{\"page_index\":7,\"viewing_time\":290.99999996833503}]","rt":2893.000000040047,"trial_type":"instructions","trial_index":25,"time_elapsed":267769,"internal_node_id":"0.0-5.10-0.10","task_version":"screening-mturk"},{"responses":["False","False","True","True","True"],"num_errors":4,"rt":7532.000000006519,"trial_type":"three-arm-comprehension","trial_index":26,"time_elapsed":275303,"internal_node_id":"0.0-5.10-1.10","task_version":"screening-mturk"},{"view_history":"[{\"page_index\":0,\"viewing_time\":1554.0000000037253},{\"page_index\":1,\"viewing_time\":199.00000002235174},{\"page_index\":2,\"viewing_time\":170.99999997299165},{\"page_index\":3,\"viewing_time\":180.99999998230487},{\"page_index\":4,\"viewing_time\":204.00000002700835},{\"page_index\":5,\"viewing_time\":202.9999999795109},{\"page_index\":6,\"viewing_time\":523.0000000447035},{\"page_index\":7,\"viewing_time\":228.9999999338761}]","rt":3263.9999999664724,"trial_type":"instructions","trial_index":27,"time_elapsed":278583,"internal_node_id":"0.0-5.11-0.11","task_version":"screening-mturk"},{"responses":["False","True","False","True","True"],"num_errors":2,"rt":11597.000000067055,"trial_type":"three-arm-comprehension","trial_index":28,"time_elapsed":290184,"internal_node_id":"0.0-5.11-1.11","task_version":"screening-mturk"},{"view_history":"[{\"page_index\":0,\"viewing_time\":1050.9999999776483},{\"page_index\":1,\"viewing_time\":211.00000001024455},{\"page_index\":2,\"viewing_time\":378.00000002607703},{\"page_index\":3,\"viewing_time\":130.99999993573874},{\"page_index\":4,\"viewing_time\":233.00000000745058},{\"page_index\":5,\"viewing_time\":221.00000001955777},{\"page_index\":6,\"viewing_time\":369.9999999953434},{\"page_index\":7,\"viewing_time\":466.00000001490116}]","rt":3061.9999999180436,"trial_type":"instructions","trial_index":29,"time_elapsed":293252,"internal_node_id":"0.0-5.12-0.12","task_version":"screening-mturk"},{"responses":["True","True","True","False","True"],"num_errors":1,"rt":9196.999999927357,"trial_type":"three-arm-comprehension","trial_index":30,"time_elapsed":302451,"internal_node_id":"0.0-5.12-1.12","task_version":"screening-mturk"},{"view_history":"[{\"page_index\":0,\"viewing_time\":1353.000000002794},{\"page_index\":1,\"viewing_time\":183.00000007729977},{\"page_index\":2,\"viewing_time\":220.99999990314245},{\"page_index\":3,\"viewing_time\":194.00000001769513},{\"page_index\":4,\"viewing_time\":175.99999997764826},{\"page_index\":5,\"viewing_time\":229.00000005029142},{\"page_index\":6,\"viewing_time\":224.0000000456348},{\"page_index\":7,\"viewing_time\":218.99999992456287}]","rt":2798.9999999990687,"trial_type":"instructions","trial_index":31,"time_elapsed":305251,"internal_node_id":"0.0-5.13-0.13","task_version":"screening-mturk"},{"responses":["True","False","False","False","False"],"num_errors":2,"rt":5911.000000080094,"trial_type":"three-arm-comprehension","trial_index":32,"time_elapsed":311165,"internal_node_id":"0.0-5.13-1.13","task_version":"screening-mturk"},{"view_history":"[{\"page_index\":0,\"viewing_time\":1126.0000000474975},{\"page_index\":1,\"viewing_time\":160.99999996367842},{\"page_index\":2,\"viewing_time\":158.99999998509884},{\"page_index\":3,\"viewing_time\":177.99999995622784},{\"page_index\":4,\"viewing_time\":182.00000002980232},{\"page_index\":5,\"viewing_time\":182.99999996088445},{\"page_index\":6,\"viewing_time\":266.9999999925494},{\"page_index\":7,\"viewing_time\":224.0000000456348}]","rt":2479.9999999813735,"trial_type":"instructions","trial_index":33,"time_elapsed":313650,"internal_node_id":"0.0-5.14-0.14","task_version":"screening-mturk"},{"responses":["True","False","False","False","True"],"num_errors":1,"rt":9969.99999997206,"trial_type":"three-arm-comprehension","trial_index":34,"time_elapsed":323632,"internal_node_id":"0.0-5.14-1.14","task_version":"screening-mturk"},{"view_history":"[{\"page_index\":0,\"viewing_time\":1300.0000000465661},{\"page_index\":1,\"viewing_time\":197.9999999748543},{\"page_index\":2,\"viewing_time\":195.9999999962747},{\"page_index\":3,\"viewing_time\":164.99999992083758},{\"page_index\":4,\"viewing_time\":206.00000000558794},{\"page_index\":5,\"viewing_time\":164.00000010617077},{\"page_index\":6,\"viewing_time\":172.99999995157123},{\"page_index\":7,\"viewing_time\":260.0000000093132}]","rt":2667.9999999469146,"trial_type":"instructions","trial_index":35,"time_elapsed":326311,"internal_node_id":"0.0-5.15-0.15","task_version":"screening-mturk"},{"responses":["True","False","True","False","True"],"num_errors":2,"rt":7233.000000007451,"trial_type":"three-arm-comprehension","trial_index":36,"time_elapsed":333623,"internal_node_id":"0.0-5.15-1.15","task_version":"screening-mturk"},{"view_history":"[{\"page_index\":0,\"viewing_time\":1471.99999995064},{\"page_index\":1,\"viewing_time\":195.9999999962747},{\"page_index\":2,\"viewing_time\":177.0000000251457},{\"page_index\":3,\"viewing_time\":310.9999999869615},{\"page_index\":4,\"viewing_time\":166.00000008475035},{\"page_index\":5,\"viewing_time\":194.99999994877726},{\"page_index\":6,\"viewing_time\":201.00000000093132},{\"page_index\":7,\"viewing_time\":209.00000003166497}]","rt":2927.0000000251457,"trial_type":"instructions","trial_index":37,"time_elapsed":336572,"internal_node_id":"0.0-5.16-0.16","task_version":"screening-mturk"},{"responses":["False","True","False","True","False"],"num_errors":3,"rt":5974.000000045635,"trial_type":"three-arm-comprehension","trial_index":38,"time_elapsed":342562,"internal_node_id":"0.0-5.16-1.16","task_version":"screening-mturk"},{"view_history":"[{\"page_index\":0,\"viewing_time\":1387.999999918975},{\"page_index\":1,\"viewing_time\":206.00000000558794},{\"page_index\":2,\"viewing_time\":193.000000086613},{\"page_index\":3,\"viewing_time\":225.99999990779907},{\"page_index\":4,\"viewing_time\":244.00000006426126},{\"page_index\":5,\"viewing_time\":231.99999995995313},{\"page_index\":6,\"viewing_time\":452.0000000484288},{\"page_index\":7,\"viewing_time\":223.99999992921948}]","rt":3164.9999999208376,"trial_type":"instructions","trial_index":39,"time_elapsed":345753,"internal_node_id":"0.0-5.17-0.17","task_version":"screening-mturk"},{"responses":["False","False","True","False","False"],"num_errors":4,"rt":6704.000000027008,"trial_type":"three-arm-comprehension","trial_index":40,"time_elapsed":352460,"internal_node_id":"0.0-5.17-1.17","task_version":"screening-mturk"},{"view_history":"[{\"page_index\":0,\"viewing_time\":1662.999999942258},{\"page_index\":1,\"viewing_time\":194.00000001769513},{\"page_index\":2,\"viewing_time\":228.9999999338761},{\"page_index\":3,\"viewing_time\":260.0000000093132},{\"page_index\":4,\"viewing_time\":235.00000010244548},{\"page_index\":5,\"viewing_time\":335.9999998938292},{\"page_index\":6,\"viewing_time\":233.00000000745058},{\"page_index\":7,\"viewing_time\":214.00000003632158}]","rt":3363.9999999431893,"trial_type":"instructions","trial_index":41,"time_elapsed":355830,"internal_node_id":"0.0-5.18-0.18","task_version":"screening-mturk"},{"responses":["False","True","False","False","False"],"num_errors":2,"rt":6354.000000050291,"trial_type":"three-arm-comprehension","trial_index":42,"time_elapsed":362191,"internal_node_id":"0.0-5.18-1.18","task_version":"screening-mturk"},{"view_history":"[{\"page_index\":0,\"viewing_time\":1525.9999999543652},{\"page_index\":1,\"viewing_time\":184.0000000083819},{\"page_index\":2,\"viewing_time\":170.00000004190952},{\"page_index\":3,\"viewing_time\":189.00000001303852},{\"page_index\":4,\"viewing_time\":207.99999998416752},{\"page_index\":5,\"viewing_time\":211.00000001024455},{\"page_index\":6,\"viewing_time\":181.999999913387},{\"page_index\":7,\"viewing_time\":239.99999999068677}]","rt":2909.999999916181,"trial_type":"instructions","trial_index":43,"time_elapsed":365106,"internal_node_id":"0.0-5.19-0.19","task_version":"screening-mturk"},{"responses":["True","True","False","True","True"],"num_errors":1,"rt":5605.000000097789,"trial_type":"three-arm-comprehension","trial_index":44,"time_elapsed":370723,"internal_node_id":"0.0-5.19-1.19","task_version":"screening-mturk"},{"view_history":"[{\"page_index\":0,\"viewing_time\":1192.9999999701977},{\"page_index\":1,\"viewing_time\":643.0000000400469},{\"page_index\":2,\"viewing_time\":184.99999993946403},{\"page_index\":3,\"viewing_time\":200.0000000698492},{\"page_index\":4,\"viewing_time\":253.99999995715916},{\"page_index\":5,\"viewing_time\":400.00000002328306},{\"page_index\":6,\"viewing_time\":192.99999997019768},{\"page_index\":7,\"viewing_time\":243.0000000167638}]","rt":3312.000000034459,"trial_type":"instructions","trial_index":45,"time_elapsed":374050,"internal_node_id":"0.0-5.20-0.20","task_version":"screening-mturk"},{"responses":["False","False","False","True","True"],"num_errors":3,"rt":6315.999999991618,"trial_type":"three-arm-comprehension","trial_index":46,"time_elapsed":380371,"internal_node_id":"0.0-5.20-1.20","task_version":"screening-mturk"},{"view_history":"[{\"page_index\":0,\"viewing_time\":1358.0000000074506},{\"page_index\":1,\"viewing_time\":200.0000000698492},{\"page_index\":2,\"viewing_time\":231.99999995995313},{\"page_index\":3,\"viewing_time\":158.99999998509884},{\"page_index\":4,\"viewing_time\":131.00000005215406},{\"page_index\":5,\"viewing_time\":155.9999999590218},{\"page_index\":6,\"viewing_time\":265.00000001396984},{\"page_index\":7,\"viewing_time\":76.99999993201345}]","rt":2577.999999979511,"trial_type":"instructions","trial_index":47,"time_elapsed":382954,"internal_node_id":"0.0-5.21-0.21","task_version":"screening-mturk"},{"responses":["False","False","True","False","True"],"num_errors":3,"rt":7488.000000012107,"trial_type":"three-arm-comprehension","trial_index":48,"time_elapsed":390453,"internal_node_id":"0.0-5.21-1.21","task_version":"screening-mturk"},{"view_history":"[{\"page_index\":0,\"viewing_time\":1445.0000000651926},{\"page_index\":1,\"viewing_time\":294.9999999254942},{\"page_index\":2,\"viewing_time\":168.99999999441206},{\"page_index\":3,\"viewing_time\":261.0000000568107},{\"page_index\":4,\"viewing_time\":697.9999999748543},{\"page_index\":5,\"viewing_time\":216.00000001490116},{\"page_index\":6,\"viewing_time\":221.9999999506399},{\"page_index\":7,\"viewing_time\":257.0000000996515}]","rt":3564.0000000130385,"trial_type":"instructions","trial_index":49,"time_elapsed":394034,"internal_node_id":"0.0-5.22-0.22","task_version":"screening-mturk"},{"responses":["False","False","False","False","False"],"num_errors":3,"rt":69885.00000000931,"trial_type":"three-arm-comprehension","trial_index":50,"time_elapsed":463926,"internal_node_id":"0.0-5.22-1.22","task_version":"screening-mturk"},{"view_history":"[{\"page_index\":0,\"viewing_time\":1592.9999999934807},{\"page_index\":1,\"viewing_time\":211.00000001024455},{\"page_index\":2,\"viewing_time\":205.0000000745058},{\"page_index\":3,\"viewing_time\":196.99999992735684},{\"page_index\":4,\"viewing_time\":212.000000057742},{\"page_index\":5,\"viewing_time\":233.9999999385327},{\"page_index\":6,\"viewing_time\":367.0000000856817},{\"page_index\":7,\"viewing_time\":39.99999992083758}]","rt":3075.000000069849,"trial_type":"instructions","trial_index":51,"time_elapsed":467011,"internal_node_id":"0.0-5.23-0.23","task_version":"screening-mturk"},{"responses":["True","True","True","False","False"],"num_errors":2,"rt":7837.999999988824,"trial_type":"three-arm-comprehension","trial_index":52,"time_elapsed":474864,"internal_node_id":"0.0-5.23-1.23","task_version":"screening-mturk"},{"view_history":"[{\"page_index\":0,\"viewing_time\":1461.0000000102445},{\"page_index\":1,\"viewing_time\":217.99999999348074},{\"page_index\":2,\"viewing_time\":208.99999991524965},{\"page_index\":3,\"viewing_time\":186.0000001033768},{\"page_index\":4,\"viewing_time\":197.9999999748543},{\"page_index\":5,\"viewing_time\":211.00000001024455},{\"page_index\":6,\"viewing_time\":241.99999996926636},{\"page_index\":7,\"viewing_time\":222.99999999813735}]","rt":2949.0000000223517,"trial_type":"instructions","trial_index":53,"time_elapsed":477823,"internal_node_id":"0.0-5.24-0.24","task_version":"screening-mturk"},{"responses":["False","True","True","True","False"],"num_errors":4,"rt":10728.999999933876,"trial_type":"three-arm-comprehension","trial_index":54,"time_elapsed":488557,"internal_node_id":"0.0-5.24-1.24","task_version":"screening-mturk"},{"view_history":"[{\"page_index\":0,\"viewing_time\":1300.9999999776483},{\"page_index\":1,\"viewing_time\":199.00000002235174},{\"page_index\":2,\"viewing_time\":222.00000006705523},{\"page_index\":3,\"viewing_time\":158.99999998509884},{\"page_index\":4,\"viewing_time\":179.99999993480742},{\"page_index\":5,\"viewing_time\":212.000000057742},{\"page_index\":6,\"viewing_time\":271.99999999720603},{\"page_index\":7,\"viewing_time\":236.99999996460974}]","rt":2782.0000000065193,"trial_type":"instructions","trial_index":55,"time_elapsed":491346,"internal_node_id":"0.0-5.25-0.25","task_version":"screening-mturk"},{"responses":["True","False","False","False","True"],"num_errors":1,"rt":8353.000000002794,"trial_type":"three-arm-comprehension","trial_index":56,"time_elapsed":499701,"internal_node_id":"0.0-5.25-1.25","task_version":"screening-mturk"},{"view_history":"[{\"page_index\":0,\"viewing_time\":1192.9999999701977},{\"page_index\":1,\"viewing_time\":201.00000000093132},{\"page_index\":2,\"viewing_time\":175.99999997764826},{\"page_index\":3,\"viewing_time\":186.0000001033768},{\"page_index\":4,\"viewing_time\":216.9999999459833},{\"page_index\":5,\"viewing_time\":180.99999998230487},{\"page_index\":6,\"viewing_time\":184.0000000083819},{\"page_index\":7,\"viewing_time\":202.00000004842877}]","rt":2540.000000037253,"trial_type":"instructions","trial_index":57,"time_elapsed":502244,"internal_node_id":"0.0-5.26-0.26","task_version":"screening-mturk"},{"responses":["False","True","False","False","False"],"num_errors":2,"rt":7527.000000001863,"trial_type":"three-arm-comprehension","trial_index":58,"time_elapsed":509798,"internal_node_id":"0.0-5.26-1.26","task_version":"screening-mturk"},{"view_history":"[{\"page_index\":0,\"viewing_time\":1103.999999933876},{\"page_index\":1,\"viewing_time\":229.00000005029142},{\"page_index\":2,\"viewing_time\":179.99999993480742},{\"page_index\":3,\"viewing_time\":214.00000003632158},{\"page_index\":4,\"viewing_time\":163.00000005867332},{\"page_index\":5,\"viewing_time\":144.99999990221113},{\"page_index\":6,\"viewing_time\":190.00000006053597},{\"page_index\":7,\"viewing_time\":219.99999997206032}]","rt":2472.9999999981374,"trial_type":"instructions","trial_index":59,"time_elapsed":512281,"internal_node_id":"0.0-5.27-0.27","task_version":"screening-mturk"},{"responses":["True","False","True","True","True"],"num_errors":3,"rt":6444.000000017695,"trial_type":"three-arm-comprehension","trial_index":60,"time_elapsed":518728,"internal_node_id":"0.0-5.27-1.27","task_version":"screening-mturk"},{"view_history":"[{\"page_index\":0,\"viewing_time\":1204.0000000270084},{\"page_index\":1,\"viewing_time\":217.99999999348074},{\"page_index\":2,\"viewing_time\":177.99999995622784},{\"page_index\":3,\"viewing_time\":180.00000005122274},{\"page_index\":4,\"viewing_time\":184.0000000083819},{\"page_index\":5,\"viewing_time\":182.99999996088445},{\"page_index\":6,\"viewing_time\":170.00000004190952},{\"page_index\":7,\"viewing_time\":1074.0000000223517}]","rt":3391.9999999925494,"trial_type":"instructions","trial_index":61,"time_elapsed":522143,"internal_node_id":"0.0-5.28-0.28","task_version":"screening-mturk"},{"responses":["True","True","True","False","True"],"num_errors":1,"rt":6365.000000107102,"trial_type":"three-arm-comprehension","trial_index":62,"time_elapsed":528533,"internal_node_id":"0.0-5.28-1.28","task_version":"screening-mturk"},{"view_history":"[{\"page_index\":0,\"viewing_time\":1074.0000000223517},{\"page_index\":1,\"viewing_time\":173.99999999906868},{\"page_index\":2,\"viewing_time\":216.00000001490116},{\"page_index\":3,\"viewing_time\":160.99999996367842},{\"page_index\":4,\"viewing_time\":211.00000001024455},{\"page_index\":5,\"viewing_time\":226.99999995529652},{\"page_index\":6,\"viewing_time\":214.00000003632158},{\"page_index\":7,\"viewing_time\":236.99999996460974}]","rt":2516.0000000614673,"trial_type":"instructions","trial_index":63,"time_elapsed":531184,"internal_node_id":"0.0-5.29-0.29","task_version":"screening-mturk"},{"responses":["False","False","True","False","False"],"num_errors":4,"rt":10579.99999995809,"trial_type":"three-arm-comprehension","trial_index":64,"time_elapsed":541771,"internal_node_id":"0.0-5.29-1.29","task_version":"screening-mturk"},{"view_history":"[{\"page_index\":0,\"viewing_time\":1309.000000008382},{\"page_index\":1,\"viewing_time\":216.00000001490116},{\"page_index\":2,\"viewing_time\":187.99999996554106},{\"page_index\":3,\"viewing_time\":241.99999996926636},{\"page_index\":4,\"viewing_time\":205.0000000745058},{\"page_index\":5,\"viewing_time\":179.0000000037253},{\"page_index\":6,\"viewing_time\":197.9999999748543},{\"page_index\":7,\"viewing_time\":236.99999996460974}]","rt":2773.9999999757856,"trial_type":"instructions","trial_index":65,"time_elapsed":544553,"internal_node_id":"0.0-5.30-0.30","task_version":"screening-mturk"},{"responses":["False","False","False","True","False"],"num_errors":4,"rt":6690.999999991618,"trial_type":"three-arm-comprehension","trial_index":66,"time_elapsed":551248,"internal_node_id":"0.0-5.30-1.30","task_version":"screening-mturk"},{"view_history":"[{\"page_index\":0,\"viewing_time\":1361.0000000335276},{\"page_index\":1,\"viewing_time\":259.9999998928979},{\"page_index\":2,\"viewing_time\":183.00000007729977},{\"page_index\":3,\"viewing_time\":231.000000028871},{\"page_index\":4,\"viewing_time\":157.00000000651926},{\"page_index\":5,\"viewing_time\":195.9999999962747},{\"page_index\":6,\"viewing_time\":180.99999998230487},{\"page_index\":7,\"viewing_time\":211.99999994132668}]","rt":2780.999999959022,"trial_type":"instructions","trial_index":67,"time_elapsed":554038,"internal_node_id":"0.0-5.31-0.31","task_version":"screening-mturk"},{"responses":["False","False","False","False","True"],"num_errors":2,"rt":5488.000000012107,"trial_type":"three-arm-comprehension","trial_index":68,"time_elapsed":559532,"internal_node_id":"0.0-5.31-1.31","task_version":"screening-mturk"},{"view_history":"[{\"page_index\":0,\"viewing_time\":1376.0000000474975},{\"page_index\":1,\"viewing_time\":226.99999995529652},{\"page_index\":2,\"viewing_time\":145.00000001862645},{\"page_index\":3,\"viewing_time\":163.99999998975545},{\"page_index\":4,\"viewing_time\":180.00000005122274},{\"page_index\":5,\"viewing_time\":195.9999999962747},{\"page_index\":6,\"viewing_time\":135.99999994039536},{\"page_index\":7,\"viewing_time\":233.00000000745058}]","rt":2663.9999999897555,"trial_type":"instructions","trial_index":69,"time_elapsed":562204,"internal_node_id":"0.0-5.32-0.32","task_version":"screening-mturk"},{"responses":["True","False","False","True","False"],"num_errors":3,"rt":14341.000000014901,"trial_type":"three-arm-comprehension","trial_index":70,"time_elapsed":576569,"internal_node_id":"0.0-5.32-1.32","task_version":"screening-mturk"},{"view_history":"[{\"page_index\":0,\"viewing_time\":11246.999999973923},{\"page_index\":1,\"viewing_time\":41051.00000009406},{\"page_index\":2,\"viewing_time\":3683.9999998919666},{\"page_index\":3,\"viewing_time\":3627.000000094995},{\"page_index\":4,\"viewing_time\":267.99999992363155},{\"page_index\":5,\"viewing_time\":290.0000000372529},{\"page_index\":6,\"viewing_time\":1378.9999999571592},{\"page_index\":7,\"viewing_time\":356.000000028871}]","rt":61902.00000000186,"trial_type":"instructions","trial_index":71,"time_elapsed":638476,"internal_node_id":"0.0-5.33-0.33","task_version":"screening-mturk"},{"responses":["True","True","False","False","True"],"num_errors":0,"rt":9437.000000034459,"trial_type":"three-arm-comprehension","trial_index":72,"time_elapsed":647918,"internal_node_id":"0.0-5.33-1.33","task_version":"screening-mturk"},{"view_history":"[{\"page_index\":0,\"viewing_time\":1347.0000000670552}]","rt":1349.999999976717,"trial_type":"instructions","trial_index":73,"time_elapsed":649274,"internal_node_id":"0.0-6.0","task_version":"screening-mturk"},{"contexts":["red","blue","green"],"outcomes":[0,1,1],"key":38,"choice":1,"rt":3449.999999953434,"outcome":1,"trial":1,"correct":2,"trial_type":"three-arm-trial","trial_index":74,"time_elapsed":653928,"internal_node_id":"0.0-7.0-0.0","task_version":"screening-mturk","missing":false,"accuracy":0},{"contexts":["red","blue","green"],"outcomes":[0,1,1],"key":37,"choice":0,"rt":73.99999990593642,"outcome":0,"trial":2,"correct":2,"trial_type":"three-arm-trial","trial_index":75,"time_elapsed":655252,"internal_node_id":"0.0-8.0-0.0","task_version":"screening-mturk","missing":false,"accuracy":0},{"contexts":["red","blue","green"],"outcomes":[0,1,1],"key":38,"choice":1,"rt":70.00000006519258,"outcome":1,"trial":3,"correct":2,"trial_type":"three-arm-trial","trial_index":76,"time_elapsed":656533,"internal_node_id":"0.0-9.0-0.0","task_version":"screening-mturk","missing":false,"accuracy":0},{"contexts":["red","blue","green"],"outcomes":[0,0,0],"key":37,"choice":0,"rt":152.00000000186265,"outcome":0,"trial":4,"correct":2,"trial_type":"three-arm-trial","trial_index":77,"time_elapsed":657962,"internal_node_id":"0.0-10.0-0.0","task_version":"screening-mturk","missing":false,"accuracy":0},{"contexts":["red","blue","green"],"outcomes":[0,0,1],"key":39,"choice":2,"rt":75.0000000698492,"outcome":1,"trial":5,"correct":2,"trial_type":"three-arm-trial","trial_index":78,"time_elapsed":659268,"internal_node_id":"0.0-11.0-0.0","task_version":"screening-mturk","missing":false,"accuracy":1},{"contexts":["red","blue","green"],"outcomes":[0,0,0],"key":37,"choice":0,"rt":169.9999999254942,"outcome":0,"trial":6,"correct":2,"trial_type":"three-arm-trial","trial_index":79,"time_elapsed":660718,"internal_node_id":"0.0-12.0-0.0","task_version":"screening-mturk","missing":false,"accuracy":0},{"contexts":["red","blue","green"],"outcomes":[0,0,0],"key":37,"choice":0,"rt":7859.99999998603,"outcome":0,"trial":7,"correct":2,"trial_type":"three-arm-trial","trial_index":80,"time_elapsed":669785,"internal_node_id":"0.0-13.0-0.0","task_version":"screening-mturk","missing":false,"accuracy":0},{"contexts":["red","blue","green"],"outcomes":[0,0,0],"key":37,"choice":0,"rt":0,"outcome":0,"trial":8,"correct":2,"trial_type":"three-arm-trial","trial_index":81,"time_elapsed":670998,"internal_node_id":"0.0-14.0-0.0","task_version":"screening-mturk","missing":false,"accuracy":0},{"contexts":["red","blue","green"],"outcomes":[0,0,0],"key":37,"choice":0,"rt":6.000000052154064,"outcome":0,"trial":9,"correct":2,"trial_type":"three-arm-trial","trial_index":82,"time_elapsed":672285,"internal_node_id":"0.0-15.0-0.0","task_version":"screening-mturk","missing":false,"accuracy":0},{"contexts":["red","blue","green"],"outcomes":[0,0,1],"key":39,"choice":2,"rt":72.00000004377216,"outcome":1,"trial":10,"correct":2,"trial_type":"three-arm-trial","trial_index":83,"time_elapsed":673564,"internal_node_id":"0.0-16.0-0.0","task_version":"screening-mturk","missing":false,"accuracy":1},{"contexts":["red","blue","green"],"outcomes":[0,0,0],"key":37,"choice":0,"rt":171.99999990407377,"outcome":0,"trial":11,"correct":2,"trial_type":"three-arm-trial","trial_index":84,"time_elapsed":674953,"internal_node_id":"0.0-17.0-0.0","task_version":"screening-mturk","missing":false,"accuracy":0},{"contexts":["red","blue","green"],"outcomes":[0,0,0],"key":38,"choice":1,"rt":270.00000001862645,"outcome":0,"trial":12,"correct":2,"trial_type":"three-arm-trial","trial_index":85,"time_elapsed":676444,"internal_node_id":"0.0-18.0-0.0","task_version":"screening-mturk","missing":false,"accuracy":0},{"contexts":["red","blue","green"],"outcomes":[0,0,1],"key":39,"choice":2,"rt":69.00000001769513,"outcome":1,"trial":13,"correct":2,"trial_type":"three-arm-trial","trial_index":86,"time_elapsed":677727,"internal_node_id":"0.0-19.0-0.0","task_version":"screening-mturk","missing":false,"accuracy":1},{"contexts":["red","blue","green"],"outcomes":[0,1,1],"key":37,"choice":0,"rt":274.00000009220093,"outcome":0,"trial":14,"correct":2,"trial_type":"three-arm-trial","trial_index":87,"time_elapsed":679242,"internal_node_id":"0.0-20.0-0.0","task_version":"screening-mturk","missing":false,"accuracy":0},{"contexts":["red","blue","green"],"outcomes":[1,0,1],"key":38,"choice":1,"rt":85.00000007916242,"outcome":0,"trial":15,"correct":2,"trial_type":"three-arm-trial","trial_index":88,"time_elapsed":680548,"internal_node_id":"0.0-21.0-0.0","task_version":"screening-mturk","missing":false,"accuracy":0},{"contexts":["red","blue","green"],"outcomes":[1,0,1],"key":39,"choice":2,"rt":59.0000000083819,"outcome":1,"trial":16,"correct":0,"trial_type":"three-arm-trial","trial_index":89,"time_elapsed":681815,"internal_node_id":"0.0-22.0-0.0","task_version":"screening-mturk","missing":false,"accuracy":0},{"contexts":["red","blue","green"],"outcomes":[1,1,0],"key":37,"choice":0,"rt":179.99999993480742,"outcome":1,"trial":17,"correct":0,"trial_type":"three-arm-trial","trial_index":90,"time_elapsed":683215,"internal_node_id":"0.0-23.0-0.0","task_version":"screening-mturk","missing":false,"accuracy":1},{"contexts":["red","blue","green"],"outcomes":[1,0,0],"key":39,"choice":2,"rt":103.00000000279397,"outcome":0,"trial":18,"correct":0,"trial_type":"three-arm-trial","trial_index":91,"time_elapsed":684543,"internal_node_id":"0.0-24.0-0.0","task_version":"screening-mturk","missing":false,"accuracy":0},{"contexts":["red","blue","green"],"outcomes":[1,0,1],"key":38,"choice":1,"rt":287.999999942258,"outcome":0,"trial":19,"correct":0,"trial_type":"three-arm-trial","trial_index":92,"time_elapsed":686033,"internal_node_id":"0.0-25.0-0.0","task_version":"screening-mturk","missing":false,"accuracy":0},{"contexts":["red","blue","green"],"outcomes":[1,0,0],"key":38,"choice":1,"rt":209.9999999627471,"outcome":0,"trial":20,"correct":0,"trial_type":"three-arm-trial","trial_index":93,"time_elapsed":687453,"internal_node_id":"0.0-26.0-0.0","task_version":"screening-mturk","missing":false,"accuracy":0},{"contexts":["red","blue","green"],"outcomes":[1,0,0],"key":37,"choice":0,"rt":25.000000023283064,"outcome":1,"trial":21,"correct":0,"trial_type":"three-arm-trial","trial_index":94,"time_elapsed":688710,"internal_node_id":"0.0-27.0-0.0","task_version":"screening-mturk","missing":false,"accuracy":1},{"contexts":["red","blue","green"],"outcomes":[1,0,1],"key":38,"choice":1,"rt":152.00000000186265,"outcome":0,"trial":22,"correct":0,"trial_type":"three-arm-trial","trial_index":95,"time_elapsed":690068,"internal_node_id":"0.0-28.0-0.0","task_version":"screening-mturk","missing":false,"accuracy":0},{"contexts":["red","blue","green"],"outcomes":[1,0,0],"key":37,"choice":0,"rt":155.9999999590218,"outcome":1,"trial":23,"correct":0,"trial_type":"three-arm-trial","trial_index":96,"time_elapsed":691454,"internal_node_id":"0.0-29.0-0.0","task_version":"screening-mturk","missing":false,"accuracy":1},{"contexts":["red","blue","green"],"outcomes":[1,0,0],"key":39,"choice":2,"rt":211.99999994132668,"outcome":0,"trial":24,"correct":0,"trial_type":"three-arm-trial","trial_index":97,"time_elapsed":692924,"internal_node_id":"0.0-30.0-0.0","task_version":"screening-mturk","missing":false,"accuracy":0},{"contexts":["red","blue","green"],"outcomes":[1,0,0],"key":39,"choice":2,"rt":295.99999997299165,"outcome":0,"trial":25,"correct":0,"trial_type":"three-arm-trial","trial_index":98,"time_elapsed":694445,"internal_node_id":"0.0-31.0-0.0","task_version":"screening-mturk","missing":false,"accuracy":0},{"contexts":["red","blue","green"],"outcomes":[1,0,0],"key":37,"choice":0,"rt":320.0000000651926,"outcome":1,"trial":26,"correct":0,"trial_type":"three-arm-trial","trial_index":99,"time_elapsed":695983,"internal_node_id":"0.0-32.0-0.0","task_version":"screening-mturk","missing":false,"accuracy":1},{"contexts":["red","blue","green"],"outcomes":[1,1,0],"key":38,"choice":1,"rt":236.99999996460974,"outcome":1,"trial":27,"correct":0,"trial_type":"three-arm-trial","trial_index":100,"time_elapsed":697429,"internal_node_id":"0.0-33.0-0.0","task_version":"screening-mturk","missing":false,"accuracy":0},{"contexts":["red","blue","green"],"outcomes":[1,0,0],"key":38,"choice":1,"rt":327.9999999795109,"outcome":0,"trial":28,"correct":0,"trial_type":"three-arm-trial","trial_index":101,"time_elapsed":698970,"internal_node_id":"0.0-34.0-0.0","task_version":"screening-mturk","missing":false,"accuracy":0},{"contexts":["red","blue","green"],"outcomes":[1,0,0],"key":37,"choice":0,"rt":206.00000000558794,"outcome":1,"trial":29,"correct":0,"trial_type":"three-arm-trial","trial_index":102,"time_elapsed":700433,"internal_node_id":"0.0-35.0-0.0","task_version":"screening-mturk","missing":false,"accuracy":1},{"contexts":["red","blue","green"],"outcomes":[1,0,1],"key":39,"choice":2,"rt":55.00000005122274,"outcome":1,"trial":30,"correct":0,"trial_type":"three-arm-trial","trial_index":103,"time_elapsed":701691,"internal_node_id":"0.0-36.0-0.0","task_version":"screening-mturk","missing":false,"accuracy":0},{"contexts":["red","blue","green"],"outcomes":[0,1,1],"key":38,"choice":1,"rt":212.000000057742,"outcome":1,"trial":31,"correct":2,"trial_type":"three-arm-trial","trial_index":104,"time_elapsed":703131,"internal_node_id":"0.0-37.0-0.0","task_version":"screening-mturk","missing":false,"accuracy":0},{"contexts":["red","blue","green"],"outcomes":[0,1,1],"key":38,"choice":1,"rt":532.0000000065193,"outcome":1,"trial":32,"correct":2,"trial_type":"three-arm-trial","trial_index":105,"time_elapsed":704875,"internal_node_id":"0.0-38.0-0.0","task_version":"screening-mturk","missing":false,"accuracy":0},{"contexts":["red","blue","green"],"outcomes":[0,1,1],"key":37,"choice":0,"rt":380.0000000046566,"outcome":0,"trial":33,"correct":2,"trial_type":"three-arm-trial","trial_index":106,"time_elapsed":706484,"internal_node_id":"0.0-39.0-0.0","task_version":"screening-mturk","missing":false,"accuracy":0},{"contexts":["red","blue","green"],"outcomes":[0,0,1],"key":38,"choice":1,"rt":88.00000010523945,"outcome":0,"trial":34,"correct":2,"trial_type":"three-arm-trial","trial_index":107,"time_elapsed":707807,"internal_node_id":"0.0-40.0-0.0","task_version":"screening-mturk","missing":false,"accuracy":0},{"contexts":["red","blue","green"],"outcomes":[0,0,1],"key":39,"choice":2,"rt":18.00000004004687,"outcome":1,"trial":35,"correct":2,"trial_type":"three-arm-trial","trial_index":108,"time_elapsed":709106,"internal_node_id":"0.0-41.0-0.0","task_version":"screening-mturk","missing":false,"accuracy":1},{"contexts":["red","blue","green"],"outcomes":[0,0,1],"key":39,"choice":2,"rt":194.00000001769513,"outcome":1,"trial":36,"correct":2,"trial_type":"three-arm-trial","trial_index":109,"time_elapsed":710507,"internal_node_id":"0.0-42.0-0.0","task_version":"screening-mturk","missing":false,"accuracy":1},{"contexts":["red","blue","green"],"outcomes":[0,0,1],"key":38,"choice":1,"rt":265.00000001396984,"outcome":0,"trial":37,"correct":2,"trial_type":"three-arm-trial","trial_index":110,"time_elapsed":711990,"internal_node_id":"0.0-43.0-0.0","task_version":"screening-mturk","missing":false,"accuracy":0},{"contexts":["red","blue","green"],"outcomes":[0,0,1],"key":37,"choice":0,"rt":218.99999992456287,"outcome":0,"trial":38,"correct":2,"trial_type":"three-arm-trial","trial_index":111,"time_elapsed":713415,"internal_node_id":"0.0-44.0-0.0","task_version":"screening-mturk","missing":false,"accuracy":0},{"contexts":["red","blue","green"],"outcomes":[0,0,1],"key":38,"choice":1,"rt":131.9999999832362,"outcome":0,"trial":39,"correct":2,"trial_type":"three-arm-trial","trial_index":112,"time_elapsed":714850,"internal_node_id":"0.0-45.0-0.0","task_version":"screening-mturk","missing":false,"accuracy":0},{"contexts":["red","blue","green"],"outcomes":[0,0,1],"key":39,"choice":2,"rt":83.99999991524965,"outcome":1,"trial":40,"correct":2,"trial_type":"three-arm-trial","trial_index":113,"time_elapsed":716192,"internal_node_id":"0.0-46.0-0.0","task_version":"screening-mturk","missing":false,"accuracy":1},{"contexts":["red","blue","green"],"outcomes":[1,0,0],"key":37,"choice":0,"rt":141.99999999254942,"outcome":1,"trial":41,"correct":2,"trial_type":"three-arm-trial","trial_index":114,"time_elapsed":717542,"internal_node_id":"0.0-47.0-0.0","task_version":"screening-mturk","missing":false,"accuracy":0},{"contexts":["red","blue","green"],"outcomes":[1,0,1],"key":38,"choice":1,"rt":0,"outcome":0,"trial":42,"correct":2,"trial_type":"three-arm-trial","trial_index":115,"time_elapsed":718774,"internal_node_id":"0.0-48.0-0.0","task_version":"screening-mturk","missing":false,"accuracy":0},{"contexts":["red","blue","green"],"outcomes":[1,0,1],"key":39,"choice":2,"rt":6.000000052154064,"outcome":1,"trial":43,"correct":2,"trial_type":"three-arm-trial","trial_index":116,"time_elapsed":719986,"internal_node_id":"0.0-49.0-0.0","task_version":"screening-mturk","missing":false,"accuracy":1},{"contexts":["red","blue","green"],"outcomes":[0,0,1],"key":39,"choice":2,"rt":4.000000073574483,"outcome":1,"trial":44,"correct":2,"trial_type":"three-arm-trial","trial_index":117,"time_elapsed":721190,"internal_node_id":"0.0-50.0-0.0","task_version":"screening-mturk","missing":false,"accuracy":1},{"contexts":["red","blue","green"],"outcomes":[0,0,1],"key":38,"choice":1,"rt":283.0000000540167,"outcome":0,"trial":45,"correct":2,"trial_type":"three-arm-trial","trial_index":118,"time_elapsed":722688,"internal_node_id":"0.0-51.0-0.0","task_version":"screening-mturk","missing":false,"accuracy":0},{"contexts":["red","blue","green"],"outcomes":[0,0,0],"key":37,"choice":0,"rt":410.9999999636784,"outcome":0,"trial":46,"correct":0,"trial_type":"three-arm-trial","trial_index":119,"time_elapsed":724328,"internal_node_id":"0.0-52.0-0.0","task_version":"screening-mturk","missing":false,"accuracy":1},{"contexts":["red","blue","green"],"outcomes":[1,0,1],"key":38,"choice":1,"rt":155.00000002793968,"outcome":0,"trial":47,"correct":0,"trial_type":"three-arm-trial","trial_index":120,"time_elapsed":725741,"internal_node_id":"0.0-53.0-0.0","task_version":"screening-mturk","missing":false,"accuracy":0},{"contexts":["red","blue","green"],"outcomes":[0,0,0],"key":38,"choice":1,"rt":393.999999971129,"outcome":0,"trial":48,"correct":0,"trial_type":"three-arm-trial","trial_index":121,"time_elapsed":727349,"internal_node_id":"0.0-54.0-0.0","task_version":"screening-mturk","missing":false,"accuracy":0},{"contexts":["red","blue","green"],"outcomes":[0,0,0],"key":38,"choice":1,"rt":15.000000013969839,"outcome":0,"trial":49,"correct":0,"trial_type":"three-arm-trial","trial_index":122,"time_elapsed":728568,"internal_node_id":"0.0-55.0-0.0","task_version":"screening-mturk","missing":false,"accuracy":0},{"contexts":["red","blue","green"],"outcomes":[1,0,1],"key":38,"choice":1,"rt":371.99999997392297,"outcome":0,"trial":50,"correct":0,"trial_type":"three-arm-trial","trial_index":123,"time_elapsed":730192,"internal_node_id":"0.0-56.0-0.0","task_version":"screening-mturk","missing":false,"accuracy":0},{"contexts":["red","blue","green"],"outcomes":[1,0,0],"key":38,"choice":1,"rt":53.00000007264316,"outcome":0,"trial":51,"correct":0,"trial_type":"three-arm-trial","trial_index":124,"time_elapsed":731450,"internal_node_id":"0.0-57.0-0.0","task_version":"screening-mturk","missing":false,"accuracy":0},{"contexts":["red","blue","green"],"outcomes":[1,0,1],"key":37,"choice":0,"rt":343.00000010989606,"outcome":1,"trial":52,"correct":0,"trial_type":"three-arm-trial","trial_index":125,"time_elapsed":732999,"internal_node_id":"0.0-58.0-0.0","task_version":"screening-mturk","missing":false,"accuracy":1},{"contexts":["red","blue","green"],"outcomes":[1,0,0],"key":38,"choice":1,"rt":236.0000000335276,"outcome":0,"trial":53,"correct":0,"trial_type":"three-arm-trial","trial_index":126,"time_elapsed":734460,"internal_node_id":"0.0-59.0-0.0","task_version":"screening-mturk","missing":false,"accuracy":0},{"contexts":["red","blue","green"],"outcomes":[1,0,0],"key":38,"choice":1,"rt":168.99999999441206,"outcome":0,"trial":54,"correct":0,"trial_type":"three-arm-trial","trial_index":127,"time_elapsed":735843,"internal_node_id":"0.0-60.0-0.0","task_version":"screening-mturk","missing":false,"accuracy":0},{"contexts":["red","blue","green"],"outcomes":[1,0,0],"key":38,"choice":1,"rt":470.00000008847564,"outcome":0,"trial":55,"correct":0,"trial_type":"three-arm-trial","trial_index":128,"time_elapsed":737526,"internal_node_id":"0.0-61.0-0.0","task_version":"screening-mturk","missing":false,"accuracy":0},{"contexts":["red","blue","green"],"outcomes":[0,0,1],"key":37,"choice":0,"rt":219.0000000409782,"outcome":0,"trial":56,"correct":0,"trial_type":"three-arm-trial","trial_index":129,"time_elapsed":739017,"internal_node_id":"0.0-62.0-0.0","task_version":"screening-mturk","missing":false,"accuracy":1},{"contexts":["red","blue","green"],"outcomes":[1,0,0],"key":38,"choice":1,"rt":537.0000000111759,"outcome":0,"trial":57,"correct":0,"trial_type":"three-arm-trial","trial_index":130,"time_elapsed":740859,"internal_node_id":"0.0-63.0-0.0","task_version":"screening-mturk","missing":false,"accuracy":0},{"contexts":["red","blue","green"],"outcomes":[1,1,0],"key":38,"choice":1,"rt":3.000000026077032,"outcome":1,"trial":58,"correct":0,"trial_type":"three-arm-trial","trial_index":131,"time_elapsed":742109,"internal_node_id":"0.0-64.0-0.0","task_version":"screening-mturk","missing":false,"accuracy":0},{"contexts":["red","blue","green"],"outcomes":[1,0,0],"key":37,"choice":0,"rt":3082.9999999841675,"outcome":1,"trial":59,"correct":0,"trial_type":"three-arm-trial","trial_index":132,"time_elapsed":746410,"internal_node_id":"0.0-65.0-0.0","task_version":"screening-mturk","missing":false,"accuracy":1},{"contexts":["red","blue","green"],"outcomes":[1,0,0],"key":37,"choice":0,"rt":140.99999994505197,"outcome":1,"trial":60,"correct":0,"trial_type":"three-arm-trial","trial_index":133,"time_elapsed":747792,"internal_node_id":"0.0-66.0-0.0","task_version":"screening-mturk","missing":false,"accuracy":1},{"contexts":["red","blue","green"],"outcomes":[0,0,1],"key":38,"choice":1,"rt":6.000000052154064,"outcome":0,"trial":61,"correct":2,"trial_type":"three-arm-trial","trial_index":134,"time_elapsed":749034,"internal_node_id":"0.0-67.0-0.0","task_version":"screening-mturk","missing":false,"accuracy":0},{"contexts":["red","blue","green"],"outcomes":[0,0,1],"key":38,"choice":1,"rt":287.00000001117587,"outcome":0,"trial":62,"correct":2,"trial_type":"three-arm-trial","trial_index":135,"time_elapsed":750533,"internal_node_id":"0.0-68.0-0.0","task_version":"screening-mturk","missing":false,"accuracy":0},{"contexts":["red","blue","green"],"outcomes":[0,0,1],"key":37,"choice":0,"rt":163.00000005867332,"outcome":0,"trial":63,"correct":2,"trial_type":"three-arm-trial","trial_index":136,"time_elapsed":751897,"internal_node_id":"0.0-69.0-0.0","task_version":"screening-mturk","missing":false,"accuracy":0},{"contexts":["red","blue","green"],"outcomes":[0,0,0],"key":38,"choice":1,"rt":141.99999999254942,"outcome":0,"trial":64,"correct":2,"trial_type":"three-arm-trial","trial_index":137,"time_elapsed":753249,"internal_node_id":"0.0-70.0-0.0","task_version":"screening-mturk","missing":false,"accuracy":0},{"contexts":["red","blue","green"],"outcomes":[0,0,0],"key":38,"choice":1,"rt":30.000000027939677,"outcome":0,"trial":65,"correct":2,"trial_type":"three-arm-trial","trial_index":138,"time_elapsed":754493,"internal_node_id":"0.0-71.0-0.0","task_version":"screening-mturk","missing":false,"accuracy":0},{"contexts":["red","blue","green"],"outcomes":[1,0,0],"key":38,"choice":1,"rt":72.00000004377216,"outcome":0,"trial":66,"correct":2,"trial_type":"three-arm-trial","trial_index":139,"time_elapsed":755806,"internal_node_id":"0.0-72.0-0.0","task_version":"screening-mturk","missing":false,"accuracy":0},{"contexts":["red","blue","green"],"outcomes":[0,0,1],"key":38,"choice":1,"rt":122.00000009033829,"outcome":0,"trial":67,"correct":2,"trial_type":"three-arm-trial","trial_index":140,"time_elapsed":757202,"internal_node_id":"0.0-73.0-0.0","task_version":"screening-mturk","missing":false,"accuracy":0},{"contexts":["red","blue","green"],"outcomes":[0,0,1],"key":37,"choice":0,"rt":679.9999999348074,"outcome":0,"trial":68,"correct":2,"trial_type":"three-arm-trial","trial_index":141,"time_elapsed":759091,"internal_node_id":"0.0-74.0-0.0","task_version":"screening-mturk","missing":false,"accuracy":0},{"contexts":["red","blue","green"],"outcomes":[0,0,0],"key":38,"choice":1,"rt":73.99999990593642,"outcome":0,"trial":69,"correct":2,"trial_type":"three-arm-trial","trial_index":142,"time_elapsed":760383,"internal_node_id":"0.0-75.0-0.0","task_version":"screening-mturk","missing":false,"accuracy":0},{"contexts":["red","blue","green"],"outcomes":[0,0,1],"key":39,"choice":2,"rt":505.0000000046566,"outcome":1,"trial":70,"correct":2,"trial_type":"three-arm-trial","trial_index":143,"time_elapsed":762117,"internal_node_id":"0.0-76.0-0.0","task_version":"screening-mturk","missing":false,"accuracy":1},{"contexts":["red","blue","green"],"outcomes":[0,0,1],"key":37,"choice":0,"rt":74.00000002235174,"outcome":0,"trial":71,"correct":2,"trial_type":"three-arm-trial","trial_index":144,"time_elapsed":763428,"internal_node_id":"0.0-77.0-0.0","task_version":"screening-mturk","missing":false,"accuracy":0},{"contexts":["red","blue","green"],"outcomes":[0,0,1],"key":38,"choice":1,"rt":50.99999997764826,"outcome":0,"trial":72,"correct":2,"trial_type":"three-arm-trial","trial_index":145,"time_elapsed":764707,"internal_node_id":"0.0-78.0-0.0","task_version":"screening-mturk","missing":false,"accuracy":0},{"contexts":["red","blue","green"],"outcomes":[0,0,1],"key":39,"choice":2,"rt":169.9999999254942,"outcome":1,"trial":73,"correct":2,"trial_type":"three-arm-trial","trial_index":146,"time_elapsed":766089,"internal_node_id":"0.0-79.0-0.0","task_version":"screening-mturk","missing":false,"accuracy":1},{"contexts":["red","blue","green"],"outcomes":[1,1,1],"key":37,"choice":0,"rt":309.0000000083819,"outcome":1,"trial":74,"correct":2,"trial_type":"three-arm-trial","trial_index":147,"time_elapsed":767608,"internal_node_id":"0.0-80.0-0.0","task_version":"screening-mturk","missing":false,"accuracy":0},{"contexts":["red","blue","green"],"outcomes":[0,1,1],"key":37,"choice":0,"rt":206.00000000558794,"outcome":0,"trial":75,"correct":2,"trial_type":"three-arm-trial","trial_index":148,"time_elapsed":769026,"internal_node_id":"0.0-81.0-0.0","task_version":"screening-mturk","missing":false,"accuracy":0},{"contexts":["red","blue","green"],"outcomes":[0,0,0],"key":38,"choice":1,"rt":331.99999993667006,"outcome":0,"trial":76,"correct":0,"trial_type":"three-arm-trial","trial_index":149,"time_elapsed":770605,"internal_node_id":"0.0-82.0-0.0","task_version":"screening-mturk","missing":false,"accuracy":0},{"contexts":["red","blue","green"],"outcomes":[0,0,0],"key":37,"choice":0,"rt":97.00000006705523,"outcome":0,"trial":77,"correct":0,"trial_type":"three-arm-trial","trial_index":150,"time_elapsed":771950,"internal_node_id":"0.0-83.0-0.0","task_version":"screening-mturk","missing":false,"accuracy":1},{"contexts":["red","blue","green"],"outcomes":[1,0,0],"key":38,"choice":1,"rt":67.99999997019768,"outcome":0,"trial":78,"correct":0,"trial_type":"three-arm-trial","trial_index":151,"time_elapsed":773287,"internal_node_id":"0.0-84.0-0.0","task_version":"screening-mturk","missing":false,"accuracy":0},{"contexts":["red","blue","green"],"outcomes":[1,0,0],"key":39,"choice":2,"rt":130.0000000046566,"outcome":0,"trial":79,"correct":0,"trial_type":"three-arm-trial","trial_index":152,"time_elapsed":774620,"internal_node_id":"0.0-85.0-0.0","task_version":"screening-mturk","missing":false,"accuracy":0},{"contexts":["red","blue","green"],"outcomes":[1,1,0],"key":37,"choice":0,"rt":136.00000005681068,"outcome":1,"trial":80,"correct":0,"trial_type":"three-arm-trial","trial_index":153,"time_elapsed":776002,"internal_node_id":"0.0-86.0-0.0","task_version":"screening-mturk","missing":false,"accuracy":1},{"contexts":["red","blue","green"],"outcomes":[1,0,0],"key":39,"choice":2,"rt":129.00000007357448,"outcome":0,"trial":81,"correct":0,"trial_type":"three-arm-trial","trial_index":154,"time_elapsed":777362,"internal_node_id":"0.0-87.0-0.0","task_version":"screening-mturk","missing":false,"accuracy":0},{"contexts":["red","blue","green"],"outcomes":[1,0,0],"key":38,"choice":1,"rt":140.99999994505197,"outcome":0,"trial":82,"correct":0,"trial_type":"three-arm-trial","trial_index":155,"time_elapsed":778768,"internal_node_id":"0.0-88.0-0.0","task_version":"screening-mturk","missing":false,"accuracy":0},{"contexts":["red","blue","green"],"outcomes":[1,0,0],"key":37,"choice":0,"rt":0,"outcome":1,"trial":83,"correct":0,"trial_type":"three-arm-trial","trial_index":156,"time_elapsed":779984,"internal_node_id":"0.0-89.0-0.0","task_version":"screening-mturk","missing":false,"accuracy":1},{"contexts":["red","blue","green"],"outcomes":[1,0,0],"key":39,"choice":2,"rt":347.99999999813735,"outcome":0,"trial":84,"correct":0,"trial_type":"three-arm-trial","trial_index":157,"time_elapsed":781552,"internal_node_id":"0.0-90.0-0.0","task_version":"screening-mturk","missing":false,"accuracy":0},{"contexts":["red","blue","green"],"outcomes":[1,0,0],"key":37,"choice":0,"rt":548.9999999990687,"outcome":1,"trial":85,"correct":0,"trial_type":"three-arm-trial","trial_index":158,"time_elapsed":783305,"internal_node_id":"0.0-91.0-0.0","task_version":"screening-mturk","missing":false,"accuracy":1},{"contexts":["red","blue","green"],"outcomes":[1,0,0],"key":37,"choice":0,"rt":160.99999996367842,"outcome":1,"trial":86,"correct":0,"trial_type":"three-arm-trial","trial_index":159,"time_elapsed":784667,"internal_node_id":"0.0-92.0-0.0","task_version":"screening-mturk","missing":false,"accuracy":1},{"contexts":["red","blue","green"],"outcomes":[1,0,0],"key":38,"choice":1,"rt":118.0000000167638,"outcome":0,"trial":87,"correct":0,"trial_type":"three-arm-trial","trial_index":160,"time_elapsed":786039,"internal_node_id":"0.0-93.0-0.0","task_version":"screening-mturk","missing":false,"accuracy":0},{"contexts":["red","blue","green"],"outcomes":[0,0,0],"key":38,"choice":1,"rt":192.00000003911555,"outcome":0,"trial":88,"correct":0,"trial_type":"three-arm-trial","trial_index":161,"time_elapsed":787443,"internal_node_id":"0.0-94.0-0.0","task_version":"screening-mturk","missing":false,"accuracy":0},{"contexts":["red","blue","green"],"outcomes":[0,0,0],"key":39,"choice":2,"rt":48.00000006798655,"outcome":0,"trial":89,"correct":0,"trial_type":"three-arm-trial","trial_index":162,"time_elapsed":788768,"internal_node_id":"0.0-95.0-0.0","task_version":"screening-mturk","missing":false,"accuracy":0},{"contexts":["red","blue","green"],"outcomes":[1,0,1],"key":37,"choice":0,"rt":103.9999999338761,"outcome":1,"trial":90,"correct":0,"trial_type":"three-arm-trial","trial_index":163,"time_elapsed":790083,"internal_node_id":"0.0-96.0-0.0","task_version":"screening-mturk","missing":false,"accuracy":1},{"rt":19451.999999932013,"responses":{"age":"30","gender-categorical":"Male","gender-free-response":"","ethnicity":"Hispanic or Latino","race":["Black or African American"],"language":"Yes","fluency":"Very well","prolific":"Yes","prolific-this-study":"Yes"},"survey":"demographics","trial_type":"survey-demo","trial_index":164,"time_elapsed":809572,"internal_node_id":"0.0-97.0","task_version":"screening-mturk","interactions":"[{\"event\":\"blur\",\"trial\":4,\"time\":66720},{\"event\":\"focus\",\"trial\":4,\"time\":68679},{\"event\":\"blur\",\"trial\":9,\"time\":116809},{\"event\":\"focus\",\"trial\":9,\"time\":119589},{\"event\":\"blur\",\"trial\":50,\"time\":395933},{\"event\":\"focus\",\"trial\":50,\"time\":457196},{\"event\":\"blur\",\"trial\":71,\"time\":578994},{\"event\":\"focus\",\"trial\":71,\"time\":580693},{\"event\":\"blur\",\"trial\":71,\"time\":620033},{\"event\":\"focus\",\"trial\":71,\"time\":626695},{\"event\":\"blur\",\"trial\":80,\"time\":662025},{\"event\":\"focus\",\"trial\":80,\"time\":668496}]"}]