[{"responses":{"Q02":"3","Q03":"2","Q01":"2","Q15":"1","Q08":"3","Q09":"2","Q04":"2","Q14":"3","Q06":"1","Q05":"3","Q12":"2","Q07":"3","Q13":"3","Q10":"2","Q11":"1"},"rt":21194.554999936372,"survey":"7up7down","trial_type":"survey-template","trial_index":0,"time_elapsed":21210,"internal_node_id":"0.0-0.0","task_version":"screening-mturk"},{"responses":{"Q03":"3","Q01":"4","Q02":"3"},"rt":9257.565000094473,"survey":"pswq","trial_type":"survey-template","trial_index":1,"time_elapsed":30472,"internal_node_id":"0.0-1.0","task_version":"screening-mturk"},{"responses":{"Q02":"3","Q01":"2","Q07":"1","Q06":"3","Q04":"3","Q12":"2","Q09":"2","Q05":"3","Q08":"2","Q13":"2","Q11":"3","Q10":"2","Q03":"1"},"rt":28642.430000007153,"survey":"bisbas","trial_type":"survey-template","trial_index":2,"time_elapsed":59120,"internal_node_id":"0.0-2.0","task_version":"screening-mturk"},{"responses":{"Q02":"2","Q04":"3","Q07":"2","Q05":"1","Q01":"2","Q08":"2","Q03":"3","Q06":"3"},"rt":12257.420000154525,"survey":"gad7","trial_type":"survey-template","trial_index":3,"time_elapsed":71382,"internal_node_id":"0.0-3.0","task_version":"screening-mturk"},{"responses":{"Q13":"2","Q06":"3","Q08":"2","Q02":"2","Q01":"1","Q04":"2","Q12":"2","Q09":"3","Q03":"3","Q07":"3","Q10":"2","Q14":"1","Q15":"2","Q11":"2","Q05":"3"},"rt":24352.924999780953,"survey":"shaps","trial_type":"survey-template","trial_index":4,"time_elapsed":95740,"internal_node_id":"0.0-4.0","task_version":"screening-mturk"},{"view_history":"[{\"page_index\":0,\"viewing_time\":8133.055000100285},{\"page_index\":1,\"viewing_time\":6423.20999968797},{\"page_index\":2,\"viewing_time\":14664.670000318438},{\"page_index\":3,\"viewing_time\":9672.944999765605},{\"page_index\":4,\"viewing_time\":2013.1350001320243},{\"page_index\":5,\"viewing_time\":124.8849998228252},{\"page_index\":6,\"viewing_time\":1154.395000077784},{\"page_index\":7,\"viewing_time\":962.9999999888241}]","rt":43150.15499992296,"trial_type":"instructions","trial_index":5,"time_elapsed":138892,"internal_node_id":"0.0-5.0-0.0","task_version":"screening-mturk"},{"responses":["True","True","True","False","True"],"num_errors":1,"rt":14475.134999956936,"trial_type":"three-arm-comprehension","trial_index":6,"time_elapsed":153370,"internal_node_id":"0.0-5.0-1.0","task_version":"screening-mturk"},{"view_history":"[{\"page_index\":0,\"viewing_time\":5915.359999984503},{\"page_index\":1,\"viewing_time\":15906.725000124425},{\"page_index\":2,\"viewing_time\":5633.260000031441},{\"page_index\":3,\"viewing_time\":5466.889999806881},{\"page_index\":4,\"viewing_time\":5508.505000267178},{\"page_index\":5,\"viewing_time\":11534.78500014171},{\"page_index\":6,\"viewing_time\":5523.899999912828},{\"page_index\":7,\"viewing_time\":5326.944999862462}]","rt":60816.80000014603,"trial_type":"instructions","trial_index":7,"time_elapsed":214195,"internal_node_id":"0.0-5.1-0.1","task_version":"screening-mturk"},{"responses":["True","True","True","False","False"],"num_errors":2,"rt":197497.5250000134,"trial_type":"three-arm-comprehension","trial_index":8,"time_elapsed":411694,"internal_node_id":"0.0-5.1-1.1","task_version":"screening-mturk"},{"view_history":"[{\"page_index\":0,\"viewing_time\":1688.6350000277162},{\"page_index\":1,\"viewing_time\":48.68000000715256},{\"page_index\":2,\"viewing_time\":3814.849999733269},{\"page_index\":3,\"viewing_time\":1235.5700000189245},{\"page_index\":4,\"viewing_time\":1097.5649999454618},{\"page_index\":5,\"viewing_time\":1052.4850003421307},{\"page_index\":6,\"viewing_time\":88.14999973401427},{\"page_index\":7,\"viewing_time\":717.5349998287857}]","rt":9744.309999980032,"trial_type":"instructions","trial_index":9,"time_elapsed":421441,"internal_node_id":"0.0-5.2-0.2","task_version":"screening-mturk"},{"responses":["True","True","True","True","False"],"num_errors":3,"rt":6662.254999857396,"trial_type":"three-arm-comprehension","trial_index":10,"time_elapsed":428111,"internal_node_id":"0.0-5.2-1.2","task_version":"screening-mturk"},{"view_history":"[{\"page_index\":0,\"viewing_time\":1685.994999948889},{\"page_index\":1,\"viewing_time\":425.52500031888485},{\"page_index\":2,\"viewing_time\":350.54999962449074},{\"page_index\":3,\"viewing_time\":520.2700002118945},{\"page_index\":4,\"viewing_time\":5093.2700000703335},{\"page_index\":5,\"viewing_time\":2208.679999690503},{\"page_index\":6,\"viewing_time\":890.0550003163517},{\"page_index\":7,\"viewing_time\":917.6599998027086}]","rt":12092.389999888837,"trial_type":"instructions","trial_index":11,"time_elapsed":440209,"internal_node_id":"0.0-5.3-0.3","task_version":"screening-mturk"},{"responses":["True","True","True","True","True"],"num_errors":2,"rt":7375.405000057071,"trial_type":"three-arm-comprehension","trial_index":12,"time_elapsed":447587,"internal_node_id":"0.0-5.3-1.3","task_version":"screening-mturk"},{"view_history":"[{\"page_index\":0,\"viewing_time\":1496.3150001130998},{\"page_index\":1,\"viewing_time\":959.474999923259},{\"page_index\":2,\"viewing_time\":832.9300000332296},{\"page_index\":3,\"viewing_time\":846.9249997287989},{\"page_index\":4,\"viewing_time\":848.960000090301},{\"page_index\":5,\"viewing_time\":769.4899998605251},{\"page_index\":6,\"viewing_time\":800.1200002618134},{\"page_index\":7,\"viewing_time\":847.9249998927116}]","rt":7402.509999927133,"trial_type":"instructions","trial_index":13,"time_elapsed":454992,"internal_node_id":"0.0-5.4-0.4","task_version":"screening-mturk"},{"responses":["True","False","True","False","True"],"num_errors":2,"rt":7427.804999984801,"trial_type":"three-arm-comprehension","trial_index":14,"time_elapsed":462422,"internal_node_id":"0.0-5.4-1.4","task_version":"screening-mturk"},{"view_history":"[{\"page_index\":0,\"viewing_time\":1424.6700000949204},{\"page_index\":1,\"viewing_time\":858.5999999195337},{\"page_index\":2,\"viewing_time\":764.400000218302},{\"page_index\":3,\"viewing_time\":700.3099997527897},{\"page_index\":4,\"viewing_time\":643.5250001959503},{\"page_index\":5,\"viewing_time\":660.5849997140467},{\"page_index\":6,\"viewing_time\":624.1950001567602},{\"page_index\":7,\"viewing_time\":745.3700001351535}]","rt":6422.079999931157,"trial_type":"instructions","trial_index":15,"time_elapsed":468849,"internal_node_id":"0.0-5.5-0.5","task_version":"screening-mturk"},{"responses":["True","True","False","True","False"],"num_errors":2,"rt":7579.604999627918,"trial_type":"three-arm-comprehension","trial_index":16,"time_elapsed":476429,"internal_node_id":"0.0-5.5-1.5","task_version":"screening-mturk"},{"view_history":"[{\"page_index\":0,\"viewing_time\":1500.5349996499717},{\"page_index\":1,\"viewing_time\":874.8850002884865},{\"page_index\":2,\"viewing_time\":868.9250000752509},{\"page_index\":3,\"viewing_time\":950.8499996736646},{\"page_index\":4,\"viewing_time\":824.860000051558},{\"page_index\":5,\"viewing_time\":789.9199998937547},{\"page_index\":6,\"viewing_time\":891.7400003410876},{\"page_index\":7,\"viewing_time\":726.3599997386336}]","rt":7428.444999735802,"trial_type":"instructions","trial_index":17,"time_elapsed":483861,"internal_node_id":"0.0-5.6-0.6","task_version":"screening-mturk"},{"responses":["True","True","False","False","False"],"num_errors":1,"rt":26771.769999992102,"trial_type":"three-arm-comprehension","trial_index":18,"time_elapsed":510635,"internal_node_id":"0.0-5.6-1.6","task_version":"screening-mturk"},{"view_history":"[{\"page_index\":0,\"viewing_time\":1764.4349997863173},{\"page_index\":1,\"viewing_time\":90.36500006914139},{\"page_index\":2,\"viewing_time\":1144.9950002133846},{\"page_index\":3,\"viewing_time\":520.2199998311698},{\"page_index\":4,\"viewing_time\":441.3299998268485},{\"page_index\":5,\"viewing_time\":507.0250001735985},{\"page_index\":6,\"viewing_time\":506.8450001999736},{\"page_index\":7,\"viewing_time\":619.7150000371039}]","rt":5595.334999728948,"trial_type":"instructions","trial_index":19,"time_elapsed":516233,"internal_node_id":"0.0-5.7-0.7","task_version":"screening-mturk"},{"responses":["True","True","False","False","True"],"num_errors":0,"rt":6829.9999996088445,"trial_type":"three-arm-comprehension","trial_index":20,"time_elapsed":523066,"internal_node_id":"0.0-5.7-1.7","task_version":"screening-mturk"},{"view_history":"[{\"page_index\":0,\"viewing_time\":3838.5999999009073}]","rt":3839.2599998041987,"trial_type":"instructions","trial_index":21,"time_elapsed":526912,"internal_node_id":"0.0-6.0","task_version":"screening-mturk"},{"contexts":["green","red","blue"],"outcomes":[0,0,1],"key":38,"choice":1,"rt":9021.670000161976,"outcome":0,"trial":1,"correct":2,"trial_type":"three-arm-trial","trial_index":22,"time_elapsed":537139,"internal_node_id":"0.0-7.0-0.0","task_version":"screening-mturk","missing":false,"accuracy":0},{"contexts":["green","red","blue"],"outcomes":[0,1,1],"key":37,"choice":0,"rt":2096.5100000612438,"outcome":0,"trial":2,"correct":2,"trial_type":"three-arm-trial","trial_index":23,"time_elapsed":540441,"internal_node_id":"0.0-8.0-0.0","task_version":"screening-mturk","missing":false,"accuracy":0},{"contexts":["green","red","blue"],"outcomes":[0,0,1],"key":39,"choice":2,"rt":1542.8750002756715,"outcome":1,"trial":3,"correct":2,"trial_type":"three-arm-trial","trial_index":24,"time_elapsed":543188,"internal_node_id":"0.0-9.0-0.0","task_version":"screening-mturk","missing":false,"accuracy":1},{"contexts":["green","red","blue"],"outcomes":[1,0,1],"key":38,"choice":1,"rt":1352.4849996902049,"outcome":0,"trial":4,"correct":2,"trial_type":"three-arm-trial","trial_index":25,"time_elapsed":545751,"internal_node_id":"0.0-10.0-0.0","task_version":"screening-mturk","missing":false,"accuracy":0},{"contexts":["green","red","blue"],"outcomes":[0,0,1],"key":38,"choice":1,"rt":1014.6800000220537,"outcome":0,"trial":5,"correct":2,"trial_type":"three-arm-trial","trial_index":26,"time_elapsed":547971,"internal_node_id":"0.0-11.0-0.0","task_version":"screening-mturk","missing":false,"accuracy":0},{"contexts":["green","red","blue"],"outcomes":[1,0,1],"key":38,"choice":1,"rt":1431.4399999566376,"outcome":0,"trial":6,"correct":2,"trial_type":"three-arm-trial","trial_index":27,"time_elapsed":550607,"internal_node_id":"0.0-12.0-0.0","task_version":"screening-mturk","missing":false,"accuracy":0},{"contexts":["green","red","blue"],"outcomes":[0,0,1],"key":39,"choice":2,"rt":578.4700000658631,"outcome":1,"trial":7,"correct":2,"trial_type":"three-arm-trial","trial_index":28,"time_elapsed":552388,"internal_node_id":"0.0-13.0-0.0","task_version":"screening-mturk","missing":false,"accuracy":1},{"contexts":["green","red","blue"],"outcomes":[0,0,1],"key":39,"choice":2,"rt":724.5899997651577,"outcome":1,"trial":8,"correct":2,"trial_type":"three-arm-trial","trial_index":29,"time_elapsed":554315,"internal_node_id":"0.0-14.0-0.0","task_version":"screening-mturk","missing":false,"accuracy":1},{"contexts":["green","red","blue"],"outcomes":[1,0,0],"key":39,"choice":2,"rt":1006.2250001356006,"outcome":0,"trial":9,"correct":2,"trial_type":"three-arm-trial","trial_index":30,"time_elapsed":556525,"internal_node_id":"0.0-15.0-0.0","task_version":"screening-mturk","missing":false,"accuracy":1},{"contexts":["green","red","blue"],"outcomes":[0,0,1],"key":37,"choice":0,"rt":757.9950001090765,"outcome":0,"trial":10,"correct":2,"trial_type":"three-arm-trial","trial_index":31,"time_elapsed":558487,"internal_node_id":"0.0-16.0-0.0","task_version":"screening-mturk","missing":false,"accuracy":0},{"contexts":["green","red","blue"],"outcomes":[0,0,1],"key":38,"choice":1,"rt":88.15000019967556,"outcome":0,"trial":11,"correct":2,"trial_type":"three-arm-trial","trial_index":32,"time_elapsed":559779,"internal_node_id":"0.0-17.0-0.0","task_version":"screening-mturk","missing":false,"accuracy":0},{"contexts":["green","red","blue"],"outcomes":[0,1,1],"key":39,"choice":2,"rt":1342.7650001831353,"outcome":1,"trial":12,"correct":2,"trial_type":"three-arm-trial","trial_index":33,"time_elapsed":562332,"internal_node_id":"0.0-18.0-0.0","task_version":"screening-mturk","missing":false,"accuracy":1},{"contexts":["green","red","blue"],"outcomes":[0,0,1],"key":39,"choice":2,"rt":1011.6599998436868,"outcome":1,"trial":13,"correct":2,"trial_type":"three-arm-trial","trial_index":34,"time_elapsed":564786,"internal_node_id":"0.0-19.0-0.0","task_version":"screening-mturk","missing":false,"accuracy":1},{"contexts":["green","red","blue"],"outcomes":[0,0,1],"key":39,"choice":2,"rt":217.05499989911914,"outcome":1,"trial":14,"correct":2,"trial_type":"three-arm-trial","trial_index":35,"time_elapsed":566207,"internal_node_id":"0.0-20.0-0.0","task_version":"screening-mturk","missing":false,"accuracy":1},{"contexts":["green","red","blue"],"outcomes":[1,0,1],"key":39,"choice":2,"rt":124.72500000149012,"outcome":1,"trial":15,"correct":2,"trial_type":"three-arm-trial","trial_index":36,"time_elapsed":567534,"internal_node_id":"0.0-21.0-0.0","task_version":"screening-mturk","missing":false,"accuracy":1},{"contexts":["green","red","blue"],"outcomes":[0,1,0],"key":39,"choice":2,"rt":58.02999995648861,"outcome":0,"trial":16,"correct":1,"trial_type":"three-arm-trial","trial_index":37,"time_elapsed":568805,"internal_node_id":"0.0-22.0-0.0","task_version":"screening-mturk","missing":false,"accuracy":0},{"contexts":["green","red","blue"],"outcomes":[0,0,0],"key":39,"choice":2,"rt":362.5249997712672,"outcome":0,"trial":17,"correct":1,"trial_type":"three-arm-trial","trial_index":38,"time_elapsed":570375,"internal_node_id":"0.0-23.0-0.0","task_version":"screening-mturk","missing":false,"accuracy":0},{"contexts":["green","red","blue"],"outcomes":[0,1,0],"key":38,"choice":1,"rt":466.04999992996454,"outcome":1,"trial":18,"correct":1,"trial_type":"three-arm-trial","trial_index":39,"time_elapsed":572050,"internal_node_id":"0.0-24.0-0.0","task_version":"screening-mturk","missing":false,"accuracy":1},{"contexts":["green","red","blue"],"outcomes":[1,1,1],"key":38,"choice":1,"rt":904.3800001963973,"outcome":1,"trial":19,"correct":1,"trial_type":"three-arm-trial","trial_index":40,"time_elapsed":574160,"internal_node_id":"0.0-25.0-0.0","task_version":"screening-mturk","missing":false,"accuracy":1},{"contexts":["green","red","blue"],"outcomes":[0,1,0],"key":38,"choice":1,"rt":387.6950000412762,"outcome":1,"trial":20,"correct":1,"trial_type":"three-arm-trial","trial_index":41,"time_elapsed":575751,"internal_node_id":"0.0-26.0-0.0","task_version":"screening-mturk","missing":false,"accuracy":1},{"contexts":["green","red","blue"],"outcomes":[1,0,1],"key":39,"choice":2,"rt":822.9249999858439,"outcome":1,"trial":21,"correct":1,"trial_type":"three-arm-trial","trial_index":42,"time_elapsed":577777,"internal_node_id":"0.0-27.0-0.0","task_version":"screening-mturk","missing":false,"accuracy":0},{"contexts":["green","red","blue"],"outcomes":[0,1,0],"key":37,"choice":0,"rt":573.3449999243021,"outcome":0,"trial":22,"correct":1,"trial_type":"three-arm-trial","trial_index":43,"time_elapsed":579775,"internal_node_id":"0.0-28.0-0.0","task_version":"screening-mturk","missing":false,"accuracy":0},{"contexts":["green","red","blue"],"outcomes":[1,1,0],"key":39,"choice":2,"rt":19.510000012815,"outcome":0,"trial":23,"correct":1,"trial_type":"three-arm-trial","trial_index":44,"time_elapsed":581002,"internal_node_id":"0.0-29.0-0.0","task_version":"screening-mturk","missing":false,"accuracy":0},{"contexts":["green","red","blue"],"outcomes":[0,1,0],"key":39,"choice":2,"rt":85.78999992460012,"outcome":0,"trial":24,"correct":1,"trial_type":"three-arm-trial","trial_index":45,"time_elapsed":582293,"internal_node_id":"0.0-30.0-0.0","task_version":"screening-mturk","missing":false,"accuracy":0},{"contexts":["green","red","blue"],"outcomes":[0,1,0],"key":37,"choice":0,"rt":299.8100002296269,"outcome":0,"trial":25,"correct":1,"trial_type":"three-arm-trial","trial_index":46,"time_elapsed":583802,"internal_node_id":"0.0-31.0-0.0","task_version":"screening-mturk","missing":false,"accuracy":0},{"contexts":["green","red","blue"],"outcomes":[0,1,1],"key":38,"choice":1,"rt":40.81500042229891,"outcome":1,"trial":26,"correct":1,"trial_type":"three-arm-trial","trial_index":47,"time_elapsed":585045,"internal_node_id":"0.0-32.0-0.0","task_version":"screening-mturk","missing":false,"accuracy":1},{"contexts":["green","red","blue"],"outcomes":[1,1,0],"key":38,"choice":1,"rt":5820.795000065118,"outcome":1,"trial":27,"correct":1,"trial_type":"three-arm-trial","trial_index":48,"time_elapsed":592075,"internal_node_id":"0.0-33.0-0.0","task_version":"screening-mturk","missing":false,"accuracy":1},{"contexts":["green","red","blue"],"outcomes":[0,0,1],"key":38,"choice":1,"rt":1226.0150001384318,"outcome":0,"trial":28,"correct":1,"trial_type":"three-arm-trial","trial_index":49,"time_elapsed":594503,"internal_node_id":"0.0-34.0-0.0","task_version":"screening-mturk","missing":false,"accuracy":1},{"contexts":["green","red","blue"],"outcomes":[0,1,0],"key":39,"choice":2,"rt":592.3700002022088,"outcome":0,"trial":29,"correct":1,"trial_type":"three-arm-trial","trial_index":50,"time_elapsed":596299,"internal_node_id":"0.0-35.0-0.0","task_version":"screening-mturk","missing":false,"accuracy":0},{"contexts":["green","red","blue"],"outcomes":[0,0,0],"key":37,"choice":0,"rt":138.16000008955598,"outcome":0,"trial":30,"correct":1,"trial_type":"three-arm-trial","trial_index":51,"time_elapsed":597641,"internal_node_id":"0.0-36.0-0.0","task_version":"screening-mturk","missing":false,"accuracy":0},{"contexts":["green","red","blue"],"outcomes":[0,0,0],"key":39,"choice":2,"rt":54.25499984994531,"outcome":0,"trial":31,"correct":0,"trial_type":"three-arm-trial","trial_index":52,"time_elapsed":598898,"internal_node_id":"0.0-37.0-0.0","task_version":"screening-mturk","missing":false,"accuracy":0},{"contexts":["green","red","blue"],"outcomes":[1,0,0],"key":38,"choice":1,"rt":97.31499990448356,"outcome":0,"trial":32,"correct":0,"trial_type":"three-arm-trial","trial_index":53,"time_elapsed":600197,"internal_node_id":"0.0-38.0-0.0","task_version":"screening-mturk","missing":false,"accuracy":0},{"contexts":["green","red","blue"],"outcomes":[1,1,0],"key":39,"choice":2,"rt":839.5200003869832,"outcome":0,"trial":33,"correct":0,"trial_type":"three-arm-trial","trial_index":54,"time_elapsed":602242,"internal_node_id":"0.0-39.0-0.0","task_version":"screening-mturk","missing":false,"accuracy":0},{"contexts":["green","red","blue"],"outcomes":[1,1,0],"key":37,"choice":0,"rt":2013.770000077784,"outcome":1,"trial":34,"correct":0,"trial_type":"three-arm-trial","trial_index":55,"time_elapsed":605458,"internal_node_id":"0.0-40.0-0.0","task_version":"screening-mturk","missing":false,"accuracy":1},{"contexts":["green","red","blue"],"outcomes":[0,0,0],"key":37,"choice":0,"rt":69.42500034347177,"outcome":0,"trial":35,"correct":0,"trial_type":"three-arm-trial","trial_index":56,"time_elapsed":606731,"internal_node_id":"0.0-41.0-0.0","task_version":"screening-mturk","missing":false,"accuracy":1},{"contexts":["green","red","blue"],"outcomes":[1,1,1],"key":37,"choice":0,"rt":2054.570000153035,"outcome":1,"trial":36,"correct":0,"trial_type":"three-arm-trial","trial_index":57,"time_elapsed":609991,"internal_node_id":"0.0-42.0-0.0","task_version":"screening-mturk","missing":false,"accuracy":1},{"contexts":["green","red","blue"],"outcomes":[1,0,0],"key":37,"choice":0,"rt":160.95499973744154,"outcome":1,"trial":37,"correct":0,"trial_type":"three-arm-trial","trial_index":58,"time_elapsed":611354,"internal_node_id":"0.0-43.0-0.0","task_version":"screening-mturk","missing":false,"accuracy":1},{"contexts":["green","red","blue"],"outcomes":[0,0,0],"key":37,"choice":0,"rt":29.300000052899122,"outcome":0,"trial":38,"correct":0,"trial_type":"three-arm-trial","trial_index":59,"time_elapsed":612588,"internal_node_id":"0.0-44.0-0.0","task_version":"screening-mturk","missing":false,"accuracy":1},{"contexts":["green","red","blue"],"outcomes":[1,0,0],"key":37,"choice":0,"rt":1187.9950002767146,"outcome":1,"trial":39,"correct":0,"trial_type":"three-arm-trial","trial_index":60,"time_elapsed":614982,"internal_node_id":"0.0-45.0-0.0","task_version":"screening-mturk","missing":false,"accuracy":1},{"contexts":["green","red","blue"],"outcomes":[1,0,1],"key":38,"choice":1,"rt":371.8650001101196,"outcome":0,"trial":40,"correct":0,"trial_type":"three-arm-trial","trial_index":61,"time_elapsed":616558,"internal_node_id":"0.0-46.0-0.0","task_version":"screening-mturk","missing":false,"accuracy":0},{"contexts":["green","red","blue"],"outcomes":[1,0,1],"key":39,"choice":2,"rt":19.235000014305115,"outcome":1,"trial":41,"correct":0,"trial_type":"three-arm-trial","trial_index":62,"time_elapsed":617787,"internal_node_id":"0.0-47.0-0.0","task_version":"screening-mturk","missing":false,"accuracy":0},{"contexts":["green","red","blue"],"outcomes":[1,0,0],"key":37,"choice":0,"rt":609.7949999384582,"outcome":1,"trial":42,"correct":0,"trial_type":"three-arm-trial","trial_index":63,"time_elapsed":619602,"internal_node_id":"0.0-48.0-0.0","task_version":"screening-mturk","missing":false,"accuracy":1},{"contexts":["green","red","blue"],"outcomes":[0,0,1],"key":37,"choice":0,"rt":6.889999844133854,"outcome":0,"trial":43,"correct":0,"trial_type":"three-arm-trial","trial_index":64,"time_elapsed":620811,"internal_node_id":"0.0-49.0-0.0","task_version":"screening-mturk","missing":false,"accuracy":1},{"contexts":["green","red","blue"],"outcomes":[1,0,0],"key":37,"choice":0,"rt":647.7049998939037,"outcome":1,"trial":44,"correct":0,"trial_type":"three-arm-trial","trial_index":65,"time_elapsed":622665,"internal_node_id":"0.0-50.0-0.0","task_version":"screening-mturk","missing":false,"accuracy":1},{"contexts":["green","red","blue"],"outcomes":[0,0,1],"key":37,"choice":0,"rt":97.80499991029501,"outcome":0,"trial":45,"correct":0,"trial_type":"three-arm-trial","trial_index":66,"time_elapsed":623966,"internal_node_id":"0.0-51.0-0.0","task_version":"screening-mturk","missing":false,"accuracy":1},{"contexts":["green","red","blue"],"outcomes":[0,0,1],"key":39,"choice":2,"rt":79.84500005841255,"outcome":1,"trial":46,"correct":2,"trial_type":"three-arm-trial","trial_index":67,"time_elapsed":625249,"internal_node_id":"0.0-52.0-0.0","task_version":"screening-mturk","missing":false,"accuracy":1},{"contexts":["green","red","blue"],"outcomes":[0,0,1],"key":38,"choice":1,"rt":874.1600001230836,"outcome":0,"trial":47,"correct":2,"trial_type":"three-arm-trial","trial_index":68,"time_elapsed":627326,"internal_node_id":"0.0-53.0-0.0","task_version":"screening-mturk","missing":false,"accuracy":0},{"contexts":["green","red","blue"],"outcomes":[0,0,1],"key":39,"choice":2,"rt":123.36000008508563,"outcome":1,"trial":48,"correct":2,"trial_type":"three-arm-trial","trial_index":69,"time_elapsed":628652,"internal_node_id":"0.0-54.0-0.0","task_version":"screening-mturk","missing":false,"accuracy":1},{"contexts":["green","red","blue"],"outcomes":[0,1,1],"key":37,"choice":0,"rt":253.31500032916665,"outcome":0,"trial":49,"correct":2,"trial_type":"three-arm-trial","trial_index":70,"time_elapsed":630110,"internal_node_id":"0.0-55.0-0.0","task_version":"screening-mturk","missing":false,"accuracy":0},{"contexts":["green","red","blue"],"outcomes":[0,0,1],"key":39,"choice":2,"rt":310.7650000602007,"outcome":1,"trial":50,"correct":2,"trial_type":"three-arm-trial","trial_index":71,"time_elapsed":631628,"internal_node_id":"0.0-56.0-0.0","task_version":"screening-mturk","missing":false,"accuracy":1},{"contexts":["green","red","blue"],"outcomes":[0,1,1],"key":39,"choice":2,"rt":80.95500012859702,"outcome":1,"trial":51,"correct":2,"trial_type":"three-arm-trial","trial_index":72,"time_elapsed":632914,"internal_node_id":"0.0-57.0-0.0","task_version":"screening-mturk","missing":false,"accuracy":1},{"contexts":["green","red","blue"],"outcomes":[0,0,1],"key":39,"choice":2,"rt":24.910000152885914,"outcome":1,"trial":52,"correct":2,"trial_type":"three-arm-trial","trial_index":73,"time_elapsed":634142,"internal_node_id":"0.0-58.0-0.0","task_version":"screening-mturk","missing":false,"accuracy":1},{"contexts":["green","red","blue"],"outcomes":[0,0,0],"key":39,"choice":2,"rt":33.30000024288893,"outcome":0,"trial":53,"correct":2,"trial_type":"three-arm-trial","trial_index":74,"time_elapsed":635379,"internal_node_id":"0.0-59.0-0.0","task_version":"screening-mturk","missing":false,"accuracy":1},{"contexts":["green","red","blue"],"outcomes":[0,0,1],"key":37,"choice":0,"rt":495.494999922812,"outcome":0,"trial":54,"correct":2,"trial_type":"three-arm-trial","trial_index":75,"time_elapsed":637079,"internal_node_id":"0.0-60.0-0.0","task_version":"screening-mturk","missing":false,"accuracy":0},{"contexts":["green","red","blue"],"outcomes":[0,1,0],"key":37,"choice":0,"rt":219.2500000819564,"outcome":0,"trial":55,"correct":2,"trial_type":"three-arm-trial","trial_index":76,"time_elapsed":638515,"internal_node_id":"0.0-61.0-0.0","task_version":"screening-mturk","missing":false,"accuracy":0},{"contexts":["green","red","blue"],"outcomes":[1,0,0],"key":38,"choice":1,"rt":293.75999979674816,"outcome":0,"trial":56,"correct":2,"trial_type":"three-arm-trial","trial_index":77,"time_elapsed":640011,"internal_node_id":"0.0-62.0-0.0","task_version":"screening-mturk","missing":false,"accuracy":0},{"contexts":["green","red","blue"],"outcomes":[0,0,1],"key":37,"choice":0,"rt":179.2250000871718,"outcome":0,"trial":57,"correct":2,"trial_type":"three-arm-trial","trial_index":78,"time_elapsed":641394,"internal_node_id":"0.0-63.0-0.0","task_version":"screening-mturk","missing":false,"accuracy":0},{"contexts":["green","red","blue"],"outcomes":[0,0,1],"key":38,"choice":1,"rt":28.479999862611294,"outcome":0,"trial":58,"correct":2,"trial_type":"three-arm-trial","trial_index":79,"time_elapsed":642625,"internal_node_id":"0.0-64.0-0.0","task_version":"screening-mturk","missing":false,"accuracy":0},{"contexts":["green","red","blue"],"outcomes":[1,0,1],"key":37,"choice":0,"rt":72.73499993607402,"outcome":1,"trial":59,"correct":2,"trial_type":"three-arm-trial","trial_index":80,"time_elapsed":644153,"internal_node_id":"0.0-65.0-0.0","task_version":"screening-mturk","missing":false,"accuracy":0},{"contexts":["green","red","blue"],"outcomes":[0,0,1],"key":37,"choice":0,"rt":102.65999985858798,"outcome":0,"trial":60,"correct":2,"trial_type":"three-arm-trial","trial_index":81,"time_elapsed":645464,"internal_node_id":"0.0-66.0-0.0","task_version":"screening-mturk","missing":false,"accuracy":0},{"contexts":["green","red","blue"],"outcomes":[1,1,0],"key":37,"choice":0,"rt":155.4649998433888,"outcome":1,"trial":61,"correct":1,"trial_type":"three-arm-trial","trial_index":82,"time_elapsed":646827,"internal_node_id":"0.0-67.0-0.0","task_version":"screening-mturk","missing":false,"accuracy":0},{"contexts":["green","red","blue"],"outcomes":[0,1,0],"key":37,"choice":0,"rt":169.84000010415912,"outcome":0,"trial":62,"correct":1,"trial_type":"three-arm-trial","trial_index":83,"time_elapsed":648200,"internal_node_id":"0.0-68.0-0.0","task_version":"screening-mturk","missing":false,"accuracy":0},{"contexts":["green","red","blue"],"outcomes":[1,0,0],"key":39,"choice":2,"rt":335.10000025853515,"outcome":0,"trial":63,"correct":1,"trial_type":"three-arm-trial","trial_index":84,"time_elapsed":649738,"internal_node_id":"0.0-69.0-0.0","task_version":"screening-mturk","missing":false,"accuracy":0},{"contexts":["green","red","blue"],"outcomes":[0,1,0],"key":38,"choice":1,"rt":58.16500028595328,"outcome":1,"trial":64,"correct":1,"trial_type":"three-arm-trial","trial_index":85,"time_elapsed":651002,"internal_node_id":"0.0-70.0-0.0","task_version":"screening-mturk","missing":false,"accuracy":1},{"contexts":["green","red","blue"],"outcomes":[0,1,0],"key":38,"choice":1,"rt":440.87500032037497,"outcome":1,"trial":65,"correct":1,"trial_type":"three-arm-trial","trial_index":86,"time_elapsed":652646,"internal_node_id":"0.0-71.0-0.0","task_version":"screening-mturk","missing":false,"accuracy":1},{"contexts":["green","red","blue"],"outcomes":[1,0,1],"key":38,"choice":1,"rt":383.2149999216199,"outcome":0,"trial":66,"correct":1,"trial_type":"three-arm-trial","trial_index":87,"time_elapsed":654232,"internal_node_id":"0.0-72.0-0.0","task_version":"screening-mturk","missing":false,"accuracy":1},{"contexts":["green","red","blue"],"outcomes":[0,1,1],"key":37,"choice":0,"rt":47.38999996334314,"outcome":0,"trial":67,"correct":1,"trial_type":"three-arm-trial","trial_index":88,"time_elapsed":655484,"internal_node_id":"0.0-73.0-0.0","task_version":"screening-mturk","missing":false,"accuracy":0},{"contexts":["green","red","blue"],"outcomes":[1,0,0],"key":37,"choice":0,"rt":64.49999986216426,"outcome":1,"trial":68,"correct":1,"trial_type":"three-arm-trial","trial_index":89,"time_elapsed":656778,"internal_node_id":"0.0-74.0-0.0","task_version":"screening-mturk","missing":false,"accuracy":0},{"contexts":["green","red","blue"],"outcomes":[0,1,0],"key":37,"choice":0,"rt":394.1800002939999,"outcome":0,"trial":69,"correct":1,"trial_type":"three-arm-trial","trial_index":90,"time_elapsed":658376,"internal_node_id":"0.0-75.0-0.0","task_version":"screening-mturk","missing":false,"accuracy":0},{"contexts":["green","red","blue"],"outcomes":[1,1,0],"key":39,"choice":2,"rt":354.13500014692545,"outcome":0,"trial":70,"correct":1,"trial_type":"three-arm-trial","trial_index":91,"time_elapsed":659932,"internal_node_id":"0.0-76.0-0.0","task_version":"screening-mturk","missing":false,"accuracy":0},{"contexts":["green","red","blue"],"outcomes":[0,1,0],"key":38,"choice":1,"rt":129.1100000962615,"outcome":1,"trial":71,"correct":1,"trial_type":"three-arm-trial","trial_index":92,"time_elapsed":661270,"internal_node_id":"0.0-77.0-0.0","task_version":"screening-mturk","missing":false,"accuracy":1},{"contexts":["green","red","blue"],"outcomes":[0,1,0],"key":38,"choice":1,"rt":324.4049996137619,"outcome":1,"trial":72,"correct":1,"trial_type":"three-arm-trial","trial_index":93,"time_elapsed":662797,"internal_node_id":"0.0-78.0-0.0","task_version":"screening-mturk","missing":false,"accuracy":1},{"contexts":["green","red","blue"],"outcomes":[1,1,1],"key":38,"choice":1,"rt":174.085000064224,"outcome":1,"trial":73,"correct":1,"trial_type":"three-arm-trial","trial_index":94,"time_elapsed":664174,"internal_node_id":"0.0-79.0-0.0","task_version":"screening-mturk","missing":false,"accuracy":1},{"contexts":["green","red","blue"],"outcomes":[0,1,0],"key":38,"choice":1,"rt":206.93500014021993,"outcome":1,"trial":74,"correct":1,"trial_type":"three-arm-trial","trial_index":95,"time_elapsed":665589,"internal_node_id":"0.0-80.0-0.0","task_version":"screening-mturk","missing":false,"accuracy":1},{"contexts":["green","red","blue"],"outcomes":[0,0,0],"key":38,"choice":1,"rt":125.08000014349818,"outcome":0,"trial":75,"correct":1,"trial_type":"three-arm-trial","trial_index":96,"time_elapsed":666917,"internal_node_id":"0.0-81.0-0.0","task_version":"screening-mturk","missing":false,"accuracy":1},{"contexts":["green","red","blue"],"outcomes":[1,0,0],"key":37,"choice":0,"rt":292.0949999243021,"outcome":1,"trial":76,"correct":0,"trial_type":"three-arm-trial","trial_index":97,"time_elapsed":668411,"internal_node_id":"0.0-82.0-0.0","task_version":"screening-mturk","missing":false,"accuracy":1},{"contexts":["green","red","blue"],"outcomes":[1,0,0],"key":37,"choice":0,"rt":169.12500001490116,"outcome":1,"trial":77,"correct":0,"trial_type":"three-arm-trial","trial_index":98,"time_elapsed":669783,"internal_node_id":"0.0-83.0-0.0","task_version":"screening-mturk","missing":false,"accuracy":1},{"contexts":["green","red","blue"],"outcomes":[1,0,1],"key":37,"choice":0,"rt":214.98499996960163,"outcome":1,"trial":78,"correct":0,"trial_type":"three-arm-trial","trial_index":99,"time_elapsed":671202,"internal_node_id":"0.0-84.0-0.0","task_version":"screening-mturk","missing":false,"accuracy":1},{"contexts":["green","red","blue"],"outcomes":[1,0,0],"key":39,"choice":2,"rt":104.35000015422702,"outcome":0,"trial":79,"correct":0,"trial_type":"three-arm-trial","trial_index":100,"time_elapsed":672511,"internal_node_id":"0.0-85.0-0.0","task_version":"screening-mturk","missing":false,"accuracy":0},{"contexts":["green","red","blue"],"outcomes":[0,0,0],"key":39,"choice":2,"rt":190.9099998883903,"outcome":0,"trial":80,"correct":0,"trial_type":"three-arm-trial","trial_index":101,"time_elapsed":673907,"internal_node_id":"0.0-86.0-0.0","task_version":"screening-mturk","missing":false,"accuracy":0},{"contexts":["green","red","blue"],"outcomes":[1,0,0],"key":37,"choice":0,"rt":7.710000034421682,"outcome":1,"trial":81,"correct":0,"trial_type":"three-arm-trial","trial_index":102,"time_elapsed":675117,"internal_node_id":"0.0-87.0-0.0","task_version":"screening-mturk","missing":false,"accuracy":1},{"contexts":["green","red","blue"],"outcomes":[1,1,0],"key":38,"choice":1,"rt":170.57000007480383,"outcome":1,"trial":82,"correct":0,"trial_type":"three-arm-trial","trial_index":103,"time_elapsed":676490,"internal_node_id":"0.0-88.0-0.0","task_version":"screening-mturk","missing":false,"accuracy":0},{"contexts":["green","red","blue"],"outcomes":[1,0,0],"key":38,"choice":1,"rt":261.2299998290837,"outcome":0,"trial":83,"correct":0,"trial_type":"three-arm-trial","trial_index":104,"time_elapsed":677953,"internal_node_id":"0.0-89.0-0.0","task_version":"screening-mturk","missing":false,"accuracy":0},{"contexts":["green","red","blue"],"outcomes":[0,0,1],"key":38,"choice":1,"rt":27.87500014528632,"outcome":0,"trial":84,"correct":0,"trial_type":"three-arm-trial","trial_index":105,"time_elapsed":679183,"internal_node_id":"0.0-90.0-0.0","task_version":"screening-mturk","missing":false,"accuracy":0},{"contexts":["green","red","blue"],"outcomes":[1,0,0],"key":38,"choice":1,"rt":268.974999897182,"outcome":0,"trial":85,"correct":0,"trial_type":"three-arm-trial","trial_index":106,"time_elapsed":680656,"internal_node_id":"0.0-91.0-0.0","task_version":"screening-mturk","missing":false,"accuracy":0},{"contexts":["green","red","blue"],"outcomes":[1,1,1],"key":39,"choice":2,"rt":1119.8249999433756,"outcome":1,"trial":86,"correct":0,"trial_type":"three-arm-trial","trial_index":107,"time_elapsed":682978,"internal_node_id":"0.0-92.0-0.0","task_version":"screening-mturk","missing":false,"accuracy":0},{"contexts":["green","red","blue"],"outcomes":[1,0,0],"key":39,"choice":2,"rt":2028.0650001950562,"outcome":0,"trial":87,"correct":0,"trial_type":"three-arm-trial","trial_index":108,"time_elapsed":686208,"internal_node_id":"0.0-93.0-0.0","task_version":"screening-mturk","missing":false,"accuracy":0},{"contexts":["green","red","blue"],"outcomes":[1,0,1],"key":39,"choice":2,"rt":692.8699999116361,"outcome":1,"trial":88,"correct":0,"trial_type":"three-arm-trial","trial_index":109,"time_elapsed":688116,"internal_node_id":"0.0-94.0-0.0","task_version":"screening-mturk","missing":false,"accuracy":0},{"contexts":["green","red","blue"],"outcomes":[1,0,0],"key":39,"choice":2,"rt":36.625000182539225,"outcome":0,"trial":89,"correct":0,"trial_type":"three-arm-trial","trial_index":110,"time_elapsed":689359,"internal_node_id":"0.0-95.0-0.0","task_version":"screening-mturk","missing":false,"accuracy":0},{"contexts":["green","red","blue"],"outcomes":[1,0,1],"key":39,"choice":2,"rt":35.76500015333295,"outcome":1,"trial":90,"correct":0,"trial_type":"three-arm-trial","trial_index":111,"time_elapsed":690601,"internal_node_id":"0.0-96.0-0.0","task_version":"screening-mturk","missing":false,"accuracy":0},{"rt":82214.49499996379,"responses":{"age":"30","gender-categorical":"Male","gender-free-response":"","ethnicity":"Not Hispanic or Latino","race":["White"],"language":"Yes","fluency":"Very well","prolific":"No","prolific-this-study":"No"},"survey":"demographics","trial_type":"survey-demo","trial_index":112,"time_elapsed":772830,"internal_node_id":"0.0-97.0","task_version":"screening-mturk","interactions":"[{\"event\":\"blur\",\"trial\":8,\"time\":290001},{\"event\":\"focus\",\"trial\":8,\"time\":295011},{\"event\":\"blur\",\"trial\":9,\"time\":414705},{\"event\":\"focus\",\"trial\":9,\"time\":415728},{\"event\":\"blur\",\"trial\":22,\"time\":528572},{\"event\":\"focus\",\"trial\":22,\"time\":530440}]"}]