[{"responses":{"Q03":"2","Q10":"3","Q09":"2","Q12":"2","Q04":"0","Q08":"2","Q07":"3","Q06":"3","Q01":"2","Q05":"3","Q13":"1","Q11":"2","Q02":"3"},"rt":48755.694999941625,"survey":"bisbas","trial_type":"survey-template","trial_index":0,"time_elapsed":48772,"internal_node_id":"0.0-0.0","task_version":"screening-mturk"},{"responses":{"Q01":"3","Q02":"4","Q03":"2"},"rt":64493.16000007093,"survey":"pswq","trial_type":"survey-template","trial_index":1,"time_elapsed":113268,"internal_node_id":"0.0-1.0","task_version":"screening-mturk"},{"responses":{"Q01":"2","Q02":"2","Q08":"3","Q06":"1","Q07":"2","Q03":"3","Q04":"0","Q05":"2"},"rt":13178.245000075549,"survey":"gad7","trial_type":"survey-template","trial_index":2,"time_elapsed":126450,"internal_node_id":"0.0-2.0","task_version":"screening-mturk"},{"responses":{"Q11":"2","Q02":"3","Q04":"2","Q09":"1","Q07":"2","Q03":"3","Q13":"3","Q15":"2","Q10":"2","Q05":"3","Q08":"2","Q06":"1","Q01":"3","Q14":"2","Q12":"2"},"rt":23257.510000024922,"survey":"7up7down","trial_type":"survey-template","trial_index":3,"time_elapsed":149711,"internal_node_id":"0.0-3.0","task_version":"screening-mturk"},{"responses":{"Q07":"2","Q10":"3","Q06":"3","Q04":"2","Q11":"3","Q14":"0","Q02":"2","Q05":"3","Q01":"3","Q15":"3","Q13":"1","Q08":"2","Q12":"3","Q03":"2","Q09":"3"},"rt":21505.899999989197,"survey":"shaps","trial_type":"survey-template","trial_index":4,"time_elapsed":171220,"internal_node_id":"0.0-4.0","task_version":"screening-mturk"},{"view_history":"[{\"page_index\":0,\"viewing_time\":39996.02500000037},{\"page_index\":1,\"viewing_time\":1849.2800000822172},{\"page_index\":2,\"viewing_time\":8909.864999935962},{\"page_index\":3,\"viewing_time\":3079.8600000562146},{\"page_index\":4,\"viewing_time\":2109.9249999970198},{\"page_index\":5,\"viewing_time\":2240.334999980405},{\"page_index\":6,\"viewing_time\":1849.6499999891967},{\"page_index\":7,\"viewing_time\":1259.9250000203028}]","rt":61295.76000000816,"trial_type":"instructions","trial_index":5,"time_elapsed":232519,"internal_node_id":"0.0-5.0-0.0","task_version":"screening-mturk"},{"responses":["True","True","False","True","True"],"num_errors":1,"rt":9418.210000032559,"trial_type":"three-arm-comprehension","trial_index":6,"time_elapsed":241941,"internal_node_id":"0.0-5.0-1.0","task_version":"screening-mturk"},{"view_history":"[{\"page_index\":0,\"viewing_time\":3351.550000021234},{\"page_index\":1,\"viewing_time\":1230.174999916926},{\"page_index\":2,\"viewing_time\":1869.8750000912696},{\"page_index\":3,\"viewing_time\":2779.8799999291077},{\"page_index\":4,\"viewing_time\":1490.0050000287592},{\"page_index\":5,\"viewing_time\":829.9600000027567},{\"page_index\":6,\"viewing_time\":840.1099999900907},{\"page_index\":7,\"viewing_time\":879.8149999929592}]","rt":13271.805000025779,"trial_type":"instructions","trial_index":7,"time_elapsed":255219,"internal_node_id":"0.0-5.1-0.1","task_version":"screening-mturk"},{"responses":["True","True","True","True","True"],"num_errors":2,"rt":14654.139999998733,"trial_type":"three-arm-comprehension","trial_index":8,"time_elapsed":269874,"internal_node_id":"0.0-5.1-1.1","task_version":"screening-mturk"},{"view_history":"[{\"page_index\":0,\"viewing_time\":2110.9599999617785},{\"page_index\":1,\"viewing_time\":870.0950000202283},{\"page_index\":2,\"viewing_time\":9129.94500005152},{\"page_index\":3,\"viewing_time\":4640.78499993775},{\"page_index\":4,\"viewing_time\":3588.950000004843},{\"page_index\":5,\"viewing_time\":1150.4150000400841},{\"page_index\":6,\"viewing_time\":2009.6899999771267},{\"page_index\":7,\"viewing_time\":1159.9200000055134}]","rt":24661.15499997977,"trial_type":"instructions","trial_index":9,"time_elapsed":294538,"internal_node_id":"0.0-5.2-0.2","task_version":"screening-mturk"},{"responses":["True","True","True","False","True"],"num_errors":1,"rt":28698.57000000775,"trial_type":"three-arm-comprehension","trial_index":10,"time_elapsed":323238,"internal_node_id":"0.0-5.2-1.2","task_version":"screening-mturk"},{"view_history":"[{\"page_index\":0,\"viewing_time\":11446.620000060648},{\"page_index\":1,\"viewing_time\":2860.1550000021234},{\"page_index\":2,\"viewing_time\":4240.479999920353},{\"page_index\":1,\"viewing_time\":509.3549999874085},{\"page_index\":2,\"viewing_time\":1220.0200000079349},{\"page_index\":3,\"viewing_time\":1289.7200000006706},{\"page_index\":4,\"viewing_time\":1100.2800000132993},{\"page_index\":5,\"viewing_time\":729.8400000436231},{\"page_index\":6,\"viewing_time\":1869.9900000356138},{\"page_index\":7,\"viewing_time\":749.7849999926984}]","rt":26016.554999980144,"trial_type":"instructions","trial_index":11,"time_elapsed":349257,"internal_node_id":"0.0-5.3-0.3","task_version":"screening-mturk"},{"responses":["False","False","False","False","False"],"num_errors":3,"rt":9238.889999920502,"trial_type":"three-arm-comprehension","trial_index":12,"time_elapsed":358499,"internal_node_id":"0.0-5.3-1.3","task_version":"screening-mturk"},{"view_history":"[{\"page_index\":0,\"viewing_time\":1875.9899999713525},{\"page_index\":1,\"viewing_time\":159.92000000551343},{\"page_index\":2,\"viewing_time\":530.2450000308454},{\"page_index\":3,\"viewing_time\":1130.4500000551343},{\"page_index\":4,\"viewing_time\":329.88999993540347},{\"page_index\":5,\"viewing_time\":184.25499997101724},{\"page_index\":6,\"viewing_time\":785.2600000333041},{\"page_index\":7,\"viewing_time\":1300.2049999777228}]","rt":6296.770000015385,"trial_type":"instructions","trial_index":13,"time_elapsed":364798,"internal_node_id":"0.0-5.4-0.4","task_version":"screening-mturk"},{"responses":["True","True","True","False","True"],"num_errors":1,"rt":8028.4499999834225,"trial_type":"three-arm-comprehension","trial_index":14,"time_elapsed":372829,"internal_node_id":"0.0-5.4-1.4","task_version":"screening-mturk"},{"view_history":"[{\"page_index\":0,\"viewing_time\":1435.440000030212},{\"page_index\":1,\"viewing_time\":769.8399999644607},{\"page_index\":2,\"viewing_time\":1400.1249999273568},{\"page_index\":3,\"viewing_time\":960.1300000213087},{\"page_index\":4,\"viewing_time\":820.0000000651926},{\"page_index\":5,\"viewing_time\":439.65999991633},{\"page_index\":6,\"viewing_time\":731.3000001013279},{\"page_index\":7,\"viewing_time\":938.8099999632686}]","rt":7495.809999993071,"trial_type":"instructions","trial_index":15,"time_elapsed":380327,"internal_node_id":"0.0-5.5-0.5","task_version":"screening-mturk"},{"responses":["True","False","True","True","False"],"num_errors":4,"rt":6368.865000084043,"trial_type":"three-arm-comprehension","trial_index":16,"time_elapsed":386698,"internal_node_id":"0.0-5.5-1.5","task_version":"screening-mturk"},{"view_history":"[{\"page_index\":0,\"viewing_time\":1425.93999998644},{\"page_index\":1,\"viewing_time\":560.0700000068173},{\"page_index\":2,\"viewing_time\":355.2149999886751},{\"page_index\":3,\"viewing_time\":764.5849999971688},{\"page_index\":4,\"viewing_time\":810.204999987036},{\"page_index\":5,\"viewing_time\":360.17500003799796},{\"page_index\":6,\"viewing_time\":589.5950000267476},{\"page_index\":7,\"viewing_time\":840.4149999842048}]","rt":5706.594999996014,"trial_type":"instructions","trial_index":17,"time_elapsed":392408,"internal_node_id":"0.0-5.6-0.6","task_version":"screening-mturk"},{"responses":["False","False","False","False","False"],"num_errors":3,"rt":8488.595000002533,"trial_type":"three-arm-comprehension","trial_index":18,"time_elapsed":400900,"internal_node_id":"0.0-5.6-1.6","task_version":"screening-mturk"},{"view_history":"[{\"page_index\":0,\"viewing_time\":29016.33499993477},{\"page_index\":1,\"viewing_time\":3039.865000057034},{\"page_index\":2,\"viewing_time\":4449.834999977611},{\"page_index\":1,\"viewing_time\":959.7650000359863},{\"page_index\":0,\"viewing_time\":1431.0599999735132},{\"page_index\":1,\"viewing_time\":639.1349999466911},{\"page_index\":2,\"viewing_time\":489.8100000573322},{\"page_index\":3,\"viewing_time\":7490.149999968708},{\"page_index\":4,\"viewing_time\":1749.7600000351667},{\"page_index\":5,\"viewing_time\":1100.9299999568611},{\"page_index\":6,\"viewing_time\":1044.164999970235},{\"page_index\":7,\"viewing_time\":965.595000074245}]","rt":52376.67499994859,"trial_type":"instructions","trial_index":19,"time_elapsed":453279,"internal_node_id":"0.0-5.7-0.7","task_version":"screening-mturk"},{"responses":["False","True","True","True","True"],"num_errors":3,"rt":16149.21000006143,"trial_type":"three-arm-comprehension","trial_index":20,"time_elapsed":469430,"internal_node_id":"0.0-5.7-1.7","task_version":"screening-mturk"},{"view_history":"[{\"page_index\":0,\"viewing_time\":2055.3000000072643},{\"page_index\":1,\"viewing_time\":789.9949999991804},{\"page_index\":2,\"viewing_time\":460.1249999832362},{\"page_index\":3,\"viewing_time\":450.1049999380484},{\"page_index\":4,\"viewing_time\":669.8800000594929},{\"page_index\":5,\"viewing_time\":799.8599999118596},{\"page_index\":6,\"viewing_time\":770.1550000347197},{\"page_index\":7,\"viewing_time\":680.2900000475347}]","rt":6676.164999953471,"trial_type":"instructions","trial_index":21,"time_elapsed":476109,"internal_node_id":"0.0-5.8-0.8","task_version":"screening-mturk"},{"responses":["True","True","True","True","False"],"num_errors":3,"rt":9858.509999932721,"trial_type":"three-arm-comprehension","trial_index":22,"time_elapsed":485969,"internal_node_id":"0.0-5.8-1.8","task_version":"screening-mturk"},{"view_history":"[{\"page_index\":0,\"viewing_time\":1481.2499999534339},{\"page_index\":1,\"viewing_time\":145.20000002812594},{\"page_index\":2,\"viewing_time\":169.13499997463077},{\"page_index\":3,\"viewing_time\":180.64499995671213},{\"page_index\":4,\"viewing_time\":199.86500008963048},{\"page_index\":5,\"viewing_time\":199.97499999590218},{\"page_index\":6,\"viewing_time\":569.53999993857},{\"page_index\":7,\"viewing_time\":210.33000003080815}]","rt":3156.3299999106675,"trial_type":"instructions","trial_index":23,"time_elapsed":489128,"internal_node_id":"0.0-5.9-0.9","task_version":"screening-mturk"},{"responses":["True","True","True","False","False"],"num_errors":2,"rt":8708.785000024363,"trial_type":"three-arm-comprehension","trial_index":24,"time_elapsed":497839,"internal_node_id":"0.0-5.9-1.9","task_version":"screening-mturk"},{"view_history":"[{\"page_index\":0,\"viewing_time\":1226.3299999758601},{\"page_index\":1,\"viewing_time\":159.51000002678484},{\"page_index\":2,\"viewing_time\":280.43499996419996},{\"page_index\":3,\"viewing_time\":159.6150000113994},{\"page_index\":4,\"viewing_time\":169.95999997016042},{\"page_index\":5,\"viewing_time\":150.2549999859184},{\"page_index\":6,\"viewing_time\":197.61999999172986},{\"page_index\":7,\"viewing_time\":482.41000005509704}]","rt":2826.539999921806,"trial_type":"instructions","trial_index":25,"time_elapsed":500668,"internal_node_id":"0.0-5.10-0.10","task_version":"screening-mturk"},{"responses":["True","True","False","False","False"],"num_errors":1,"rt":7158.784999977797,"trial_type":"three-arm-comprehension","trial_index":26,"time_elapsed":507829,"internal_node_id":"0.0-5.10-1.10","task_version":"screening-mturk"},{"view_history":"[{\"page_index\":0,\"viewing_time\":1281.0100000351667},{\"page_index\":1,\"viewing_time\":574.8599999351427},{\"page_index\":2,\"viewing_time\":180.919999955222},{\"page_index\":3,\"viewing_time\":139.48000001255423},{\"page_index\":4,\"viewing_time\":500.54000003729016},{\"page_index\":5,\"viewing_time\":429.6549999853596},{\"page_index\":6,\"viewing_time\":749.3099999846891},{\"page_index\":7,\"viewing_time\":813.3650000672787}]","rt":4669.540000031702,"trial_type":"instructions","trial_index":27,"time_elapsed":512501,"internal_node_id":"0.0-5.11-0.11","task_version":"screening-mturk"},{"responses":["True","False","False","False","False"],"num_errors":2,"rt":8880.624999990687,"trial_type":"three-arm-comprehension","trial_index":28,"time_elapsed":521385,"internal_node_id":"0.0-5.11-1.11","task_version":"screening-mturk"},{"view_history":"[{\"page_index\":0,\"viewing_time\":1511.4300000714138},{\"page_index\":1,\"viewing_time\":625.0249999575317},{\"page_index\":2,\"viewing_time\":199.53500002156943},{\"page_index\":3,\"viewing_time\":205.1600000122562},{\"page_index\":4,\"viewing_time\":230.06999993231148},{\"page_index\":5,\"viewing_time\":180.16000010538846},{\"page_index\":6,\"viewing_time\":530.1749999634922},{\"page_index\":7,\"viewing_time\":739.8699999321252}]","rt":4221.83000005316,"trial_type":"instructions","trial_index":29,"time_elapsed":525609,"internal_node_id":"0.0-5.12-0.12","task_version":"screening-mturk"},{"responses":["False","True","True","True","True"],"num_errors":3,"rt":7838.70000008028,"trial_type":"three-arm-comprehension","trial_index":30,"time_elapsed":533450,"internal_node_id":"0.0-5.12-1.12","task_version":"screening-mturk"},{"view_history":"[{\"page_index\":0,\"viewing_time\":1416.759999934584},{\"page_index\":1,\"viewing_time\":209.48499999940395},{\"page_index\":2,\"viewing_time\":139.945000060834},{\"page_index\":3,\"viewing_time\":175.13499991036952},{\"page_index\":4,\"viewing_time\":155.16500000376254},{\"page_index\":5,\"viewing_time\":319.9950000271201},{\"page_index\":6,\"viewing_time\":430.0800000783056},{\"page_index\":7,\"viewing_time\":179.7549999319017}]","rt":3026.6500000143424,"trial_type":"instructions","trial_index":31,"time_elapsed":536478,"internal_node_id":"0.0-5.13-0.13","task_version":"screening-mturk"},{"responses":["False","False","True","True","True"],"num_errors":4,"rt":7828.789999941364,"trial_type":"three-arm-comprehension","trial_index":32,"time_elapsed":544310,"internal_node_id":"0.0-5.13-1.13","task_version":"screening-mturk"},{"view_history":"[{\"page_index\":0,\"viewing_time\":1336.98500005994},{\"page_index\":1,\"viewing_time\":179.22499997075647},{\"page_index\":2,\"viewing_time\":149.45500006433576},{\"page_index\":3,\"viewing_time\":150.26999998372048},{\"page_index\":4,\"viewing_time\":160.0349999498576},{\"page_index\":5,\"viewing_time\":185.52000005729496},{\"page_index\":6,\"viewing_time\":304.2699999641627},{\"page_index\":7,\"viewing_time\":150.3700000466779}]","rt":2616.6350001003593,"trial_type":"instructions","trial_index":33,"time_elapsed":546929,"internal_node_id":"0.0-5.14-0.14","task_version":"screening-mturk"},{"responses":["False","False","False","False","True"],"num_errors":2,"rt":11043.324999976903,"trial_type":"three-arm-comprehension","trial_index":34,"time_elapsed":557975,"internal_node_id":"0.0-5.14-1.14","task_version":"screening-mturk"},{"view_history":"[{\"page_index\":0,\"viewing_time\":1270.6950000720099},{\"page_index\":1,\"viewing_time\":160.78499995637685},{\"page_index\":2,\"viewing_time\":164.25000003073364},{\"page_index\":3,\"viewing_time\":175.38999998942018},{\"page_index\":4,\"viewing_time\":169.5550000295043},{\"page_index\":5,\"viewing_time\":159.99499999452382},{\"page_index\":6,\"viewing_time\":171.01499997079372},{\"page_index\":7,\"viewing_time\":159.48000003118068}]","rt":2431.55000009574,"trial_type":"instructions","trial_index":35,"time_elapsed":560409,"internal_node_id":"0.0-5.15-0.15","task_version":"screening-mturk"},{"responses":["True","False","True","False","True"],"num_errors":2,"rt":9148.040000000037,"trial_type":"three-arm-comprehension","trial_index":36,"time_elapsed":569559,"internal_node_id":"0.0-5.15-1.15","task_version":"screening-mturk"},{"view_history":"[{\"page_index\":0,\"viewing_time\":1316.20500003919},{\"page_index\":1,\"viewing_time\":150.30999993905425},{\"page_index\":2,\"viewing_time\":169.60999998264015},{\"page_index\":3,\"viewing_time\":160.3350000223145},{\"page_index\":4,\"viewing_time\":169.68499997165054},{\"page_index\":5,\"viewing_time\":160.49000003840774},{\"page_index\":6,\"viewing_time\":159.70499999821186},{\"page_index\":7,\"viewing_time\":170.59999995399266}]","rt":2457.2400000179186,"trial_type":"instructions","trial_index":37,"time_elapsed":572019,"internal_node_id":"0.0-5.16-0.16","task_version":"screening-mturk"},{"responses":["False","True","False","True","False"],"num_errors":3,"rt":7378.23999999091,"trial_type":"three-arm-comprehension","trial_index":38,"time_elapsed":579400,"internal_node_id":"0.0-5.16-1.16","task_version":"screening-mturk"},{"view_history":"[{\"page_index\":0,\"viewing_time\":1235.4949999134988},{\"page_index\":1,\"viewing_time\":480.2700000582263},{\"page_index\":2,\"viewing_time\":129.93499997537583},{\"page_index\":3,\"viewing_time\":310.18499995116144},{\"page_index\":4,\"viewing_time\":330.59000002685934},{\"page_index\":5,\"viewing_time\":169.30000006686896},{\"page_index\":6,\"viewing_time\":169.93999993428588},{\"page_index\":7,\"viewing_time\":180.23499997798353}]","rt":3006.254999898374,"trial_type":"instructions","trial_index":39,"time_elapsed":582409,"internal_node_id":"0.0-5.17-0.17","task_version":"screening-mturk"},{"responses":["False","False","True","False","False"],"num_errors":4,"rt":18338.540000026114,"trial_type":"three-arm-comprehension","trial_index":40,"time_elapsed":600749,"internal_node_id":"0.0-5.17-1.17","task_version":"screening-mturk"},{"view_history":"[{\"page_index\":0,\"viewing_time\":1166.1600000225008},{\"page_index\":1,\"viewing_time\":195.30999998096377},{\"page_index\":2,\"viewing_time\":164.42499996628612},{\"page_index\":3,\"viewing_time\":160.3950000135228},{\"page_index\":4,\"viewing_time\":139.9799999780953},{\"page_index\":5,\"viewing_time\":189.67500003054738},{\"page_index\":6,\"viewing_time\":190.03000005614012},{\"page_index\":7,\"viewing_time\":195.21499995607883}]","rt":2401.5150000341237,"trial_type":"instructions","trial_index":41,"time_elapsed":603154,"internal_node_id":"0.0-5.18-0.18","task_version":"screening-mturk"},{"responses":["True","False","False","False","True"],"num_errors":1,"rt":11893.565000034869,"trial_type":"three-arm-comprehension","trial_index":42,"time_elapsed":615049,"internal_node_id":"0.0-5.18-1.18","task_version":"screening-mturk"},{"view_history":"[{\"page_index\":0,\"viewing_time\":31325.9750000434},{\"page_index\":1,\"viewing_time\":210.0499999942258},{\"page_index\":2,\"viewing_time\":150.2049999544397},{\"page_index\":3,\"viewing_time\":149.56499997060746},{\"page_index\":4,\"viewing_time\":129.99500008299947},{\"page_index\":5,\"viewing_time\":140.04999992903322},{\"page_index\":6,\"viewing_time\":140.13499999418855},{\"page_index\":7,\"viewing_time\":859.9849999882281}]","rt":33106.254999991506,"trial_type":"instructions","trial_index":43,"time_elapsed":648158,"internal_node_id":"0.0-5.19-0.19","task_version":"screening-mturk"},{"responses":["True","True","False","False","True"],"num_errors":0,"rt":28639.395000063814,"trial_type":"three-arm-comprehension","trial_index":44,"time_elapsed":676800,"internal_node_id":"0.0-5.19-1.19","task_version":"screening-mturk"},{"view_history":"[{\"page_index\":0,\"viewing_time\":2124.8149999883026}]","rt":2125.110000022687,"trial_type":"instructions","trial_index":45,"time_elapsed":678928,"internal_node_id":"0.0-6.0","task_version":"screening-mturk"},{"contexts":["red","blue","green"],"outcomes":[1,0,1],"key":38,"choice":1,"rt":4742.435000021942,"outcome":0,"trial":1,"correct":0,"trial_type":"three-arm-trial","trial_index":46,"time_elapsed":684875,"internal_node_id":"0.0-7.0-0.0","task_version":"screening-mturk","missing":false,"accuracy":0},{"contexts":["red","blue","green"],"outcomes":[1,0,0],"key":38,"choice":1,"rt":3831.114999949932,"outcome":0,"trial":2,"correct":0,"trial_type":"three-arm-trial","trial_index":47,"time_elapsed":689910,"internal_node_id":"0.0-8.0-0.0","task_version":"screening-mturk","missing":false,"accuracy":0},{"contexts":["red","blue","green"],"outcomes":[1,0,0],"key":38,"choice":1,"rt":1212.7699999837205,"outcome":0,"trial":3,"correct":0,"trial_type":"three-arm-trial","trial_index":48,"time_elapsed":692326,"internal_node_id":"0.0-9.0-0.0","task_version":"screening-mturk","missing":false,"accuracy":0},{"contexts":["red","blue","green"],"outcomes":[1,0,1],"key":38,"choice":1,"rt":761.4850000245497,"outcome":0,"trial":4,"correct":0,"trial_type":"three-arm-trial","trial_index":49,"time_elapsed":694290,"internal_node_id":"0.0-10.0-0.0","task_version":"screening-mturk","missing":false,"accuracy":0},{"contexts":["red","blue","green"],"outcomes":[1,0,0],"key":38,"choice":1,"rt":365.74499995913357,"outcome":0,"trial":5,"correct":0,"trial_type":"three-arm-trial","trial_index":50,"time_elapsed":695860,"internal_node_id":"0.0-11.0-0.0","task_version":"screening-mturk","missing":false,"accuracy":0},{"contexts":["red","blue","green"],"outcomes":[1,0,1],"key":38,"choice":1,"rt":81.499999971129,"outcome":0,"trial":6,"correct":0,"trial_type":"three-arm-trial","trial_index":51,"time_elapsed":697149,"internal_node_id":"0.0-12.0-0.0","task_version":"screening-mturk","missing":false,"accuracy":0},{"contexts":["red","blue","green"],"outcomes":[1,0,0],"key":38,"choice":1,"rt":3.4049999667331576,"outcome":0,"trial":7,"correct":0,"trial_type":"three-arm-trial","trial_index":52,"time_elapsed":698357,"internal_node_id":"0.0-13.0-0.0","task_version":"screening-mturk","missing":false,"accuracy":0},{"contexts":["red","blue","green"],"outcomes":[1,0,1],"key":38,"choice":1,"rt":149.42999999038875,"outcome":0,"trial":8,"correct":0,"trial_type":"three-arm-trial","trial_index":53,"time_elapsed":699710,"internal_node_id":"0.0-14.0-0.0","task_version":"screening-mturk","missing":false,"accuracy":0},{"contexts":["red","blue","green"],"outcomes":[1,0,0],"key":38,"choice":1,"rt":61.01499998476356,"outcome":0,"trial":9,"correct":0,"trial_type":"three-arm-trial","trial_index":54,"time_elapsed":700973,"internal_node_id":"0.0-15.0-0.0","task_version":"screening-mturk","missing":false,"accuracy":0},{"contexts":["red","blue","green"],"outcomes":[1,0,0],"key":38,"choice":1,"rt":102.90000005625188,"outcome":0,"trial":10,"correct":0,"trial_type":"three-arm-trial","trial_index":55,"time_elapsed":702278,"internal_node_id":"0.0-16.0-0.0","task_version":"screening-mturk","missing":false,"accuracy":0},{"contexts":["red","blue","green"],"outcomes":[1,0,0],"key":38,"choice":1,"rt":142.76499999687076,"outcome":0,"trial":11,"correct":0,"trial_type":"three-arm-trial","trial_index":56,"time_elapsed":703624,"internal_node_id":"0.0-17.0-0.0","task_version":"screening-mturk","missing":false,"accuracy":0},{"contexts":["red","blue","green"],"outcomes":[1,1,0],"key":38,"choice":1,"rt":142.4750000005588,"outcome":1,"trial":12,"correct":0,"trial_type":"three-arm-trial","trial_index":57,"time_elapsed":704969,"internal_node_id":"0.0-18.0-0.0","task_version":"screening-mturk","missing":false,"accuracy":0},{"contexts":["red","blue","green"],"outcomes":[0,0,1],"key":38,"choice":1,"rt":116.99499993119389,"outcome":0,"trial":13,"correct":0,"trial_type":"three-arm-trial","trial_index":58,"time_elapsed":706290,"internal_node_id":"0.0-19.0-0.0","task_version":"screening-mturk","missing":false,"accuracy":0},{"contexts":["red","blue","green"],"outcomes":[1,0,1],"key":38,"choice":1,"rt":1.4799999771639705,"outcome":0,"trial":14,"correct":0,"trial_type":"three-arm-trial","trial_index":59,"time_elapsed":707495,"internal_node_id":"0.0-20.0-0.0","task_version":"screening-mturk","missing":false,"accuracy":0},{"contexts":["red","blue","green"],"outcomes":[1,0,0],"key":38,"choice":1,"rt":771.40500000678,"outcome":0,"trial":15,"correct":0,"trial_type":"three-arm-trial","trial_index":60,"time_elapsed":709468,"internal_node_id":"0.0-21.0-0.0","task_version":"screening-mturk","missing":false,"accuracy":0},{"contexts":["red","blue","green"],"outcomes":[0,0,0],"key":38,"choice":1,"rt":127.88499996531755,"outcome":0,"trial":16,"correct":2,"trial_type":"three-arm-trial","trial_index":61,"time_elapsed":710800,"internal_node_id":"0.0-22.0-0.0","task_version":"screening-mturk","missing":false,"accuracy":0},{"contexts":["red","blue","green"],"outcomes":[0,0,0],"key":38,"choice":1,"rt":166.26000008545816,"outcome":0,"trial":17,"correct":2,"trial_type":"three-arm-trial","trial_index":62,"time_elapsed":712171,"internal_node_id":"0.0-23.0-0.0","task_version":"screening-mturk","missing":false,"accuracy":0},{"contexts":["red","blue","green"],"outcomes":[0,0,1],"key":38,"choice":1,"rt":0.484999967738986,"outcome":0,"trial":18,"correct":2,"trial_type":"three-arm-trial","trial_index":63,"time_elapsed":713376,"internal_node_id":"0.0-24.0-0.0","task_version":"screening-mturk","missing":false,"accuracy":0},{"contexts":["red","blue","green"],"outcomes":[0,0,0],"key":38,"choice":1,"rt":629.564999951981,"outcome":0,"trial":19,"correct":2,"trial_type":"three-arm-trial","trial_index":64,"time_elapsed":715209,"internal_node_id":"0.0-25.0-0.0","task_version":"screening-mturk","missing":false,"accuracy":0},{"contexts":["red","blue","green"],"outcomes":[0,0,1],"key":38,"choice":1,"rt":57.85500002093613,"outcome":0,"trial":20,"correct":2,"trial_type":"three-arm-trial","trial_index":65,"time_elapsed":716470,"internal_node_id":"0.0-26.0-0.0","task_version":"screening-mturk","missing":false,"accuracy":0},{"contexts":["red","blue","green"],"outcomes":[1,0,1],"key":38,"choice":1,"rt":76.18000009097159,"outcome":0,"trial":21,"correct":2,"trial_type":"three-arm-trial","trial_index":66,"time_elapsed":717752,"internal_node_id":"0.0-27.0-0.0","task_version":"screening-mturk","missing":false,"accuracy":0},{"contexts":["red","blue","green"],"outcomes":[0,0,1],"key":38,"choice":1,"rt":73.51000001654029,"outcome":0,"trial":22,"correct":2,"trial_type":"three-arm-trial","trial_index":67,"time_elapsed":719028,"internal_node_id":"0.0-28.0-0.0","task_version":"screening-mturk","missing":false,"accuracy":0},{"contexts":["red","blue","green"],"outcomes":[0,0,1],"key":38,"choice":1,"rt":187.7600000007078,"outcome":0,"trial":23,"correct":2,"trial_type":"three-arm-trial","trial_index":68,"time_elapsed":720419,"internal_node_id":"0.0-29.0-0.0","task_version":"screening-mturk","missing":false,"accuracy":0},{"contexts":["red","blue","green"],"outcomes":[1,1,1],"key":38,"choice":1,"rt":126.32499996107072,"outcome":1,"trial":24,"correct":2,"trial_type":"three-arm-trial","trial_index":69,"time_elapsed":721749,"internal_node_id":"0.0-30.0-0.0","task_version":"screening-mturk","missing":false,"accuracy":0},{"contexts":["red","blue","green"],"outcomes":[0,0,1],"key":38,"choice":1,"rt":37.690000026486814,"outcome":0,"trial":25,"correct":2,"trial_type":"three-arm-trial","trial_index":70,"time_elapsed":722989,"internal_node_id":"0.0-31.0-0.0","task_version":"screening-mturk","missing":false,"accuracy":0},{"contexts":["red","blue","green"],"outcomes":[0,1,1],"key":38,"choice":1,"rt":7.685000076889992,"outcome":1,"trial":26,"correct":2,"trial_type":"three-arm-trial","trial_index":71,"time_elapsed":724200,"internal_node_id":"0.0-32.0-0.0","task_version":"screening-mturk","missing":false,"accuracy":0},{"contexts":["red","blue","green"],"outcomes":[1,0,0],"key":38,"choice":1,"rt":75.99500007927418,"outcome":0,"trial":27,"correct":2,"trial_type":"three-arm-trial","trial_index":72,"time_elapsed":725478,"internal_node_id":"0.0-33.0-0.0","task_version":"screening-mturk","missing":false,"accuracy":0},{"contexts":["red","blue","green"],"outcomes":[0,0,1],"key":38,"choice":1,"rt":57.46999999973923,"outcome":0,"trial":28,"correct":2,"trial_type":"three-arm-trial","trial_index":73,"time_elapsed":726739,"internal_node_id":"0.0-34.0-0.0","task_version":"screening-mturk","missing":false,"accuracy":0},{"contexts":["red","blue","green"],"outcomes":[0,0,1],"key":38,"choice":1,"rt":31.420000013895333,"outcome":0,"trial":29,"correct":2,"trial_type":"three-arm-trial","trial_index":74,"time_elapsed":727974,"internal_node_id":"0.0-35.0-0.0","task_version":"screening-mturk","missing":false,"accuracy":0},{"contexts":["red","blue","green"],"outcomes":[1,1,0],"key":38,"choice":1,"rt":111.94000008981675,"outcome":1,"trial":30,"correct":2,"trial_type":"three-arm-trial","trial_index":75,"time_elapsed":729289,"internal_node_id":"0.0-36.0-0.0","task_version":"screening-mturk","missing":false,"accuracy":0},{"contexts":["red","blue","green"],"outcomes":[1,1,0],"key":38,"choice":1,"rt":18.350000027567148,"outcome":1,"trial":31,"correct":1,"trial_type":"three-arm-trial","trial_index":76,"time_elapsed":730510,"internal_node_id":"0.0-37.0-0.0","task_version":"screening-mturk","missing":false,"accuracy":1},{"contexts":["red","blue","green"],"outcomes":[1,0,0],"key":38,"choice":1,"rt":722.5750000216067,"outcome":0,"trial":32,"correct":1,"trial_type":"three-arm-trial","trial_index":77,"time_elapsed":732436,"internal_node_id":"0.0-38.0-0.0","task_version":"screening-mturk","missing":false,"accuracy":1},{"contexts":["red","blue","green"],"outcomes":[1,1,0],"key":38,"choice":1,"rt":7890.034999931231,"outcome":1,"trial":33,"correct":1,"trial_type":"three-arm-trial","trial_index":78,"time_elapsed":741530,"internal_node_id":"0.0-39.0-0.0","task_version":"screening-mturk","missing":false,"accuracy":1},{"contexts":["red","blue","green"],"outcomes":[1,1,1],"key":38,"choice":1,"rt":1836.600000038743,"outcome":1,"trial":34,"correct":1,"trial_type":"three-arm-trial","trial_index":79,"time_elapsed":744570,"internal_node_id":"0.0-40.0-0.0","task_version":"screening-mturk","missing":false,"accuracy":1},{"contexts":["red","blue","green"],"outcomes":[1,1,0],"key":38,"choice":1,"rt":845.3899999149144,"outcome":1,"trial":35,"correct":1,"trial_type":"three-arm-trial","trial_index":80,"time_elapsed":746620,"internal_node_id":"0.0-41.0-0.0","task_version":"screening-mturk","missing":false,"accuracy":1},{"contexts":["red","blue","green"],"outcomes":[0,1,0],"key":38,"choice":1,"rt":536.1949999351054,"outcome":1,"trial":36,"correct":1,"trial_type":"three-arm-trial","trial_index":81,"time_elapsed":748360,"internal_node_id":"0.0-42.0-0.0","task_version":"screening-mturk","missing":false,"accuracy":1},{"contexts":["red","blue","green"],"outcomes":[0,0,1],"key":38,"choice":1,"rt":405.5899999802932,"outcome":0,"trial":37,"correct":1,"trial_type":"three-arm-trial","trial_index":82,"time_elapsed":749968,"internal_node_id":"0.0-43.0-0.0","task_version":"screening-mturk","missing":false,"accuracy":1},{"contexts":["red","blue","green"],"outcomes":[0,1,0],"key":38,"choice":1,"rt":458.2099999533966,"outcome":1,"trial":38,"correct":1,"trial_type":"three-arm-trial","trial_index":83,"time_elapsed":751629,"internal_node_id":"0.0-44.0-0.0","task_version":"screening-mturk","missing":false,"accuracy":1},{"contexts":["red","blue","green"],"outcomes":[0,1,0],"key":38,"choice":1,"rt":1061.864999937825,"outcome":1,"trial":39,"correct":1,"trial_type":"three-arm-trial","trial_index":84,"time_elapsed":753894,"internal_node_id":"0.0-45.0-0.0","task_version":"screening-mturk","missing":false,"accuracy":1},{"contexts":["red","blue","green"],"outcomes":[0,1,0],"key":37,"choice":0,"rt":81.57500007655472,"outcome":0,"trial":40,"correct":1,"trial_type":"three-arm-trial","trial_index":85,"time_elapsed":755178,"internal_node_id":"0.0-46.0-0.0","task_version":"screening-mturk","missing":false,"accuracy":0},{"contexts":["red","blue","green"],"outcomes":[0,1,1],"key":39,"choice":2,"rt":368.04500001017004,"outcome":1,"trial":41,"correct":1,"trial_type":"three-arm-trial","trial_index":86,"time_elapsed":756766,"internal_node_id":"0.0-47.0-0.0","task_version":"screening-mturk","missing":false,"accuracy":0},{"contexts":["red","blue","green"],"outcomes":[0,1,0],"key":38,"choice":1,"rt":439.22999990172684,"outcome":1,"trial":42,"correct":1,"trial_type":"three-arm-trial","trial_index":87,"time_elapsed":758409,"internal_node_id":"0.0-48.0-0.0","task_version":"screening-mturk","missing":false,"accuracy":1},{"contexts":["red","blue","green"],"outcomes":[1,1,0],"key":37,"choice":0,"rt":1687.0549999875948,"outcome":1,"trial":43,"correct":1,"trial_type":"three-arm-trial","trial_index":88,"time_elapsed":761300,"internal_node_id":"0.0-49.0-0.0","task_version":"screening-mturk","missing":false,"accuracy":0},{"contexts":["red","blue","green"],"outcomes":[0,1,0],"key":39,"choice":2,"rt":796.3049999671057,"outcome":0,"trial":44,"correct":1,"trial_type":"three-arm-trial","trial_index":89,"time_elapsed":763299,"internal_node_id":"0.0-50.0-0.0","task_version":"screening-mturk","missing":false,"accuracy":0},{"contexts":["red","blue","green"],"outcomes":[0,1,0],"key":38,"choice":1,"rt":506.7400000989437,"outcome":1,"trial":45,"correct":1,"trial_type":"three-arm-trial","trial_index":90,"time_elapsed":765009,"internal_node_id":"0.0-51.0-0.0","task_version":"screening-mturk","missing":false,"accuracy":1},{"contexts":["red","blue","green"],"outcomes":[1,0,1],"key":37,"choice":0,"rt":406.85000002849847,"outcome":1,"trial":46,"correct":2,"trial_type":"three-arm-trial","trial_index":91,"time_elapsed":766619,"internal_node_id":"0.0-52.0-0.0","task_version":"screening-mturk","missing":false,"accuracy":0},{"contexts":["red","blue","green"],"outcomes":[0,1,1],"key":39,"choice":2,"rt":477.42000001017004,"outcome":1,"trial":47,"correct":2,"trial_type":"three-arm-trial","trial_index":92,"time_elapsed":768300,"internal_node_id":"0.0-53.0-0.0","task_version":"screening-mturk","missing":false,"accuracy":1},{"contexts":["red","blue","green"],"outcomes":[0,0,1],"key":38,"choice":1,"rt":126.10499991569668,"outcome":0,"trial":48,"correct":2,"trial_type":"three-arm-trial","trial_index":93,"time_elapsed":769629,"internal_node_id":"0.0-54.0-0.0","task_version":"screening-mturk","missing":false,"accuracy":0},{"contexts":["red","blue","green"],"outcomes":[1,0,1],"key":37,"choice":0,"rt":642.7549999207258,"outcome":1,"trial":49,"correct":2,"trial_type":"three-arm-trial","trial_index":94,"time_elapsed":771474,"internal_node_id":"0.0-55.0-0.0","task_version":"screening-mturk","missing":false,"accuracy":0},{"contexts":["red","blue","green"],"outcomes":[0,0,0],"key":39,"choice":2,"rt":343.1799999671057,"outcome":0,"trial":50,"correct":2,"trial_type":"three-arm-trial","trial_index":95,"time_elapsed":773020,"internal_node_id":"0.0-56.0-0.0","task_version":"screening-mturk","missing":false,"accuracy":1},{"contexts":["red","blue","green"],"outcomes":[1,1,1],"key":38,"choice":1,"rt":26.880000019446015,"outcome":1,"trial":51,"correct":2,"trial_type":"three-arm-trial","trial_index":96,"time_elapsed":774250,"internal_node_id":"0.0-57.0-0.0","task_version":"screening-mturk","missing":false,"accuracy":0},{"contexts":["red","blue","green"],"outcomes":[0,0,1],"key":37,"choice":0,"rt":165.44999997131526,"outcome":0,"trial":52,"correct":2,"trial_type":"three-arm-trial","trial_index":97,"time_elapsed":775619,"internal_node_id":"0.0-58.0-0.0","task_version":"screening-mturk","missing":false,"accuracy":0},{"contexts":["red","blue","green"],"outcomes":[0,0,1],"key":38,"choice":1,"rt":1107.4149999767542,"outcome":0,"trial":53,"correct":2,"trial_type":"three-arm-trial","trial_index":98,"time_elapsed":777928,"internal_node_id":"0.0-59.0-0.0","task_version":"screening-mturk","missing":false,"accuracy":0},{"contexts":["red","blue","green"],"outcomes":[0,0,1],"key":38,"choice":1,"rt":287.87999995984137,"outcome":0,"trial":54,"correct":2,"trial_type":"three-arm-trial","trial_index":99,"time_elapsed":779419,"internal_node_id":"0.0-60.0-0.0","task_version":"screening-mturk","missing":false,"accuracy":0},{"contexts":["red","blue","green"],"outcomes":[1,0,0],"key":39,"choice":2,"rt":527.5750000728294,"outcome":0,"trial":55,"correct":2,"trial_type":"three-arm-trial","trial_index":100,"time_elapsed":781149,"internal_node_id":"0.0-61.0-0.0","task_version":"screening-mturk","missing":false,"accuracy":1},{"contexts":["red","blue","green"],"outcomes":[0,0,1],"key":38,"choice":1,"rt":93.1049999780953,"outcome":0,"trial":56,"correct":2,"trial_type":"three-arm-trial","trial_index":101,"time_elapsed":782445,"internal_node_id":"0.0-62.0-0.0","task_version":"screening-mturk","missing":false,"accuracy":0},{"contexts":["red","blue","green"],"outcomes":[1,0,1],"key":38,"choice":1,"rt":381.0550000052899,"outcome":0,"trial":57,"correct":2,"trial_type":"three-arm-trial","trial_index":102,"time_elapsed":784030,"internal_node_id":"0.0-63.0-0.0","task_version":"screening-mturk","missing":false,"accuracy":0},{"contexts":["red","blue","green"],"outcomes":[0,0,1],"key":38,"choice":1,"rt":666.7550000129268,"outcome":0,"trial":58,"correct":2,"trial_type":"three-arm-trial","trial_index":103,"time_elapsed":785901,"internal_node_id":"0.0-64.0-0.0","task_version":"screening-mturk","missing":false,"accuracy":0},{"contexts":["red","blue","green"],"outcomes":[1,1,1],"key":38,"choice":1,"rt":25.254999985918403,"outcome":1,"trial":59,"correct":2,"trial_type":"three-arm-trial","trial_index":104,"time_elapsed":787130,"internal_node_id":"0.0-65.0-0.0","task_version":"screening-mturk","missing":false,"accuracy":0},{"contexts":["red","blue","green"],"outcomes":[0,0,1],"key":39,"choice":2,"rt":26.130000012926757,"outcome":1,"trial":60,"correct":2,"trial_type":"three-arm-trial","trial_index":105,"time_elapsed":788359,"internal_node_id":"0.0-66.0-0.0","task_version":"screening-mturk","missing":false,"accuracy":1},{"contexts":["red","blue","green"],"outcomes":[0,0,1],"key":38,"choice":1,"rt":190.900000045076,"outcome":0,"trial":61,"correct":1,"trial_type":"three-arm-trial","trial_index":106,"time_elapsed":789756,"internal_node_id":"0.0-67.0-0.0","task_version":"screening-mturk","missing":false,"accuracy":1},{"contexts":["red","blue","green"],"outcomes":[0,0,0],"key":38,"choice":1,"rt":210.59500006958842,"outcome":0,"trial":62,"correct":1,"trial_type":"three-arm-trial","trial_index":107,"time_elapsed":791170,"internal_node_id":"0.0-68.0-0.0","task_version":"screening-mturk","missing":false,"accuracy":1},{"contexts":["red","blue","green"],"outcomes":[0,1,0],"key":38,"choice":1,"rt":236.55000003054738,"outcome":1,"trial":63,"correct":1,"trial_type":"three-arm-trial","trial_index":108,"time_elapsed":792609,"internal_node_id":"0.0-69.0-0.0","task_version":"screening-mturk","missing":false,"accuracy":1},{"contexts":["red","blue","green"],"outcomes":[0,0,0],"key":38,"choice":1,"rt":57.49500007368624,"outcome":0,"trial":64,"correct":1,"trial_type":"three-arm-trial","trial_index":109,"time_elapsed":793870,"internal_node_id":"0.0-70.0-0.0","task_version":"screening-mturk","missing":false,"accuracy":1},{"contexts":["red","blue","green"],"outcomes":[0,0,0],"key":38,"choice":1,"rt":686.4300000015646,"outcome":0,"trial":65,"correct":1,"trial_type":"three-arm-trial","trial_index":110,"time_elapsed":795758,"internal_node_id":"0.0-71.0-0.0","task_version":"screening-mturk","missing":false,"accuracy":1},{"contexts":["red","blue","green"],"outcomes":[0,1,0],"key":38,"choice":1,"rt":387.15500000398606,"outcome":1,"trial":66,"correct":1,"trial_type":"three-arm-trial","trial_index":111,"time_elapsed":797351,"internal_node_id":"0.0-72.0-0.0","task_version":"screening-mturk","missing":false,"accuracy":1},{"contexts":["red","blue","green"],"outcomes":[0,1,0],"key":38,"choice":1,"rt":155.28000006452203,"outcome":1,"trial":67,"correct":1,"trial_type":"three-arm-trial","trial_index":112,"time_elapsed":798711,"internal_node_id":"0.0-73.0-0.0","task_version":"screening-mturk","missing":false,"accuracy":1},{"contexts":["red","blue","green"],"outcomes":[0,1,0],"key":38,"choice":1,"rt":77.24000001326203,"outcome":1,"trial":68,"correct":1,"trial_type":"three-arm-trial","trial_index":113,"time_elapsed":799991,"internal_node_id":"0.0-74.0-0.0","task_version":"screening-mturk","missing":false,"accuracy":1},{"contexts":["red","blue","green"],"outcomes":[0,1,0],"key":38,"choice":1,"rt":920.0249999994412,"outcome":1,"trial":69,"correct":1,"trial_type":"three-arm-trial","trial_index":114,"time_elapsed":802116,"internal_node_id":"0.0-75.0-0.0","task_version":"screening-mturk","missing":false,"accuracy":1},{"contexts":["red","blue","green"],"outcomes":[0,1,0],"key":39,"choice":2,"rt":127.09500000346452,"outcome":0,"trial":70,"correct":1,"trial_type":"three-arm-trial","trial_index":115,"time_elapsed":803448,"internal_node_id":"0.0-76.0-0.0","task_version":"screening-mturk","missing":false,"accuracy":0},{"contexts":["red","blue","green"],"outcomes":[1,1,0],"key":38,"choice":1,"rt":508.18500004243106,"outcome":1,"trial":71,"correct":1,"trial_type":"three-arm-trial","trial_index":116,"time_elapsed":805159,"internal_node_id":"0.0-77.0-0.0","task_version":"screening-mturk","missing":false,"accuracy":1},{"contexts":["red","blue","green"],"outcomes":[0,0,0],"key":38,"choice":1,"rt":481.4100000075996,"outcome":0,"trial":72,"correct":1,"trial_type":"three-arm-trial","trial_index":117,"time_elapsed":806846,"internal_node_id":"0.0-78.0-0.0","task_version":"screening-mturk","missing":false,"accuracy":1},{"contexts":["red","blue","green"],"outcomes":[0,1,0],"key":39,"choice":2,"rt":120.52500003483146,"outcome":0,"trial":73,"correct":1,"trial_type":"three-arm-trial","trial_index":118,"time_elapsed":808169,"internal_node_id":"0.0-79.0-0.0","task_version":"screening-mturk","missing":false,"accuracy":0},{"contexts":["red","blue","green"],"outcomes":[0,0,0],"key":39,"choice":2,"rt":131.57500000670552,"outcome":0,"trial":74,"correct":1,"trial_type":"three-arm-trial","trial_index":119,"time_elapsed":809504,"internal_node_id":"0.0-80.0-0.0","task_version":"screening-mturk","missing":false,"accuracy":0},{"contexts":["red","blue","green"],"outcomes":[0,1,0],"key":38,"choice":1,"rt":108.65999991074204,"outcome":1,"trial":75,"correct":1,"trial_type":"three-arm-trial","trial_index":120,"time_elapsed":810818,"internal_node_id":"0.0-81.0-0.0","task_version":"screening-mturk","missing":false,"accuracy":1},{"contexts":["red","blue","green"],"outcomes":[1,0,0],"key":38,"choice":1,"rt":419.08499994315207,"outcome":0,"trial":76,"correct":0,"trial_type":"three-arm-trial","trial_index":121,"time_elapsed":812440,"internal_node_id":"0.0-82.0-0.0","task_version":"screening-mturk","missing":false,"accuracy":0},{"contexts":["red","blue","green"],"outcomes":[1,1,0],"key":37,"choice":0,"rt":686.5850000176579,"outcome":1,"trial":77,"correct":0,"trial_type":"three-arm-trial","trial_index":122,"time_elapsed":814336,"internal_node_id":"0.0-83.0-0.0","task_version":"screening-mturk","missing":false,"accuracy":1},{"contexts":["red","blue","green"],"outcomes":[0,0,0],"key":37,"choice":0,"rt":243.97499999031425,"outcome":0,"trial":78,"correct":0,"trial_type":"three-arm-trial","trial_index":123,"time_elapsed":815784,"internal_node_id":"0.0-84.0-0.0","task_version":"screening-mturk","missing":false,"accuracy":1},{"contexts":["red","blue","green"],"outcomes":[1,0,0],"key":38,"choice":1,"rt":131.5399999730289,"outcome":0,"trial":79,"correct":0,"trial_type":"three-arm-trial","trial_index":124,"time_elapsed":817120,"internal_node_id":"0.0-85.0-0.0","task_version":"screening-mturk","missing":false,"accuracy":0},{"contexts":["red","blue","green"],"outcomes":[1,0,0],"key":38,"choice":1,"rt":102.47000004164875,"outcome":0,"trial":80,"correct":0,"trial_type":"three-arm-trial","trial_index":125,"time_elapsed":818425,"internal_node_id":"0.0-86.0-0.0","task_version":"screening-mturk","missing":false,"accuracy":0},{"contexts":["red","blue","green"],"outcomes":[1,0,0],"key":38,"choice":1,"rt":100.72499990928918,"outcome":0,"trial":81,"correct":0,"trial_type":"three-arm-trial","trial_index":126,"time_elapsed":819729,"internal_node_id":"0.0-87.0-0.0","task_version":"screening-mturk","missing":false,"accuracy":0},{"contexts":["red","blue","green"],"outcomes":[1,0,0],"key":38,"choice":1,"rt":61.98500003665686,"outcome":0,"trial":82,"correct":0,"trial_type":"three-arm-trial","trial_index":127,"time_elapsed":820994,"internal_node_id":"0.0-88.0-0.0","task_version":"screening-mturk","missing":false,"accuracy":0},{"contexts":["red","blue","green"],"outcomes":[1,1,0],"key":38,"choice":1,"rt":115.7899999525398,"outcome":1,"trial":83,"correct":0,"trial_type":"three-arm-trial","trial_index":128,"time_elapsed":822313,"internal_node_id":"0.0-89.0-0.0","task_version":"screening-mturk","missing":false,"accuracy":0},{"contexts":["red","blue","green"],"outcomes":[1,0,0],"key":38,"choice":1,"rt":192.93999997898936,"outcome":0,"trial":84,"correct":0,"trial_type":"three-arm-trial","trial_index":129,"time_elapsed":823709,"internal_node_id":"0.0-90.0-0.0","task_version":"screening-mturk","missing":false,"accuracy":0},{"contexts":["red","blue","green"],"outcomes":[1,0,0],"key":38,"choice":1,"rt":126.83500000275671,"outcome":0,"trial":85,"correct":0,"trial_type":"three-arm-trial","trial_index":130,"time_elapsed":825039,"internal_node_id":"0.0-91.0-0.0","task_version":"screening-mturk","missing":false,"accuracy":0},{"contexts":["red","blue","green"],"outcomes":[0,0,0],"key":37,"choice":0,"rt":382.62499996926636,"outcome":0,"trial":86,"correct":0,"trial_type":"three-arm-trial","trial_index":131,"time_elapsed":826623,"internal_node_id":"0.0-92.0-0.0","task_version":"screening-mturk","missing":false,"accuracy":1},{"contexts":["red","blue","green"],"outcomes":[1,0,1],"key":38,"choice":1,"rt":1372.6249999599531,"outcome":0,"trial":87,"correct":0,"trial_type":"three-arm-trial","trial_index":132,"time_elapsed":829198,"internal_node_id":"0.0-93.0-0.0","task_version":"screening-mturk","missing":false,"accuracy":0},{"contexts":["red","blue","green"],"outcomes":[0,0,0],"key":38,"choice":1,"rt":387.224999954924,"outcome":0,"trial":88,"correct":0,"trial_type":"three-arm-trial","trial_index":133,"time_elapsed":830788,"internal_node_id":"0.0-94.0-0.0","task_version":"screening-mturk","missing":false,"accuracy":0},{"contexts":["red","blue","green"],"outcomes":[1,0,0],"key":38,"choice":1,"rt":137.2599999886006,"outcome":0,"trial":89,"correct":0,"trial_type":"three-arm-trial","trial_index":134,"time_elapsed":832128,"internal_node_id":"0.0-95.0-0.0","task_version":"screening-mturk","missing":false,"accuracy":0},{"contexts":["red","blue","green"],"outcomes":[1,0,0],"key":38,"choice":1,"rt":83.69500003755093,"outcome":0,"trial":90,"correct":0,"trial_type":"three-arm-trial","trial_index":135,"time_elapsed":833416,"internal_node_id":"0.0-96.0-0.0","task_version":"screening-mturk","missing":false,"accuracy":0},{"rt":17290.374999982305,"responses":{"age":"47","gender-categorical":"Male","gender-free-response":"","ethnicity":"Not Hispanic or Latino","race":["White"],"language":"Yes","fluency":"Very well","prolific":"Yes","prolific-this-study":"Yes"},"survey":"demographics","trial_type":"survey-demo","trial_index":136,"time_elapsed":850711,"internal_node_id":"0.0-97.0","task_version":"screening-mturk","interactions":"[]"}]