[{"responses":{"Q09":"2","Q15":"3","Q02":"3","Q13":"3","Q05":"3","Q12":"3","Q10":"3","Q07":"2","Q01":"2","Q08":"3","Q14":"2","Q11":"2","Q03":"2","Q04":"2","Q06":"2"},"rt":46762.4250000008,"survey":"shaps","trial_type":"survey-template","trial_index":0,"time_elapsed":46774,"internal_node_id":"0.0-0.0","task_version":"screening-mturk"},{"responses":{"Q11":"3","Q12":"3","Q13":"3","Q08":"3","Q01":"2","Q06":"3","Q02":"3","Q04":"3","Q05":"3","Q07":"2","Q10":"3","Q09":"3","Q03":"3"},"rt":42184.77500000154,"survey":"bisbas","trial_type":"survey-template","trial_index":1,"time_elapsed":88962,"internal_node_id":"0.0-1.0","task_version":"screening-mturk"},{"responses":{"Q03":"3","Q02":"2","Q01":"3"},"rt":6853.214999995544,"survey":"pswq","trial_type":"survey-template","trial_index":2,"time_elapsed":95817,"internal_node_id":"0.0-2.0","task_version":"screening-mturk"},{"responses":{"Q15":"0","Q05":"2","Q10":"1","Q03":"1","Q09":"1","Q11":"1","Q08":"1","Q01":"1","Q04":"1","Q02":"1","Q12":"2","Q07":"1","Q06":"0","Q14":"0","Q13":"1"},"rt":273094.1149999999,"survey":"7up7down","trial_type":"survey-template","trial_index":3,"time_elapsed":368917,"internal_node_id":"0.0-3.0","task_version":"screening-mturk"},{"responses":{"Q07":"1","Q08":"0","Q01":"2","Q06":"2","Q04":"1","Q03":"2","Q02":"1","Q05":"1"},"rt":15813.095000004978,"survey":"gad7","trial_type":"survey-template","trial_index":4,"time_elapsed":384733,"internal_node_id":"0.0-4.0","task_version":"screening-mturk"},{"view_history":"[{\"page_index\":0,\"viewing_time\":2651.495000005525},{\"page_index\":1,\"viewing_time\":4872.61999999464},{\"page_index\":2,\"viewing_time\":15086.960000000545},{\"page_index\":3,\"viewing_time\":2321.025000004738},{\"page_index\":4,\"viewing_time\":3372.3599999939324},{\"page_index\":5,\"viewing_time\":1766.7550000041956},{\"page_index\":4,\"viewing_time\":3862.6749999966705},{\"page_index\":5,\"viewing_time\":1999.3549999999232},{\"page_index\":6,\"viewing_time\":1967.0050000058836},{\"page_index\":7,\"viewing_time\":1910.8799999958137}]","rt":39811.82500000432,"trial_type":"instructions","trial_index":5,"time_elapsed":424546,"internal_node_id":"0.0-5.0-0.0","task_version":"screening-mturk"},{"responses":["True","True","False","False","True"],"num_errors":0,"rt":13926.699999996345,"trial_type":"three-arm-comprehension","trial_index":6,"time_elapsed":438475,"internal_node_id":"0.0-5.0-1.0","task_version":"screening-mturk"},{"view_history":"[{\"page_index\":0,\"viewing_time\":5232.0550000004005}]","rt":5232.249999993655,"trial_type":"instructions","trial_index":7,"time_elapsed":443711,"internal_node_id":"0.0-6.0","task_version":"screening-mturk"},{"contexts":["green","red","blue"],"outcomes":[0,1,0],"key":39,"choice":2,"rt":9788.970000001427,"outcome":0,"trial":1,"correct":1,"trial_type":"three-arm-trial","trial_index":8,"time_elapsed":454704,"internal_node_id":"0.0-7.0-0.0","task_version":"screening-mturk","missing":false,"accuracy":0},{"contexts":["green","red","blue"],"outcomes":[1,1,1],"key":37,"choice":0,"rt":58.34000000322703,"outcome":1,"trial":2,"correct":1,"trial_type":"three-arm-trial","trial_index":9,"time_elapsed":455966,"internal_node_id":"0.0-8.0-0.0","task_version":"screening-mturk","missing":false,"accuracy":0},{"contexts":["green","red","blue"],"outcomes":[0,1,0],"key":37,"choice":0,"rt":135.35000000410946,"outcome":0,"trial":3,"correct":1,"trial_type":"three-arm-trial","trial_index":10,"time_elapsed":457304,"internal_node_id":"0.0-9.0-0.0","task_version":"screening-mturk","missing":false,"accuracy":0},{"contexts":["green","red","blue"],"outcomes":[0,1,0],"key":37,"choice":0,"rt":41.70500000327593,"outcome":0,"trial":4,"correct":1,"trial_type":"three-arm-trial","trial_index":11,"time_elapsed":458548,"internal_node_id":"0.0-10.0-0.0","task_version":"screening-mturk","missing":false,"accuracy":0},{"contexts":["green","red","blue"],"outcomes":[0,1,0],"key":38,"choice":1,"rt":251.6299999988405,"outcome":1,"trial":5,"correct":1,"trial_type":"three-arm-trial","trial_index":12,"time_elapsed":460002,"internal_node_id":"0.0-11.0-0.0","task_version":"screening-mturk","missing":false,"accuracy":1},{"contexts":["green","red","blue"],"outcomes":[0,1,0],"key":38,"choice":1,"rt":208.81500000541564,"outcome":1,"trial":6,"correct":1,"trial_type":"three-arm-trial","trial_index":13,"time_elapsed":461415,"internal_node_id":"0.0-12.0-0.0","task_version":"screening-mturk","missing":false,"accuracy":1},{"contexts":["green","red","blue"],"outcomes":[0,1,0],"key":38,"choice":1,"rt":50.38000000058673,"outcome":1,"trial":7,"correct":1,"trial_type":"three-arm-trial","trial_index":14,"time_elapsed":462670,"internal_node_id":"0.0-13.0-0.0","task_version":"screening-mturk","missing":false,"accuracy":1},{"contexts":["green","red","blue"],"outcomes":[1,0,0],"key":38,"choice":1,"rt":108.76000000280328,"outcome":0,"trial":8,"correct":1,"trial_type":"three-arm-trial","trial_index":15,"time_elapsed":463983,"internal_node_id":"0.0-14.0-0.0","task_version":"screening-mturk","missing":false,"accuracy":1},{"contexts":["green","red","blue"],"outcomes":[0,1,0],"key":38,"choice":1,"rt":109.26000000472413,"outcome":1,"trial":9,"correct":1,"trial_type":"three-arm-trial","trial_index":16,"time_elapsed":465294,"internal_node_id":"0.0-15.0-0.0","task_version":"screening-mturk","missing":false,"accuracy":1},{"contexts":["green","red","blue"],"outcomes":[0,1,0],"key":38,"choice":1,"rt":35.38000000116881,"outcome":1,"trial":10,"correct":1,"trial_type":"three-arm-trial","trial_index":17,"time_elapsed":466534,"internal_node_id":"0.0-16.0-0.0","task_version":"screening-mturk","missing":false,"accuracy":1},{"contexts":["green","red","blue"],"outcomes":[0,1,0],"key":38,"choice":1,"rt":57.67000000196276,"outcome":1,"trial":11,"correct":1,"trial_type":"three-arm-trial","trial_index":18,"time_elapsed":467794,"internal_node_id":"0.0-17.0-0.0","task_version":"screening-mturk","missing":false,"accuracy":1},{"contexts":["green","red","blue"],"outcomes":[0,1,1],"key":38,"choice":1,"rt":81.33000000088941,"outcome":1,"trial":12,"correct":1,"trial_type":"three-arm-trial","trial_index":19,"time_elapsed":469077,"internal_node_id":"0.0-18.0-0.0","task_version":"screening-mturk","missing":false,"accuracy":1},{"contexts":["green","red","blue"],"outcomes":[0,1,0],"key":38,"choice":1,"rt":337.9399999976158,"outcome":1,"trial":13,"correct":1,"trial_type":"three-arm-trial","trial_index":20,"time_elapsed":470618,"internal_node_id":"0.0-19.0-0.0","task_version":"screening-mturk","missing":false,"accuracy":1},{"contexts":["green","red","blue"],"outcomes":[0,1,0],"key":38,"choice":1,"rt":115.29000000155065,"outcome":1,"trial":14,"correct":1,"trial_type":"three-arm-trial","trial_index":21,"time_elapsed":471939,"internal_node_id":"0.0-20.0-0.0","task_version":"screening-mturk","missing":false,"accuracy":1},{"contexts":["green","red","blue"],"outcomes":[0,1,0],"key":38,"choice":1,"rt":238.28499999945052,"outcome":1,"trial":15,"correct":1,"trial_type":"three-arm-trial","trial_index":22,"time_elapsed":473381,"internal_node_id":"0.0-21.0-0.0","task_version":"screening-mturk","missing":false,"accuracy":1},{"contexts":["green","red","blue"],"outcomes":[0,0,1],"key":38,"choice":1,"rt":54.799999998067506,"outcome":0,"trial":16,"correct":2,"trial_type":"three-arm-trial","trial_index":23,"time_elapsed":474638,"internal_node_id":"0.0-22.0-0.0","task_version":"screening-mturk","missing":false,"accuracy":0},{"contexts":["green","red","blue"],"outcomes":[0,0,1],"key":38,"choice":1,"rt":141.9000000023516,"outcome":0,"trial":17,"correct":2,"trial_type":"three-arm-trial","trial_index":24,"time_elapsed":475986,"internal_node_id":"0.0-23.0-0.0","task_version":"screening-mturk","missing":false,"accuracy":0},{"contexts":["green","red","blue"],"outcomes":[1,0,1],"key":37,"choice":0,"rt":41.34499999781838,"outcome":1,"trial":18,"correct":2,"trial_type":"three-arm-trial","trial_index":25,"time_elapsed":477230,"internal_node_id":"0.0-24.0-0.0","task_version":"screening-mturk","missing":false,"accuracy":0},{"contexts":["green","red","blue"],"outcomes":[0,0,1],"key":37,"choice":0,"rt":28.46000000135973,"outcome":0,"trial":19,"correct":2,"trial_type":"three-arm-trial","trial_index":26,"time_elapsed":478461,"internal_node_id":"0.0-25.0-0.0","task_version":"screening-mturk","missing":false,"accuracy":0},{"contexts":["green","red","blue"],"outcomes":[0,0,1],"key":37,"choice":0,"rt":24.18999999645166,"outcome":0,"trial":20,"correct":2,"trial_type":"three-arm-trial","trial_index":27,"time_elapsed":479688,"internal_node_id":"0.0-26.0-0.0","task_version":"screening-mturk","missing":false,"accuracy":0},{"contexts":["green","red","blue"],"outcomes":[0,0,1],"key":39,"choice":2,"rt":38.52000000188127,"outcome":1,"trial":21,"correct":2,"trial_type":"three-arm-trial","trial_index":28,"time_elapsed":480932,"internal_node_id":"0.0-27.0-0.0","task_version":"screening-mturk","missing":false,"accuracy":1},{"contexts":["green","red","blue"],"outcomes":[0,0,1],"key":39,"choice":2,"rt":176.10500000591855,"outcome":1,"trial":22,"correct":2,"trial_type":"three-arm-trial","trial_index":29,"time_elapsed":482311,"internal_node_id":"0.0-28.0-0.0","task_version":"screening-mturk","missing":false,"accuracy":1},{"contexts":["green","red","blue"],"outcomes":[1,0,0],"key":39,"choice":2,"rt":230.8199999970384,"outcome":0,"trial":23,"correct":2,"trial_type":"three-arm-trial","trial_index":30,"time_elapsed":483744,"internal_node_id":"0.0-29.0-0.0","task_version":"screening-mturk","missing":false,"accuracy":1},{"contexts":["green","red","blue"],"outcomes":[0,0,0],"key":39,"choice":2,"rt":17.189999998663552,"outcome":0,"trial":24,"correct":2,"trial_type":"three-arm-trial","trial_index":31,"time_elapsed":484962,"internal_node_id":"0.0-30.0-0.0","task_version":"screening-mturk","missing":false,"accuracy":1},{"contexts":["green","red","blue"],"outcomes":[0,1,1],"key":39,"choice":2,"rt":334.88999999826774,"outcome":1,"trial":25,"correct":2,"trial_type":"three-arm-trial","trial_index":32,"time_elapsed":486501,"internal_node_id":"0.0-31.0-0.0","task_version":"screening-mturk","missing":false,"accuracy":1},{"contexts":["green","red","blue"],"outcomes":[1,1,0],"key":39,"choice":2,"rt":108.74999999941792,"outcome":0,"trial":26,"correct":2,"trial_type":"three-arm-trial","trial_index":33,"time_elapsed":487812,"internal_node_id":"0.0-32.0-0.0","task_version":"screening-mturk","missing":false,"accuracy":1},{"contexts":["green","red","blue"],"outcomes":[1,0,1],"key":37,"choice":0,"rt":283.3749999990687,"outcome":1,"trial":27,"correct":2,"trial_type":"three-arm-trial","trial_index":34,"time_elapsed":489298,"internal_node_id":"0.0-33.0-0.0","task_version":"screening-mturk","missing":false,"accuracy":0},{"contexts":["green","red","blue"],"outcomes":[1,0,1],"key":37,"choice":0,"rt":61.95500000467291,"outcome":1,"trial":28,"correct":2,"trial_type":"three-arm-trial","trial_index":35,"time_elapsed":490562,"internal_node_id":"0.0-34.0-0.0","task_version":"screening-mturk","missing":false,"accuracy":0},{"contexts":["green","red","blue"],"outcomes":[1,0,1],"key":37,"choice":0,"rt":179.4850000005681,"outcome":1,"trial":29,"correct":2,"trial_type":"three-arm-trial","trial_index":36,"time_elapsed":491943,"internal_node_id":"0.0-35.0-0.0","task_version":"screening-mturk","missing":false,"accuracy":0},{"contexts":["green","red","blue"],"outcomes":[1,1,1],"key":37,"choice":0,"rt":63.93000000389293,"outcome":1,"trial":30,"correct":2,"trial_type":"three-arm-trial","trial_index":37,"time_elapsed":493210,"internal_node_id":"0.0-36.0-0.0","task_version":"screening-mturk","missing":false,"accuracy":0},{"contexts":["green","red","blue"],"outcomes":[0,1,0],"key":37,"choice":0,"rt":217.3800000018673,"outcome":0,"trial":31,"correct":1,"trial_type":"three-arm-trial","trial_index":38,"time_elapsed":494630,"internal_node_id":"0.0-37.0-0.0","task_version":"screening-mturk","missing":false,"accuracy":0},{"contexts":["green","red","blue"],"outcomes":[0,1,0],"key":37,"choice":0,"rt":283.89000000606757,"outcome":0,"trial":32,"correct":1,"trial_type":"three-arm-trial","trial_index":39,"time_elapsed":496119,"internal_node_id":"0.0-38.0-0.0","task_version":"screening-mturk","missing":false,"accuracy":0},{"contexts":["green","red","blue"],"outcomes":[1,1,0],"key":38,"choice":1,"rt":140.50500000303145,"outcome":1,"trial":33,"correct":1,"trial_type":"three-arm-trial","trial_index":40,"time_elapsed":497462,"internal_node_id":"0.0-39.0-0.0","task_version":"screening-mturk","missing":false,"accuracy":1},{"contexts":["green","red","blue"],"outcomes":[0,1,1],"key":38,"choice":1,"rt":220.21500000118976,"outcome":1,"trial":34,"correct":1,"trial_type":"three-arm-trial","trial_index":41,"time_elapsed":498887,"internal_node_id":"0.0-40.0-0.0","task_version":"screening-mturk","missing":false,"accuracy":1},{"contexts":["green","red","blue"],"outcomes":[0,1,0],"key":38,"choice":1,"rt":80.60499999555759,"outcome":1,"trial":35,"correct":1,"trial_type":"three-arm-trial","trial_index":42,"time_elapsed":500171,"internal_node_id":"0.0-41.0-0.0","task_version":"screening-mturk","missing":false,"accuracy":1},{"contexts":["green","red","blue"],"outcomes":[0,1,0],"key":38,"choice":1,"rt":69.11499999841908,"outcome":1,"trial":36,"correct":1,"trial_type":"three-arm-trial","trial_index":43,"time_elapsed":501442,"internal_node_id":"0.0-42.0-0.0","task_version":"screening-mturk","missing":false,"accuracy":1},{"contexts":["green","red","blue"],"outcomes":[0,1,0],"key":38,"choice":1,"rt":107.94000000169035,"outcome":1,"trial":37,"correct":1,"trial_type":"three-arm-trial","trial_index":44,"time_elapsed":502754,"internal_node_id":"0.0-43.0-0.0","task_version":"screening-mturk","missing":false,"accuracy":1},{"contexts":["green","red","blue"],"outcomes":[0,0,0],"key":38,"choice":1,"rt":254.07999999879394,"outcome":0,"trial":38,"correct":1,"trial_type":"three-arm-trial","trial_index":45,"time_elapsed":504211,"internal_node_id":"0.0-44.0-0.0","task_version":"screening-mturk","missing":false,"accuracy":1},{"contexts":["green","red","blue"],"outcomes":[0,1,0],"key":38,"choice":1,"rt":406.39999999984866,"outcome":1,"trial":39,"correct":1,"trial_type":"three-arm-trial","trial_index":46,"time_elapsed":505821,"internal_node_id":"0.0-45.0-0.0","task_version":"screening-mturk","missing":false,"accuracy":1},{"contexts":["green","red","blue"],"outcomes":[0,1,0],"key":38,"choice":1,"rt":119.5850000003702,"outcome":1,"trial":40,"correct":1,"trial_type":"three-arm-trial","trial_index":47,"time_elapsed":507142,"internal_node_id":"0.0-46.0-0.0","task_version":"screening-mturk","missing":false,"accuracy":1},{"contexts":["green","red","blue"],"outcomes":[1,0,0],"key":38,"choice":1,"rt":24.880000004486647,"outcome":0,"trial":41,"correct":1,"trial_type":"three-arm-trial","trial_index":48,"time_elapsed":508371,"internal_node_id":"0.0-47.0-0.0","task_version":"screening-mturk","missing":false,"accuracy":1},{"contexts":["green","red","blue"],"outcomes":[0,1,0],"key":38,"choice":1,"rt":95.75000000040745,"outcome":1,"trial":42,"correct":1,"trial_type":"three-arm-trial","trial_index":49,"time_elapsed":509670,"internal_node_id":"0.0-48.0-0.0","task_version":"screening-mturk","missing":false,"accuracy":1},{"contexts":["green","red","blue"],"outcomes":[0,0,0],"key":38,"choice":1,"rt":23.73000000079628,"outcome":0,"trial":43,"correct":1,"trial_type":"three-arm-trial","trial_index":50,"time_elapsed":510896,"internal_node_id":"0.0-49.0-0.0","task_version":"screening-mturk","missing":false,"accuracy":1},{"contexts":["green","red","blue"],"outcomes":[0,1,1],"key":38,"choice":1,"rt":52.13499999808846,"outcome":1,"trial":44,"correct":1,"trial_type":"three-arm-trial","trial_index":51,"time_elapsed":512153,"internal_node_id":"0.0-50.0-0.0","task_version":"screening-mturk","missing":false,"accuracy":1},{"contexts":["green","red","blue"],"outcomes":[0,1,1],"key":37,"choice":0,"rt":56.9450000039069,"outcome":0,"trial":45,"correct":1,"trial_type":"three-arm-trial","trial_index":52,"time_elapsed":513412,"internal_node_id":"0.0-51.0-0.0","task_version":"screening-mturk","missing":false,"accuracy":0},{"contexts":["green","red","blue"],"outcomes":[0,0,1],"key":39,"choice":2,"rt":214.84500000224216,"outcome":1,"trial":46,"correct":0,"trial_type":"three-arm-trial","trial_index":53,"time_elapsed":514830,"internal_node_id":"0.0-52.0-0.0","task_version":"screening-mturk","missing":false,"accuracy":0},{"contexts":["green","red","blue"],"outcomes":[1,1,0],"key":39,"choice":2,"rt":265.3599999975995,"outcome":0,"trial":47,"correct":0,"trial_type":"three-arm-trial","trial_index":54,"time_elapsed":516297,"internal_node_id":"0.0-53.0-0.0","task_version":"screening-mturk","missing":false,"accuracy":0},{"contexts":["green","red","blue"],"outcomes":[1,0,0],"key":39,"choice":2,"rt":177.27000000013504,"outcome":0,"trial":48,"correct":0,"trial_type":"three-arm-trial","trial_index":55,"time_elapsed":517677,"internal_node_id":"0.0-54.0-0.0","task_version":"screening-mturk","missing":false,"accuracy":0},{"contexts":["green","red","blue"],"outcomes":[1,0,1],"key":37,"choice":0,"rt":99.67000000324333,"outcome":1,"trial":49,"correct":0,"trial_type":"three-arm-trial","trial_index":56,"time_elapsed":518978,"internal_node_id":"0.0-55.0-0.0","task_version":"screening-mturk","missing":false,"accuracy":1},{"contexts":["green","red","blue"],"outcomes":[1,0,1],"key":37,"choice":0,"rt":273.4349999955157,"outcome":1,"trial":50,"correct":0,"trial_type":"three-arm-trial","trial_index":57,"time_elapsed":520453,"internal_node_id":"0.0-56.0-0.0","task_version":"screening-mturk","missing":false,"accuracy":1},{"contexts":["green","red","blue"],"outcomes":[1,0,0],"key":37,"choice":0,"rt":25.90500000223983,"outcome":1,"trial":51,"correct":0,"trial_type":"three-arm-trial","trial_index":58,"time_elapsed":521681,"internal_node_id":"0.0-57.0-0.0","task_version":"screening-mturk","missing":false,"accuracy":1},{"contexts":["green","red","blue"],"outcomes":[1,0,0],"key":37,"choice":0,"rt":152.9000000009546,"outcome":1,"trial":52,"correct":0,"trial_type":"three-arm-trial","trial_index":59,"time_elapsed":523037,"internal_node_id":"0.0-58.0-0.0","task_version":"screening-mturk","missing":false,"accuracy":1},{"contexts":["green","red","blue"],"outcomes":[1,0,0],"key":37,"choice":0,"rt":90.43999999994412,"outcome":1,"trial":53,"correct":0,"trial_type":"three-arm-trial","trial_index":60,"time_elapsed":524329,"internal_node_id":"0.0-59.0-0.0","task_version":"screening-mturk","missing":false,"accuracy":1},{"contexts":["green","red","blue"],"outcomes":[1,0,0],"key":37,"choice":0,"rt":47.48999999719672,"outcome":1,"trial":54,"correct":0,"trial_type":"three-arm-trial","trial_index":61,"time_elapsed":525578,"internal_node_id":"0.0-60.0-0.0","task_version":"screening-mturk","missing":false,"accuracy":1},{"contexts":["green","red","blue"],"outcomes":[1,0,0],"key":37,"choice":0,"rt":0.13000000035390258,"outcome":1,"trial":55,"correct":0,"trial_type":"three-arm-trial","trial_index":62,"time_elapsed":526780,"internal_node_id":"0.0-61.0-0.0","task_version":"screening-mturk","missing":false,"accuracy":1},{"contexts":["green","red","blue"],"outcomes":[1,0,1],"key":37,"choice":0,"rt":0.1350000019883737,"outcome":1,"trial":56,"correct":0,"trial_type":"three-arm-trial","trial_index":63,"time_elapsed":527984,"internal_node_id":"0.0-62.0-0.0","task_version":"screening-mturk","missing":false,"accuracy":1},{"contexts":["green","red","blue"],"outcomes":[0,0,0],"key":37,"choice":0,"rt":145.6800000014482,"outcome":0,"trial":57,"correct":0,"trial_type":"three-arm-trial","trial_index":64,"time_elapsed":529334,"internal_node_id":"0.0-63.0-0.0","task_version":"screening-mturk","missing":false,"accuracy":1},{"contexts":["green","red","blue"],"outcomes":[1,0,0],"key":37,"choice":0,"rt":123.72499999776483,"outcome":1,"trial":58,"correct":0,"trial_type":"three-arm-trial","trial_index":65,"time_elapsed":530660,"internal_node_id":"0.0-64.0-0.0","task_version":"screening-mturk","missing":false,"accuracy":1},{"contexts":["green","red","blue"],"outcomes":[1,0,0],"key":37,"choice":0,"rt":24.975000000209548,"outcome":1,"trial":59,"correct":0,"trial_type":"three-arm-trial","trial_index":66,"time_elapsed":531887,"internal_node_id":"0.0-65.0-0.0","task_version":"screening-mturk","missing":false,"accuracy":1},{"contexts":["green","red","blue"],"outcomes":[1,0,0],"key":37,"choice":0,"rt":6.22499999741558,"outcome":1,"trial":60,"correct":0,"trial_type":"three-arm-trial","trial_index":67,"time_elapsed":533095,"internal_node_id":"0.0-66.0-0.0","task_version":"screening-mturk","missing":false,"accuracy":1},{"contexts":["green","red","blue"],"outcomes":[0,1,1],"key":37,"choice":0,"rt":16.635000000009313,"outcome":0,"trial":61,"correct":2,"trial_type":"three-arm-trial","trial_index":68,"time_elapsed":534315,"internal_node_id":"0.0-67.0-0.0","task_version":"screening-mturk","missing":false,"accuracy":0},{"contexts":["green","red","blue"],"outcomes":[0,0,1],"key":37,"choice":0,"rt":111.91500000131782,"outcome":0,"trial":62,"correct":2,"trial_type":"three-arm-trial","trial_index":69,"time_elapsed":535629,"internal_node_id":"0.0-68.0-0.0","task_version":"screening-mturk","missing":false,"accuracy":0},{"contexts":["green","red","blue"],"outcomes":[0,0,1],"key":38,"choice":1,"rt":79.30500000645407,"outcome":0,"trial":63,"correct":2,"trial_type":"three-arm-trial","trial_index":70,"time_elapsed":536911,"internal_node_id":"0.0-69.0-0.0","task_version":"screening-mturk","missing":false,"accuracy":0},{"contexts":["green","red","blue"],"outcomes":[0,1,1],"key":39,"choice":2,"rt":80.8550000002142,"outcome":1,"trial":64,"correct":2,"trial_type":"three-arm-trial","trial_index":71,"time_elapsed":538194,"internal_node_id":"0.0-70.0-0.0","task_version":"screening-mturk","missing":false,"accuracy":1},{"contexts":["green","red","blue"],"outcomes":[0,0,1],"key":39,"choice":2,"rt":0.13999999640509486,"outcome":1,"trial":65,"correct":2,"trial_type":"three-arm-trial","trial_index":72,"time_elapsed":539397,"internal_node_id":"0.0-71.0-0.0","task_version":"screening-mturk","missing":false,"accuracy":1},{"contexts":["green","red","blue"],"outcomes":[0,0,1],"key":39,"choice":2,"rt":130.81500000401866,"outcome":1,"trial":66,"correct":2,"trial_type":"three-arm-trial","trial_index":73,"time_elapsed":540736,"internal_node_id":"0.0-72.0-0.0","task_version":"screening-mturk","missing":false,"accuracy":1},{"contexts":["green","red","blue"],"outcomes":[0,0,1],"key":39,"choice":2,"rt":148.03499999840278,"outcome":1,"trial":67,"correct":2,"trial_type":"three-arm-trial","trial_index":74,"time_elapsed":542087,"internal_node_id":"0.0-73.0-0.0","task_version":"screening-mturk","missing":false,"accuracy":1},{"contexts":["green","red","blue"],"outcomes":[0,1,1],"key":39,"choice":2,"rt":25.56000000180211,"outcome":1,"trial":68,"correct":2,"trial_type":"three-arm-trial","trial_index":75,"time_elapsed":543314,"internal_node_id":"0.0-74.0-0.0","task_version":"screening-mturk","missing":false,"accuracy":1},{"contexts":["green","red","blue"],"outcomes":[0,0,0],"key":39,"choice":2,"rt":362.4700000000885,"outcome":0,"trial":69,"correct":2,"trial_type":"three-arm-trial","trial_index":76,"time_elapsed":544888,"internal_node_id":"0.0-75.0-0.0","task_version":"screening-mturk","missing":false,"accuracy":1},{"contexts":["green","red","blue"],"outcomes":[0,0,1],"key":39,"choice":2,"rt":112.91499999782536,"outcome":1,"trial":70,"correct":2,"trial_type":"three-arm-trial","trial_index":77,"time_elapsed":546204,"internal_node_id":"0.0-76.0-0.0","task_version":"screening-mturk","missing":false,"accuracy":1},{"contexts":["green","red","blue"],"outcomes":[0,0,1],"key":39,"choice":2,"rt":104.07500000298023,"outcome":1,"trial":71,"correct":2,"trial_type":"three-arm-trial","trial_index":78,"time_elapsed":547511,"internal_node_id":"0.0-77.0-0.0","task_version":"screening-mturk","missing":false,"accuracy":1},{"contexts":["green","red","blue"],"outcomes":[0,0,1],"key":39,"choice":2,"rt":122.47000000206754,"outcome":1,"trial":72,"correct":2,"trial_type":"three-arm-trial","trial_index":79,"time_elapsed":548836,"internal_node_id":"0.0-78.0-0.0","task_version":"screening-mturk","missing":false,"accuracy":1},{"contexts":["green","red","blue"],"outcomes":[1,0,1],"key":39,"choice":2,"rt":98.9499999997206,"outcome":1,"trial":73,"correct":2,"trial_type":"three-arm-trial","trial_index":80,"time_elapsed":550139,"internal_node_id":"0.0-79.0-0.0","task_version":"screening-mturk","missing":false,"accuracy":1},{"contexts":["green","red","blue"],"outcomes":[0,0,1],"key":39,"choice":2,"rt":158.11499999836087,"outcome":1,"trial":74,"correct":2,"trial_type":"three-arm-trial","trial_index":81,"time_elapsed":551499,"internal_node_id":"0.0-80.0-0.0","task_version":"screening-mturk","missing":false,"accuracy":1},{"contexts":["green","red","blue"],"outcomes":[0,0,1],"key":39,"choice":2,"rt":78.0799999992596,"outcome":1,"trial":75,"correct":2,"trial_type":"three-arm-trial","trial_index":82,"time_elapsed":552779,"internal_node_id":"0.0-81.0-0.0","task_version":"screening-mturk","missing":false,"accuracy":1},{"contexts":["green","red","blue"],"outcomes":[1,1,0],"key":39,"choice":2,"rt":656.284999997355,"outcome":0,"trial":76,"correct":1,"trial_type":"three-arm-trial","trial_index":83,"time_elapsed":554640,"internal_node_id":"0.0-82.0-0.0","task_version":"screening-mturk","missing":false,"accuracy":0},{"contexts":["green","red","blue"],"outcomes":[0,0,1],"key":39,"choice":2,"rt":386.24500000150874,"outcome":1,"trial":77,"correct":1,"trial_type":"three-arm-trial","trial_index":84,"time_elapsed":556228,"internal_node_id":"0.0-83.0-0.0","task_version":"screening-mturk","missing":false,"accuracy":0},{"contexts":["green","red","blue"],"outcomes":[0,0,0],"key":39,"choice":2,"rt":249.78499999991618,"outcome":0,"trial":78,"correct":1,"trial_type":"three-arm-trial","trial_index":85,"time_elapsed":557679,"internal_node_id":"0.0-84.0-0.0","task_version":"screening-mturk","missing":false,"accuracy":0},{"contexts":["green","red","blue"],"outcomes":[0,1,0],"key":38,"choice":1,"rt":180.48999999882653,"outcome":1,"trial":79,"correct":1,"trial_type":"three-arm-trial","trial_index":86,"time_elapsed":559062,"internal_node_id":"0.0-85.0-0.0","task_version":"screening-mturk","missing":false,"accuracy":1},{"contexts":["green","red","blue"],"outcomes":[0,1,0],"key":38,"choice":1,"rt":87.29999999923166,"outcome":1,"trial":80,"correct":1,"trial_type":"three-arm-trial","trial_index":87,"time_elapsed":560355,"internal_node_id":"0.0-86.0-0.0","task_version":"screening-mturk","missing":false,"accuracy":1},{"contexts":["green","red","blue"],"outcomes":[0,1,0],"key":38,"choice":1,"rt":173.634999999078,"outcome":1,"trial":81,"correct":1,"trial_type":"three-arm-trial","trial_index":88,"time_elapsed":561731,"internal_node_id":"0.0-87.0-0.0","task_version":"screening-mturk","missing":false,"accuracy":1},{"contexts":["green","red","blue"],"outcomes":[0,1,0],"key":38,"choice":1,"rt":119.56500000087544,"outcome":1,"trial":82,"correct":1,"trial_type":"three-arm-trial","trial_index":89,"time_elapsed":563053,"internal_node_id":"0.0-88.0-0.0","task_version":"screening-mturk","missing":false,"accuracy":1},{"contexts":["green","red","blue"],"outcomes":[0,1,1],"key":38,"choice":1,"rt":171.13999999850057,"outcome":1,"trial":83,"correct":1,"trial_type":"three-arm-trial","trial_index":90,"time_elapsed":564428,"internal_node_id":"0.0-89.0-0.0","task_version":"screening-mturk","missing":false,"accuracy":1},{"contexts":["green","red","blue"],"outcomes":[0,0,0],"key":38,"choice":1,"rt":162.38999999780208,"outcome":0,"trial":84,"correct":1,"trial_type":"three-arm-trial","trial_index":91,"time_elapsed":565793,"internal_node_id":"0.0-90.0-0.0","task_version":"screening-mturk","missing":false,"accuracy":1},{"contexts":["green","red","blue"],"outcomes":[0,1,1],"key":38,"choice":1,"rt":353.01500000059605,"outcome":1,"trial":85,"correct":1,"trial_type":"three-arm-trial","trial_index":92,"time_elapsed":567351,"internal_node_id":"0.0-91.0-0.0","task_version":"screening-mturk","missing":false,"accuracy":1},{"contexts":["green","red","blue"],"outcomes":[1,1,0],"key":38,"choice":1,"rt":78.58499999553896,"outcome":1,"trial":86,"correct":1,"trial_type":"three-arm-trial","trial_index":93,"time_elapsed":568633,"internal_node_id":"0.0-92.0-0.0","task_version":"screening-mturk","missing":false,"accuracy":1},{"contexts":["green","red","blue"],"outcomes":[0,0,1],"key":38,"choice":1,"rt":173.9400000006426,"outcome":0,"trial":87,"correct":1,"trial_type":"three-arm-trial","trial_index":94,"time_elapsed":570009,"internal_node_id":"0.0-93.0-0.0","task_version":"screening-mturk","missing":false,"accuracy":1},{"contexts":["green","red","blue"],"outcomes":[0,0,0],"key":38,"choice":1,"rt":107.03999999526422,"outcome":0,"trial":88,"correct":1,"trial_type":"three-arm-trial","trial_index":95,"time_elapsed":571324,"internal_node_id":"0.0-94.0-0.0","task_version":"screening-mturk","missing":false,"accuracy":1},{"contexts":["green","red","blue"],"outcomes":[0,0,0],"key":37,"choice":0,"rt":123.91500000376254,"outcome":0,"trial":89,"correct":1,"trial_type":"three-arm-trial","trial_index":96,"time_elapsed":572653,"internal_node_id":"0.0-95.0-0.0","task_version":"screening-mturk","missing":false,"accuracy":0},{"contexts":["green","red","blue"],"outcomes":[0,0,0],"key":39,"choice":2,"rt":42.2550000003539,"outcome":0,"trial":90,"correct":1,"trial_type":"three-arm-trial","trial_index":97,"time_elapsed":573900,"internal_node_id":"0.0-96.0-0.0","task_version":"screening-mturk","missing":false,"accuracy":0},{"rt":13922.695000001113,"responses":{"age":"21","gender-categorical":"Female","gender-free-response":"","ethnicity":"Not Hispanic or Latino","race":["Asian"],"language":"Yes","fluency":"Very well","prolific":"No","prolific-this-study":"No"},"survey":"demographics","trial_type":"survey-demo","trial_index":98,"time_elapsed":587827,"internal_node_id":"0.0-97.0","task_version":"screening-mturk","interactions":"[{\"event\":\"blur\",\"trial\":3,\"time\":108502},{\"event\":\"focus\",\"trial\":3,\"time\":129472},{\"event\":\"blur\",\"trial\":3,\"time\":131360},{\"event\":\"focus\",\"trial\":3,\"time\":173953},{\"event\":\"blur\",\"trial\":3,\"time\":174723},{\"event\":\"focus\",\"trial\":3,\"time\":176672},{\"event\":\"blur\",\"trial\":3,\"time\":202262},{\"event\":\"focus\",\"trial\":3,\"time\":342325},{\"event\":\"blur\",\"trial\":3,\"time\":343607},{\"event\":\"focus\",\"trial\":3,\"time\":345125},{\"event\":\"blur\",\"trial\":5,\"time\":394873},{\"event\":\"focus\",\"trial\":5,\"time\":402990},{\"event\":\"blur\",\"trial\":6,\"time\":432440},{\"event\":\"focus\",\"trial\":6,\"time\":437201},{\"event\":\"blur\",\"trial\":7,\"time\":439362},{\"event\":\"focus\",\"trial\":7,\"time\":443112}]"}]