[{"responses":{"Q02":"2","Q05":"3","Q11":"2","Q07":"2","Q12":"2","Q03":"2","Q04":"2","Q06":"3","Q01":"2","Q08":"3","Q09":"1","Q15":"3","Q10":"3","Q13":"2","Q14":"2"},"rt":80224.56000000238,"survey":"shaps","trial_type":"survey-template","trial_index":0,"time_elapsed":80231,"internal_node_id":"0.0-0.0","task_version":"screening-mturk"},{"responses":{"Q01":"4","Q03":"4","Q02":"3"},"rt":13164.374999934807,"survey":"pswq","trial_type":"survey-template","trial_index":1,"time_elapsed":93400,"internal_node_id":"0.0-1.0","task_version":"screening-mturk"},{"responses":{"Q08":"2","Q09":"2","Q13":"3","Q11":"2","Q12":"1","Q10":"2","Q06":"2","Q03":"3","Q02":"3","Q01":"3","Q04":"3","Q05":"2","Q07":"3"},"rt":68791.85999999754,"survey":"bisbas","trial_type":"survey-template","trial_index":2,"time_elapsed":162196,"internal_node_id":"0.0-2.0","task_version":"screening-mturk"},{"responses":{"Q14":"1","Q09":"2","Q07":"1","Q01":"1","Q03":"0","Q15":"1","Q08":"1","Q02":"2","Q12":"2","Q04":"1","Q06":"0","Q05":"3","Q10":"2","Q11":"3","Q13":"2"},"rt":137099.7750000097,"survey":"7up7down","trial_type":"survey-template","trial_index":3,"time_elapsed":299300,"internal_node_id":"0.0-3.0","task_version":"screening-mturk"},{"responses":{"Q02":"3","Q05":"1","Q07":"2","Q08":"0","Q06":"2","Q03":"3","Q04":"2","Q01":"3"},"rt":39551.91000003833,"survey":"gad7","trial_type":"survey-template","trial_index":4,"time_elapsed":338856,"internal_node_id":"0.0-4.0","task_version":"screening-mturk"},{"view_history":"[{\"page_index\":0,\"viewing_time\":17060.139999957755},{\"page_index\":1,\"viewing_time\":12589.565000031143},{\"page_index\":2,\"viewing_time\":14718.20000000298},{\"page_index\":3,\"viewing_time\":8140.144999953918},{\"page_index\":4,\"viewing_time\":6156.095000100322},{\"page_index\":5,\"viewing_time\":4869.6149999741465},{\"page_index\":6,\"viewing_time\":6392.864999943413},{\"page_index\":7,\"viewing_time\":5592.040000017732}]","rt":75519.17999994475,"trial_type":"instructions","trial_index":5,"time_elapsed":414378,"internal_node_id":"0.0-5.0-0.0","task_version":"screening-mturk"},{"responses":["True","True","False","False","True"],"num_errors":0,"rt":28788.60500000883,"trial_type":"three-arm-comprehension","trial_index":6,"time_elapsed":443169,"internal_node_id":"0.0-5.0-1.0","task_version":"screening-mturk"},{"view_history":"[{\"page_index\":0,\"viewing_time\":3359.969999990426}]","rt":3360.1400000043213,"trial_type":"instructions","trial_index":7,"time_elapsed":446533,"internal_node_id":"0.0-6.0","task_version":"screening-mturk"},{"contexts":["blue","red","green"],"outcomes":[1,0,1],"key":null,"rt":null,"trial":1,"correct":0,"trial_type":"three-arm-trial","trial_index":8,"time_elapsed":461536,"internal_node_id":"0.0-7.0-0.0","task_version":"screening-mturk","missing":true},{"contexts":["blue","red","green"],"outcomes":[1,0,1],"key":39,"choice":2,"rt":1078.7799999816343,"outcome":1,"trial":1,"correct":0,"trial_type":"three-arm-trial","trial_index":9,"time_elapsed":463818,"internal_node_id":"0.0-7.1-0.1","task_version":"screening-mturk","missing":false,"accuracy":0},{"contexts":["blue","red","green"],"outcomes":[1,1,1],"key":38,"choice":1,"rt":1792.8449999308214,"outcome":1,"trial":2,"correct":0,"trial_type":"three-arm-trial","trial_index":10,"time_elapsed":466815,"internal_node_id":"0.0-8.0-0.0","task_version":"screening-mturk","missing":false,"accuracy":0},{"contexts":["blue","red","green"],"outcomes":[1,0,1],"key":37,"choice":0,"rt":621.7850000830367,"outcome":1,"trial":3,"correct":0,"trial_type":"three-arm-trial","trial_index":11,"time_elapsed":468641,"internal_node_id":"0.0-9.0-0.0","task_version":"screening-mturk","missing":false,"accuracy":1},{"contexts":["blue","red","green"],"outcomes":[1,1,1],"key":39,"choice":2,"rt":680.1699999487028,"outcome":1,"trial":4,"correct":0,"trial_type":"three-arm-trial","trial_index":12,"time_elapsed":470525,"internal_node_id":"0.0-10.0-0.0","task_version":"screening-mturk","missing":false,"accuracy":0},{"contexts":["blue","red","green"],"outcomes":[1,0,1],"key":37,"choice":0,"rt":276.66500001214445,"outcome":1,"trial":5,"correct":0,"trial_type":"three-arm-trial","trial_index":13,"time_elapsed":472006,"internal_node_id":"0.0-11.0-0.0","task_version":"screening-mturk","missing":false,"accuracy":1},{"contexts":["blue","red","green"],"outcomes":[1,0,0],"key":38,"choice":1,"rt":302.58000001776963,"outcome":0,"trial":6,"correct":0,"trial_type":"three-arm-trial","trial_index":14,"time_elapsed":473512,"internal_node_id":"0.0-12.0-0.0","task_version":"screening-mturk","missing":false,"accuracy":0},{"contexts":["blue","red","green"],"outcomes":[0,0,1],"key":39,"choice":2,"rt":300.8200000040233,"outcome":1,"trial":7,"correct":0,"trial_type":"three-arm-trial","trial_index":15,"time_elapsed":475016,"internal_node_id":"0.0-13.0-0.0","task_version":"screening-mturk","missing":false,"accuracy":0},{"contexts":["blue","red","green"],"outcomes":[1,1,0],"key":37,"choice":0,"rt":451.37999998405576,"outcome":1,"trial":8,"correct":0,"trial_type":"three-arm-trial","trial_index":16,"time_elapsed":476672,"internal_node_id":"0.0-14.0-0.0","task_version":"screening-mturk","missing":false,"accuracy":1},{"contexts":["blue","red","green"],"outcomes":[1,1,0],"key":39,"choice":2,"rt":20.555000053718686,"outcome":0,"trial":9,"correct":0,"trial_type":"three-arm-trial","trial_index":17,"time_elapsed":477896,"internal_node_id":"0.0-15.0-0.0","task_version":"screening-mturk","missing":false,"accuracy":0},{"contexts":["blue","red","green"],"outcomes":[1,0,0],"key":37,"choice":0,"rt":259.41499997861683,"outcome":1,"trial":10,"correct":0,"trial_type":"three-arm-trial","trial_index":18,"time_elapsed":479360,"internal_node_id":"0.0-16.0-0.0","task_version":"screening-mturk","missing":false,"accuracy":1},{"contexts":["blue","red","green"],"outcomes":[1,0,0],"key":38,"choice":1,"rt":538.6449999641627,"outcome":0,"trial":11,"correct":0,"trial_type":"three-arm-trial","trial_index":19,"time_elapsed":481103,"internal_node_id":"0.0-17.0-0.0","task_version":"screening-mturk","missing":false,"accuracy":0},{"contexts":["blue","red","green"],"outcomes":[0,0,0],"key":38,"choice":1,"rt":320.0299999443814,"outcome":0,"trial":12,"correct":0,"trial_type":"three-arm-trial","trial_index":20,"time_elapsed":482627,"internal_node_id":"0.0-18.0-0.0","task_version":"screening-mturk","missing":false,"accuracy":0},{"contexts":["blue","red","green"],"outcomes":[1,0,1],"key":39,"choice":2,"rt":362.08499991334975,"outcome":1,"trial":13,"correct":0,"trial_type":"three-arm-trial","trial_index":21,"time_elapsed":484192,"internal_node_id":"0.0-19.0-0.0","task_version":"screening-mturk","missing":false,"accuracy":0},{"contexts":["blue","red","green"],"outcomes":[1,0,0],"key":37,"choice":0,"rt":51.72999994829297,"outcome":1,"trial":14,"correct":0,"trial_type":"three-arm-trial","trial_index":22,"time_elapsed":485448,"internal_node_id":"0.0-20.0-0.0","task_version":"screening-mturk","missing":false,"accuracy":1},{"contexts":["blue","red","green"],"outcomes":[1,0,0],"key":39,"choice":2,"rt":370.19000004511327,"outcome":0,"trial":15,"correct":0,"trial_type":"three-arm-trial","trial_index":23,"time_elapsed":487022,"internal_node_id":"0.0-21.0-0.0","task_version":"screening-mturk","missing":false,"accuracy":0},{"contexts":["blue","red","green"],"outcomes":[1,1,1],"key":37,"choice":0,"rt":288.48000010475516,"outcome":1,"trial":16,"correct":2,"trial_type":"three-arm-trial","trial_index":24,"time_elapsed":488515,"internal_node_id":"0.0-22.0-0.0","task_version":"screening-mturk","missing":false,"accuracy":0},{"contexts":["blue","red","green"],"outcomes":[0,0,0],"key":37,"choice":0,"rt":286.70499997679144,"outcome":0,"trial":17,"correct":2,"trial_type":"three-arm-trial","trial_index":25,"time_elapsed":490005,"internal_node_id":"0.0-23.0-0.0","task_version":"screening-mturk","missing":false,"accuracy":0},{"contexts":["blue","red","green"],"outcomes":[0,0,1],"key":38,"choice":1,"rt":399.9199999962002,"outcome":0,"trial":18,"correct":2,"trial_type":"three-arm-trial","trial_index":26,"time_elapsed":491610,"internal_node_id":"0.0-24.0-0.0","task_version":"screening-mturk","missing":false,"accuracy":0},{"contexts":["blue","red","green"],"outcomes":[0,0,1],"key":39,"choice":2,"rt":358.4600000176579,"outcome":1,"trial":19,"correct":2,"trial_type":"three-arm-trial","trial_index":27,"time_elapsed":493173,"internal_node_id":"0.0-25.0-0.0","task_version":"screening-mturk","missing":false,"accuracy":1},{"contexts":["blue","red","green"],"outcomes":[1,0,1],"key":39,"choice":2,"rt":266.26499998383224,"outcome":1,"trial":20,"correct":2,"trial_type":"three-arm-trial","trial_index":28,"time_elapsed":494643,"internal_node_id":"0.0-26.0-0.0","task_version":"screening-mturk","missing":false,"accuracy":1},{"contexts":["blue","red","green"],"outcomes":[0,0,0],"key":39,"choice":2,"rt":1123.2800000580028,"outcome":0,"trial":21,"correct":2,"trial_type":"three-arm-trial","trial_index":29,"time_elapsed":496970,"internal_node_id":"0.0-27.0-0.0","task_version":"screening-mturk","missing":false,"accuracy":1},{"contexts":["blue","red","green"],"outcomes":[0,0,1],"key":37,"choice":0,"rt":404.9100000411272,"outcome":0,"trial":22,"correct":2,"trial_type":"three-arm-trial","trial_index":30,"time_elapsed":498579,"internal_node_id":"0.0-28.0-0.0","task_version":"screening-mturk","missing":false,"accuracy":0},{"contexts":["blue","red","green"],"outcomes":[0,0,1],"key":38,"choice":1,"rt":292.73500002454966,"outcome":0,"trial":23,"correct":2,"trial_type":"three-arm-trial","trial_index":31,"time_elapsed":500076,"internal_node_id":"0.0-29.0-0.0","task_version":"screening-mturk","missing":false,"accuracy":0},{"contexts":["blue","red","green"],"outcomes":[0,0,1],"key":39,"choice":2,"rt":346.0699999704957,"outcome":1,"trial":24,"correct":2,"trial_type":"three-arm-trial","trial_index":32,"time_elapsed":501626,"internal_node_id":"0.0-30.0-0.0","task_version":"screening-mturk","missing":false,"accuracy":1},{"contexts":["blue","red","green"],"outcomes":[0,0,1],"key":37,"choice":0,"rt":568.2600000873208,"outcome":0,"trial":25,"correct":2,"trial_type":"three-arm-trial","trial_index":33,"time_elapsed":503398,"internal_node_id":"0.0-31.0-0.0","task_version":"screening-mturk","missing":false,"accuracy":0},{"contexts":["blue","red","green"],"outcomes":[0,0,0],"key":39,"choice":2,"rt":25.479999952949584,"outcome":0,"trial":26,"correct":2,"trial_type":"three-arm-trial","trial_index":34,"time_elapsed":504627,"internal_node_id":"0.0-32.0-0.0","task_version":"screening-mturk","missing":false,"accuracy":1},{"contexts":["blue","red","green"],"outcomes":[0,0,0],"key":38,"choice":1,"rt":364.31999993510544,"outcome":0,"trial":27,"correct":2,"trial_type":"three-arm-trial","trial_index":35,"time_elapsed":506196,"internal_node_id":"0.0-33.0-0.0","task_version":"screening-mturk","missing":false,"accuracy":0},{"contexts":["blue","red","green"],"outcomes":[1,0,1],"key":37,"choice":0,"rt":15.214999904856086,"outcome":1,"trial":28,"correct":2,"trial_type":"three-arm-trial","trial_index":36,"time_elapsed":507415,"internal_node_id":"0.0-34.0-0.0","task_version":"screening-mturk","missing":false,"accuracy":0},{"contexts":["blue","red","green"],"outcomes":[0,0,1],"key":39,"choice":2,"rt":377.8399999719113,"outcome":1,"trial":29,"correct":2,"trial_type":"three-arm-trial","trial_index":37,"time_elapsed":508997,"internal_node_id":"0.0-35.0-0.0","task_version":"screening-mturk","missing":false,"accuracy":1},{"contexts":["blue","red","green"],"outcomes":[0,0,1],"key":37,"choice":0,"rt":48.910000012256205,"outcome":0,"trial":30,"correct":2,"trial_type":"three-arm-trial","trial_index":38,"time_elapsed":510250,"internal_node_id":"0.0-36.0-0.0","task_version":"screening-mturk","missing":false,"accuracy":0},{"contexts":["blue","red","green"],"outcomes":[1,0,0],"key":39,"choice":2,"rt":22.835000068880618,"outcome":0,"trial":31,"correct":0,"trial_type":"three-arm-trial","trial_index":39,"time_elapsed":511476,"internal_node_id":"0.0-37.0-0.0","task_version":"screening-mturk","missing":false,"accuracy":0},{"contexts":["blue","red","green"],"outcomes":[1,0,0],"key":37,"choice":0,"rt":509.9300000583753,"outcome":1,"trial":32,"correct":0,"trial_type":"three-arm-trial","trial_index":40,"time_elapsed":513189,"internal_node_id":"0.0-38.0-0.0","task_version":"screening-mturk","missing":false,"accuracy":1},{"contexts":["blue","red","green"],"outcomes":[1,0,0],"key":39,"choice":2,"rt":242.6999999443069,"outcome":0,"trial":33,"correct":0,"trial_type":"three-arm-trial","trial_index":41,"time_elapsed":514636,"internal_node_id":"0.0-39.0-0.0","task_version":"screening-mturk","missing":false,"accuracy":0},{"contexts":["blue","red","green"],"outcomes":[1,1,0],"key":38,"choice":1,"rt":164.70000008121133,"outcome":1,"trial":34,"correct":0,"trial_type":"three-arm-trial","trial_index":42,"time_elapsed":516005,"internal_node_id":"0.0-40.0-0.0","task_version":"screening-mturk","missing":false,"accuracy":0},{"contexts":["blue","red","green"],"outcomes":[0,0,0],"key":37,"choice":0,"rt":207.54999993368983,"outcome":0,"trial":35,"correct":0,"trial_type":"three-arm-trial","trial_index":43,"time_elapsed":517416,"internal_node_id":"0.0-41.0-0.0","task_version":"screening-mturk","missing":false,"accuracy":1},{"contexts":["blue","red","green"],"outcomes":[0,0,0],"key":38,"choice":1,"rt":352.225000038743,"outcome":0,"trial":36,"correct":0,"trial_type":"three-arm-trial","trial_index":44,"time_elapsed":518973,"internal_node_id":"0.0-42.0-0.0","task_version":"screening-mturk","missing":false,"accuracy":0},{"contexts":["blue","red","green"],"outcomes":[1,0,0],"key":39,"choice":2,"rt":263.10999994166195,"outcome":0,"trial":37,"correct":0,"trial_type":"three-arm-trial","trial_index":45,"time_elapsed":520439,"internal_node_id":"0.0-43.0-0.0","task_version":"screening-mturk","missing":false,"accuracy":0},{"contexts":["blue","red","green"],"outcomes":[1,0,0],"key":37,"choice":0,"rt":265.80499997362494,"outcome":1,"trial":38,"correct":0,"trial_type":"three-arm-trial","trial_index":46,"time_elapsed":521908,"internal_node_id":"0.0-44.0-0.0","task_version":"screening-mturk","missing":false,"accuracy":1},{"contexts":["blue","red","green"],"outcomes":[1,0,1],"key":39,"choice":2,"rt":429.84499991871417,"outcome":1,"trial":39,"correct":0,"trial_type":"three-arm-trial","trial_index":47,"time_elapsed":523542,"internal_node_id":"0.0-45.0-0.0","task_version":"screening-mturk","missing":false,"accuracy":0},{"contexts":["blue","red","green"],"outcomes":[1,0,0],"key":37,"choice":0,"rt":1310.979999951087,"outcome":1,"trial":40,"correct":0,"trial_type":"three-arm-trial","trial_index":48,"time_elapsed":526056,"internal_node_id":"0.0-46.0-0.0","task_version":"screening-mturk","missing":false,"accuracy":1},{"contexts":["blue","red","green"],"outcomes":[1,1,0],"key":38,"choice":1,"rt":1375.7900000782683,"outcome":1,"trial":41,"correct":0,"trial_type":"three-arm-trial","trial_index":49,"time_elapsed":528636,"internal_node_id":"0.0-47.0-0.0","task_version":"screening-mturk","missing":false,"accuracy":0},{"contexts":["blue","red","green"],"outcomes":[1,0,0],"key":39,"choice":2,"rt":1837.3049999354407,"outcome":0,"trial":42,"correct":0,"trial_type":"three-arm-trial","trial_index":50,"time_elapsed":531678,"internal_node_id":"0.0-48.0-0.0","task_version":"screening-mturk","missing":false,"accuracy":0},{"contexts":["blue","red","green"],"outcomes":[0,0,0],"key":38,"choice":1,"rt":263.48500000312924,"outcome":0,"trial":43,"correct":0,"trial_type":"three-arm-trial","trial_index":51,"time_elapsed":533147,"internal_node_id":"0.0-49.0-0.0","task_version":"screening-mturk","missing":false,"accuracy":0},{"contexts":["blue","red","green"],"outcomes":[1,1,0],"key":37,"choice":0,"rt":30.845000059343874,"outcome":1,"trial":44,"correct":0,"trial_type":"three-arm-trial","trial_index":52,"time_elapsed":534381,"internal_node_id":"0.0-50.0-0.0","task_version":"screening-mturk","missing":false,"accuracy":1},{"contexts":["blue","red","green"],"outcomes":[1,0,1],"key":39,"choice":2,"rt":249.91500005126,"outcome":1,"trial":45,"correct":0,"trial_type":"three-arm-trial","trial_index":53,"time_elapsed":535834,"internal_node_id":"0.0-51.0-0.0","task_version":"screening-mturk","missing":false,"accuracy":0},{"contexts":["blue","red","green"],"outcomes":[1,0,1],"key":37,"choice":0,"rt":57.93499993160367,"outcome":1,"trial":46,"correct":2,"trial_type":"three-arm-trial","trial_index":54,"time_elapsed":537096,"internal_node_id":"0.0-52.0-0.0","task_version":"screening-mturk","missing":false,"accuracy":0},{"contexts":["blue","red","green"],"outcomes":[1,1,1],"key":38,"choice":1,"rt":196.98999996762723,"outcome":1,"trial":47,"correct":2,"trial_type":"three-arm-trial","trial_index":55,"time_elapsed":538496,"internal_node_id":"0.0-53.0-0.0","task_version":"screening-mturk","missing":false,"accuracy":0},{"contexts":["blue","red","green"],"outcomes":[0,0,0],"key":39,"choice":2,"rt":179.68000005930662,"outcome":0,"trial":48,"correct":2,"trial_type":"three-arm-trial","trial_index":56,"time_elapsed":539879,"internal_node_id":"0.0-54.0-0.0","task_version":"screening-mturk","missing":false,"accuracy":1},{"contexts":["blue","red","green"],"outcomes":[0,0,1],"key":37,"choice":0,"rt":86.34000003803521,"outcome":0,"trial":49,"correct":2,"trial_type":"three-arm-trial","trial_index":57,"time_elapsed":541170,"internal_node_id":"0.0-55.0-0.0","task_version":"screening-mturk","missing":false,"accuracy":0},{"contexts":["blue","red","green"],"outcomes":[0,0,1],"key":38,"choice":1,"rt":153.38499995414168,"outcome":0,"trial":50,"correct":2,"trial_type":"three-arm-trial","trial_index":58,"time_elapsed":542527,"internal_node_id":"0.0-56.0-0.0","task_version":"screening-mturk","missing":false,"accuracy":0},{"contexts":["blue","red","green"],"outcomes":[0,0,1],"key":39,"choice":2,"rt":508.2950000651181,"outcome":1,"trial":51,"correct":2,"trial_type":"three-arm-trial","trial_index":59,"time_elapsed":544239,"internal_node_id":"0.0-57.0-0.0","task_version":"screening-mturk","missing":false,"accuracy":1},{"contexts":["blue","red","green"],"outcomes":[0,0,0],"key":37,"choice":0,"rt":325.0499999849126,"outcome":0,"trial":52,"correct":2,"trial_type":"three-arm-trial","trial_index":60,"time_elapsed":545770,"internal_node_id":"0.0-58.0-0.0","task_version":"screening-mturk","missing":false,"accuracy":0},{"contexts":["blue","red","green"],"outcomes":[1,1,1],"key":37,"choice":0,"rt":201.20999997016042,"outcome":1,"trial":53,"correct":2,"trial_type":"three-arm-trial","trial_index":61,"time_elapsed":547175,"internal_node_id":"0.0-59.0-0.0","task_version":"screening-mturk","missing":false,"accuracy":0},{"contexts":["blue","red","green"],"outcomes":[1,0,1],"key":39,"choice":2,"rt":812.320000026375,"outcome":1,"trial":54,"correct":2,"trial_type":"three-arm-trial","trial_index":62,"time_elapsed":549191,"internal_node_id":"0.0-60.0-0.0","task_version":"screening-mturk","missing":false,"accuracy":1},{"contexts":["blue","red","green"],"outcomes":[0,1,1],"key":39,"choice":2,"rt":887.1849999995902,"outcome":1,"trial":55,"correct":2,"trial_type":"three-arm-trial","trial_index":63,"time_elapsed":551283,"internal_node_id":"0.0-61.0-0.0","task_version":"screening-mturk","missing":false,"accuracy":1},{"contexts":["blue","red","green"],"outcomes":[1,0,1],"key":39,"choice":2,"rt":827.5499999290332,"outcome":1,"trial":56,"correct":2,"trial_type":"three-arm-trial","trial_index":64,"time_elapsed":553315,"internal_node_id":"0.0-62.0-0.0","task_version":"screening-mturk","missing":false,"accuracy":1},{"contexts":["blue","red","green"],"outcomes":[0,0,0],"key":39,"choice":2,"rt":451.424999977462,"outcome":0,"trial":57,"correct":2,"trial_type":"three-arm-trial","trial_index":65,"time_elapsed":554970,"internal_node_id":"0.0-63.0-0.0","task_version":"screening-mturk","missing":false,"accuracy":1},{"contexts":["blue","red","green"],"outcomes":[0,0,1],"key":38,"choice":1,"rt":171.19000002276152,"outcome":0,"trial":58,"correct":2,"trial_type":"three-arm-trial","trial_index":66,"time_elapsed":556346,"internal_node_id":"0.0-64.0-0.0","task_version":"screening-mturk","missing":false,"accuracy":0},{"contexts":["blue","red","green"],"outcomes":[1,0,1],"key":37,"choice":0,"rt":337.53499994054437,"outcome":1,"trial":59,"correct":2,"trial_type":"three-arm-trial","trial_index":67,"time_elapsed":557888,"internal_node_id":"0.0-65.0-0.0","task_version":"screening-mturk","missing":false,"accuracy":0},{"contexts":["blue","red","green"],"outcomes":[0,0,1],"key":39,"choice":2,"rt":196.61500002257526,"outcome":1,"trial":60,"correct":2,"trial_type":"three-arm-trial","trial_index":68,"time_elapsed":559288,"internal_node_id":"0.0-66.0-0.0","task_version":"screening-mturk","missing":false,"accuracy":1},{"contexts":["blue","red","green"],"outcomes":[1,0,0],"key":39,"choice":2,"rt":327.8749999590218,"outcome":0,"trial":61,"correct":0,"trial_type":"three-arm-trial","trial_index":69,"time_elapsed":560820,"internal_node_id":"0.0-67.0-0.0","task_version":"screening-mturk","missing":false,"accuracy":0},{"contexts":["blue","red","green"],"outcomes":[1,0,0],"key":37,"choice":0,"rt":202.66000006813556,"outcome":1,"trial":62,"correct":0,"trial_type":"three-arm-trial","trial_index":70,"time_elapsed":562226,"internal_node_id":"0.0-68.0-0.0","task_version":"screening-mturk","missing":false,"accuracy":1},{"contexts":["blue","red","green"],"outcomes":[1,0,0],"key":38,"choice":1,"rt":432.8299999469891,"outcome":0,"trial":63,"correct":0,"trial_type":"three-arm-trial","trial_index":71,"time_elapsed":563863,"internal_node_id":"0.0-69.0-0.0","task_version":"screening-mturk","missing":false,"accuracy":0},{"contexts":["blue","red","green"],"outcomes":[1,0,0],"key":39,"choice":2,"rt":68.000000086613,"outcome":0,"trial":64,"correct":0,"trial_type":"three-arm-trial","trial_index":72,"time_elapsed":565136,"internal_node_id":"0.0-70.0-0.0","task_version":"screening-mturk","missing":false,"accuracy":0},{"contexts":["blue","red","green"],"outcomes":[1,0,0],"key":37,"choice":0,"rt":36.56999999657273,"outcome":1,"trial":65,"correct":0,"trial_type":"three-arm-trial","trial_index":73,"time_elapsed":566376,"internal_node_id":"0.0-71.0-0.0","task_version":"screening-mturk","missing":false,"accuracy":1},{"contexts":["blue","red","green"],"outcomes":[1,1,0],"key":37,"choice":0,"rt":408.47499994561076,"outcome":1,"trial":66,"correct":0,"trial_type":"three-arm-trial","trial_index":74,"time_elapsed":567989,"internal_node_id":"0.0-72.0-0.0","task_version":"screening-mturk","missing":false,"accuracy":1},{"contexts":["blue","red","green"],"outcomes":[1,0,0],"key":39,"choice":2,"rt":430.49499997869134,"outcome":0,"trial":67,"correct":0,"trial_type":"three-arm-trial","trial_index":75,"time_elapsed":569623,"internal_node_id":"0.0-73.0-0.0","task_version":"screening-mturk","missing":false,"accuracy":0},{"contexts":["blue","red","green"],"outcomes":[1,0,0],"key":39,"choice":2,"rt":245.23499992210418,"outcome":0,"trial":68,"correct":0,"trial_type":"three-arm-trial","trial_index":76,"time_elapsed":571072,"internal_node_id":"0.0-74.0-0.0","task_version":"screening-mturk","missing":false,"accuracy":0},{"contexts":["blue","red","green"],"outcomes":[1,0,0],"key":39,"choice":2,"rt":170.174999977462,"outcome":0,"trial":69,"correct":0,"trial_type":"three-arm-trial","trial_index":77,"time_elapsed":572447,"internal_node_id":"0.0-75.0-0.0","task_version":"screening-mturk","missing":false,"accuracy":0},{"contexts":["blue","red","green"],"outcomes":[1,0,0],"key":38,"choice":1,"rt":0.20499993115663528,"outcome":0,"trial":70,"correct":0,"trial_type":"three-arm-trial","trial_index":78,"time_elapsed":573651,"internal_node_id":"0.0-76.0-0.0","task_version":"screening-mturk","missing":false,"accuracy":0},{"contexts":["blue","red","green"],"outcomes":[1,0,0],"key":37,"choice":0,"rt":0.22000004537403584,"outcome":1,"trial":71,"correct":0,"trial_type":"three-arm-trial","trial_index":79,"time_elapsed":574855,"internal_node_id":"0.0-77.0-0.0","task_version":"screening-mturk","missing":false,"accuracy":1},{"contexts":["blue","red","green"],"outcomes":[1,1,0],"key":37,"choice":0,"rt":1329.9700000789016,"outcome":1,"trial":72,"correct":0,"trial_type":"three-arm-trial","trial_index":80,"time_elapsed":577389,"internal_node_id":"0.0-78.0-0.0","task_version":"screening-mturk","missing":false,"accuracy":1},{"contexts":["blue","red","green"],"outcomes":[1,0,0],"key":37,"choice":0,"rt":333.6600000038743,"outcome":1,"trial":73,"correct":0,"trial_type":"three-arm-trial","trial_index":81,"time_elapsed":578926,"internal_node_id":"0.0-79.0-0.0","task_version":"screening-mturk","missing":false,"accuracy":1},{"contexts":["blue","red","green"],"outcomes":[1,0,1],"key":38,"choice":1,"rt":0.20000000949949026,"outcome":0,"trial":74,"correct":0,"trial_type":"three-arm-trial","trial_index":82,"time_elapsed":580130,"internal_node_id":"0.0-80.0-0.0","task_version":"screening-mturk","missing":false,"accuracy":0},{"contexts":["blue","red","green"],"outcomes":[0,0,0],"key":37,"choice":0,"rt":316.47499999962747,"outcome":0,"trial":75,"correct":0,"trial_type":"three-arm-trial","trial_index":83,"time_elapsed":581651,"internal_node_id":"0.0-81.0-0.0","task_version":"screening-mturk","missing":false,"accuracy":1},{"contexts":["blue","red","green"],"outcomes":[0,1,1],"key":39,"choice":2,"rt":216.37499995995313,"outcome":1,"trial":76,"correct":1,"trial_type":"three-arm-trial","trial_index":84,"time_elapsed":583071,"internal_node_id":"0.0-82.0-0.0","task_version":"screening-mturk","missing":false,"accuracy":0},{"contexts":["blue","red","green"],"outcomes":[0,1,1],"key":39,"choice":2,"rt":33.67999999318272,"outcome":1,"trial":77,"correct":1,"trial_type":"three-arm-trial","trial_index":85,"time_elapsed":584309,"internal_node_id":"0.0-83.0-0.0","task_version":"screening-mturk","missing":false,"accuracy":0},{"contexts":["blue","red","green"],"outcomes":[1,1,0],"key":39,"choice":2,"rt":97.98500000033528,"outcome":0,"trial":78,"correct":1,"trial_type":"three-arm-trial","trial_index":86,"time_elapsed":585611,"internal_node_id":"0.0-84.0-0.0","task_version":"screening-mturk","missing":false,"accuracy":0},{"contexts":["blue","red","green"],"outcomes":[1,0,0],"key":38,"choice":1,"rt":202.3800000315532,"outcome":0,"trial":79,"correct":1,"trial_type":"three-arm-trial","trial_index":87,"time_elapsed":587017,"internal_node_id":"0.0-85.0-0.0","task_version":"screening-mturk","missing":false,"accuracy":1},{"contexts":["blue","red","green"],"outcomes":[0,1,0],"key":38,"choice":1,"rt":184.8350000800565,"outcome":1,"trial":80,"correct":1,"trial_type":"three-arm-trial","trial_index":88,"time_elapsed":588405,"internal_node_id":"0.0-86.0-0.0","task_version":"screening-mturk","missing":false,"accuracy":1},{"contexts":["blue","red","green"],"outcomes":[1,1,0],"key":37,"choice":0,"rt":31.975000048987567,"outcome":1,"trial":81,"correct":1,"trial_type":"three-arm-trial","trial_index":89,"time_elapsed":589641,"internal_node_id":"0.0-87.0-0.0","task_version":"screening-mturk","missing":false,"accuracy":0},{"contexts":["blue","red","green"],"outcomes":[0,1,0],"key":37,"choice":0,"rt":570.5249999882653,"outcome":0,"trial":82,"correct":1,"trial_type":"three-arm-trial","trial_index":90,"time_elapsed":591415,"internal_node_id":"0.0-88.0-0.0","task_version":"screening-mturk","missing":false,"accuracy":0},{"contexts":["blue","red","green"],"outcomes":[0,1,0],"key":39,"choice":2,"rt":4.6400000574067235,"outcome":0,"trial":83,"correct":1,"trial_type":"three-arm-trial","trial_index":91,"time_elapsed":592623,"internal_node_id":"0.0-89.0-0.0","task_version":"screening-mturk","missing":false,"accuracy":0},{"contexts":["blue","red","green"],"outcomes":[0,1,0],"key":39,"choice":2,"rt":59.76500001270324,"outcome":0,"trial":84,"correct":1,"trial_type":"three-arm-trial","trial_index":92,"time_elapsed":593889,"internal_node_id":"0.0-90.0-0.0","task_version":"screening-mturk","missing":false,"accuracy":0},{"contexts":["blue","red","green"],"outcomes":[0,1,0],"key":39,"choice":2,"rt":724.5399999665096,"outcome":0,"trial":85,"correct":1,"trial_type":"three-arm-trial","trial_index":93,"time_elapsed":595817,"internal_node_id":"0.0-91.0-0.0","task_version":"screening-mturk","missing":false,"accuracy":0},{"contexts":["blue","red","green"],"outcomes":[0,0,0],"key":38,"choice":1,"rt":346.335000009276,"outcome":0,"trial":86,"correct":1,"trial_type":"three-arm-trial","trial_index":94,"time_elapsed":597367,"internal_node_id":"0.0-92.0-0.0","task_version":"screening-mturk","missing":false,"accuracy":1},{"contexts":["blue","red","green"],"outcomes":[0,1,1],"key":37,"choice":0,"rt":208.3750000456348,"outcome":0,"trial":87,"correct":1,"trial_type":"three-arm-trial","trial_index":95,"time_elapsed":598781,"internal_node_id":"0.0-93.0-0.0","task_version":"screening-mturk","missing":false,"accuracy":0},{"contexts":["blue","red","green"],"outcomes":[0,1,0],"key":38,"choice":1,"rt":269.9299999512732,"outcome":1,"trial":88,"correct":1,"trial_type":"three-arm-trial","trial_index":96,"time_elapsed":600254,"internal_node_id":"0.0-94.0-0.0","task_version":"screening-mturk","missing":false,"accuracy":1},{"contexts":["blue","red","green"],"outcomes":[0,1,0],"key":38,"choice":1,"rt":277.83000003546476,"outcome":1,"trial":89,"correct":1,"trial_type":"three-arm-trial","trial_index":97,"time_elapsed":601735,"internal_node_id":"0.0-95.0-0.0","task_version":"screening-mturk","missing":false,"accuracy":1},{"contexts":["blue","red","green"],"outcomes":[1,1,0],"key":39,"choice":2,"rt":315.9100000048056,"outcome":0,"trial":90,"correct":1,"trial_type":"three-arm-trial","trial_index":98,"time_elapsed":603255,"internal_node_id":"0.0-96.0-0.0","task_version":"screening-mturk","missing":false,"accuracy":0},{"rt":23333.24999990873,"responses":{"age":"37","gender-categorical":"Female","gender-free-response":"","ethnicity":"Not Hispanic or Latino","race":["White"],"language":"Yes","fluency":"Very well","prolific":"No","prolific-this-study":"No"},"survey":"demographics","trial_type":"survey-demo","trial_index":99,"time_elapsed":626593,"internal_node_id":"0.0-97.0","task_version":"screening-mturk","interactions":"[{\"event\":\"blur\",\"trial\":3,\"time\":174216},{\"event\":\"focus\",\"trial\":3,\"time\":182534}]"}]