[{"responses":{"Q08":"2","Q09":"1","Q07":"1","Q03":"2","Q01":"1","Q12":"2","Q15":"1","Q05":"2","Q02":"1","Q06":"2","Q14":"0","Q11":"1","Q04":"0","Q10":"1","Q13":"0"},"rt":46181.000000000495,"survey":"7up7down","trial_type":"survey-template","trial_index":0,"time_elapsed":46217,"internal_node_id":"0.0-0.0","task_version":"screening-mturk"},{"responses":{"Q08":"2","Q11":"3","Q14":"2","Q04":"3","Q03":"2","Q07":"3","Q01":"2","Q13":"2","Q15":"2","Q12":"3","Q06":"2","Q02":"3","Q09":"2","Q05":"2","Q10":"3"},"rt":74349.00000000198,"survey":"shaps","trial_type":"survey-template","trial_index":1,"time_elapsed":120575,"internal_node_id":"0.0-1.0","task_version":"screening-mturk"},{"responses":{"Q11":"2","Q05":"3","Q03":"2","Q06":"3","Q07":"2","Q08":"2","Q10":"2","Q01":"1","Q04":"2","Q02":"2","Q12":"2","Q09":"1","Q13":"2"},"rt":33907.99999999945,"survey":"bisbas","trial_type":"survey-template","trial_index":2,"time_elapsed":154496,"internal_node_id":"0.0-2.0","task_version":"screening-mturk"},{"responses":{"Q02":"3","Q03":"4","Q01":"3"},"rt":12477.999999999156,"survey":"pswq","trial_type":"survey-template","trial_index":3,"time_elapsed":166979,"internal_node_id":"0.0-3.0","task_version":"screening-mturk"},{"responses":{"Q06":"2","Q02":"3","Q03":"2","Q07":"3","Q05":"2","Q08":"1","Q01":"2","Q04":"1"},"rt":10778.999999998632,"survey":"gad7","trial_type":"survey-template","trial_index":4,"time_elapsed":177764,"internal_node_id":"0.0-4.0","task_version":"screening-mturk"},{"view_history":"[{\"page_index\":0,\"viewing_time\":8824.000000000524},{\"page_index\":1,\"viewing_time\":1120.999999999185},{\"page_index\":2,\"viewing_time\":1055.000000000291},{\"page_index\":3,\"viewing_time\":7254.000000000815},{\"page_index\":4,\"viewing_time\":9415.999999997439},{\"page_index\":5,\"viewing_time\":847.0000000015716},{\"page_index\":6,\"viewing_time\":8292.999999997846},{\"page_index\":7,\"viewing_time\":848.0000000017753}]","rt":37662.00000000026,"trial_type":"instructions","trial_index":5,"time_elapsed":215430,"internal_node_id":"0.0-5.0-0.0","task_version":"screening-mturk"},{"responses":["True","True","True","True","True"],"num_errors":2,"rt":43378.00000000061,"trial_type":"three-arm-comprehension","trial_index":6,"time_elapsed":258826,"internal_node_id":"0.0-5.0-1.0","task_version":"screening-mturk"},{"view_history":"[{\"page_index\":0,\"viewing_time\":1760.999999998603},{\"page_index\":1,\"viewing_time\":4534.999999999884},{\"page_index\":2,\"viewing_time\":10258.00000000163},{\"page_index\":3,\"viewing_time\":3119.9999999989523},{\"page_index\":2,\"viewing_time\":2381.0000000012224},{\"page_index\":3,\"viewing_time\":856.9999999999418},{\"page_index\":4,\"viewing_time\":1667.9999999979045},{\"page_index\":5,\"viewing_time\":832.0000000020955},{\"page_index\":6,\"viewing_time\":511.99999999883585},{\"page_index\":7,\"viewing_time\":623.9999999997672}]","rt":26547.999999998836,"trial_type":"instructions","trial_index":7,"time_elapsed":285385,"internal_node_id":"0.0-5.1-0.1","task_version":"screening-mturk"},{"responses":["True","True","True","True","True"],"num_errors":2,"rt":5244.9999999990105,"trial_type":"three-arm-comprehension","trial_index":8,"time_elapsed":290636,"internal_node_id":"0.0-5.1-1.1","task_version":"screening-mturk"},{"view_history":"[{\"page_index\":0,\"viewing_time\":1031.9999999992433},{\"page_index\":1,\"viewing_time\":190.99999999889405},{\"page_index\":2,\"viewing_time\":656.0000000026776},{\"page_index\":3,\"viewing_time\":1550.9999999994761},{\"page_index\":4,\"viewing_time\":764.9999999994179},{\"page_index\":5,\"viewing_time\":426.99999999965075},{\"page_index\":6,\"viewing_time\":176.99999999970896},{\"page_index\":7,\"viewing_time\":487.00000000098953}]","rt":5287.000000000291,"trial_type":"instructions","trial_index":9,"time_elapsed":295929,"internal_node_id":"0.0-5.2-0.2","task_version":"screening-mturk"},{"responses":["True","True","True","True","True"],"num_errors":2,"rt":3778.999999998603,"trial_type":"three-arm-comprehension","trial_index":10,"time_elapsed":299716,"internal_node_id":"0.0-5.2-1.2","task_version":"screening-mturk"},{"view_history":"[{\"page_index\":0,\"viewing_time\":653.999999998603},{\"page_index\":1,\"viewing_time\":159.99999999988358},{\"page_index\":2,\"viewing_time\":176.000000003085},{\"page_index\":3,\"viewing_time\":198.999999996915},{\"page_index\":4,\"viewing_time\":504.0000000008149},{\"page_index\":5,\"viewing_time\":473.00000000174623},{\"page_index\":6,\"viewing_time\":623.9999999997672},{\"page_index\":7,\"viewing_time\":598.9999999983702}]","rt":3389.999999999418,"trial_type":"instructions","trial_index":11,"time_elapsed":303118,"internal_node_id":"0.0-5.3-0.3","task_version":"screening-mturk"},{"responses":["True","True","True","True","True"],"num_errors":2,"rt":7461.999999999534,"trial_type":"three-arm-comprehension","trial_index":12,"time_elapsed":310586,"internal_node_id":"0.0-5.3-1.3","task_version":"screening-mturk"},{"view_history":"[{\"page_index\":0,\"viewing_time\":806.0000000004657},{\"page_index\":1,\"viewing_time\":175.99999999953434},{\"page_index\":2,\"viewing_time\":175.99999999941792},{\"page_index\":3,\"viewing_time\":721.000000001397},{\"page_index\":4,\"viewing_time\":807.0000000006985},{\"page_index\":5,\"viewing_time\":2127.0000000004075},{\"page_index\":6,\"viewing_time\":1248.9999999998254},{\"page_index\":7,\"viewing_time\":1150.999999998021}]","rt":7213.999999999942,"trial_type":"instructions","trial_index":13,"time_elapsed":317811,"internal_node_id":"0.0-5.4-0.4","task_version":"screening-mturk"},{"responses":["True","True","True","True","True"],"num_errors":2,"rt":5454.000000001513,"trial_type":"three-arm-comprehension","trial_index":14,"time_elapsed":323272,"internal_node_id":"0.0-5.4-1.4","task_version":"screening-mturk"},{"view_history":"[{\"page_index\":0,\"viewing_time\":752.0000000004657},{\"page_index\":1,\"viewing_time\":159.99999999982538},{\"page_index\":2,\"viewing_time\":168.99999999807915},{\"page_index\":3,\"viewing_time\":151.00000000162981},{\"page_index\":4,\"viewing_time\":177.99999999988358},{\"page_index\":5,\"viewing_time\":533.9999999996508},{\"page_index\":6,\"viewing_time\":207.99999999871943},{\"page_index\":7,\"viewing_time\":159.99999999988358}]","rt":2311.9999999981374,"trial_type":"instructions","trial_index":15,"time_elapsed":325594,"internal_node_id":"0.0-5.5-0.5","task_version":"screening-mturk"},{"responses":["True","True","True","True","True"],"num_errors":2,"rt":3919.0000000017462,"trial_type":"three-arm-comprehension","trial_index":16,"time_elapsed":329519,"internal_node_id":"0.0-5.5-1.5","task_version":"screening-mturk"},{"view_history":"[{\"page_index\":0,\"viewing_time\":559.0000000010477},{\"page_index\":1,\"viewing_time\":153.99999999866122},{\"page_index\":2,\"viewing_time\":169.00000000168802},{\"page_index\":3,\"viewing_time\":158.99999999965075},{\"page_index\":4,\"viewing_time\":845.9999999977299},{\"page_index\":5,\"viewing_time\":599.0000000019791},{\"page_index\":6,\"viewing_time\":552.9999999998836},{\"page_index\":7,\"viewing_time\":710.9999999993597}]","rt":3751.0000000001746,"trial_type":"instructions","trial_index":17,"time_elapsed":333281,"internal_node_id":"0.0-5.6-0.6","task_version":"screening-mturk"},{"responses":["True","True","True","True","True"],"num_errors":2,"rt":3829.9999999981374,"trial_type":"three-arm-comprehension","trial_index":18,"time_elapsed":337116,"internal_node_id":"0.0-5.6-1.6","task_version":"screening-mturk"},{"view_history":"[{\"page_index\":0,\"viewing_time\":975.9999999987776},{\"page_index\":1,\"viewing_time\":168.0000000014552},{\"page_index\":2,\"viewing_time\":175.99999999953434},{\"page_index\":3,\"viewing_time\":174.9999999992433},{\"page_index\":4,\"viewing_time\":664.0000000006403},{\"page_index\":5,\"viewing_time\":576.9999999975553},{\"page_index\":6,\"viewing_time\":527.0000000018626},{\"page_index\":7,\"viewing_time\":593.0000000006985}]","rt":3857,"trial_type":"instructions","trial_index":19,"time_elapsed":340985,"internal_node_id":"0.0-5.7-0.7","task_version":"screening-mturk"},{"responses":["True","True","False","True","False"],"num_errors":2,"rt":6067.000000002678,"trial_type":"three-arm-comprehension","trial_index":20,"time_elapsed":347058,"internal_node_id":"0.0-5.7-1.7","task_version":"screening-mturk"},{"view_history":"[{\"page_index\":0,\"viewing_time\":694.999999999709},{\"page_index\":1,\"viewing_time\":209.00000000256114},{\"page_index\":2,\"viewing_time\":206.9999999985448},{\"page_index\":3,\"viewing_time\":688.9999999984866},{\"page_index\":4,\"viewing_time\":1176.000000003085},{\"page_index\":5,\"viewing_time\":638.9999999992433},{\"page_index\":6,\"viewing_time\":943.9999999994761},{\"page_index\":7,\"viewing_time\":560.0000000013388}]","rt":5119.999999998952,"trial_type":"instructions","trial_index":21,"time_elapsed":352183,"internal_node_id":"0.0-5.8-0.8","task_version":"screening-mturk"},{"responses":["True","True","True","True","True"],"num_errors":2,"rt":6405.000000002503,"trial_type":"three-arm-comprehension","trial_index":22,"time_elapsed":358594,"internal_node_id":"0.0-5.8-1.8","task_version":"screening-mturk"},{"view_history":"[{\"page_index\":0,\"viewing_time\":1709.9999999991269},{\"page_index\":1,\"viewing_time\":152.00000000186265},{\"page_index\":2,\"viewing_time\":167.99999999784632},{\"page_index\":3,\"viewing_time\":168.0000000014552},{\"page_index\":4,\"viewing_time\":159.99999999988358},{\"page_index\":5,\"viewing_time\":1034.9999999998836},{\"page_index\":6,\"viewing_time\":150.00000000139698},{\"page_index\":7,\"viewing_time\":183.99999999749707}]","rt":3726.9999999989523,"trial_type":"instructions","trial_index":23,"time_elapsed":362326,"internal_node_id":"0.0-5.9-0.9","task_version":"screening-mturk"},{"responses":["True","True","True","True","True"],"num_errors":2,"rt":11655.000000002445,"trial_type":"three-arm-comprehension","trial_index":24,"time_elapsed":373989,"internal_node_id":"0.0-5.9-1.9","task_version":"screening-mturk"},{"view_history":"[{\"page_index\":0,\"viewing_time\":3359.0000000004075},{\"page_index\":1,\"viewing_time\":3872.9999999995925},{\"page_index\":2,\"viewing_time\":1769.0000000002328},{\"page_index\":3,\"viewing_time\":3751.000000000233},{\"page_index\":4,\"viewing_time\":5582.999999998719},{\"page_index\":5,\"viewing_time\":1273.0000000010477},{\"page_index\":6,\"viewing_time\":1222.9999999981374},{\"page_index\":7,\"viewing_time\":1617.000000001979}]","rt":22448.00000000035,"trial_type":"instructions","trial_index":25,"time_elapsed":396447,"internal_node_id":"0.0-5.10-0.10","task_version":"screening-mturk"},{"responses":["True","True","True","True","True"],"num_errors":2,"rt":9831.999999998545,"trial_type":"three-arm-comprehension","trial_index":26,"time_elapsed":406286,"internal_node_id":"0.0-5.10-1.10","task_version":"screening-mturk"},{"view_history":"[{\"page_index\":0,\"viewing_time\":2204.0000000015716},{\"page_index\":1,\"viewing_time\":1030.9999999990105},{\"page_index\":2,\"viewing_time\":1528.9999999986612},{\"page_index\":3,\"viewing_time\":2031.9999999992433},{\"page_index\":4,\"viewing_time\":2225.000000002212},{\"page_index\":5,\"viewing_time\":918.9999999980209},{\"page_index\":6,\"viewing_time\":673.0000000025029},{\"page_index\":7,\"viewing_time\":726.9999999989523}]","rt":11341.00000000035,"trial_type":"instructions","trial_index":27,"time_elapsed":417639,"internal_node_id":"0.0-5.11-0.11","task_version":"screening-mturk"},{"responses":["False","True","True","True","True"],"num_errors":3,"rt":7084.999999999069,"trial_type":"three-arm-comprehension","trial_index":28,"time_elapsed":424728,"internal_node_id":"0.0-5.11-1.11","task_version":"screening-mturk"},{"view_history":"[{\"page_index\":0,\"viewing_time\":1169.9999999982538},{\"page_index\":1,\"viewing_time\":208.0000000023283},{\"page_index\":2,\"viewing_time\":305.00000000029104},{\"page_index\":3,\"viewing_time\":982.9999999965657},{\"page_index\":4,\"viewing_time\":864.000000001397},{\"page_index\":5,\"viewing_time\":504.0000000008149},{\"page_index\":6,\"viewing_time\":200.0000000006985},{\"page_index\":7,\"viewing_time\":199.99999999708962}]","rt":4433.999999997439,"trial_type":"instructions","trial_index":29,"time_elapsed":429166,"internal_node_id":"0.0-5.12-0.12","task_version":"screening-mturk"},{"responses":["True","True","True","True","True"],"num_errors":2,"rt":4684.000000001106,"trial_type":"three-arm-comprehension","trial_index":30,"time_elapsed":433854,"internal_node_id":"0.0-5.12-1.12","task_version":"screening-mturk"},{"view_history":"[{\"page_index\":0,\"viewing_time\":912.000000000291},{\"page_index\":1,\"viewing_time\":190.99999999889405},{\"page_index\":2,\"viewing_time\":145.00000000046566},{\"page_index\":3,\"viewing_time\":144.00000000023283},{\"page_index\":4,\"viewing_time\":144.00000000023283},{\"page_index\":5,\"viewing_time\":670.9999999984284},{\"page_index\":6,\"viewing_time\":200.0000000007567},{\"page_index\":7,\"viewing_time\":480.99999999976717}]","rt":2888.9999999992433,"trial_type":"instructions","trial_index":31,"time_elapsed":436747,"internal_node_id":"0.0-5.13-0.13","task_version":"screening-mturk"},{"responses":["True","True","True","True","True"],"num_errors":2,"rt":2971.9999999979045,"trial_type":"three-arm-comprehension","trial_index":32,"time_elapsed":439724,"internal_node_id":"0.0-5.13-1.13","task_version":"screening-mturk"},{"view_history":"[{\"page_index\":0,\"viewing_time\":649.0000000012806},{\"page_index\":1,\"viewing_time\":174.9999999993015},{\"page_index\":2,\"viewing_time\":161},{\"page_index\":3,\"viewing_time\":166.9999999976717},{\"page_index\":4,\"viewing_time\":545.0000000018626},{\"page_index\":5,\"viewing_time\":479.99999999959255},{\"page_index\":6,\"viewing_time\":505.00000000098953},{\"page_index\":7,\"viewing_time\":557.9999999973224}]","rt":3240.9999999981956,"trial_type":"instructions","trial_index":33,"time_elapsed":442970,"internal_node_id":"0.0-5.14-0.14","task_version":"screening-mturk"},{"responses":["True","True","True","True","True"],"num_errors":2,"rt":3358.000000000233,"trial_type":"three-arm-comprehension","trial_index":34,"time_elapsed":446331,"internal_node_id":"0.0-5.14-1.14","task_version":"screening-mturk"},{"view_history":"[{\"page_index\":0,\"viewing_time\":568.9999999995343},{\"page_index\":1,\"viewing_time\":168.0000000014552},{\"page_index\":2,\"viewing_time\":175.99999999947613},{\"page_index\":3,\"viewing_time\":167.99999999784632},{\"page_index\":4,\"viewing_time\":159.99999999982538},{\"page_index\":5,\"viewing_time\":608.0000000002328},{\"page_index\":6,\"viewing_time\":175.99999999941792},{\"page_index\":7,\"viewing_time\":512.0000000024447}]","rt":2538.0000000004657,"trial_type":"instructions","trial_index":35,"time_elapsed":448877,"internal_node_id":"0.0-5.15-0.15","task_version":"screening-mturk"},{"responses":["True","True","True","True","True"],"num_errors":2,"rt":3282.0000000029104,"trial_type":"three-arm-comprehension","trial_index":36,"time_elapsed":452166,"internal_node_id":"0.0-5.15-1.15","task_version":"screening-mturk"},{"view_history":"[{\"page_index\":0,\"viewing_time\":894.0000000002328},{\"page_index\":1,\"viewing_time\":176.99999999965075},{\"page_index\":2,\"viewing_time\":190.99999999895226},{\"page_index\":3,\"viewing_time\":185.00000000128057},{\"page_index\":4,\"viewing_time\":592.0000000005821},{\"page_index\":5,\"viewing_time\":566.9999999990687},{\"page_index\":6,\"viewing_time\":559.9999999976717},{\"page_index\":7,\"viewing_time\":536.0000000000582}]","rt":3702.9999999976717,"trial_type":"instructions","trial_index":37,"time_elapsed":455880,"internal_node_id":"0.0-5.16-0.16","task_version":"screening-mturk"},{"responses":["True","True","True","True","True"],"num_errors":2,"rt":3470.000000001164,"trial_type":"three-arm-comprehension","trial_index":38,"time_elapsed":459353,"internal_node_id":"0.0-5.16-1.16","task_version":"screening-mturk"},{"view_history":"[{\"page_index\":0,\"viewing_time\":728.9999999993597},{\"page_index\":1,\"viewing_time\":165.99999999743886},{\"page_index\":2,\"viewing_time\":184.00000000110595},{\"page_index\":3,\"viewing_time\":168.0000000015134},{\"page_index\":4,\"viewing_time\":583.999999998894},{\"page_index\":5,\"viewing_time\":191.99999999912689},{\"page_index\":6,\"viewing_time\":416.00000000104774},{\"page_index\":7,\"viewing_time\":560.0000000012806}]","rt":3000,"trial_type":"instructions","trial_index":39,"time_elapsed":462359,"internal_node_id":"0.0-5.17-0.17","task_version":"screening-mturk"},{"responses":["True","True","True","True","True"],"num_errors":2,"rt":3459.000000002561,"trial_type":"three-arm-comprehension","trial_index":40,"time_elapsed":465825,"internal_node_id":"0.0-5.17-1.17","task_version":"screening-mturk"},{"view_history":"[{\"page_index\":0,\"viewing_time\":567.9999999993015},{\"page_index\":1,\"viewing_time\":176.99999999970896},{\"page_index\":2,\"viewing_time\":177.00000000325963},{\"page_index\":3,\"viewing_time\":174.9999999993015},{\"page_index\":4,\"viewing_time\":175.99999999947613},{\"page_index\":5,\"viewing_time\":544.9999999982538},{\"page_index\":6,\"viewing_time\":1831.0000000019209},{\"page_index\":7,\"viewing_time\":550.9999999995343}]","rt":4201.000000000931,"trial_type":"instructions","trial_index":41,"time_elapsed":470031,"internal_node_id":"0.0-5.18-0.18","task_version":"screening-mturk"},{"responses":["True","True","True","True","True"],"num_errors":2,"rt":3637.9999999990105,"trial_type":"three-arm-comprehension","trial_index":42,"time_elapsed":473674,"internal_node_id":"0.0-5.18-1.18","task_version":"screening-mturk"},{"view_history":"[{\"page_index\":0,\"viewing_time\":691.9999999990687},{\"page_index\":1,\"viewing_time\":184.00000000116415},{\"page_index\":2,\"viewing_time\":135.99999999860302},{\"page_index\":3,\"viewing_time\":167.9999999977881},{\"page_index\":4,\"viewing_time\":161.00000000011642},{\"page_index\":5,\"viewing_time\":430.00000000023283},{\"page_index\":6,\"viewing_time\":185.00000000133878},{\"page_index\":7,\"viewing_time\":447.0000000001164}]","rt":2403.999999998603,"trial_type":"instructions","trial_index":43,"time_elapsed":476085,"internal_node_id":"0.0-5.19-0.19","task_version":"screening-mturk"},{"responses":["True","True","True","True","True"],"num_errors":2,"rt":4987.999999997555,"trial_type":"three-arm-comprehension","trial_index":44,"time_elapsed":481078,"internal_node_id":"0.0-5.19-1.19","task_version":"screening-mturk"},{"view_history":"[{\"page_index\":0,\"viewing_time\":231.9999999999418},{\"page_index\":1,\"viewing_time\":168.0000000014552},{\"page_index\":2,\"viewing_time\":175.99999999953434},{\"page_index\":3,\"viewing_time\":159.99999999982538},{\"page_index\":4,\"viewing_time\":151.99999999819556},{\"page_index\":5,\"viewing_time\":488.00000000122236},{\"page_index\":6,\"viewing_time\":168.0000000014552},{\"page_index\":7,\"viewing_time\":503.99999999720603}]","rt":2048.9999999990687,"trial_type":"instructions","trial_index":45,"time_elapsed":483132,"internal_node_id":"0.0-5.20-0.20","task_version":"screening-mturk"},{"responses":["True","True","True","True","True"],"num_errors":2,"rt":3485.000000000582,"trial_type":"three-arm-comprehension","trial_index":46,"time_elapsed":486626,"internal_node_id":"0.0-5.20-1.20","task_version":"screening-mturk"},{"view_history":"[{\"page_index\":0,\"viewing_time\":359.00000000040745},{\"page_index\":1,\"viewing_time\":175.99999999941792},{\"page_index\":2,\"viewing_time\":152.00000000186265},{\"page_index\":3,\"viewing_time\":159.99999999988358},{\"page_index\":4,\"viewing_time\":144.00000000023283},{\"page_index\":5,\"viewing_time\":430.9999999968568},{\"page_index\":6,\"viewing_time\":463.9999999999418},{\"page_index\":7,\"viewing_time\":521.0000000006403}]","rt":2407.999999999476,"trial_type":"instructions","trial_index":47,"time_elapsed":489045,"internal_node_id":"0.0-5.21-0.21","task_version":"screening-mturk"},{"responses":["True","True","True","True","True"],"num_errors":2,"rt":3362.0000000009313,"trial_type":"three-arm-comprehension","trial_index":48,"time_elapsed":492413,"internal_node_id":"0.0-5.21-1.21","task_version":"screening-mturk"},{"view_history":"[{\"page_index\":0,\"viewing_time\":278.00000000203727},{\"page_index\":1,\"viewing_time\":183.99999999749707},{\"page_index\":2,\"viewing_time\":159.99999999982538},{\"page_index\":3,\"viewing_time\":169.00000000174623},{\"page_index\":4,\"viewing_time\":159.99999999982538},{\"page_index\":5,\"viewing_time\":431.00000000052387},{\"page_index\":6,\"viewing_time\":183.99999999743886},{\"page_index\":7,\"viewing_time\":400.0000000014552}]","rt":1967.0000000005239,"trial_type":"instructions","trial_index":49,"time_elapsed":494388,"internal_node_id":"0.0-5.22-0.22","task_version":"screening-mturk"},{"responses":["True","True","True","True","True"],"num_errors":2,"rt":3348.99999999837,"trial_type":"three-arm-comprehension","trial_index":50,"time_elapsed":497741,"internal_node_id":"0.0-5.22-1.22","task_version":"screening-mturk"},{"view_history":"[{\"page_index\":0,\"viewing_time\":534.9999999998254},{\"page_index\":1,\"viewing_time\":192.9999999993015},{\"page_index\":2,\"viewing_time\":183.00000000087311},{\"page_index\":3,\"viewing_time\":521.0000000006985},{\"page_index\":4,\"viewing_time\":575.9999999972642},{\"page_index\":5,\"viewing_time\":519.0000000002328},{\"page_index\":6,\"viewing_time\":472.0000000015716},{\"page_index\":7,\"viewing_time\":511.99999999883585}]","rt":3510.999999998603,"trial_type":"instructions","trial_index":51,"time_elapsed":501258,"internal_node_id":"0.0-5.23-0.23","task_version":"screening-mturk"},{"responses":["True","True","True","True","True"],"num_errors":2,"rt":3518.000000000058,"trial_type":"three-arm-comprehension","trial_index":52,"time_elapsed":504781,"internal_node_id":"0.0-5.23-1.23","task_version":"screening-mturk"},{"view_history":"[{\"page_index\":0,\"viewing_time\":375},{\"page_index\":1,\"viewing_time\":174.9999999993015},{\"page_index\":2,\"viewing_time\":167.99999999784632},{\"page_index\":3,\"viewing_time\":177.00000000331784},{\"page_index\":4,\"viewing_time\":167.99999999784632},{\"page_index\":5,\"viewing_time\":472.0000000015716},{\"page_index\":6,\"viewing_time\":559.9999999976717},{\"page_index\":7,\"viewing_time\":527.0000000018626}]","rt":2622.9999999996508,"trial_type":"instructions","trial_index":53,"time_elapsed":507410,"internal_node_id":"0.0-5.24-0.24","task_version":"screening-mturk"},{"responses":["True","True","True","True","True"],"num_errors":2,"rt":3147.999999997439,"trial_type":"three-arm-comprehension","trial_index":54,"time_elapsed":510563,"internal_node_id":"0.0-5.24-1.24","task_version":"screening-mturk"},{"view_history":"[{\"page_index\":0,\"viewing_time\":231.9999999999418},{\"page_index\":1,\"viewing_time\":158.99999999965075},{\"page_index\":2,\"viewing_time\":168.0000000014552},{\"page_index\":3,\"viewing_time\":159.99999999988358},{\"page_index\":4,\"viewing_time\":159.99999999988358},{\"page_index\":5,\"viewing_time\":168.99999999802094},{\"page_index\":6,\"viewing_time\":151.00000000162981},{\"page_index\":7,\"viewing_time\":504.99999999743886}]","rt":1703.9999999979045,"trial_type":"instructions","trial_index":55,"time_elapsed":512274,"internal_node_id":"0.0-5.25-0.25","task_version":"screening-mturk"},{"responses":["True","True","True","True","True"],"num_errors":2,"rt":3137.9999999990105,"trial_type":"three-arm-comprehension","trial_index":56,"time_elapsed":515422,"internal_node_id":"0.0-5.25-1.25","task_version":"screening-mturk"},{"view_history":"[{\"page_index\":0,\"viewing_time\":247.99999999953434},{\"page_index\":1,\"viewing_time\":166.9999999976717},{\"page_index\":2,\"viewing_time\":159.99999999988358},{\"page_index\":3,\"viewing_time\":159.99999999982538},{\"page_index\":4,\"viewing_time\":168.0000000014552},{\"page_index\":5,\"viewing_time\":159.99999999988358},{\"page_index\":6,\"viewing_time\":175.99999999947613},{\"page_index\":7,\"viewing_time\":407.99999999947613}]","rt":1647.9999999973807,"trial_type":"instructions","trial_index":57,"time_elapsed":517081,"internal_node_id":"0.0-5.26-0.26","task_version":"screening-mturk"},{"responses":["True","True","True","True","True"],"num_errors":2,"rt":3210.9999999993597,"trial_type":"three-arm-comprehension","trial_index":58,"time_elapsed":520298,"internal_node_id":"0.0-5.26-1.26","task_version":"screening-mturk"},{"view_history":"[{\"page_index\":0,\"viewing_time\":240.99999999813735},{\"page_index\":1,\"viewing_time\":175.99999999953434},{\"page_index\":2,\"viewing_time\":161},{\"page_index\":3,\"viewing_time\":158.0000000031432},{\"page_index\":4,\"viewing_time\":152.99999999837019},{\"page_index\":5,\"viewing_time\":455.9999999983702},{\"page_index\":6,\"viewing_time\":400.000000001397},{\"page_index\":7,\"viewing_time\":567.9999999993015}]","rt":2313.9999999984866,"trial_type":"instructions","trial_index":59,"time_elapsed":522617,"internal_node_id":"0.0-5.27-0.27","task_version":"screening-mturk"},{"responses":["True","True","True","True","True"],"num_errors":2,"rt":3242.999999998603,"trial_type":"three-arm-comprehension","trial_index":60,"time_elapsed":525865,"internal_node_id":"0.0-5.27-1.27","task_version":"screening-mturk"},{"view_history":"[{\"page_index\":0,\"viewing_time\":335.9999999993015},{\"page_index\":1,\"viewing_time\":174.9999999993015},{\"page_index\":2,\"viewing_time\":192.00000000267755},{\"page_index\":3,\"viewing_time\":167.99999999790452},{\"page_index\":4,\"viewing_time\":159.99999999988358},{\"page_index\":5,\"viewing_time\":472.0000000015134},{\"page_index\":6,\"viewing_time\":174.9999999993015},{\"page_index\":7,\"viewing_time\":465.0000000001164}]","rt":2144.000000000233,"trial_type":"instructions","trial_index":61,"time_elapsed":528015,"internal_node_id":"0.0-5.28-0.28","task_version":"screening-mturk"},{"responses":["True","True","True","True","True"],"num_errors":2,"rt":3380.9999999976717,"trial_type":"three-arm-comprehension","trial_index":62,"time_elapsed":531403,"internal_node_id":"0.0-5.28-1.28","task_version":"screening-mturk"},{"view_history":"[{\"page_index\":0,\"viewing_time\":334.9999999990687},{\"page_index\":1,\"viewing_time\":184.00000000116415},{\"page_index\":2,\"viewing_time\":143.99999999650754},{\"page_index\":3,\"viewing_time\":159.99999999988358},{\"page_index\":4,\"viewing_time\":176.0000000031432},{\"page_index\":5,\"viewing_time\":480.99999999976717},{\"page_index\":6,\"viewing_time\":158.99999999965075},{\"page_index\":7,\"viewing_time\":440.99999999895226}]","rt":2079.9999999981374,"trial_type":"instructions","trial_index":63,"time_elapsed":533494,"internal_node_id":"0.0-5.29-0.29","task_version":"screening-mturk"},{"responses":["True","True","True","True","True"],"num_errors":2,"rt":3013.9999999993015,"trial_type":"three-arm-comprehension","trial_index":64,"time_elapsed":536521,"internal_node_id":"0.0-5.29-1.29","task_version":"screening-mturk"},{"view_history":"[{\"page_index\":0,\"viewing_time\":363.00000000116415},{\"page_index\":1,\"viewing_time\":158.99999999965075},{\"page_index\":2,\"viewing_time\":158.99999999965075},{\"page_index\":3,\"viewing_time\":161},{\"page_index\":4,\"viewing_time\":166.9999999976717},{\"page_index\":5,\"viewing_time\":481.00000000337604},{\"page_index\":6,\"viewing_time\":191.9999999991851},{\"page_index\":7,\"viewing_time\":471.9999999979045}]","rt":2153.999999998603,"trial_type":"instructions","trial_index":65,"time_elapsed":538686,"internal_node_id":"0.0-5.30-0.30","task_version":"screening-mturk"},{"responses":["True","True","True","True","True"],"num_errors":2,"rt":3671.0000000020955,"trial_type":"three-arm-comprehension","trial_index":66,"time_elapsed":542365,"internal_node_id":"0.0-5.30-1.30","task_version":"screening-mturk"},{"view_history":"[{\"page_index\":0,\"viewing_time\":396.0000000005821},{\"page_index\":1,\"viewing_time\":183.99999999755528},{\"page_index\":2,\"viewing_time\":169.00000000162981},{\"page_index\":3,\"viewing_time\":175.99999999953434},{\"page_index\":4,\"viewing_time\":454.99999999802094},{\"page_index\":5,\"viewing_time\":536.0000000001164},{\"page_index\":6,\"viewing_time\":593.0000000006985},{\"page_index\":7,\"viewing_time\":550.9999999995343}]","rt":3061.999999998021,"trial_type":"instructions","trial_index":67,"time_elapsed":545438,"internal_node_id":"0.0-5.31-0.31","task_version":"screening-mturk"},{"responses":["True","True","True","True","True"],"num_errors":2,"rt":3733.0000000001164,"trial_type":"three-arm-comprehension","trial_index":68,"time_elapsed":549175,"internal_node_id":"0.0-5.31-1.31","task_version":"screening-mturk"},{"view_history":"[{\"page_index\":0,\"viewing_time\":444.0000000031432},{\"page_index\":1,\"viewing_time\":191.9999999991851},{\"page_index\":2,\"viewing_time\":167.9999999977881},{\"page_index\":3,\"viewing_time\":168.0000000015134},{\"page_index\":4,\"viewing_time\":159.99999999976717},{\"page_index\":5,\"viewing_time\":495.9999999993015},{\"page_index\":6,\"viewing_time\":505.0000000009313},{\"page_index\":7,\"viewing_time\":575.0000000006985}]","rt":2709.000000002561,"trial_type":"instructions","trial_index":69,"time_elapsed":551893,"internal_node_id":"0.0-5.32-0.32","task_version":"screening-mturk"},{"responses":["True","True","True","True","True"],"num_errors":2,"rt":3431.999999996973,"trial_type":"three-arm-comprehension","trial_index":70,"time_elapsed":555333,"internal_node_id":"0.0-5.32-1.32","task_version":"screening-mturk"},{"view_history":"[{\"page_index\":0,\"viewing_time\":6806.000000000466},{\"page_index\":1,\"viewing_time\":175.99999999953434},{\"page_index\":2,\"viewing_time\":175.00000000291038},{\"page_index\":3,\"viewing_time\":151.99999999825377},{\"page_index\":4,\"viewing_time\":576.0000000009313},{\"page_index\":5,\"viewing_time\":495.9999999991851},{\"page_index\":6,\"viewing_time\":422.99999999883585},{\"page_index\":7,\"viewing_time\":551.9999999996508}]","rt":9355.999999999767,"trial_type":"instructions","trial_index":71,"time_elapsed":564703,"internal_node_id":"0.0-5.33-0.33","task_version":"screening-mturk"},{"responses":["True","True","True","True","True"],"num_errors":2,"rt":3727.000000002561,"trial_type":"three-arm-comprehension","trial_index":72,"time_elapsed":568436,"internal_node_id":"0.0-5.33-1.33","task_version":"screening-mturk"},{"view_history":"[{\"page_index\":0,\"viewing_time\":500},{\"page_index\":1,\"viewing_time\":167.00000000128057},{\"page_index\":2,\"viewing_time\":175.99999999941792},{\"page_index\":3,\"viewing_time\":192.00000000279397},{\"page_index\":4,\"viewing_time\":199.99999999708962},{\"page_index\":5,\"viewing_time\":400.000000001397},{\"page_index\":6,\"viewing_time\":455.9999999983702},{\"page_index\":7,\"viewing_time\":176.0000000030268}]","rt":2268,"trial_type":"instructions","trial_index":73,"time_elapsed":570718,"internal_node_id":"0.0-5.34-0.34","task_version":"screening-mturk"},{"responses":["True","True","True","True","True"],"num_errors":2,"rt":3899.0000000012806,"trial_type":"three-arm-comprehension","trial_index":74,"time_elapsed":574623,"internal_node_id":"0.0-5.34-1.34","task_version":"screening-mturk"},{"view_history":"[{\"page_index\":0,\"viewing_time\":448.9999999968568},{\"page_index\":1,\"viewing_time\":175.00000000291038},{\"page_index\":2,\"viewing_time\":176.99999999965075},{\"page_index\":3,\"viewing_time\":175.99999999953434},{\"page_index\":4,\"viewing_time\":583.9999999989523},{\"page_index\":5,\"viewing_time\":560.0000000012806},{\"page_index\":6,\"viewing_time\":504.0000000008149},{\"page_index\":7,\"viewing_time\":526.9999999982538}]","rt":3152.9999999984866,"trial_type":"instructions","trial_index":75,"time_elapsed":577781,"internal_node_id":"0.0-5.35-0.35","task_version":"screening-mturk"},{"responses":["True","True","True","True","True"],"num_errors":2,"rt":3590.0000000001164,"trial_type":"three-arm-comprehension","trial_index":76,"time_elapsed":581375,"internal_node_id":"0.0-5.35-1.35","task_version":"screening-mturk"},{"view_history":"[{\"page_index\":0,\"viewing_time\":538.0000000004657},{\"page_index\":1,\"viewing_time\":175.99999999941792},{\"page_index\":2,\"viewing_time\":161.00000000011642},{\"page_index\":3,\"viewing_time\":167.00000000116415},{\"page_index\":4,\"viewing_time\":168.0000000015134},{\"page_index\":5,\"viewing_time\":167.99999999790452},{\"page_index\":6,\"viewing_time\":390.99999999965075},{\"page_index\":7,\"viewing_time\":176.0000000030268}]","rt":1946.0000000034925,"trial_type":"instructions","trial_index":77,"time_elapsed":583325,"internal_node_id":"0.0-5.36-0.36","task_version":"screening-mturk"},{"responses":["True","True","True","True","True"],"num_errors":2,"rt":4422.000000002328,"trial_type":"three-arm-comprehension","trial_index":78,"time_elapsed":587751,"internal_node_id":"0.0-5.36-1.36","task_version":"screening-mturk"},{"view_history":"[{\"page_index\":0,\"viewing_time\":895.0000000003492},{\"page_index\":1,\"viewing_time\":185.00000000139698},{\"page_index\":2,\"viewing_time\":158.99999999965075},{\"page_index\":3,\"viewing_time\":192.9999999993015},{\"page_index\":4,\"viewing_time\":632.000000001397},{\"page_index\":5,\"viewing_time\":567.9999999993015},{\"page_index\":6,\"viewing_time\":583.9999999989523},{\"page_index\":7,\"viewing_time\":534.9999999997672}]","rt":3752.0000000003492,"trial_type":"instructions","trial_index":79,"time_elapsed":591509,"internal_node_id":"0.0-5.37-0.37","task_version":"screening-mturk"},{"responses":["True","True","True","True","True"],"num_errors":2,"rt":3543.000000001397,"trial_type":"three-arm-comprehension","trial_index":80,"time_elapsed":595059,"internal_node_id":"0.0-5.37-1.37","task_version":"screening-mturk"},{"view_history":"[{\"page_index\":0,\"viewing_time\":574.0000000005821},{\"page_index\":1,\"viewing_time\":184.9999999976717},{\"page_index\":2,\"viewing_time\":158.99999999965075},{\"page_index\":3,\"viewing_time\":185.00000000128057},{\"page_index\":4,\"viewing_time\":175.99999999953434},{\"page_index\":5,\"viewing_time\":458.0000000023283},{\"page_index\":6,\"viewing_time\":181.9999999969732},{\"page_index\":7,\"viewing_time\":527.0000000018626}]","rt":2447.0000000001164,"trial_type":"instructions","trial_index":81,"time_elapsed":597517,"internal_node_id":"0.0-5.38-0.38","task_version":"screening-mturk"},{"responses":["True","True","True","True","True"],"num_errors":2,"rt":3698.999999996857,"trial_type":"three-arm-comprehension","trial_index":82,"time_elapsed":601222,"internal_node_id":"0.0-5.38-1.38","task_version":"screening-mturk"},{"view_history":"[{\"page_index\":0,\"viewing_time\":423.9999999990687},{\"page_index\":1,\"viewing_time\":175.99999999941792},{\"page_index\":2,\"viewing_time\":185.00000000139698},{\"page_index\":3,\"viewing_time\":168.00000000139698},{\"page_index\":4,\"viewing_time\":167.99999999790452},{\"page_index\":5,\"viewing_time\":504.0000000008149},{\"page_index\":6,\"viewing_time\":462.99999999965075},{\"page_index\":7,\"viewing_time\":488.00000000128057}]","rt":2577.0000000010477,"trial_type":"instructions","trial_index":83,"time_elapsed":603805,"internal_node_id":"0.0-5.39-0.39","task_version":"screening-mturk"},{"responses":["True","True","True","True","True"],"num_errors":2,"rt":3309.9999999976717,"trial_type":"three-arm-comprehension","trial_index":84,"time_elapsed":607120,"internal_node_id":"0.0-5.39-1.39","task_version":"screening-mturk"},{"view_history":"[{\"page_index\":0,\"viewing_time\":403.999999998603},{\"page_index\":1,\"viewing_time\":184.00000000116415},{\"page_index\":2,\"viewing_time\":183.99999999743886},{\"page_index\":3,\"viewing_time\":159.99999999988358},{\"page_index\":4,\"viewing_time\":184.00000000104774},{\"page_index\":5,\"viewing_time\":168.0000000015134},{\"page_index\":6,\"viewing_time\":423.9999999990687},{\"page_index\":7,\"viewing_time\":511.99999999883585}]","rt":2220.999999997788,"trial_type":"instructions","trial_index":85,"time_elapsed":609349,"internal_node_id":"0.0-5.40-0.40","task_version":"screening-mturk"},{"responses":["True","True","True","True","True"],"num_errors":2,"rt":3723.0000000017462,"trial_type":"three-arm-comprehension","trial_index":86,"time_elapsed":613077,"internal_node_id":"0.0-5.40-1.40","task_version":"screening-mturk"},{"view_history":"[{\"page_index\":0,\"viewing_time\":654.9999999988358},{\"page_index\":1,\"viewing_time\":192.00000000267755},{\"page_index\":2,\"viewing_time\":161.00000000011642},{\"page_index\":3,\"viewing_time\":206.9999999984866},{\"page_index\":4,\"viewing_time\":201.00000000093132},{\"page_index\":5,\"viewing_time\":407.9999999994179},{\"page_index\":6,\"viewing_time\":184.00000000116415},{\"page_index\":7,\"viewing_time\":447.0000000001164}]","rt":2456.000000001979,"trial_type":"instructions","trial_index":87,"time_elapsed":615539,"internal_node_id":"0.0-5.41-0.41","task_version":"screening-mturk"},{"responses":["True","True","True","True","True"],"num_errors":2,"rt":4064.0000000020955,"trial_type":"three-arm-comprehension","trial_index":88,"time_elapsed":619614,"internal_node_id":"0.0-5.41-1.41","task_version":"screening-mturk"},{"view_history":"[{\"page_index\":0,\"viewing_time\":448.00000000023283},{\"page_index\":1,\"viewing_time\":199.99999999708962},{\"page_index\":2,\"viewing_time\":168.0000000015134},{\"page_index\":3,\"viewing_time\":191.99999999906868},{\"page_index\":4,\"viewing_time\":489.000000001397},{\"page_index\":5,\"viewing_time\":487.00000000104774},{\"page_index\":6,\"viewing_time\":496.9999999994179},{\"page_index\":7,\"viewing_time\":503.0000000005821}]","rt":2984.999999996857,"trial_type":"instructions","trial_index":89,"time_elapsed":622612,"internal_node_id":"0.0-5.42-0.42","task_version":"screening-mturk"},{"responses":["True","True","True","True","True"],"num_errors":2,"rt":3900.0000000015134,"trial_type":"three-arm-comprehension","trial_index":90,"time_elapsed":626517,"internal_node_id":"0.0-5.42-1.42","task_version":"screening-mturk"},{"view_history":"[{\"page_index\":0,\"viewing_time\":728.000000002794},{\"page_index\":1,\"viewing_time\":199.00000000046566},{\"page_index\":2,\"viewing_time\":176.99999999976717},{\"page_index\":3,\"viewing_time\":183.99999999743886},{\"page_index\":4,\"viewing_time\":175.99999999941792},{\"page_index\":5,\"viewing_time\":424.00000000267755},{\"page_index\":6,\"viewing_time\":151.99999999825377},{\"page_index\":7,\"viewing_time\":183.00000000093132}]","rt":2224.000000001979,"trial_type":"instructions","trial_index":91,"time_elapsed":628747,"internal_node_id":"0.0-5.43-0.43","task_version":"screening-mturk"},{"responses":["True","True","True","True","True"],"num_errors":2,"rt":3681.0000000004657,"trial_type":"three-arm-comprehension","trial_index":92,"time_elapsed":632436,"internal_node_id":"0.0-5.43-1.43","task_version":"screening-mturk"},{"view_history":"[{\"page_index\":0,\"viewing_time\":852.9999999991851},{\"page_index\":1,\"viewing_time\":166.00000000104774},{\"page_index\":2,\"viewing_time\":161.00000000011642},{\"page_index\":3,\"viewing_time\":161},{\"page_index\":4,\"viewing_time\":165.99999999743886},{\"page_index\":5,\"viewing_time\":448.00000000034925},{\"page_index\":6,\"viewing_time\":159.99999999988358},{\"page_index\":7,\"viewing_time\":463.9999999998836}]","rt":2579.9999999981374,"trial_type":"instructions","trial_index":93,"time_elapsed":635027,"internal_node_id":"0.0-5.44-0.44","task_version":"screening-mturk"},{"responses":["True","True","True","True","True"],"num_errors":2,"rt":3751.000000000233,"trial_type":"three-arm-comprehension","trial_index":94,"time_elapsed":638784,"internal_node_id":"0.0-5.44-1.44","task_version":"screening-mturk"},{"view_history":"[{\"page_index\":0,\"viewing_time\":618.9999999987194},{\"page_index\":1,\"viewing_time\":152.00000000186265},{\"page_index\":2,\"viewing_time\":183.00000000093132},{\"page_index\":3,\"viewing_time\":161.00000000011642},{\"page_index\":4,\"viewing_time\":166.99999999755528},{\"page_index\":5,\"viewing_time\":592.0000000005821},{\"page_index\":6,\"viewing_time\":455.9999999983702},{\"page_index\":7,\"viewing_time\":561.000000001397}]","rt":2890.9999999995343,"trial_type":"instructions","trial_index":95,"time_elapsed":641691,"internal_node_id":"0.0-5.45-0.45","task_version":"screening-mturk"},{"responses":["True","True","True","True","True"],"num_errors":2,"rt":3965.0000000001164,"trial_type":"three-arm-comprehension","trial_index":96,"time_elapsed":645660,"internal_node_id":"0.0-5.45-1.45","task_version":"screening-mturk"},{"view_history":"[{\"page_index\":0,\"viewing_time\":409.99999999976717},{\"page_index\":1,\"viewing_time\":183.99999999755528},{\"page_index\":2,\"viewing_time\":175.99999999941792},{\"page_index\":3,\"viewing_time\":168.0000000015134},{\"page_index\":4,\"viewing_time\":175.99999999941792},{\"page_index\":5,\"viewing_time\":550.9999999995343},{\"page_index\":6,\"viewing_time\":184.00000000116415},{\"page_index\":7,\"viewing_time\":511.99999999871943}]","rt":2360.9999999970896,"trial_type":"instructions","trial_index":97,"time_elapsed":648025,"internal_node_id":"0.0-5.46-0.46","task_version":"screening-mturk"},{"responses":["True","True","True","True","True"],"num_errors":2,"rt":3664.000000000582,"trial_type":"three-arm-comprehension","trial_index":98,"time_elapsed":651695,"internal_node_id":"0.0-5.46-1.46","task_version":"screening-mturk"},{"view_history":"[{\"page_index\":0,\"viewing_time\":503.0000000005821},{\"page_index\":1,\"viewing_time\":192.9999999993015},{\"page_index\":2,\"viewing_time\":191.99999999906868},{\"page_index\":3,\"viewing_time\":168.0000000015134},{\"page_index\":4,\"viewing_time\":184.00000000104774},{\"page_index\":5,\"viewing_time\":175.99999999953434},{\"page_index\":6,\"viewing_time\":200.0000000006985},{\"page_index\":7,\"viewing_time\":576.9999999975553}]","rt":2192.9999999993015,"trial_type":"instructions","trial_index":99,"time_elapsed":653899,"internal_node_id":"0.0-5.47-0.47","task_version":"screening-mturk"},{"responses":["True","True","True","True","True"],"num_errors":2,"rt":3970.000000001164,"trial_type":"three-arm-comprehension","trial_index":100,"time_elapsed":657875,"internal_node_id":"0.0-5.47-1.47","task_version":"screening-mturk"},{"view_history":"[{\"page_index\":0,\"viewing_time\":823.0000000003492},{\"page_index\":1,\"viewing_time\":169.00000000162981},{\"page_index\":2,\"viewing_time\":167.99999999790452},{\"page_index\":3,\"viewing_time\":176.0000000031432},{\"page_index\":4,\"viewing_time\":175.99999999941792},{\"page_index\":5,\"viewing_time\":448.00000000034925},{\"page_index\":6,\"viewing_time\":487.9999999975553},{\"page_index\":7,\"viewing_time\":432.0000000006985}]","rt":2880.0000000010477,"trial_type":"instructions","trial_index":101,"time_elapsed":660761,"internal_node_id":"0.0-5.48-0.48","task_version":"screening-mturk"},{"responses":["True","True","True","True","True"],"num_errors":2,"rt":3791.0000000010477,"trial_type":"three-arm-comprehension","trial_index":102,"time_elapsed":664555,"internal_node_id":"0.0-5.48-1.48","task_version":"screening-mturk"},{"view_history":"[{\"page_index\":0,\"viewing_time\":360.0000000005821},{\"page_index\":1,\"viewing_time\":184.00000000104774},{\"page_index\":2,\"viewing_time\":175.99999999953434},{\"page_index\":3,\"viewing_time\":169.00000000162981},{\"page_index\":4,\"viewing_time\":183.99999999755528},{\"page_index\":5,\"viewing_time\":175.99999999941792},{\"page_index\":6,\"viewing_time\":216.00000000034925},{\"page_index\":7,\"viewing_time\":487.00000000104774}]","rt":1953.000000001397,"trial_type":"instructions","trial_index":103,"time_elapsed":666513,"internal_node_id":"0.0-5.49-0.49","task_version":"screening-mturk"},{"responses":["True","True","True","True","True"],"num_errors":2,"rt":3654.999999998836,"trial_type":"three-arm-comprehension","trial_index":104,"time_elapsed":670171,"internal_node_id":"0.0-5.49-1.49","task_version":"screening-mturk"},{"view_history":"[{\"page_index\":0,\"viewing_time\":382.99999999802094},{\"page_index\":1,\"viewing_time\":176.99999999965075},{\"page_index\":2,\"viewing_time\":183.00000000093132},{\"page_index\":3,\"viewing_time\":169.00000000174623},{\"page_index\":4,\"viewing_time\":175.99999999941792},{\"page_index\":5,\"viewing_time\":168.0000000015134},{\"page_index\":6,\"viewing_time\":183.99999999743886},{\"page_index\":7,\"viewing_time\":191.99999999906868}]","rt":1632.999999998021,"trial_type":"instructions","trial_index":105,"time_elapsed":671810,"internal_node_id":"0.0-5.50-0.50","task_version":"screening-mturk"},{"responses":["True","True","True","True","True"],"num_errors":2,"rt":3873.999999999767,"trial_type":"three-arm-comprehension","trial_index":106,"time_elapsed":675691,"internal_node_id":"0.0-5.50-1.50","task_version":"screening-mturk"},{"view_history":"[{\"page_index\":0,\"viewing_time\":415.99999999743886},{\"page_index\":1,\"viewing_time\":169.00000000174623},{\"page_index\":2,\"viewing_time\":183.00000000093132},{\"page_index\":3,\"viewing_time\":168.99999999802094},{\"page_index\":4,\"viewing_time\":168.0000000015134},{\"page_index\":5,\"viewing_time\":448.00000000023283},{\"page_index\":6,\"viewing_time\":455.9999999983702},{\"page_index\":7,\"viewing_time\":478.9999999993015}]","rt":2488.999999997788,"trial_type":"instructions","trial_index":107,"time_elapsed":678185,"internal_node_id":"0.0-5.51-0.51","task_version":"screening-mturk"},{"responses":["True","True","True","True","True"],"num_errors":2,"rt":3651.00000000163,"trial_type":"three-arm-comprehension","trial_index":108,"time_elapsed":681842,"internal_node_id":"0.0-5.51-1.51","task_version":"screening-mturk"},{"view_history":"[{\"page_index\":0,\"viewing_time\":343.0000000006985},{\"page_index\":1,\"viewing_time\":175.99999999953434},{\"page_index\":2,\"viewing_time\":168.0000000015134},{\"page_index\":3,\"viewing_time\":167.9999999977881},{\"page_index\":4,\"viewing_time\":159.99999999988358},{\"page_index\":5,\"viewing_time\":440.0000000023283},{\"page_index\":6,\"viewing_time\":184.9999999976717},{\"page_index\":7,\"viewing_time\":448.00000000034925}]","rt":2089,"trial_type":"instructions","trial_index":109,"time_elapsed":683936,"internal_node_id":"0.0-5.52-0.52","task_version":"screening-mturk"},{"responses":["True","True","True","True","True"],"num_errors":2,"rt":3605.999999999767,"trial_type":"three-arm-comprehension","trial_index":110,"time_elapsed":687552,"internal_node_id":"0.0-5.52-1.52","task_version":"screening-mturk"},{"view_history":"[{\"page_index\":0,\"viewing_time\":600.0000000022119},{\"page_index\":1,\"viewing_time\":135.99999999860302},{\"page_index\":2,\"viewing_time\":184.00000000104774},{\"page_index\":3,\"viewing_time\":171.99999999871943},{\"page_index\":4,\"viewing_time\":155.99999999906868},{\"page_index\":5,\"viewing_time\":159.99999999976717},{\"page_index\":6,\"viewing_time\":192.00000000279397},{\"page_index\":7,\"viewing_time\":191.99999999906868}]","rt":1792.0000000012806,"trial_type":"instructions","trial_index":111,"time_elapsed":689356,"internal_node_id":"0.0-5.53-0.53","task_version":"screening-mturk"},{"responses":["True","True","True","True","True"],"num_errors":2,"rt":4002.999999996973,"trial_type":"three-arm-comprehension","trial_index":112,"time_elapsed":693365,"internal_node_id":"0.0-5.53-1.53","task_version":"screening-mturk"},{"view_history":"[{\"page_index\":0,\"viewing_time\":665.0000000008149},{\"page_index\":1,\"viewing_time\":174.9999999993015},{\"page_index\":2,\"viewing_time\":175.99999999953434},{\"page_index\":3,\"viewing_time\":152.00000000186265},{\"page_index\":4,\"viewing_time\":167.9999999977881},{\"page_index\":5,\"viewing_time\":472.0000000015134},{\"page_index\":6,\"viewing_time\":183.99999999755528},{\"page_index\":7,\"viewing_time\":479.0000000029104}]","rt":2471.9999999979045,"trial_type":"instructions","trial_index":113,"time_elapsed":695843,"internal_node_id":"0.0-5.54-0.54","task_version":"screening-mturk"},{"responses":["True","True","True","True","True"],"num_errors":2,"rt":3896.000000000582,"trial_type":"three-arm-comprehension","trial_index":114,"time_elapsed":699745,"internal_node_id":"0.0-5.54-1.54","task_version":"screening-mturk"},{"view_history":"[{\"page_index\":0,\"viewing_time\":502.00000000034925},{\"page_index\":1,\"viewing_time\":176.99999999976717},{\"page_index\":2,\"viewing_time\":175.00000000291038},{\"page_index\":3,\"viewing_time\":167.9999999977881},{\"page_index\":4,\"viewing_time\":184.00000000116415},{\"page_index\":5,\"viewing_time\":416.00000000104774},{\"page_index\":6,\"viewing_time\":175.99999999941792},{\"page_index\":7,\"viewing_time\":472.99999999813735}]","rt":2271.000000000582,"trial_type":"instructions","trial_index":115,"time_elapsed":702027,"internal_node_id":"0.0-5.55-0.55","task_version":"screening-mturk"},{"responses":["True","True","True","True","True"],"num_errors":2,"rt":3693.9999999995343,"trial_type":"three-arm-comprehension","trial_index":116,"time_elapsed":705728,"internal_node_id":"0.0-5.55-1.55","task_version":"screening-mturk"},{"view_history":"[{\"page_index\":0,\"viewing_time\":2304.0000000001164},{\"page_index\":1,\"viewing_time\":144.00000000023283},{\"page_index\":2,\"viewing_time\":159.99999999976717},{\"page_index\":3,\"viewing_time\":159.99999999988358},{\"page_index\":4,\"viewing_time\":489.000000001397},{\"page_index\":5,\"viewing_time\":174.9999999993015},{\"page_index\":6,\"viewing_time\":463.9999999998836},{\"page_index\":7,\"viewing_time\":184.00000000116415}]","rt":4080.0000000017462,"trial_type":"instructions","trial_index":117,"time_elapsed":709818,"internal_node_id":"0.0-5.56-0.56","task_version":"screening-mturk"},{"responses":["True","True","True","True","True"],"num_errors":2,"rt":5335.999999999418,"trial_type":"three-arm-comprehension","trial_index":118,"time_elapsed":715161,"internal_node_id":"0.0-5.56-1.56","task_version":"screening-mturk"},{"view_history":"[{\"page_index\":0,\"viewing_time\":686.0000000015134},{\"page_index\":1,\"viewing_time\":184.9999999976717},{\"page_index\":2,\"viewing_time\":158.99999999965075},{\"page_index\":3,\"viewing_time\":192.00000000279397},{\"page_index\":4,\"viewing_time\":520.0000000004657},{\"page_index\":5,\"viewing_time\":381.9999999976717},{\"page_index\":6,\"viewing_time\":488.00000000128057},{\"page_index\":7,\"viewing_time\":1112.9999999975553}]","rt":3725.999999998836,"trial_type":"instructions","trial_index":119,"time_elapsed":718898,"internal_node_id":"0.0-5.57-0.57","task_version":"screening-mturk"},{"responses":["True","True","False","False","True"],"num_errors":0,"rt":133185.0000000014,"trial_type":"three-arm-comprehension","trial_index":120,"time_elapsed":852093,"internal_node_id":"0.0-5.57-1.57","task_version":"screening-mturk"},{"view_history":"[{\"page_index\":0,\"viewing_time\":2495.9999999990687}]","rt":2496.9999999993015,"trial_type":"instructions","trial_index":121,"time_elapsed":854604,"internal_node_id":"0.0-6.0","task_version":"screening-mturk"},{"contexts":["green","blue","red"],"outcomes":[0,0,0],"key":null,"rt":null,"trial":1,"correct":0,"trial_type":"three-arm-trial","trial_index":122,"time_elapsed":869614,"internal_node_id":"0.0-7.0-0.0","task_version":"screening-mturk","missing":true},{"contexts":["green","blue","red"],"outcomes":[0,0,0],"key":null,"rt":null,"trial":1,"correct":0,"trial_type":"three-arm-trial","trial_index":123,"time_elapsed":884629,"internal_node_id":"0.0-7.1-0.1","task_version":"screening-mturk","missing":true},{"contexts":["green","blue","red"],"outcomes":[0,0,0],"key":39,"choice":2,"rt":234.00000000034925,"outcome":0,"trial":1,"correct":0,"trial_type":"three-arm-trial","trial_index":124,"time_elapsed":886078,"internal_node_id":"0.0-7.2-0.2","task_version":"screening-mturk","missing":false,"accuracy":0},{"contexts":["green","blue","red"],"outcomes":[1,0,1],"key":37,"choice":0,"rt":29.00000000221189,"outcome":1,"trial":2,"correct":0,"trial_type":"three-arm-trial","trial_index":125,"time_elapsed":887327,"internal_node_id":"0.0-8.0-0.0","task_version":"screening-mturk","missing":false,"accuracy":1},{"contexts":["green","blue","red"],"outcomes":[1,0,0],"key":37,"choice":0,"rt":212.99999999976717,"outcome":1,"trial":3,"correct":0,"trial_type":"three-arm-trial","trial_index":126,"time_elapsed":888745,"internal_node_id":"0.0-9.0-0.0","task_version":"screening-mturk","missing":false,"accuracy":1},{"contexts":["green","blue","red"],"outcomes":[1,0,0],"key":37,"choice":0,"rt":845.0000000011642,"outcome":1,"trial":4,"correct":0,"trial_type":"three-arm-trial","trial_index":127,"time_elapsed":890812,"internal_node_id":"0.0-10.0-0.0","task_version":"screening-mturk","missing":false,"accuracy":1},{"contexts":["green","blue","red"],"outcomes":[1,1,0],"key":37,"choice":0,"rt":712.9999999997672,"outcome":1,"trial":5,"correct":0,"trial_type":"three-arm-trial","trial_index":128,"time_elapsed":892750,"internal_node_id":"0.0-11.0-0.0","task_version":"screening-mturk","missing":false,"accuracy":1},{"contexts":["green","blue","red"],"outcomes":[1,0,0],"key":37,"choice":0,"rt":534.9999999998836,"outcome":1,"trial":6,"correct":0,"trial_type":"three-arm-trial","trial_index":129,"time_elapsed":894493,"internal_node_id":"0.0-12.0-0.0","task_version":"screening-mturk","missing":false,"accuracy":1},{"contexts":["green","blue","red"],"outcomes":[1,0,0],"key":37,"choice":0,"rt":440.99999999895226,"outcome":1,"trial":7,"correct":0,"trial_type":"three-arm-trial","trial_index":130,"time_elapsed":896145,"internal_node_id":"0.0-13.0-0.0","task_version":"screening-mturk","missing":false,"accuracy":1},{"contexts":["green","blue","red"],"outcomes":[1,0,0],"key":37,"choice":0,"rt":667.9999999979045,"outcome":1,"trial":8,"correct":0,"trial_type":"three-arm-trial","trial_index":131,"time_elapsed":898045,"internal_node_id":"0.0-14.0-0.0","task_version":"screening-mturk","missing":false,"accuracy":1},{"contexts":["green","blue","red"],"outcomes":[1,0,1],"key":37,"choice":0,"rt":229.99999999965075,"outcome":1,"trial":9,"correct":0,"trial_type":"three-arm-trial","trial_index":132,"time_elapsed":899538,"internal_node_id":"0.0-15.0-0.0","task_version":"screening-mturk","missing":false,"accuracy":1},{"contexts":["green","blue","red"],"outcomes":[0,0,0],"key":37,"choice":0,"rt":699.0000000004657,"outcome":0,"trial":10,"correct":0,"trial_type":"three-arm-trial","trial_index":133,"time_elapsed":901541,"internal_node_id":"0.0-16.0-0.0","task_version":"screening-mturk","missing":false,"accuracy":1},{"contexts":["green","blue","red"],"outcomes":[1,0,0],"key":39,"choice":2,"rt":942.9999999993015,"outcome":0,"trial":11,"correct":0,"trial_type":"three-arm-trial","trial_index":134,"time_elapsed":903709,"internal_node_id":"0.0-17.0-0.0","task_version":"screening-mturk","missing":false,"accuracy":0},{"contexts":["green","blue","red"],"outcomes":[0,0,0],"key":38,"choice":1,"rt":54,"outcome":0,"trial":12,"correct":0,"trial_type":"three-arm-trial","trial_index":135,"time_elapsed":904970,"internal_node_id":"0.0-18.0-0.0","task_version":"screening-mturk","missing":false,"accuracy":0},{"contexts":["green","blue","red"],"outcomes":[1,0,0],"key":37,"choice":0,"rt":644.0000000002328,"outcome":1,"trial":13,"correct":0,"trial_type":"three-arm-trial","trial_index":136,"time_elapsed":906829,"internal_node_id":"0.0-19.0-0.0","task_version":"screening-mturk","missing":false,"accuracy":1},{"contexts":["green","blue","red"],"outcomes":[1,0,1],"key":37,"choice":0,"rt":133.99999999825377,"outcome":1,"trial":14,"correct":0,"trial_type":"three-arm-trial","trial_index":137,"time_elapsed":908209,"internal_node_id":"0.0-20.0-0.0","task_version":"screening-mturk","missing":false,"accuracy":1},{"contexts":["green","blue","red"],"outcomes":[1,0,0],"key":37,"choice":0,"rt":54,"outcome":1,"trial":15,"correct":0,"trial_type":"three-arm-trial","trial_index":138,"time_elapsed":909486,"internal_node_id":"0.0-21.0-0.0","task_version":"screening-mturk","missing":false,"accuracy":1},{"contexts":["green","blue","red"],"outcomes":[1,0,1],"key":37,"choice":0,"rt":242.00000000209548,"outcome":1,"trial":16,"correct":2,"trial_type":"three-arm-trial","trial_index":139,"time_elapsed":910938,"internal_node_id":"0.0-22.0-0.0","task_version":"screening-mturk","missing":false,"accuracy":0},{"contexts":["green","blue","red"],"outcomes":[0,0,1],"key":37,"choice":0,"rt":243.99999999871943,"outcome":0,"trial":17,"correct":2,"trial_type":"three-arm-trial","trial_index":140,"time_elapsed":912391,"internal_node_id":"0.0-23.0-0.0","task_version":"screening-mturk","missing":false,"accuracy":0},{"contexts":["green","blue","red"],"outcomes":[0,0,1],"key":37,"choice":0,"rt":159.00000000325963,"outcome":0,"trial":18,"correct":2,"trial_type":"three-arm-trial","trial_index":141,"time_elapsed":913758,"internal_node_id":"0.0-24.0-0.0","task_version":"screening-mturk","missing":false,"accuracy":0},{"contexts":["green","blue","red"],"outcomes":[1,0,1],"key":37,"choice":0,"rt":581.0000000019791,"outcome":1,"trial":19,"correct":2,"trial_type":"three-arm-trial","trial_index":142,"time_elapsed":915542,"internal_node_id":"0.0-25.0-0.0","task_version":"screening-mturk","missing":false,"accuracy":0},{"contexts":["green","blue","red"],"outcomes":[0,0,1],"key":37,"choice":0,"rt":163.00000000046566,"outcome":0,"trial":20,"correct":2,"trial_type":"three-arm-trial","trial_index":143,"time_elapsed":916908,"internal_node_id":"0.0-26.0-0.0","task_version":"screening-mturk","missing":false,"accuracy":0},{"contexts":["green","blue","red"],"outcomes":[0,0,0],"key":37,"choice":0,"rt":25.999999998137355,"outcome":0,"trial":21,"correct":2,"trial_type":"three-arm-trial","trial_index":144,"time_elapsed":918162,"internal_node_id":"0.0-27.0-0.0","task_version":"screening-mturk","missing":false,"accuracy":0},{"contexts":["green","blue","red"],"outcomes":[0,1,1],"key":37,"choice":0,"rt":197.00000000011642,"outcome":0,"trial":22,"correct":2,"trial_type":"three-arm-trial","trial_index":145,"time_elapsed":919577,"internal_node_id":"0.0-28.0-0.0","task_version":"screening-mturk","missing":false,"accuracy":0},{"contexts":["green","blue","red"],"outcomes":[0,1,0],"key":37,"choice":0,"rt":131.00000000116415,"outcome":0,"trial":23,"correct":2,"trial_type":"three-arm-trial","trial_index":146,"time_elapsed":920913,"internal_node_id":"0.0-29.0-0.0","task_version":"screening-mturk","missing":false,"accuracy":0},{"contexts":["green","blue","red"],"outcomes":[1,1,1],"key":39,"choice":2,"rt":65.99999999883585,"outcome":1,"trial":24,"correct":2,"trial_type":"three-arm-trial","trial_index":147,"time_elapsed":922183,"internal_node_id":"0.0-30.0-0.0","task_version":"screening-mturk","missing":false,"accuracy":1},{"contexts":["green","blue","red"],"outcomes":[0,0,1],"key":39,"choice":2,"rt":119.00000000244472,"outcome":1,"trial":25,"correct":2,"trial_type":"three-arm-trial","trial_index":148,"time_elapsed":923511,"internal_node_id":"0.0-31.0-0.0","task_version":"screening-mturk","missing":false,"accuracy":1},{"contexts":["green","blue","red"],"outcomes":[0,0,1],"key":39,"choice":2,"rt":330.9999999983702,"outcome":1,"trial":26,"correct":2,"trial_type":"three-arm-trial","trial_index":149,"time_elapsed":925049,"internal_node_id":"0.0-32.0-0.0","task_version":"screening-mturk","missing":false,"accuracy":1},{"contexts":["green","blue","red"],"outcomes":[0,0,0],"key":39,"choice":2,"rt":397.0000000008149,"outcome":0,"trial":27,"correct":2,"trial_type":"three-arm-trial","trial_index":150,"time_elapsed":926661,"internal_node_id":"0.0-33.0-0.0","task_version":"screening-mturk","missing":false,"accuracy":1},{"contexts":["green","blue","red"],"outcomes":[1,1,1],"key":37,"choice":0,"rt":33.999999999650754,"outcome":1,"trial":28,"correct":2,"trial_type":"three-arm-trial","trial_index":151,"time_elapsed":927918,"internal_node_id":"0.0-34.0-0.0","task_version":"screening-mturk","missing":false,"accuracy":0},{"contexts":["green","blue","red"],"outcomes":[0,0,1],"key":37,"choice":0,"rt":200.0000000006985,"outcome":0,"trial":29,"correct":2,"trial_type":"three-arm-trial","trial_index":152,"time_elapsed":929327,"internal_node_id":"0.0-35.0-0.0","task_version":"screening-mturk","missing":false,"accuracy":0},{"contexts":["green","blue","red"],"outcomes":[0,0,0],"key":39,"choice":2,"rt":66.00000000256114,"outcome":0,"trial":30,"correct":2,"trial_type":"three-arm-trial","trial_index":153,"time_elapsed":930630,"internal_node_id":"0.0-36.0-0.0","task_version":"screening-mturk","missing":false,"accuracy":1},{"contexts":["green","blue","red"],"outcomes":[1,0,0],"key":38,"choice":1,"rt":83.00000000244472,"outcome":0,"trial":31,"correct":0,"trial_type":"three-arm-trial","trial_index":154,"time_elapsed":931943,"internal_node_id":"0.0-37.0-0.0","task_version":"screening-mturk","missing":false,"accuracy":0},{"contexts":["green","blue","red"],"outcomes":[1,0,1],"key":37,"choice":0,"rt":75.00000000081491,"outcome":1,"trial":32,"correct":0,"trial_type":"three-arm-trial","trial_index":155,"time_elapsed":933243,"internal_node_id":"0.0-38.0-0.0","task_version":"screening-mturk","missing":false,"accuracy":1},{"contexts":["green","blue","red"],"outcomes":[0,0,0],"key":37,"choice":0,"rt":63.000000001862645,"outcome":0,"trial":33,"correct":0,"trial_type":"three-arm-trial","trial_index":156,"time_elapsed":934526,"internal_node_id":"0.0-39.0-0.0","task_version":"screening-mturk","missing":false,"accuracy":1},{"contexts":["green","blue","red"],"outcomes":[1,0,0],"key":39,"choice":2,"rt":154.0000000023283,"outcome":0,"trial":34,"correct":0,"trial_type":"three-arm-trial","trial_index":157,"time_elapsed":935897,"internal_node_id":"0.0-40.0-0.0","task_version":"screening-mturk","missing":false,"accuracy":0},{"contexts":["green","blue","red"],"outcomes":[1,0,0],"key":37,"choice":0,"rt":130.00000000104774,"outcome":1,"trial":35,"correct":0,"trial_type":"three-arm-trial","trial_index":158,"time_elapsed":937245,"internal_node_id":"0.0-41.0-0.0","task_version":"screening-mturk","missing":false,"accuracy":1},{"contexts":["green","blue","red"],"outcomes":[1,0,0],"key":37,"choice":0,"rt":133.99999999825377,"outcome":1,"trial":36,"correct":0,"trial_type":"three-arm-trial","trial_index":159,"time_elapsed":938611,"internal_node_id":"0.0-42.0-0.0","task_version":"screening-mturk","missing":false,"accuracy":1},{"contexts":["green","blue","red"],"outcomes":[1,0,0],"key":37,"choice":0,"rt":134.00000000174623,"outcome":1,"trial":37,"correct":0,"trial_type":"three-arm-trial","trial_index":160,"time_elapsed":940007,"internal_node_id":"0.0-43.0-0.0","task_version":"screening-mturk","missing":false,"accuracy":1},{"contexts":["green","blue","red"],"outcomes":[1,0,1],"key":37,"choice":0,"rt":137.99999999895226,"outcome":1,"trial":38,"correct":0,"trial_type":"three-arm-trial","trial_index":161,"time_elapsed":941374,"internal_node_id":"0.0-44.0-0.0","task_version":"screening-mturk","missing":false,"accuracy":1},{"contexts":["green","blue","red"],"outcomes":[0,0,0],"key":37,"choice":0,"rt":181.99999999708962,"outcome":0,"trial":39,"correct":0,"trial_type":"three-arm-trial","trial_index":162,"time_elapsed":942846,"internal_node_id":"0.0-45.0-0.0","task_version":"screening-mturk","missing":false,"accuracy":1},{"contexts":["green","blue","red"],"outcomes":[1,0,0],"key":39,"choice":2,"rt":172.99999999883585,"outcome":0,"trial":40,"correct":0,"trial_type":"three-arm-trial","trial_index":163,"time_elapsed":944252,"internal_node_id":"0.0-46.0-0.0","task_version":"screening-mturk","missing":false,"accuracy":0},{"contexts":["green","blue","red"],"outcomes":[1,1,0],"key":37,"choice":0,"rt":1.0000000002328306,"outcome":1,"trial":41,"correct":0,"trial_type":"three-arm-trial","trial_index":164,"time_elapsed":945549,"internal_node_id":"0.0-47.0-0.0","task_version":"screening-mturk","missing":false,"accuracy":1},{"contexts":["green","blue","red"],"outcomes":[0,0,0],"key":37,"choice":0,"rt":64.99999999871943,"outcome":0,"trial":42,"correct":0,"trial_type":"three-arm-trial","trial_index":165,"time_elapsed":946824,"internal_node_id":"0.0-48.0-0.0","task_version":"screening-mturk","missing":false,"accuracy":1},{"contexts":["green","blue","red"],"outcomes":[1,0,1],"key":37,"choice":0,"rt":195.99999999988358,"outcome":1,"trial":43,"correct":0,"trial_type":"three-arm-trial","trial_index":166,"time_elapsed":948286,"internal_node_id":"0.0-49.0-0.0","task_version":"screening-mturk","missing":false,"accuracy":1},{"contexts":["green","blue","red"],"outcomes":[1,0,1],"key":37,"choice":0,"rt":74.00000000046566,"outcome":1,"trial":44,"correct":0,"trial_type":"three-arm-trial","trial_index":167,"time_elapsed":949573,"internal_node_id":"0.0-50.0-0.0","task_version":"screening-mturk","missing":false,"accuracy":1},{"contexts":["green","blue","red"],"outcomes":[0,0,1],"key":37,"choice":0,"rt":51.999999999650754,"outcome":0,"trial":45,"correct":0,"trial_type":"three-arm-trial","trial_index":168,"time_elapsed":950869,"internal_node_id":"0.0-51.0-0.0","task_version":"screening-mturk","missing":false,"accuracy":1},{"contexts":["green","blue","red"],"outcomes":[0,1,0],"key":37,"choice":0,"rt":167.00000000139698,"outcome":0,"trial":46,"correct":1,"trial_type":"three-arm-trial","trial_index":169,"time_elapsed":952240,"internal_node_id":"0.0-52.0-0.0","task_version":"screening-mturk","missing":false,"accuracy":0},{"contexts":["green","blue","red"],"outcomes":[0,1,0],"key":37,"choice":0,"rt":619.9999999989523,"outcome":0,"trial":47,"correct":1,"trial_type":"three-arm-trial","trial_index":170,"time_elapsed":954075,"internal_node_id":"0.0-53.0-0.0","task_version":"screening-mturk","missing":false,"accuracy":0},{"contexts":["green","blue","red"],"outcomes":[0,1,0],"key":37,"choice":0,"rt":92.00000000058208,"outcome":0,"trial":48,"correct":1,"trial_type":"three-arm-trial","trial_index":171,"time_elapsed":955371,"internal_node_id":"0.0-54.0-0.0","task_version":"screening-mturk","missing":false,"accuracy":0},{"contexts":["green","blue","red"],"outcomes":[0,1,1],"key":37,"choice":0,"rt":1465.0000000001164,"outcome":0,"trial":49,"correct":1,"trial_type":"three-arm-trial","trial_index":172,"time_elapsed":958042,"internal_node_id":"0.0-55.0-0.0","task_version":"screening-mturk","missing":false,"accuracy":0},{"contexts":["green","blue","red"],"outcomes":[0,0,0],"key":39,"choice":2,"rt":46.000000002095476,"outcome":0,"trial":50,"correct":1,"trial_type":"three-arm-trial","trial_index":173,"time_elapsed":959341,"internal_node_id":"0.0-56.0-0.0","task_version":"screening-mturk","missing":false,"accuracy":0},{"contexts":["green","blue","red"],"outcomes":[0,1,0],"key":37,"choice":0,"rt":195.00000000337604,"outcome":0,"trial":51,"correct":1,"trial_type":"three-arm-trial","trial_index":174,"time_elapsed":960743,"internal_node_id":"0.0-57.0-0.0","task_version":"screening-mturk","missing":false,"accuracy":0},{"contexts":["green","blue","red"],"outcomes":[0,1,1],"key":38,"choice":1,"rt":195.99999999988358,"outcome":1,"trial":52,"correct":1,"trial_type":"three-arm-trial","trial_index":175,"time_elapsed":962143,"internal_node_id":"0.0-58.0-0.0","task_version":"screening-mturk","missing":false,"accuracy":1},{"contexts":["green","blue","red"],"outcomes":[0,1,0],"key":38,"choice":1,"rt":174.9999999993015,"outcome":1,"trial":53,"correct":1,"trial_type":"three-arm-trial","trial_index":176,"time_elapsed":963523,"internal_node_id":"0.0-59.0-0.0","task_version":"screening-mturk","missing":false,"accuracy":1},{"contexts":["green","blue","red"],"outcomes":[1,0,0],"key":38,"choice":1,"rt":175.99999999941792,"outcome":0,"trial":54,"correct":1,"trial_type":"three-arm-trial","trial_index":177,"time_elapsed":964904,"internal_node_id":"0.0-60.0-0.0","task_version":"screening-mturk","missing":false,"accuracy":1},{"contexts":["green","blue","red"],"outcomes":[0,1,0],"key":37,"choice":0,"rt":230.99999999976717,"outcome":0,"trial":55,"correct":1,"trial_type":"three-arm-trial","trial_index":178,"time_elapsed":966341,"internal_node_id":"0.0-61.0-0.0","task_version":"screening-mturk","missing":false,"accuracy":0},{"contexts":["green","blue","red"],"outcomes":[0,1,0],"key":39,"choice":2,"rt":0,"outcome":0,"trial":56,"correct":1,"trial_type":"three-arm-trial","trial_index":179,"time_elapsed":967588,"internal_node_id":"0.0-62.0-0.0","task_version":"screening-mturk","missing":false,"accuracy":0},{"contexts":["green","blue","red"],"outcomes":[1,1,0],"key":37,"choice":0,"rt":100.99999999871943,"outcome":1,"trial":57,"correct":1,"trial_type":"three-arm-trial","trial_index":180,"time_elapsed":968893,"internal_node_id":"0.0-63.0-0.0","task_version":"screening-mturk","missing":false,"accuracy":0},{"contexts":["green","blue","red"],"outcomes":[1,1,0],"key":37,"choice":0,"rt":62.99999999825377,"outcome":1,"trial":58,"correct":1,"trial_type":"three-arm-trial","trial_index":181,"time_elapsed":970191,"internal_node_id":"0.0-64.0-0.0","task_version":"screening-mturk","missing":false,"accuracy":0},{"contexts":["green","blue","red"],"outcomes":[0,1,0],"key":37,"choice":0,"rt":1667.000000001397,"outcome":0,"trial":59,"correct":1,"trial_type":"three-arm-trial","trial_index":182,"time_elapsed":973096,"internal_node_id":"0.0-65.0-0.0","task_version":"screening-mturk","missing":false,"accuracy":0},{"contexts":["green","blue","red"],"outcomes":[0,1,0],"key":38,"choice":1,"rt":924.9999999991851,"outcome":1,"trial":60,"correct":1,"trial_type":"three-arm-trial","trial_index":183,"time_elapsed":975243,"internal_node_id":"0.0-66.0-0.0","task_version":"screening-mturk","missing":false,"accuracy":1},{"contexts":["green","blue","red"],"outcomes":[0,0,1],"key":38,"choice":1,"rt":128.00000000058208,"outcome":0,"trial":61,"correct":2,"trial_type":"three-arm-trial","trial_index":184,"time_elapsed":976593,"internal_node_id":"0.0-67.0-0.0","task_version":"screening-mturk","missing":false,"accuracy":0},{"contexts":["green","blue","red"],"outcomes":[1,1,1],"key":37,"choice":0,"rt":68.99999999953434,"outcome":1,"trial":62,"correct":2,"trial_type":"three-arm-trial","trial_index":185,"time_elapsed":977875,"internal_node_id":"0.0-68.0-0.0","task_version":"screening-mturk","missing":false,"accuracy":0},{"contexts":["green","blue","red"],"outcomes":[1,0,1],"key":37,"choice":0,"rt":29.00000000221189,"outcome":1,"trial":63,"correct":2,"trial_type":"three-arm-trial","trial_index":186,"time_elapsed":979128,"internal_node_id":"0.0-69.0-0.0","task_version":"screening-mturk","missing":false,"accuracy":0},{"contexts":["green","blue","red"],"outcomes":[0,0,1],"key":37,"choice":0,"rt":61.0000000015134,"outcome":0,"trial":64,"correct":2,"trial_type":"three-arm-trial","trial_index":187,"time_elapsed":980407,"internal_node_id":"0.0-70.0-0.0","task_version":"screening-mturk","missing":false,"accuracy":0},{"contexts":["green","blue","red"],"outcomes":[0,1,1],"key":39,"choice":2,"rt":780.9999999990687,"outcome":1,"trial":65,"correct":2,"trial_type":"three-arm-trial","trial_index":188,"time_elapsed":982408,"internal_node_id":"0.0-71.0-0.0","task_version":"screening-mturk","missing":false,"accuracy":1},{"contexts":["green","blue","red"],"outcomes":[0,0,1],"key":39,"choice":2,"rt":242.99999999860302,"outcome":1,"trial":66,"correct":2,"trial_type":"three-arm-trial","trial_index":189,"time_elapsed":983857,"internal_node_id":"0.0-72.0-0.0","task_version":"screening-mturk","missing":false,"accuracy":1},{"contexts":["green","blue","red"],"outcomes":[0,0,0],"key":39,"choice":2,"rt":16.99999999976717,"outcome":0,"trial":67,"correct":2,"trial_type":"three-arm-trial","trial_index":190,"time_elapsed":985106,"internal_node_id":"0.0-73.0-0.0","task_version":"screening-mturk","missing":false,"accuracy":1},{"contexts":["green","blue","red"],"outcomes":[0,0,1],"key":37,"choice":0,"rt":58.00000000093132,"outcome":0,"trial":68,"correct":2,"trial_type":"three-arm-trial","trial_index":191,"time_elapsed":986382,"internal_node_id":"0.0-74.0-0.0","task_version":"screening-mturk","missing":false,"accuracy":0},{"contexts":["green","blue","red"],"outcomes":[0,0,1],"key":38,"choice":1,"rt":187.00000000174623,"outcome":0,"trial":69,"correct":2,"trial_type":"three-arm-trial","trial_index":192,"time_elapsed":987811,"internal_node_id":"0.0-75.0-0.0","task_version":"screening-mturk","missing":false,"accuracy":0},{"contexts":["green","blue","red"],"outcomes":[0,0,1],"key":37,"choice":0,"rt":197.00000000011642,"outcome":0,"trial":70,"correct":2,"trial_type":"three-arm-trial","trial_index":193,"time_elapsed":989226,"internal_node_id":"0.0-76.0-0.0","task_version":"screening-mturk","missing":false,"accuracy":0},{"contexts":["green","blue","red"],"outcomes":[0,1,1],"key":39,"choice":2,"rt":202.00000000116415,"outcome":1,"trial":71,"correct":2,"trial_type":"three-arm-trial","trial_index":194,"time_elapsed":990656,"internal_node_id":"0.0-77.0-0.0","task_version":"screening-mturk","missing":false,"accuracy":1},{"contexts":["green","blue","red"],"outcomes":[0,0,0],"key":39,"choice":2,"rt":166.00000000104774,"outcome":0,"trial":72,"correct":2,"trial_type":"three-arm-trial","trial_index":195,"time_elapsed":992074,"internal_node_id":"0.0-78.0-0.0","task_version":"screening-mturk","missing":false,"accuracy":1},{"contexts":["green","blue","red"],"outcomes":[1,0,1],"key":37,"choice":0,"rt":18,"outcome":1,"trial":73,"correct":2,"trial_type":"three-arm-trial","trial_index":196,"time_elapsed":993297,"internal_node_id":"0.0-79.0-0.0","task_version":"screening-mturk","missing":false,"accuracy":0},{"contexts":["green","blue","red"],"outcomes":[1,0,0],"key":37,"choice":0,"rt":115.99999999813735,"outcome":1,"trial":74,"correct":2,"trial_type":"three-arm-trial","trial_index":197,"time_elapsed":994641,"internal_node_id":"0.0-80.0-0.0","task_version":"screening-mturk","missing":false,"accuracy":0},{"contexts":["green","blue","red"],"outcomes":[0,0,1],"key":37,"choice":0,"rt":230.99999999976717,"outcome":0,"trial":75,"correct":2,"trial_type":"three-arm-trial","trial_index":198,"time_elapsed":996075,"internal_node_id":"0.0-81.0-0.0","task_version":"screening-mturk","missing":false,"accuracy":0},{"contexts":["green","blue","red"],"outcomes":[0,0,0],"key":39,"choice":2,"rt":807.0000000006985,"outcome":0,"trial":76,"correct":0,"trial_type":"three-arm-trial","trial_index":199,"time_elapsed":998086,"internal_node_id":"0.0-82.0-0.0","task_version":"screening-mturk","missing":false,"accuracy":0},{"contexts":["green","blue","red"],"outcomes":[1,0,0],"key":38,"choice":1,"rt":91.00000000034925,"outcome":0,"trial":77,"correct":0,"trial_type":"three-arm-trial","trial_index":200,"time_elapsed":999382,"internal_node_id":"0.0-83.0-0.0","task_version":"screening-mturk","missing":false,"accuracy":0},{"contexts":["green","blue","red"],"outcomes":[1,0,0],"key":37,"choice":0,"rt":116.00000000186265,"outcome":1,"trial":78,"correct":0,"trial_type":"three-arm-trial","trial_index":201,"time_elapsed":1000754,"internal_node_id":"0.0-84.0-0.0","task_version":"screening-mturk","missing":false,"accuracy":1},{"contexts":["green","blue","red"],"outcomes":[1,0,0],"key":37,"choice":0,"rt":64.00000000209548,"outcome":1,"trial":79,"correct":0,"trial_type":"three-arm-trial","trial_index":202,"time_elapsed":1002024,"internal_node_id":"0.0-85.0-0.0","task_version":"screening-mturk","missing":false,"accuracy":1},{"contexts":["green","blue","red"],"outcomes":[0,0,0],"key":37,"choice":0,"rt":180.00000000023283,"outcome":0,"trial":80,"correct":0,"trial_type":"three-arm-trial","trial_index":203,"time_elapsed":1003415,"internal_node_id":"0.0-86.0-0.0","task_version":"screening-mturk","missing":false,"accuracy":1},{"contexts":["green","blue","red"],"outcomes":[1,0,0],"key":37,"choice":0,"rt":639.000000002794,"outcome":1,"trial":81,"correct":0,"trial_type":"three-arm-trial","trial_index":204,"time_elapsed":1005292,"internal_node_id":"0.0-87.0-0.0","task_version":"screening-mturk","missing":false,"accuracy":1},{"contexts":["green","blue","red"],"outcomes":[1,0,0],"key":37,"choice":0,"rt":52.999999999883585,"outcome":1,"trial":82,"correct":0,"trial_type":"three-arm-trial","trial_index":205,"time_elapsed":1006555,"internal_node_id":"0.0-88.0-0.0","task_version":"screening-mturk","missing":false,"accuracy":1},{"contexts":["green","blue","red"],"outcomes":[1,0,0],"key":37,"choice":0,"rt":120.99999999918509,"outcome":1,"trial":83,"correct":0,"trial_type":"three-arm-trial","trial_index":206,"time_elapsed":1007882,"internal_node_id":"0.0-89.0-0.0","task_version":"screening-mturk","missing":false,"accuracy":1},{"contexts":["green","blue","red"],"outcomes":[1,0,1],"key":37,"choice":0,"rt":103.99999999941792,"outcome":1,"trial":84,"correct":0,"trial_type":"three-arm-trial","trial_index":207,"time_elapsed":1009296,"internal_node_id":"0.0-90.0-0.0","task_version":"screening-mturk","missing":false,"accuracy":1},{"contexts":["green","blue","red"],"outcomes":[1,0,0],"key":37,"choice":0,"rt":165.00000000093132,"outcome":1,"trial":85,"correct":0,"trial_type":"three-arm-trial","trial_index":208,"time_elapsed":1010692,"internal_node_id":"0.0-91.0-0.0","task_version":"screening-mturk","missing":false,"accuracy":1},{"contexts":["green","blue","red"],"outcomes":[1,1,1],"key":37,"choice":0,"rt":199.00000000046566,"outcome":1,"trial":86,"correct":0,"trial_type":"three-arm-trial","trial_index":209,"time_elapsed":1012098,"internal_node_id":"0.0-92.0-0.0","task_version":"screening-mturk","missing":false,"accuracy":1},{"contexts":["green","blue","red"],"outcomes":[1,0,0],"key":37,"choice":0,"rt":184.00000000104774,"outcome":1,"trial":87,"correct":0,"trial_type":"three-arm-trial","trial_index":210,"time_elapsed":1013496,"internal_node_id":"0.0-93.0-0.0","task_version":"screening-mturk","missing":false,"accuracy":1},{"contexts":["green","blue","red"],"outcomes":[1,0,0],"key":37,"choice":0,"rt":165.00000000093132,"outcome":1,"trial":88,"correct":0,"trial_type":"three-arm-trial","trial_index":211,"time_elapsed":1014866,"internal_node_id":"0.0-94.0-0.0","task_version":"screening-mturk","missing":false,"accuracy":1},{"contexts":["green","blue","red"],"outcomes":[1,0,1],"key":37,"choice":0,"rt":199.00000000046566,"outcome":1,"trial":89,"correct":0,"trial_type":"three-arm-trial","trial_index":212,"time_elapsed":1016269,"internal_node_id":"0.0-95.0-0.0","task_version":"screening-mturk","missing":false,"accuracy":1},{"contexts":["green","blue","red"],"outcomes":[0,0,0],"key":37,"choice":0,"rt":357,"outcome":0,"trial":90,"correct":0,"trial_type":"three-arm-trial","trial_index":213,"time_elapsed":1017831,"internal_node_id":"0.0-96.0-0.0","task_version":"screening-mturk","missing":false,"accuracy":1},{"rt":20136.999999998836,"responses":{"age":"52","gender-categorical":"Male","gender-free-response":"","ethnicity":"Not Hispanic or Latino","race":["White"],"language":"Yes","fluency":"Very well","prolific":"Yes","prolific-this-study":"Yes"},"survey":"demographics","trial_type":"survey-demo","trial_index":214,"time_elapsed":1037979,"internal_node_id":"0.0-97.0","task_version":"screening-mturk","interactions":"[{\"event\":\"blur\",\"trial\":1,\"time\":60328},{\"event\":\"focus\",\"trial\":1,\"time\":94853},{\"event\":\"blur\",\"trial\":6,\"time\":220482},{\"event\":\"focus\",\"trial\":6,\"time\":232672},{\"event\":\"blur\",\"trial\":6,\"time\":238732},{\"event\":\"focus\",\"trial\":6,\"time\":250565},{\"event\":\"blur\",\"trial\":120,\"time\":723491},{\"event\":\"focus\",\"trial\":120,\"time\":747813},{\"event\":\"blur\",\"trial\":120,\"time\":796935},{\"event\":\"focus\",\"trial\":120,\"time\":797960},{\"event\":\"blur\",\"trial\":120,\"time\":799338},{\"event\":\"focus\",\"trial\":120,\"time\":821261},{\"event\":\"blur\",\"trial\":120,\"time\":825276},{\"event\":\"focus\",\"trial\":120,\"time\":827057},{\"event\":\"blur\",\"trial\":120,\"time\":832512},{\"event\":\"focus\",\"trial\":120,\"time\":837446},{\"event\":\"blur\",\"trial\":123,\"time\":870817},{\"event\":\"focus\",\"trial\":123,\"time\":881426},{\"event\":\"blur\",\"trial\":214,\"time\":1036763},{\"event\":\"focus\",\"trial\":214,\"time\":1037061}]"}]