[{"responses":{"Q03":"1","Q07":"3","Q06":"2","Q04":"2","Q08":"2","Q02":"3","Q01":"2","Q05":"2"},"rt":26691.15500000771,"survey":"gad7","trial_type":"survey-template","trial_index":0,"time_elapsed":26706,"internal_node_id":"0.0-0.0","task_version":"screening-mturk"},{"responses":{"Q07":"2","Q06":"3","Q02":"2","Q08":"2","Q04":"3","Q05":"2","Q13":"2","Q10":"1","Q03":"2","Q09":"3","Q01":"2","Q11":"2","Q12":"2"},"rt":29452.25999999093,"survey":"bisbas","trial_type":"survey-template","trial_index":1,"time_elapsed":56163,"internal_node_id":"0.0-1.0","task_version":"screening-mturk"},{"responses":{"Q13":"2","Q07":"3","Q02":"3","Q11":"2","Q12":"3","Q01":"2","Q10":"2","Q09":"2","Q05":"2","Q04":"3","Q08":"3","Q14":"3","Q15":"2","Q03":"2","Q06":"3"},"rt":22377.570000011474,"survey":"shaps","trial_type":"survey-template","trial_index":2,"time_elapsed":78545,"internal_node_id":"0.0-2.0","task_version":"screening-mturk"},{"responses":{"Q03":"3","Q01":"3","Q02":"3"},"rt":8690.8650000114,"survey":"pswq","trial_type":"survey-template","trial_index":3,"time_elapsed":87243,"internal_node_id":"0.0-3.0","task_version":"screening-mturk"},{"responses":{"Q07":"1","Q04":"2","Q13":"2","Q11":"3","Q02":"2","Q08":"2","Q03":"3","Q05":"2","Q15":"2","Q01":"2","Q10":"2","Q12":"3","Q06":"2","Q09":"3","Q14":"2"},"rt":38236.344999982975,"survey":"7up7down","trial_type":"survey-template","trial_index":4,"time_elapsed":125484,"internal_node_id":"0.0-4.0","task_version":"screening-mturk"},{"view_history":"[{\"page_index\":0,\"viewing_time\":6273.519999987911},{\"page_index\":1,\"viewing_time\":1827.770000032615},{\"page_index\":2,\"viewing_time\":3600.559999991674},{\"page_index\":3,\"viewing_time\":5180.3799999761395},{\"page_index\":4,\"viewing_time\":2287.025000026915},{\"page_index\":5,\"viewing_time\":5810.354999965057},{\"page_index\":6,\"viewing_time\":1631.8500000052154},{\"page_index\":7,\"viewing_time\":4423.545000026934}]","rt":31036.009999981616,"trial_type":"instructions","trial_index":5,"time_elapsed":156524,"internal_node_id":"0.0-5.0-0.0","task_version":"screening-mturk"},{"responses":["True","True","True","True","True"],"num_errors":2,"rt":9353.79500000272,"trial_type":"three-arm-comprehension","trial_index":6,"time_elapsed":165882,"internal_node_id":"0.0-5.0-1.0","task_version":"screening-mturk"},{"view_history":"[{\"page_index\":0,\"viewing_time\":2515.244999958668},{\"page_index\":1,\"viewing_time\":3545.0399999972433},{\"page_index\":2,\"viewing_time\":1022.5050000008196},{\"page_index\":3,\"viewing_time\":1368.735000025481},{\"page_index\":4,\"viewing_time\":1403.7050000042655},{\"page_index\":5,\"viewing_time\":1059.880000015255},{\"page_index\":6,\"viewing_time\":1232.4649999500252},{\"page_index\":7,\"viewing_time\":724.930000025779}]","rt":12872.94499995187,"trial_type":"instructions","trial_index":7,"time_elapsed":178760,"internal_node_id":"0.0-5.1-0.1","task_version":"screening-mturk"},{"responses":["True","True","True","True","False"],"num_errors":3,"rt":8575.124999973923,"trial_type":"three-arm-comprehension","trial_index":8,"time_elapsed":187338,"internal_node_id":"0.0-5.1-1.1","task_version":"screening-mturk"},{"view_history":"[{\"page_index\":0,\"viewing_time\":1684.7100000013597},{\"page_index\":1,\"viewing_time\":751.4549999614246},{\"page_index\":2,\"viewing_time\":712.3700000229292},{\"page_index\":3,\"viewing_time\":622.9099999764003},{\"page_index\":4,\"viewing_time\":835.7750000432134},{\"page_index\":5,\"viewing_time\":893.355000007432},{\"page_index\":6,\"viewing_time\":756.9199999561533},{\"page_index\":7,\"viewing_time\":846.5250000008382}]","rt":7104.469999962021,"trial_type":"instructions","trial_index":9,"time_elapsed":194445,"internal_node_id":"0.0-5.2-0.2","task_version":"screening-mturk"},{"responses":["True","True","True","True","True"],"num_errors":2,"rt":15030.660000047646,"trial_type":"three-arm-comprehension","trial_index":10,"time_elapsed":209482,"internal_node_id":"0.0-5.2-1.2","task_version":"screening-mturk"},{"view_history":"[{\"page_index\":0,\"viewing_time\":1984.6200000029057},{\"page_index\":1,\"viewing_time\":1552.7000000001863},{\"page_index\":2,\"viewing_time\":1625.1649999758229},{\"page_index\":3,\"viewing_time\":1530.8550000190735},{\"page_index\":4,\"viewing_time\":925.6649999879301},{\"page_index\":5,\"viewing_time\":1447.1900000353344},{\"page_index\":6,\"viewing_time\":920.429999998305},{\"page_index\":7,\"viewing_time\":1002.6649999781512}]","rt":10989.85499999253,"trial_type":"instructions","trial_index":11,"time_elapsed":220474,"internal_node_id":"0.0-5.3-0.3","task_version":"screening-mturk"},{"responses":["True","True","True","True","True"],"num_errors":2,"rt":7936.890000011772,"trial_type":"three-arm-comprehension","trial_index":12,"time_elapsed":228414,"internal_node_id":"0.0-5.3-1.3","task_version":"screening-mturk"},{"view_history":"[{\"page_index\":0,\"viewing_time\":2031.9449999951757},{\"page_index\":1,\"viewing_time\":2394.670000008773},{\"page_index\":2,\"viewing_time\":991.0999999847263},{\"page_index\":3,\"viewing_time\":726.2500000069849},{\"page_index\":4,\"viewing_time\":646.0550000192598},{\"page_index\":5,\"viewing_time\":612.1249999850988},{\"page_index\":6,\"viewing_time\":807.874999998603},{\"page_index\":7,\"viewing_time\":742.2200000146404}]","rt":8952.800000028219,"trial_type":"instructions","trial_index":13,"time_elapsed":237370,"internal_node_id":"0.0-5.4-0.4","task_version":"screening-mturk"},{"responses":["True","True","True","True","True"],"num_errors":2,"rt":7896.805000025779,"trial_type":"three-arm-comprehension","trial_index":14,"time_elapsed":245270,"internal_node_id":"0.0-5.4-1.4","task_version":"screening-mturk"},{"view_history":"[{\"page_index\":0,\"viewing_time\":1452.6199999963865},{\"page_index\":1,\"viewing_time\":971.785000001546},{\"page_index\":2,\"viewing_time\":573.4149999916553},{\"page_index\":3,\"viewing_time\":310.460000007879},{\"page_index\":4,\"viewing_time\":315.7350000110455},{\"page_index\":5,\"viewing_time\":398.83499999996275},{\"page_index\":6,\"viewing_time\":292.6650000154041},{\"page_index\":7,\"viewing_time\":289.3449999974109}]","rt":4605.444999993779,"trial_type":"instructions","trial_index":15,"time_elapsed":249878,"internal_node_id":"0.0-5.5-0.5","task_version":"screening-mturk"},{"responses":["True","True","True","True","True"],"num_errors":2,"rt":7670.470000011846,"trial_type":"three-arm-comprehension","trial_index":16,"time_elapsed":257552,"internal_node_id":"0.0-5.5-1.5","task_version":"screening-mturk"},{"view_history":"[{\"page_index\":0,\"viewing_time\":3658.289999992121},{\"page_index\":1,\"viewing_time\":909.7199999960139},{\"page_index\":2,\"viewing_time\":482.04999999143183},{\"page_index\":3,\"viewing_time\":352.8999999980442},{\"page_index\":4,\"viewing_time\":296.2950000073761},{\"page_index\":5,\"viewing_time\":290.6850000144914},{\"page_index\":6,\"viewing_time\":259.33500000974163},{\"page_index\":7,\"viewing_time\":268.63999996567145}]","rt":6518.374999985099,"trial_type":"instructions","trial_index":17,"time_elapsed":264076,"internal_node_id":"0.0-5.6-0.6","task_version":"screening-mturk"},{"responses":["True","True","True","True","True"],"num_errors":2,"rt":7071.124999958556,"trial_type":"three-arm-comprehension","trial_index":18,"time_elapsed":271152,"internal_node_id":"0.0-5.6-1.6","task_version":"screening-mturk"},{"view_history":"[{\"page_index\":0,\"viewing_time\":2211.544999969192},{\"page_index\":1,\"viewing_time\":772.2500000381842},{\"page_index\":2,\"viewing_time\":285.71999998530373},{\"page_index\":3,\"viewing_time\":263.75499996356666},{\"page_index\":4,\"viewing_time\":294.6650000521913},{\"page_index\":5,\"viewing_time\":236.44999996758997},{\"page_index\":6,\"viewing_time\":220.94000002834946},{\"page_index\":7,\"viewing_time\":225.42999999132007}]","rt":4511.319999990519,"trial_type":"instructions","trial_index":19,"time_elapsed":275667,"internal_node_id":"0.0-5.7-0.7","task_version":"screening-mturk"},{"responses":["True","True","True","True","True"],"num_errors":2,"rt":9818.245000031311,"trial_type":"three-arm-comprehension","trial_index":20,"time_elapsed":285488,"internal_node_id":"0.0-5.7-1.7","task_version":"screening-mturk"},{"view_history":"[{\"page_index\":0,\"viewing_time\":1460.3650000062771},{\"page_index\":1,\"viewing_time\":200.0949999783188},{\"page_index\":2,\"viewing_time\":207.57999998750165},{\"page_index\":3,\"viewing_time\":230.92000000178814},{\"page_index\":4,\"viewing_time\":191.2599999923259},{\"page_index\":5,\"viewing_time\":216.53500001411885},{\"page_index\":6,\"viewing_time\":232.45499999029562},{\"page_index\":7,\"viewing_time\":191.3150000036694}]","rt":2930.9699999867007,"trial_type":"instructions","trial_index":21,"time_elapsed":288423,"internal_node_id":"0.0-5.8-0.8","task_version":"screening-mturk"},{"responses":["True","True","True","True","True"],"num_errors":2,"rt":7363.70500002522,"trial_type":"three-arm-comprehension","trial_index":22,"time_elapsed":295789,"internal_node_id":"0.0-5.8-1.8","task_version":"screening-mturk"},{"view_history":"[{\"page_index\":0,\"viewing_time\":941.9750000233762},{\"page_index\":1,\"viewing_time\":200.429999968037},{\"page_index\":2,\"viewing_time\":212.38000004086643},{\"page_index\":3,\"viewing_time\":263.9099999796599},{\"page_index\":4,\"viewing_time\":168.30499999923632},{\"page_index\":5,\"viewing_time\":194.30500001180917},{\"page_index\":6,\"viewing_time\":435.2699999581091},{\"page_index\":7,\"viewing_time\":189.03000000864267}]","rt":2606.064999999944,"trial_type":"instructions","trial_index":23,"time_elapsed":298398,"internal_node_id":"0.0-5.9-0.9","task_version":"screening-mturk"},{"responses":["True","True","True","True","True"],"num_errors":2,"rt":7607.320000010077,"trial_type":"three-arm-comprehension","trial_index":24,"time_elapsed":306009,"internal_node_id":"0.0-5.9-1.9","task_version":"screening-mturk"},{"view_history":"[{\"page_index\":0,\"viewing_time\":1207.3600000003353},{\"page_index\":1,\"viewing_time\":187.39500001538545},{\"page_index\":2,\"viewing_time\":235.79999996582046},{\"page_index\":3,\"viewing_time\":201.18999999249354},{\"page_index\":4,\"viewing_time\":201.9900000304915},{\"page_index\":5,\"viewing_time\":232.48000000603497},{\"page_index\":6,\"viewing_time\":185.799999977462},{\"page_index\":7,\"viewing_time\":213.85000000009313}]","rt":2666.5199999697506,"trial_type":"instructions","trial_index":25,"time_elapsed":308678,"internal_node_id":"0.0-5.10-0.10","task_version":"screening-mturk"},{"responses":["True","True","True","True","True"],"num_errors":2,"rt":8038.059999991674,"trial_type":"three-arm-comprehension","trial_index":26,"time_elapsed":316720,"internal_node_id":"0.0-5.10-1.10","task_version":"screening-mturk"},{"view_history":"[{\"page_index\":0,\"viewing_time\":1305.2200000383891},{\"page_index\":1,\"viewing_time\":191.5349999908358},{\"page_index\":2,\"viewing_time\":190.57499995687976},{\"page_index\":3,\"viewing_time\":188.2150000310503},{\"page_index\":4,\"viewing_time\":175.1749999821186},{\"page_index\":5,\"viewing_time\":195.21000003442168},{\"page_index\":6,\"viewing_time\":172.53499996149912},{\"page_index\":7,\"viewing_time\":178.43000002903864}]","rt":2597.4799999967217,"trial_type":"instructions","trial_index":27,"time_elapsed":319320,"internal_node_id":"0.0-5.11-0.11","task_version":"screening-mturk"},{"responses":["True","True","True","True","False"],"num_errors":3,"rt":9392.940000048839,"trial_type":"three-arm-comprehension","trial_index":28,"time_elapsed":328721,"internal_node_id":"0.0-5.11-1.11","task_version":"screening-mturk"},{"view_history":"[{\"page_index\":0,\"viewing_time\":885.5850000400096},{\"page_index\":1,\"viewing_time\":414.57500000251457},{\"page_index\":2,\"viewing_time\":186.43000000156462},{\"page_index\":3,\"viewing_time\":163.20499998982996},{\"page_index\":4,\"viewing_time\":169.52499997569248},{\"page_index\":5,\"viewing_time\":318.98500001989305},{\"page_index\":6,\"viewing_time\":193.28000000678003},{\"page_index\":7,\"viewing_time\":181.87500000931323}]","rt":2513.8800000422634,"trial_type":"instructions","trial_index":29,"time_elapsed":331238,"internal_node_id":"0.0-5.12-0.12","task_version":"screening-mturk"},{"responses":["True","True","True","True","False"],"num_errors":3,"rt":6585.649999964517,"trial_type":"three-arm-comprehension","trial_index":30,"time_elapsed":337826,"internal_node_id":"0.0-5.12-1.12","task_version":"screening-mturk"},{"view_history":"[{\"page_index\":0,\"viewing_time\":1147.5249999784864},{\"page_index\":1,\"viewing_time\":179.1250000242144},{\"page_index\":2,\"viewing_time\":191.30499998573214},{\"page_index\":3,\"viewing_time\":227.69000002881512},{\"page_index\":4,\"viewing_time\":196.03499997174367},{\"page_index\":5,\"viewing_time\":168.46999997505918},{\"page_index\":6,\"viewing_time\":185.1850000093691},{\"page_index\":7,\"viewing_time\":175.6250000325963}]","rt":2471.389999962412,"trial_type":"instructions","trial_index":31,"time_elapsed":340300,"internal_node_id":"0.0-5.13-0.13","task_version":"screening-mturk"},{"responses":["True","True","True","True","False"],"num_errors":3,"rt":12992.599999997765,"trial_type":"three-arm-comprehension","trial_index":32,"time_elapsed":353296,"internal_node_id":"0.0-5.13-1.13","task_version":"screening-mturk"},{"view_history":"[{\"page_index\":0,\"viewing_time\":2320.4550000373274},{\"page_index\":1,\"viewing_time\":931.4049999811687},{\"page_index\":2,\"viewing_time\":2976.525000005495},{\"page_index\":3,\"viewing_time\":1652.3249999736436},{\"page_index\":4,\"viewing_time\":317.74000002769753},{\"page_index\":5,\"viewing_time\":778.3899999922141},{\"page_index\":6,\"viewing_time\":217.3600000096485},{\"page_index\":7,\"viewing_time\":215.35999997286126}]","rt":9410.040000046138,"trial_type":"instructions","trial_index":33,"time_elapsed":362708,"internal_node_id":"0.0-5.14-0.14","task_version":"screening-mturk"},{"responses":["False","False","False","False","False"],"num_errors":3,"rt":9427.145000023302,"trial_type":"three-arm-comprehension","trial_index":34,"time_elapsed":372138,"internal_node_id":"0.0-5.14-1.14","task_version":"screening-mturk"},{"view_history":"[{\"page_index\":0,\"viewing_time\":2023.0750000337139},{\"page_index\":1,\"viewing_time\":197.11000000825152},{\"page_index\":2,\"viewing_time\":235.64500000793487},{\"page_index\":3,\"viewing_time\":250.25499996263534},{\"page_index\":4,\"viewing_time\":224.18000001925975},{\"page_index\":5,\"viewing_time\":232.4650000082329},{\"page_index\":6,\"viewing_time\":199.4249999988824},{\"page_index\":7,\"viewing_time\":261.4799999864772}]","rt":3624.070000019856,"trial_type":"instructions","trial_index":35,"time_elapsed":375766,"internal_node_id":"0.0-5.15-0.15","task_version":"screening-mturk"},{"responses":["True","False","True","False","False"],"num_errors":3,"rt":6625.639999983832,"trial_type":"three-arm-comprehension","trial_index":36,"time_elapsed":382399,"internal_node_id":"0.0-5.15-1.15","task_version":"screening-mturk"},{"view_history":"[{\"page_index\":0,\"viewing_time\":1584.0299999690615},{\"page_index\":1,\"viewing_time\":205.63500002026558},{\"page_index\":2,\"viewing_time\":234.25999999744818},{\"page_index\":3,\"viewing_time\":206.79999998537824},{\"page_index\":4,\"viewing_time\":220.36000003572553},{\"page_index\":5,\"viewing_time\":194.74999996600673},{\"page_index\":6,\"viewing_time\":199.14500002050772},{\"page_index\":7,\"viewing_time\":233.48499997518957}]","rt":3079.0200000046752,"trial_type":"instructions","trial_index":37,"time_elapsed":385480,"internal_node_id":"0.0-5.16-0.16","task_version":"screening-mturk"},{"responses":["True","True","True","False","False"],"num_errors":2,"rt":9758.025000046473,"trial_type":"three-arm-comprehension","trial_index":38,"time_elapsed":395241,"internal_node_id":"0.0-5.16-1.16","task_version":"screening-mturk"},{"view_history":"[{\"page_index\":0,\"viewing_time\":1187.6700000138953},{\"page_index\":1,\"viewing_time\":183.04000003263354},{\"page_index\":2,\"viewing_time\":181.89999996684492},{\"page_index\":3,\"viewing_time\":189.62499999906868},{\"page_index\":4,\"viewing_time\":184.21000003581867},{\"page_index\":5,\"viewing_time\":189.25999995553866},{\"page_index\":6,\"viewing_time\":208.10500002698973},{\"page_index\":7,\"viewing_time\":181.7000000155531}]","rt":2505.9350000228733,"trial_type":"instructions","trial_index":39,"time_elapsed":397750,"internal_node_id":"0.0-5.17-0.17","task_version":"screening-mturk"},{"responses":["True","True","True","True","False"],"num_errors":3,"rt":6380.400000023656,"trial_type":"three-arm-comprehension","trial_index":40,"time_elapsed":404133,"internal_node_id":"0.0-5.17-1.17","task_version":"screening-mturk"},{"view_history":"[{\"page_index\":0,\"viewing_time\":1926.804999995511},{\"page_index\":1,\"viewing_time\":199.17499995790422},{\"page_index\":2,\"viewing_time\":199.57500003511086},{\"page_index\":3,\"viewing_time\":181.01499998010695},{\"page_index\":4,\"viewing_time\":173.76000003423542},{\"page_index\":5,\"viewing_time\":217.59999997448176},{\"page_index\":6,\"viewing_time\":205.2399999811314},{\"page_index\":7,\"viewing_time\":167.14500001398847}]","rt":3270.8349999738857,"trial_type":"instructions","trial_index":41,"time_elapsed":407407,"internal_node_id":"0.0-5.18-0.18","task_version":"screening-mturk"},{"responses":["True","True","True","True","False"],"num_errors":3,"rt":9825.67500002915,"trial_type":"three-arm-comprehension","trial_index":42,"time_elapsed":417235,"internal_node_id":"0.0-5.18-1.18","task_version":"screening-mturk"},{"view_history":"[{\"page_index\":0,\"viewing_time\":1071.1249999585561},{\"page_index\":1,\"viewing_time\":194.2700000363402},{\"page_index\":2,\"viewing_time\":187.51499999780208},{\"page_index\":3,\"viewing_time\":193.07999999728054},{\"page_index\":4,\"viewing_time\":149.49999999953434},{\"page_index\":5,\"viewing_time\":197.69000000087544},{\"page_index\":6,\"viewing_time\":227.04999998677522},{\"page_index\":7,\"viewing_time\":205.20500000566244}]","rt":2425.874999957159,"trial_type":"instructions","trial_index":43,"time_elapsed":419664,"internal_node_id":"0.0-5.19-0.19","task_version":"screening-mturk"},{"responses":["True","True","True","True","True"],"num_errors":2,"rt":6849.519999988843,"trial_type":"three-arm-comprehension","trial_index":44,"time_elapsed":426516,"internal_node_id":"0.0-5.19-1.19","task_version":"screening-mturk"},{"view_history":"[{\"page_index\":0,\"viewing_time\":1274.2449999786913},{\"page_index\":1,\"viewing_time\":189.85000002430752},{\"page_index\":2,\"viewing_time\":167.2600000165403},{\"page_index\":3,\"viewing_time\":195.70499996189028},{\"page_index\":4,\"viewing_time\":214.09500000299886},{\"page_index\":5,\"viewing_time\":201.340000028722},{\"page_index\":6,\"viewing_time\":178.92499995650724},{\"page_index\":7,\"viewing_time\":182.6750000473112}]","rt":2604.5150000136346,"trial_type":"instructions","trial_index":45,"time_elapsed":429123,"internal_node_id":"0.0-5.20-0.20","task_version":"screening-mturk"},{"responses":["True","True","True","True","True"],"num_errors":2,"rt":8291.46000003675,"trial_type":"three-arm-comprehension","trial_index":46,"time_elapsed":437417,"internal_node_id":"0.0-5.20-1.20","task_version":"screening-mturk"},{"view_history":"[{\"page_index\":0,\"viewing_time\":1051.404999976512},{\"page_index\":1,\"viewing_time\":245.71500002639368},{\"page_index\":2,\"viewing_time\":179.17499999748543},{\"page_index\":3,\"viewing_time\":173.5249999910593},{\"page_index\":4,\"viewing_time\":177.43500001961365},{\"page_index\":5,\"viewing_time\":186.12499994924292},{\"page_index\":6,\"viewing_time\":181.4750000485219},{\"page_index\":7,\"viewing_time\":192.70999997388572}]","rt":2388.2299999822862,"trial_type":"instructions","trial_index":47,"time_elapsed":439808,"internal_node_id":"0.0-5.21-0.21","task_version":"screening-mturk"},{"responses":["True","True","True","True","True"],"num_errors":2,"rt":8486.455000005662,"trial_type":"three-arm-comprehension","trial_index":48,"time_elapsed":448302,"internal_node_id":"0.0-5.21-1.21","task_version":"screening-mturk"},{"view_history":"[{\"page_index\":0,\"viewing_time\":1168.630000029225},{\"page_index\":1,\"viewing_time\":179.3949999846518},{\"page_index\":2,\"viewing_time\":178.16499999025837},{\"page_index\":3,\"viewing_time\":189.84000000637025},{\"page_index\":4,\"viewing_time\":196.25999999698251},{\"page_index\":5,\"viewing_time\":197.40500004263595},{\"page_index\":6,\"viewing_time\":190.69499999750406},{\"page_index\":7,\"viewing_time\":187.93499999446794}]","rt":2488.775000034366,"trial_type":"instructions","trial_index":49,"time_elapsed":450794,"internal_node_id":"0.0-5.22-0.22","task_version":"screening-mturk"},{"responses":["True","True","False","True","False"],"num_errors":2,"rt":9208.015000040177,"trial_type":"three-arm-comprehension","trial_index":50,"time_elapsed":460005,"internal_node_id":"0.0-5.22-1.22","task_version":"screening-mturk"},{"view_history":"[{\"page_index\":0,\"viewing_time\":1355.7250000303611},{\"page_index\":1,\"viewing_time\":176.7450000043027},{\"page_index\":2,\"viewing_time\":176.45500000799075},{\"page_index\":3,\"viewing_time\":161.56999999657273},{\"page_index\":4,\"viewing_time\":153.98499998264015},{\"page_index\":5,\"viewing_time\":162.74499997962266},{\"page_index\":6,\"viewing_time\":187.13999999454245},{\"page_index\":7,\"viewing_time\":181.74500000895932}]","rt":2557.2399999946356,"trial_type":"instructions","trial_index":51,"time_elapsed":462565,"internal_node_id":"0.0-5.23-0.23","task_version":"screening-mturk"},{"responses":["True","True","False","False","False"],"num_errors":1,"rt":8096.6450000414625,"trial_type":"three-arm-comprehension","trial_index":52,"time_elapsed":470665,"internal_node_id":"0.0-5.23-1.23","task_version":"screening-mturk"},{"view_history":"[{\"page_index\":0,\"viewing_time\":1085.6449999846518},{\"page_index\":1,\"viewing_time\":208.33500003209338},{\"page_index\":2,\"viewing_time\":327.11999997263774},{\"page_index\":3,\"viewing_time\":198.42500000959262},{\"page_index\":4,\"viewing_time\":192.19500001054257},{\"page_index\":5,\"viewing_time\":188.4299999801442},{\"page_index\":6,\"viewing_time\":186.27000000560656},{\"page_index\":7,\"viewing_time\":186.9099999894388}]","rt":2573.9600000088103,"trial_type":"instructions","trial_index":53,"time_elapsed":473241,"internal_node_id":"0.0-5.24-0.24","task_version":"screening-mturk"},{"responses":["True","False","False","True","False"],"num_errors":3,"rt":15394.574999983888,"trial_type":"three-arm-comprehension","trial_index":54,"time_elapsed":488639,"internal_node_id":"0.0-5.24-1.24","task_version":"screening-mturk"},{"view_history":"[{\"page_index\":0,\"viewing_time\":1453.2299999846146},{\"page_index\":1,\"viewing_time\":183.95000003511086},{\"page_index\":2,\"viewing_time\":182.42499994812533},{\"page_index\":3,\"viewing_time\":186.2350000301376},{\"page_index\":4,\"viewing_time\":194.07999998657033},{\"page_index\":5,\"viewing_time\":192.73000000976026},{\"page_index\":6,\"viewing_time\":197.39500002469867},{\"page_index\":7,\"viewing_time\":215.72999999625608}]","rt":2806.3550000078976,"trial_type":"instructions","trial_index":55,"time_elapsed":491448,"internal_node_id":"0.0-5.25-0.25","task_version":"screening-mturk"},{"responses":["True","True","True","True","True"],"num_errors":2,"rt":6284.165000019129,"trial_type":"three-arm-comprehension","trial_index":56,"time_elapsed":497735,"internal_node_id":"0.0-5.25-1.25","task_version":"screening-mturk"},{"view_history":"[{\"page_index\":0,\"viewing_time\":1204.4699999969453},{\"page_index\":1,\"viewing_time\":190.31500001437962},{\"page_index\":2,\"viewing_time\":187.05000000772998},{\"page_index\":3,\"viewing_time\":174.93500001728535},{\"page_index\":4,\"viewing_time\":187.0449999696575},{\"page_index\":5,\"viewing_time\":170.4150000005029},{\"page_index\":6,\"viewing_time\":183.1250000395812},{\"page_index\":7,\"viewing_time\":178.51499997777864}]","rt":2476.34500003187,"trial_type":"instructions","trial_index":57,"time_elapsed":500214,"internal_node_id":"0.0-5.26-0.26","task_version":"screening-mturk"},{"responses":["True","True","True","True","True"],"num_errors":2,"rt":6890.605000022333,"trial_type":"three-arm-comprehension","trial_index":58,"time_elapsed":507111,"internal_node_id":"0.0-5.26-1.26","task_version":"screening-mturk"},{"view_history":"[{\"page_index\":0,\"viewing_time\":1371.5850000153296},{\"page_index\":1,\"viewing_time\":159.66499998467043},{\"page_index\":2,\"viewing_time\":345.2500000130385},{\"page_index\":3,\"viewing_time\":355.5649999761954},{\"page_index\":4,\"viewing_time\":163.46499999053776},{\"page_index\":5,\"viewing_time\":155.34500003559515},{\"page_index\":6,\"viewing_time\":178.52499999571592},{\"page_index\":7,\"viewing_time\":366.47499998798594}]","rt":3096.300000033807,"trial_type":"instructions","trial_index":59,"time_elapsed":510210,"internal_node_id":"0.0-5.27-0.27","task_version":"screening-mturk"},{"responses":["True","True","True","True","True"],"num_errors":2,"rt":7167.019999993499,"trial_type":"three-arm-comprehension","trial_index":60,"time_elapsed":517380,"internal_node_id":"0.0-5.27-1.27","task_version":"screening-mturk"},{"view_history":"[{\"page_index\":0,\"viewing_time\":1116.3749999832362},{\"page_index\":1,\"viewing_time\":208.46499997423962},{\"page_index\":2,\"viewing_time\":178.14000003272668},{\"page_index\":3,\"viewing_time\":167.16999997152016},{\"page_index\":4,\"viewing_time\":185.66499999724329},{\"page_index\":5,\"viewing_time\":188.17000003764406},{\"page_index\":6,\"viewing_time\":420.6750000012107},{\"page_index\":7,\"viewing_time\":122.34999996144325}]","rt":2587.4149999581277,"trial_type":"instructions","trial_index":61,"time_elapsed":519969,"internal_node_id":"0.0-5.28-0.28","task_version":"screening-mturk"},{"responses":["True","True","True","True","True"],"num_errors":2,"rt":8726.284999982454,"trial_type":"three-arm-comprehension","trial_index":62,"time_elapsed":528698,"internal_node_id":"0.0-5.28-1.28","task_version":"screening-mturk"},{"view_history":"[{\"page_index\":0,\"viewing_time\":1342.3499999917112},{\"page_index\":1,\"viewing_time\":205.4950000019744},{\"page_index\":2,\"viewing_time\":143.82499997736886},{\"page_index\":3,\"viewing_time\":171.31500004325062},{\"page_index\":4,\"viewing_time\":171.3599999784492},{\"page_index\":5,\"viewing_time\":152.57999999448657},{\"page_index\":6,\"viewing_time\":198.62999999895692},{\"page_index\":7,\"viewing_time\":161.75999998813495}]","rt":2547.9099999647588,"trial_type":"instructions","trial_index":63,"time_elapsed":531249,"internal_node_id":"0.0-5.29-0.29","task_version":"screening-mturk"},{"responses":["True","True","True","False","False"],"num_errors":2,"rt":24535.16500000842,"trial_type":"three-arm-comprehension","trial_index":64,"time_elapsed":555787,"internal_node_id":"0.0-5.29-1.29","task_version":"screening-mturk"},{"view_history":"[{\"page_index\":0,\"viewing_time\":5084.889999998268},{\"page_index\":1,\"viewing_time\":183.38000000221655},{\"page_index\":2,\"viewing_time\":220.15000000828877},{\"page_index\":3,\"viewing_time\":207.69499999005347},{\"page_index\":4,\"viewing_time\":357.6450000400655},{\"page_index\":5,\"viewing_time\":42.75500000221655},{\"page_index\":6,\"viewing_time\":203.85999995050952},{\"page_index\":7,\"viewing_time\":182.89000005461276}]","rt":6483.705000020564,"trial_type":"instructions","trial_index":65,"time_elapsed":562278,"internal_node_id":"0.0-5.30-0.30","task_version":"screening-mturk"},{"responses":["True","True","True","True","True"],"num_errors":2,"rt":8476.925000024494,"trial_type":"three-arm-comprehension","trial_index":66,"time_elapsed":570757,"internal_node_id":"0.0-5.30-1.30","task_version":"screening-mturk"},{"view_history":"[{\"page_index\":0,\"viewing_time\":1101.325000054203},{\"page_index\":1,\"viewing_time\":180.61999999918044},{\"page_index\":2,\"viewing_time\":186.07499997597188},{\"page_index\":3,\"viewing_time\":167.88000002270564},{\"page_index\":4,\"viewing_time\":168.0699999560602},{\"page_index\":5,\"viewing_time\":179.63500000769272},{\"page_index\":6,\"viewing_time\":234.36000000219792},{\"page_index\":7,\"viewing_time\":170.18499999539927}]","rt":2388.570000010077,"trial_type":"instructions","trial_index":67,"time_elapsed":573148,"internal_node_id":"0.0-5.31-0.31","task_version":"screening-mturk"},{"responses":["True","True","True","True","True"],"num_errors":2,"rt":16204.620000033174,"trial_type":"three-arm-comprehension","trial_index":68,"time_elapsed":589356,"internal_node_id":"0.0-5.31-1.31","task_version":"screening-mturk"},{"view_history":"[{\"page_index\":0,\"viewing_time\":7377.06500000786},{\"page_index\":1,\"viewing_time\":7761.135000037029},{\"page_index\":2,\"viewing_time\":6287.534999952186},{\"page_index\":3,\"viewing_time\":4674.605000007432},{\"page_index\":4,\"viewing_time\":1280.4500000202097},{\"page_index\":5,\"viewing_time\":2315.5450000194833},{\"page_index\":6,\"viewing_time\":192.17999995453283},{\"page_index\":7,\"viewing_time\":210.75500000733882}]","rt":30099.685000022873,"trial_type":"instructions","trial_index":69,"time_elapsed":619458,"internal_node_id":"0.0-5.32-0.32","task_version":"screening-mturk"},{"responses":["True","True","True","True","True"],"num_errors":2,"rt":9321.389999997336,"trial_type":"three-arm-comprehension","trial_index":70,"time_elapsed":628786,"internal_node_id":"0.0-5.32-1.32","task_version":"screening-mturk"},{"view_history":"[{\"page_index\":0,\"viewing_time\":1857.2999999742024},{\"page_index\":1,\"viewing_time\":185.34000002546236},{\"page_index\":2,\"viewing_time\":175.4300000029616},{\"page_index\":3,\"viewing_time\":160.30500002671033},{\"page_index\":4,\"viewing_time\":163.13499998068437},{\"page_index\":5,\"viewing_time\":165.42500001378357},{\"page_index\":6,\"viewing_time\":154.10499996505678},{\"page_index\":7,\"viewing_time\":181.87000002944842}]","rt":3043.4300000197254,"trial_type":"instructions","trial_index":71,"time_elapsed":631833,"internal_node_id":"0.0-5.33-0.33","task_version":"screening-mturk"},{"responses":["False","True","True","True","True"],"num_errors":3,"rt":7630.48999995226,"trial_type":"three-arm-comprehension","trial_index":72,"time_elapsed":639466,"internal_node_id":"0.0-5.33-1.33","task_version":"screening-mturk"},{"view_history":"[{\"page_index\":0,\"viewing_time\":2675.93999998644},{\"page_index\":1,\"viewing_time\":469.96000001672655},{\"page_index\":2,\"viewing_time\":186.53000000631437},{\"page_index\":3,\"viewing_time\":179.21999999089167},{\"page_index\":4,\"viewing_time\":177.60499997530133},{\"page_index\":5,\"viewing_time\":157.950000022538},{\"page_index\":6,\"viewing_time\":184.47999999625608},{\"page_index\":7,\"viewing_time\":358.62999997334555}]","rt":4390.740000002552,"trial_type":"instructions","trial_index":73,"time_elapsed":643859,"internal_node_id":"0.0-5.34-0.34","task_version":"screening-mturk"},{"responses":["True","False","True","True","False"],"num_errors":4,"rt":10088.105000031646,"trial_type":"three-arm-comprehension","trial_index":74,"time_elapsed":653951,"internal_node_id":"0.0-5.34-1.34","task_version":"screening-mturk"},{"view_history":"[{\"page_index\":0,\"viewing_time\":3225.7099999696948},{\"page_index\":1,\"viewing_time\":594.5350000401959},{\"page_index\":2,\"viewing_time\":191.02500000735745},{\"page_index\":3,\"viewing_time\":163.9199999626726},{\"page_index\":4,\"viewing_time\":179.3949999846518},{\"page_index\":5,\"viewing_time\":185.21000002510846},{\"page_index\":6,\"viewing_time\":171.2050000205636},{\"page_index\":7,\"viewing_time\":168.54499996406958}]","rt":4880.06499997573,"trial_type":"instructions","trial_index":75,"time_elapsed":658835,"internal_node_id":"0.0-5.35-0.35","task_version":"screening-mturk"},{"responses":["True","True","True","True","True"],"num_errors":2,"rt":10237.320000014734,"trial_type":"three-arm-comprehension","trial_index":76,"time_elapsed":669076,"internal_node_id":"0.0-5.35-1.35","task_version":"screening-mturk"},{"view_history":"[{\"page_index\":0,\"viewing_time\":3343.2649999740534},{\"page_index\":1,\"viewing_time\":342.3000000184402},{\"page_index\":2,\"viewing_time\":186.28999998327345},{\"page_index\":3,\"viewing_time\":359.4900000025518},{\"page_index\":4,\"viewing_time\":208.5250000236556},{\"page_index\":5,\"viewing_time\":347.54499996779487},{\"page_index\":6,\"viewing_time\":230.29999999562278},{\"page_index\":7,\"viewing_time\":1222.8150000446476}]","rt":6240.9500000067055,"trial_type":"instructions","trial_index":77,"time_elapsed":675320,"internal_node_id":"0.0-5.36-0.36","task_version":"screening-mturk"},{"responses":["True","True","True","True","True"],"num_errors":2,"rt":12403.705000004265,"trial_type":"three-arm-comprehension","trial_index":78,"time_elapsed":687729,"internal_node_id":"0.0-5.36-1.36","task_version":"screening-mturk"},{"view_history":"[{\"page_index\":0,\"viewing_time\":1338.8649999978952},{\"page_index\":1,\"viewing_time\":208.51500000571832},{\"page_index\":2,\"viewing_time\":359.80999999446794},{\"page_index\":3,\"viewing_time\":377.13500001700595},{\"page_index\":4,\"viewing_time\":213.85000000009313},{\"page_index\":5,\"viewing_time\":180.47999998088926},{\"page_index\":6,\"viewing_time\":221.9700000132434},{\"page_index\":7,\"viewing_time\":179.10000000847504}]","rt":3080.255000037141,"trial_type":"instructions","trial_index":79,"time_elapsed":690812,"internal_node_id":"0.0-5.37-0.37","task_version":"screening-mturk"},{"responses":["True","True","True","True","True"],"num_errors":2,"rt":6224.920000007842,"trial_type":"three-arm-comprehension","trial_index":80,"time_elapsed":697040,"internal_node_id":"0.0-5.37-1.37","task_version":"screening-mturk"},{"view_history":"[{\"page_index\":0,\"viewing_time\":1267.4250000272878},{\"page_index\":1,\"viewing_time\":178.85999998543411},{\"page_index\":2,\"viewing_time\":189.43500000750646},{\"page_index\":3,\"viewing_time\":174.01999997673556},{\"page_index\":4,\"viewing_time\":140.3600000194274},{\"page_index\":5,\"viewing_time\":183.9400000171736},{\"page_index\":6,\"viewing_time\":201.0349999764003},{\"page_index\":7,\"viewing_time\":189.49999997857958}]","rt":2525.0249999808148,"trial_type":"instructions","trial_index":81,"time_elapsed":699568,"internal_node_id":"0.0-5.38-0.38","task_version":"screening-mturk"},{"responses":["False","True","False","False","False"],"num_errors":2,"rt":23927.75500001153,"trial_type":"three-arm-comprehension","trial_index":82,"time_elapsed":723498,"internal_node_id":"0.0-5.38-1.38","task_version":"screening-mturk"},{"view_history":"[{\"page_index\":0,\"viewing_time\":1342.285000020638},{\"page_index\":1,\"viewing_time\":891.2450000061654},{\"page_index\":2,\"viewing_time\":780.9849999612197},{\"page_index\":3,\"viewing_time\":738.454999984242},{\"page_index\":4,\"viewing_time\":385.36500005284324},{\"page_index\":5,\"viewing_time\":359.1799999703653},{\"page_index\":6,\"viewing_time\":306.19500001193956},{\"page_index\":7,\"viewing_time\":347.20999997807667}]","rt":5151.524999993853,"trial_type":"instructions","trial_index":83,"time_elapsed":728652,"internal_node_id":"0.0-5.39-0.39","task_version":"screening-mturk"},{"responses":["True","True","True","True","True"],"num_errors":2,"rt":42815.795000002254,"trial_type":"three-arm-comprehension","trial_index":84,"time_elapsed":771475,"internal_node_id":"0.0-5.39-1.39","task_version":"screening-mturk"},{"view_history":"[{\"page_index\":0,\"viewing_time\":1222.7799999527633},{\"page_index\":1,\"viewing_time\":82.16000004904345},{\"page_index\":2,\"viewing_time\":186.5799999795854},{\"page_index\":3,\"viewing_time\":169.14499999256805},{\"page_index\":4,\"viewing_time\":1300.2199999755248},{\"page_index\":5,\"viewing_time\":204.6950000221841},{\"page_index\":6,\"viewing_time\":193.45000002067536},{\"page_index\":7,\"viewing_time\":184.24500001128763}]","rt":3543.7399999937043,"trial_type":"instructions","trial_index":85,"time_elapsed":775021,"internal_node_id":"0.0-5.40-0.40","task_version":"screening-mturk"},{"responses":["True","True","True","True","True"],"num_errors":2,"rt":12019.559999986086,"trial_type":"three-arm-comprehension","trial_index":86,"time_elapsed":787043,"internal_node_id":"0.0-5.40-1.40","task_version":"screening-mturk"},{"view_history":"[{\"page_index\":0,\"viewing_time\":1161.519999965094},{\"page_index\":1,\"viewing_time\":359.59000000730157},{\"page_index\":2,\"viewing_time\":183.17500001285225},{\"page_index\":3,\"viewing_time\":335.76499996706843},{\"page_index\":4,\"viewing_time\":200.16500004567206},{\"page_index\":5,\"viewing_time\":160.26499995496124},{\"page_index\":6,\"viewing_time\":182.6600000495091},{\"page_index\":7,\"viewing_time\":175.95499998424202}]","rt":2759.510000003502,"trial_type":"instructions","trial_index":87,"time_elapsed":789805,"internal_node_id":"0.0-5.41-0.41","task_version":"screening-mturk"},{"responses":["True","True","True","True","True"],"num_errors":2,"rt":9432.789999991655,"trial_type":"three-arm-comprehension","trial_index":88,"time_elapsed":799241,"internal_node_id":"0.0-5.41-1.41","task_version":"screening-mturk"},{"view_history":"[{\"page_index\":0,\"viewing_time\":1588.5600000037812},{\"page_index\":1,\"viewing_time\":198.5199999762699},{\"page_index\":2,\"viewing_time\":188.2200000109151},{\"page_index\":3,\"viewing_time\":185.1100000203587},{\"page_index\":4,\"viewing_time\":191.21999997878447},{\"page_index\":5,\"viewing_time\":191.30000000586733},{\"page_index\":6,\"viewing_time\":217.33499999390915},{\"page_index\":7,\"viewing_time\":199.43500001681969}]","rt":2960.1150000235066,"trial_type":"instructions","trial_index":89,"time_elapsed":802203,"internal_node_id":"0.0-5.42-0.42","task_version":"screening-mturk"},{"responses":["True","True","True","True","True"],"num_errors":2,"rt":7859.29000005126,"trial_type":"three-arm-comprehension","trial_index":90,"time_elapsed":810065,"internal_node_id":"0.0-5.42-1.42","task_version":"screening-mturk"},{"view_history":"[{\"page_index\":0,\"viewing_time\":1574.7750000446104},{\"page_index\":1,\"viewing_time\":260.32999996095896},{\"page_index\":2,\"viewing_time\":87.26000000024214},{\"page_index\":3,\"viewing_time\":221.8599999905564},{\"page_index\":4,\"viewing_time\":157.06500003580004},{\"page_index\":5,\"viewing_time\":199.6449999860488},{\"page_index\":6,\"viewing_time\":197.13500002399087},{\"page_index\":7,\"viewing_time\":178.66499995579943}]","rt":2877.6450000004843,"trial_type":"instructions","trial_index":91,"time_elapsed":812946,"internal_node_id":"0.0-5.43-0.43","task_version":"screening-mturk"},{"responses":["True","True","True","True","True"],"num_errors":2,"rt":6536.429999978282,"trial_type":"three-arm-comprehension","trial_index":92,"time_elapsed":819484,"internal_node_id":"0.0-5.43-1.43","task_version":"screening-mturk"},{"view_history":"[{\"page_index\":0,\"viewing_time\":1514.90000000922},{\"page_index\":1,\"viewing_time\":178.24499995913357},{\"page_index\":2,\"viewing_time\":174.33000000892207},{\"page_index\":3,\"viewing_time\":180.85000000428408},{\"page_index\":4,\"viewing_time\":186.7799999890849},{\"page_index\":5,\"viewing_time\":157.39499998744577},{\"page_index\":6,\"viewing_time\":225.5900000454858},{\"page_index\":7,\"viewing_time\":182.32500000158325}]","rt":2800.829999963753,"trial_type":"instructions","trial_index":93,"time_elapsed":822292,"internal_node_id":"0.0-5.44-0.44","task_version":"screening-mturk"},{"responses":["True","True","True","True","True"],"num_errors":2,"rt":8312.295000010636,"trial_type":"three-arm-comprehension","trial_index":94,"time_elapsed":830607,"internal_node_id":"0.0-5.44-1.44","task_version":"screening-mturk"},{"view_history":"[{\"page_index\":0,\"viewing_time\":1349.869999976363},{\"page_index\":1,\"viewing_time\":683.565000013914},{\"page_index\":2,\"viewing_time\":209.16500000748783},{\"page_index\":3,\"viewing_time\":181.40499998116866},{\"page_index\":4,\"viewing_time\":196.9950000056997},{\"page_index\":5,\"viewing_time\":178.22000000160187},{\"page_index\":6,\"viewing_time\":201.36499998625368},{\"page_index\":7,\"viewing_time\":188.45999997574836}]","rt":3189.459999965038,"trial_type":"instructions","trial_index":95,"time_elapsed":833799,"internal_node_id":"0.0-5.45-0.45","task_version":"screening-mturk"},{"responses":["True","True","True","True","True"],"num_errors":2,"rt":7956.059999996796,"trial_type":"three-arm-comprehension","trial_index":96,"time_elapsed":841757,"internal_node_id":"0.0-5.45-1.45","task_version":"screening-mturk"},{"view_history":"[{\"page_index\":0,\"viewing_time\":1284.125000005588},{\"page_index\":1,\"viewing_time\":205.1099999807775},{\"page_index\":2,\"viewing_time\":189.795000012964},{\"page_index\":3,\"viewing_time\":305.3099999669939},{\"page_index\":4,\"viewing_time\":134.4900000258349},{\"page_index\":5,\"viewing_time\":180.99999998230487},{\"page_index\":6,\"viewing_time\":150.1150000258349},{\"page_index\":7,\"viewing_time\":175.79999996814877}]","rt":2626.189999980852,"trial_type":"instructions","trial_index":97,"time_elapsed":844386,"internal_node_id":"0.0-5.46-0.46","task_version":"screening-mturk"},{"responses":["True","True","True","False","True"],"num_errors":1,"rt":107028.60499999952,"trial_type":"three-arm-comprehension","trial_index":98,"time_elapsed":951424,"internal_node_id":"0.0-5.46-1.46","task_version":"screening-mturk"},{"view_history":"[{\"page_index\":0,\"viewing_time\":2491.829999955371},{\"page_index\":1,\"viewing_time\":792.5600000307895},{\"page_index\":2,\"viewing_time\":427.7250000159256},{\"page_index\":3,\"viewing_time\":611.6949999704957},{\"page_index\":4,\"viewing_time\":821.9699999899603},{\"page_index\":5,\"viewing_time\":593.5199999948964},{\"page_index\":6,\"viewing_time\":199.00000002235174},{\"page_index\":7,\"viewing_time\":894.7599999955855}]","rt":6833.509999967646,"trial_type":"instructions","trial_index":99,"time_elapsed":958262,"internal_node_id":"0.0-5.47-0.47","task_version":"screening-mturk"},{"responses":["True","True","False","True","True"],"num_errors":1,"rt":18722.60500001721,"trial_type":"three-arm-comprehension","trial_index":100,"time_elapsed":976987,"internal_node_id":"0.0-5.47-1.47","task_version":"screening-mturk"},{"view_history":"[{\"page_index\":0,\"viewing_time\":2042.8700000047684},{\"page_index\":1,\"viewing_time\":141.04499999666587},{\"page_index\":2,\"viewing_time\":157.1049999911338},{\"page_index\":3,\"viewing_time\":161.30500001600012},{\"page_index\":4,\"viewing_time\":150.5349999642931},{\"page_index\":5,\"viewing_time\":148.15000002272427},{\"page_index\":6,\"viewing_time\":202.76000001467764},{\"page_index\":7,\"viewing_time\":164.14999996777624}]","rt":3168.454999977257,"trial_type":"instructions","trial_index":101,"time_elapsed":980158,"internal_node_id":"0.0-5.48-0.48","task_version":"screening-mturk"},{"responses":["True","False","False","False","True"],"num_errors":1,"rt":14691.86500000069,"trial_type":"three-arm-comprehension","trial_index":102,"time_elapsed":994857,"internal_node_id":"0.0-5.48-1.48","task_version":"screening-mturk"},{"view_history":"[{\"page_index\":0,\"viewing_time\":3413.5649999952875},{\"page_index\":1,\"viewing_time\":99.46500003570691},{\"page_index\":2,\"viewing_time\":150.41499998187646},{\"page_index\":3,\"viewing_time\":138.37000000057742},{\"page_index\":4,\"viewing_time\":139.39999998547137},{\"page_index\":5,\"viewing_time\":119.9299999861978},{\"page_index\":6,\"viewing_time\":56.94999999832362},{\"page_index\":7,\"viewing_time\":70.58500003768131}]","rt":4189.149999991059,"trial_type":"instructions","trial_index":103,"time_elapsed":999050,"internal_node_id":"0.0-5.49-0.49","task_version":"screening-mturk"},{"responses":["True","True","False","False","True"],"num_errors":0,"rt":50064.95000002906,"trial_type":"three-arm-comprehension","trial_index":104,"time_elapsed":1049122,"internal_node_id":"0.0-5.49-1.49","task_version":"screening-mturk"},{"view_history":"[{\"page_index\":0,\"viewing_time\":3109.040000010282}]","rt":3109.6050000051036,"trial_type":"instructions","trial_index":105,"time_elapsed":1052239,"internal_node_id":"0.0-6.0","task_version":"screening-mturk"},{"contexts":["red","green","blue"],"outcomes":[1,0,0],"key":39,"choice":2,"rt":4935.484999965411,"outcome":0,"trial":1,"correct":0,"trial_type":"three-arm-trial","trial_index":106,"time_elapsed":1058379,"internal_node_id":"0.0-7.0-0.0","task_version":"screening-mturk","missing":false,"accuracy":0},{"contexts":["red","green","blue"],"outcomes":[1,0,0],"key":39,"choice":2,"rt":2058.324999990873,"outcome":0,"trial":2,"correct":0,"trial_type":"three-arm-trial","trial_index":107,"time_elapsed":1061699,"internal_node_id":"0.0-8.0-0.0","task_version":"screening-mturk","missing":false,"accuracy":0},{"contexts":["red","green","blue"],"outcomes":[1,0,1],"key":37,"choice":0,"rt":101.859999995213,"outcome":1,"trial":3,"correct":0,"trial_type":"three-arm-trial","trial_index":108,"time_elapsed":1063004,"internal_node_id":"0.0-9.0-0.0","task_version":"screening-mturk","missing":false,"accuracy":1},{"contexts":["red","green","blue"],"outcomes":[0,0,0],"key":39,"choice":2,"rt":58.12000000150874,"outcome":0,"trial":4,"correct":0,"trial_type":"three-arm-trial","trial_index":109,"time_elapsed":1064265,"internal_node_id":"0.0-10.0-0.0","task_version":"screening-mturk","missing":false,"accuracy":0},{"contexts":["red","green","blue"],"outcomes":[0,0,0],"key":39,"choice":2,"rt":151.9049999769777,"outcome":0,"trial":5,"correct":0,"trial_type":"three-arm-trial","trial_index":110,"time_elapsed":1065622,"internal_node_id":"0.0-11.0-0.0","task_version":"screening-mturk","missing":false,"accuracy":0},{"contexts":["red","green","blue"],"outcomes":[0,0,0],"key":39,"choice":2,"rt":28.960000025108457,"outcome":0,"trial":6,"correct":0,"trial_type":"three-arm-trial","trial_index":111,"time_elapsed":1066853,"internal_node_id":"0.0-12.0-0.0","task_version":"screening-mturk","missing":false,"accuracy":0},{"contexts":["red","green","blue"],"outcomes":[1,0,0],"key":38,"choice":1,"rt":32.30000002076849,"outcome":0,"trial":7,"correct":0,"trial_type":"three-arm-trial","trial_index":112,"time_elapsed":1068089,"internal_node_id":"0.0-13.0-0.0","task_version":"screening-mturk","missing":false,"accuracy":0},{"contexts":["red","green","blue"],"outcomes":[1,0,1],"key":39,"choice":2,"rt":2.9949999880045652,"outcome":1,"trial":8,"correct":0,"trial_type":"three-arm-trial","trial_index":113,"time_elapsed":1069296,"internal_node_id":"0.0-14.0-0.0","task_version":"screening-mturk","missing":false,"accuracy":0},{"contexts":["red","green","blue"],"outcomes":[1,0,0],"key":38,"choice":1,"rt":39.86999997869134,"outcome":0,"trial":9,"correct":0,"trial_type":"three-arm-trial","trial_index":114,"time_elapsed":1070539,"internal_node_id":"0.0-15.0-0.0","task_version":"screening-mturk","missing":false,"accuracy":0},{"contexts":["red","green","blue"],"outcomes":[1,0,0],"key":37,"choice":0,"rt":174.84000005060807,"outcome":1,"trial":10,"correct":0,"trial_type":"three-arm-trial","trial_index":115,"time_elapsed":1071970,"internal_node_id":"0.0-16.0-0.0","task_version":"screening-mturk","missing":false,"accuracy":1},{"contexts":["red","green","blue"],"outcomes":[1,1,0],"key":37,"choice":0,"rt":42.91499999817461,"outcome":1,"trial":11,"correct":0,"trial_type":"three-arm-trial","trial_index":116,"time_elapsed":1073217,"internal_node_id":"0.0-17.0-0.0","task_version":"screening-mturk","missing":false,"accuracy":1},{"contexts":["red","green","blue"],"outcomes":[1,0,0],"key":38,"choice":1,"rt":41.03500000201166,"outcome":0,"trial":12,"correct":0,"trial_type":"three-arm-trial","trial_index":117,"time_elapsed":1074462,"internal_node_id":"0.0-18.0-0.0","task_version":"screening-mturk","missing":false,"accuracy":0},{"contexts":["red","green","blue"],"outcomes":[1,0,1],"key":38,"choice":1,"rt":55.97500002477318,"outcome":0,"trial":13,"correct":0,"trial_type":"three-arm-trial","trial_index":118,"time_elapsed":1075721,"internal_node_id":"0.0-19.0-0.0","task_version":"screening-mturk","missing":false,"accuracy":0},{"contexts":["red","green","blue"],"outcomes":[1,0,1],"key":39,"choice":2,"rt":272.30000001145527,"outcome":1,"trial":14,"correct":0,"trial_type":"three-arm-trial","trial_index":119,"time_elapsed":1077200,"internal_node_id":"0.0-20.0-0.0","task_version":"screening-mturk","missing":false,"accuracy":0},{"contexts":["red","green","blue"],"outcomes":[1,0,0],"key":37,"choice":0,"rt":41.169999982230365,"outcome":1,"trial":15,"correct":0,"trial_type":"three-arm-trial","trial_index":120,"time_elapsed":1078444,"internal_node_id":"0.0-21.0-0.0","task_version":"screening-mturk","missing":false,"accuracy":1},{"contexts":["red","green","blue"],"outcomes":[0,0,0],"key":38,"choice":1,"rt":224.06499995850027,"outcome":0,"trial":16,"correct":1,"trial_type":"three-arm-trial","trial_index":121,"time_elapsed":1079871,"internal_node_id":"0.0-22.0-0.0","task_version":"screening-mturk","missing":false,"accuracy":1},{"contexts":["red","green","blue"],"outcomes":[0,1,1],"key":38,"choice":1,"rt":118.42000001342967,"outcome":1,"trial":17,"correct":1,"trial_type":"three-arm-trial","trial_index":122,"time_elapsed":1081191,"internal_node_id":"0.0-23.0-0.0","task_version":"screening-mturk","missing":false,"accuracy":1},{"contexts":["red","green","blue"],"outcomes":[0,1,0],"key":38,"choice":1,"rt":41.65499994996935,"outcome":1,"trial":18,"correct":1,"trial_type":"three-arm-trial","trial_index":123,"time_elapsed":1082436,"internal_node_id":"0.0-24.0-0.0","task_version":"screening-mturk","missing":false,"accuracy":1},{"contexts":["red","green","blue"],"outcomes":[0,1,1],"key":38,"choice":1,"rt":65.65000000409782,"outcome":1,"trial":19,"correct":1,"trial_type":"three-arm-trial","trial_index":124,"time_elapsed":1083705,"internal_node_id":"0.0-25.0-0.0","task_version":"screening-mturk","missing":false,"accuracy":1},{"contexts":["red","green","blue"],"outcomes":[0,0,0],"key":37,"choice":0,"rt":56.875000009313226,"outcome":0,"trial":20,"correct":1,"trial_type":"three-arm-trial","trial_index":125,"time_elapsed":1084965,"internal_node_id":"0.0-26.0-0.0","task_version":"screening-mturk","missing":false,"accuracy":0},{"contexts":["red","green","blue"],"outcomes":[1,0,0],"key":38,"choice":1,"rt":35.02499999012798,"outcome":0,"trial":21,"correct":1,"trial_type":"three-arm-trial","trial_index":126,"time_elapsed":1086207,"internal_node_id":"0.0-27.0-0.0","task_version":"screening-mturk","missing":false,"accuracy":1},{"contexts":["red","green","blue"],"outcomes":[1,0,0],"key":39,"choice":2,"rt":39.250000030733645,"outcome":0,"trial":22,"correct":1,"trial_type":"three-arm-trial","trial_index":127,"time_elapsed":1087469,"internal_node_id":"0.0-28.0-0.0","task_version":"screening-mturk","missing":false,"accuracy":0},{"contexts":["red","green","blue"],"outcomes":[0,1,1],"key":38,"choice":1,"rt":77.83999998355284,"outcome":1,"trial":23,"correct":1,"trial_type":"three-arm-trial","trial_index":128,"time_elapsed":1088753,"internal_node_id":"0.0-29.0-0.0","task_version":"screening-mturk","missing":false,"accuracy":1},{"contexts":["red","green","blue"],"outcomes":[0,1,0],"key":37,"choice":0,"rt":144.54000000841916,"outcome":0,"trial":24,"correct":1,"trial_type":"three-arm-trial","trial_index":129,"time_elapsed":1090101,"internal_node_id":"0.0-30.0-0.0","task_version":"screening-mturk","missing":false,"accuracy":0},{"contexts":["red","green","blue"],"outcomes":[0,1,0],"key":39,"choice":2,"rt":155.28999996604398,"outcome":0,"trial":25,"correct":1,"trial_type":"three-arm-trial","trial_index":130,"time_elapsed":1091460,"internal_node_id":"0.0-31.0-0.0","task_version":"screening-mturk","missing":false,"accuracy":0},{"contexts":["red","green","blue"],"outcomes":[0,0,0],"key":39,"choice":2,"rt":94.09999998752028,"outcome":0,"trial":26,"correct":1,"trial_type":"three-arm-trial","trial_index":131,"time_elapsed":1092757,"internal_node_id":"0.0-32.0-0.0","task_version":"screening-mturk","missing":false,"accuracy":0},{"contexts":["red","green","blue"],"outcomes":[0,1,0],"key":39,"choice":2,"rt":32.21500001382083,"outcome":0,"trial":27,"correct":1,"trial_type":"three-arm-trial","trial_index":132,"time_elapsed":1093992,"internal_node_id":"0.0-33.0-0.0","task_version":"screening-mturk","missing":false,"accuracy":0},{"contexts":["red","green","blue"],"outcomes":[0,1,1],"key":38,"choice":1,"rt":14.899999951012433,"outcome":1,"trial":28,"correct":1,"trial_type":"three-arm-trial","trial_index":133,"time_elapsed":1095221,"internal_node_id":"0.0-34.0-0.0","task_version":"screening-mturk","missing":false,"accuracy":1},{"contexts":["red","green","blue"],"outcomes":[0,0,0],"key":39,"choice":2,"rt":40.489999984856695,"outcome":0,"trial":29,"correct":1,"trial_type":"three-arm-trial","trial_index":134,"time_elapsed":1096472,"internal_node_id":"0.0-35.0-0.0","task_version":"screening-mturk","missing":false,"accuracy":0},{"contexts":["red","green","blue"],"outcomes":[1,1,1],"key":37,"choice":0,"rt":3.8850000128149986,"outcome":1,"trial":30,"correct":1,"trial_type":"three-arm-trial","trial_index":135,"time_elapsed":1097679,"internal_node_id":"0.0-36.0-0.0","task_version":"screening-mturk","missing":false,"accuracy":0},{"contexts":["red","green","blue"],"outcomes":[1,0,0],"key":39,"choice":2,"rt":60.089999984484166,"outcome":0,"trial":31,"correct":2,"trial_type":"three-arm-trial","trial_index":136,"time_elapsed":1098941,"internal_node_id":"0.0-37.0-0.0","task_version":"screening-mturk","missing":false,"accuracy":1},{"contexts":["red","green","blue"],"outcomes":[0,0,1],"key":37,"choice":0,"rt":16.86500001233071,"outcome":0,"trial":32,"correct":2,"trial_type":"three-arm-trial","trial_index":137,"time_elapsed":1100164,"internal_node_id":"0.0-38.0-0.0","task_version":"screening-mturk","missing":false,"accuracy":0},{"contexts":["red","green","blue"],"outcomes":[0,0,1],"key":39,"choice":2,"rt":100.63000000081956,"outcome":1,"trial":33,"correct":2,"trial_type":"three-arm-trial","trial_index":138,"time_elapsed":1101467,"internal_node_id":"0.0-39.0-0.0","task_version":"screening-mturk","missing":false,"accuracy":1},{"contexts":["red","green","blue"],"outcomes":[0,0,1],"key":38,"choice":1,"rt":23.87000003363937,"outcome":0,"trial":34,"correct":2,"trial_type":"three-arm-trial","trial_index":139,"time_elapsed":1102695,"internal_node_id":"0.0-40.0-0.0","task_version":"screening-mturk","missing":false,"accuracy":0},{"contexts":["red","green","blue"],"outcomes":[1,0,1],"key":37,"choice":0,"rt":531.2549999798648,"outcome":1,"trial":35,"correct":2,"trial_type":"three-arm-trial","trial_index":140,"time_elapsed":1104430,"internal_node_id":"0.0-41.0-0.0","task_version":"screening-mturk","missing":false,"accuracy":0},{"contexts":["red","green","blue"],"outcomes":[0,0,0],"key":37,"choice":0,"rt":226.23500000918284,"outcome":0,"trial":36,"correct":2,"trial_type":"three-arm-trial","trial_index":141,"time_elapsed":1105860,"internal_node_id":"0.0-42.0-0.0","task_version":"screening-mturk","missing":false,"accuracy":0},{"contexts":["red","green","blue"],"outcomes":[0,0,1],"key":39,"choice":2,"rt":371.9849999761209,"outcome":1,"trial":37,"correct":2,"trial_type":"three-arm-trial","trial_index":142,"time_elapsed":1107443,"internal_node_id":"0.0-43.0-0.0","task_version":"screening-mturk","missing":false,"accuracy":1},{"contexts":["red","green","blue"],"outcomes":[0,0,1],"key":37,"choice":0,"rt":5.684999981895089,"outcome":0,"trial":38,"correct":2,"trial_type":"three-arm-trial","trial_index":143,"time_elapsed":1108653,"internal_node_id":"0.0-44.0-0.0","task_version":"screening-mturk","missing":false,"accuracy":0},{"contexts":["red","green","blue"],"outcomes":[0,0,1],"key":37,"choice":0,"rt":157.07999997539446,"outcome":0,"trial":39,"correct":2,"trial_type":"three-arm-trial","trial_index":144,"time_elapsed":1110013,"internal_node_id":"0.0-45.0-0.0","task_version":"screening-mturk","missing":false,"accuracy":0},{"contexts":["red","green","blue"],"outcomes":[0,0,1],"key":39,"choice":2,"rt":48.47999999765307,"outcome":1,"trial":40,"correct":2,"trial_type":"three-arm-trial","trial_index":145,"time_elapsed":1111264,"internal_node_id":"0.0-46.0-0.0","task_version":"screening-mturk","missing":false,"accuracy":1},{"contexts":["red","green","blue"],"outcomes":[0,0,1],"key":37,"choice":0,"rt":52.1549999830313,"outcome":0,"trial":41,"correct":2,"trial_type":"three-arm-trial","trial_index":146,"time_elapsed":1112741,"internal_node_id":"0.0-47.0-0.0","task_version":"screening-mturk","missing":false,"accuracy":0},{"contexts":["red","green","blue"],"outcomes":[1,0,1],"key":38,"choice":1,"rt":212.07499998854473,"outcome":0,"trial":42,"correct":2,"trial_type":"three-arm-trial","trial_index":147,"time_elapsed":1114156,"internal_node_id":"0.0-48.0-0.0","task_version":"screening-mturk","missing":false,"accuracy":0},{"contexts":["red","green","blue"],"outcomes":[0,0,0],"key":38,"choice":1,"rt":32.8999999910593,"outcome":0,"trial":43,"correct":2,"trial_type":"three-arm-trial","trial_index":148,"time_elapsed":1115392,"internal_node_id":"0.0-49.0-0.0","task_version":"screening-mturk","missing":false,"accuracy":0},{"contexts":["red","green","blue"],"outcomes":[0,0,1],"key":39,"choice":2,"rt":25.359999970532954,"outcome":1,"trial":44,"correct":2,"trial_type":"three-arm-trial","trial_index":149,"time_elapsed":1116619,"internal_node_id":"0.0-50.0-0.0","task_version":"screening-mturk","missing":false,"accuracy":1},{"contexts":["red","green","blue"],"outcomes":[1,0,1],"key":39,"choice":2,"rt":82.76000001933426,"outcome":1,"trial":45,"correct":2,"trial_type":"three-arm-trial","trial_index":150,"time_elapsed":1117909,"internal_node_id":"0.0-51.0-0.0","task_version":"screening-mturk","missing":false,"accuracy":1},{"contexts":["red","green","blue"],"outcomes":[0,0,0],"key":39,"choice":2,"rt":20.42999997502193,"outcome":0,"trial":46,"correct":1,"trial_type":"three-arm-trial","trial_index":151,"time_elapsed":1119135,"internal_node_id":"0.0-52.0-0.0","task_version":"screening-mturk","missing":false,"accuracy":0},{"contexts":["red","green","blue"],"outcomes":[0,1,1],"key":38,"choice":1,"rt":5.980000016279519,"outcome":1,"trial":47,"correct":1,"trial_type":"three-arm-trial","trial_index":152,"time_elapsed":1120350,"internal_node_id":"0.0-53.0-0.0","task_version":"screening-mturk","missing":false,"accuracy":1},{"contexts":["red","green","blue"],"outcomes":[0,1,0],"key":37,"choice":0,"rt":16.12000004388392,"outcome":0,"trial":48,"correct":1,"trial_type":"three-arm-trial","trial_index":153,"time_elapsed":1121570,"internal_node_id":"0.0-54.0-0.0","task_version":"screening-mturk","missing":false,"accuracy":0},{"contexts":["red","green","blue"],"outcomes":[0,1,0],"key":38,"choice":1,"rt":3.1400000443682075,"outcome":1,"trial":49,"correct":1,"trial_type":"three-arm-trial","trial_index":154,"time_elapsed":1122776,"internal_node_id":"0.0-55.0-0.0","task_version":"screening-mturk","missing":false,"accuracy":1},{"contexts":["red","green","blue"],"outcomes":[0,0,0],"key":39,"choice":2,"rt":164.8799999966286,"outcome":0,"trial":50,"correct":1,"trial_type":"three-arm-trial","trial_index":155,"time_elapsed":1124143,"internal_node_id":"0.0-56.0-0.0","task_version":"screening-mturk","missing":false,"accuracy":0},{"contexts":["red","green","blue"],"outcomes":[1,0,0],"key":38,"choice":1,"rt":48.63500001374632,"outcome":0,"trial":51,"correct":1,"trial_type":"three-arm-trial","trial_index":156,"time_elapsed":1125395,"internal_node_id":"0.0-57.0-0.0","task_version":"screening-mturk","missing":false,"accuracy":1},{"contexts":["red","green","blue"],"outcomes":[0,1,1],"key":37,"choice":0,"rt":40.22999998414889,"outcome":0,"trial":52,"correct":1,"trial_type":"three-arm-trial","trial_index":157,"time_elapsed":1126639,"internal_node_id":"0.0-58.0-0.0","task_version":"screening-mturk","missing":false,"accuracy":0},{"contexts":["red","green","blue"],"outcomes":[0,0,0],"key":38,"choice":1,"rt":15.18500002566725,"outcome":0,"trial":53,"correct":1,"trial_type":"three-arm-trial","trial_index":158,"time_elapsed":1127867,"internal_node_id":"0.0-59.0-0.0","task_version":"screening-mturk","missing":false,"accuracy":1},{"contexts":["red","green","blue"],"outcomes":[1,1,0],"key":39,"choice":2,"rt":76.74500002758577,"outcome":0,"trial":54,"correct":1,"trial_type":"three-arm-trial","trial_index":159,"time_elapsed":1129147,"internal_node_id":"0.0-60.0-0.0","task_version":"screening-mturk","missing":false,"accuracy":0},{"contexts":["red","green","blue"],"outcomes":[1,1,0],"key":39,"choice":2,"rt":113.90499997651204,"outcome":0,"trial":55,"correct":1,"trial_type":"three-arm-trial","trial_index":160,"time_elapsed":1130464,"internal_node_id":"0.0-61.0-0.0","task_version":"screening-mturk","missing":false,"accuracy":0},{"contexts":["red","green","blue"],"outcomes":[0,0,1],"key":39,"choice":2,"rt":161.9949999731034,"outcome":1,"trial":56,"correct":1,"trial_type":"three-arm-trial","trial_index":161,"time_elapsed":1131828,"internal_node_id":"0.0-62.0-0.0","task_version":"screening-mturk","missing":false,"accuracy":0},{"contexts":["red","green","blue"],"outcomes":[0,0,0],"key":39,"choice":2,"rt":59.86999999731779,"outcome":0,"trial":57,"correct":1,"trial_type":"three-arm-trial","trial_index":162,"time_elapsed":1133096,"internal_node_id":"0.0-63.0-0.0","task_version":"screening-mturk","missing":false,"accuracy":0},{"contexts":["red","green","blue"],"outcomes":[0,1,0],"key":39,"choice":2,"rt":82.43000000948086,"outcome":0,"trial":58,"correct":1,"trial_type":"three-arm-trial","trial_index":163,"time_elapsed":1134381,"internal_node_id":"0.0-64.0-0.0","task_version":"screening-mturk","missing":false,"accuracy":0},{"contexts":["red","green","blue"],"outcomes":[0,0,1],"key":39,"choice":2,"rt":135.31000004149973,"outcome":1,"trial":59,"correct":1,"trial_type":"three-arm-trial","trial_index":164,"time_elapsed":1135719,"internal_node_id":"0.0-65.0-0.0","task_version":"screening-mturk","missing":false,"accuracy":0},{"contexts":["red","green","blue"],"outcomes":[1,1,0],"key":39,"choice":2,"rt":104.14000001037493,"outcome":0,"trial":60,"correct":1,"trial_type":"three-arm-trial","trial_index":165,"time_elapsed":1137030,"internal_node_id":"0.0-66.0-0.0","task_version":"screening-mturk","missing":false,"accuracy":0},{"contexts":["red","green","blue"],"outcomes":[1,0,0],"key":37,"choice":0,"rt":153.4899999969639,"outcome":1,"trial":61,"correct":0,"trial_type":"three-arm-trial","trial_index":166,"time_elapsed":1138387,"internal_node_id":"0.0-67.0-0.0","task_version":"screening-mturk","missing":false,"accuracy":1},{"contexts":["red","green","blue"],"outcomes":[1,0,1],"key":37,"choice":0,"rt":42.92500001611188,"outcome":1,"trial":62,"correct":0,"trial_type":"three-arm-trial","trial_index":167,"time_elapsed":1139632,"internal_node_id":"0.0-68.0-0.0","task_version":"screening-mturk","missing":false,"accuracy":1},{"contexts":["red","green","blue"],"outcomes":[1,1,0],"key":37,"choice":0,"rt":204.79000004706904,"outcome":1,"trial":63,"correct":0,"trial_type":"three-arm-trial","trial_index":168,"time_elapsed":1141040,"internal_node_id":"0.0-69.0-0.0","task_version":"screening-mturk","missing":false,"accuracy":1},{"contexts":["red","green","blue"],"outcomes":[1,0,0],"key":39,"choice":2,"rt":12.089999974705279,"outcome":0,"trial":64,"correct":0,"trial_type":"three-arm-trial","trial_index":169,"time_elapsed":1142256,"internal_node_id":"0.0-70.0-0.0","task_version":"screening-mturk","missing":false,"accuracy":0},{"contexts":["red","green","blue"],"outcomes":[1,0,0],"key":38,"choice":1,"rt":143.68500001728535,"outcome":0,"trial":65,"correct":0,"trial_type":"three-arm-trial","trial_index":170,"time_elapsed":1143602,"internal_node_id":"0.0-71.0-0.0","task_version":"screening-mturk","missing":false,"accuracy":0},{"contexts":["red","green","blue"],"outcomes":[1,1,0],"key":38,"choice":1,"rt":24.504999979399145,"outcome":1,"trial":66,"correct":0,"trial_type":"three-arm-trial","trial_index":171,"time_elapsed":1144830,"internal_node_id":"0.0-72.0-0.0","task_version":"screening-mturk","missing":false,"accuracy":0},{"contexts":["red","green","blue"],"outcomes":[1,0,0],"key":38,"choice":1,"rt":53.580000007059425,"outcome":0,"trial":67,"correct":0,"trial_type":"three-arm-trial","trial_index":172,"time_elapsed":1146087,"internal_node_id":"0.0-73.0-0.0","task_version":"screening-mturk","missing":false,"accuracy":0},{"contexts":["red","green","blue"],"outcomes":[0,0,0],"key":37,"choice":0,"rt":100.96999997040257,"outcome":0,"trial":68,"correct":0,"trial_type":"three-arm-trial","trial_index":173,"time_elapsed":1147392,"internal_node_id":"0.0-74.0-0.0","task_version":"screening-mturk","missing":false,"accuracy":1},{"contexts":["red","green","blue"],"outcomes":[1,0,0],"key":39,"choice":2,"rt":166.61499999463558,"outcome":0,"trial":69,"correct":0,"trial_type":"three-arm-trial","trial_index":174,"time_elapsed":1148763,"internal_node_id":"0.0-75.0-0.0","task_version":"screening-mturk","missing":false,"accuracy":0},{"contexts":["red","green","blue"],"outcomes":[1,0,0],"key":37,"choice":0,"rt":58.544999978039414,"outcome":1,"trial":70,"correct":0,"trial_type":"three-arm-trial","trial_index":175,"time_elapsed":1150025,"internal_node_id":"0.0-76.0-0.0","task_version":"screening-mturk","missing":false,"accuracy":1},{"contexts":["red","green","blue"],"outcomes":[1,0,0],"key":39,"choice":2,"rt":185.09000004269183,"outcome":0,"trial":71,"correct":0,"trial_type":"three-arm-trial","trial_index":176,"time_elapsed":1151418,"internal_node_id":"0.0-77.0-0.0","task_version":"screening-mturk","missing":false,"accuracy":0},{"contexts":["red","green","blue"],"outcomes":[1,0,0],"key":39,"choice":2,"rt":260.84999996237457,"outcome":0,"trial":72,"correct":0,"trial_type":"three-arm-trial","trial_index":177,"time_elapsed":1152882,"internal_node_id":"0.0-78.0-0.0","task_version":"screening-mturk","missing":false,"accuracy":0},{"contexts":["red","green","blue"],"outcomes":[1,0,1],"key":37,"choice":0,"rt":42.67499997513369,"outcome":1,"trial":73,"correct":0,"trial_type":"three-arm-trial","trial_index":178,"time_elapsed":1154127,"internal_node_id":"0.0-79.0-0.0","task_version":"screening-mturk","missing":false,"accuracy":1},{"contexts":["red","green","blue"],"outcomes":[1,0,1],"key":39,"choice":2,"rt":47.48000000836328,"outcome":1,"trial":74,"correct":0,"trial_type":"three-arm-trial","trial_index":179,"time_elapsed":1155377,"internal_node_id":"0.0-80.0-0.0","task_version":"screening-mturk","missing":false,"accuracy":0},{"contexts":["red","green","blue"],"outcomes":[1,0,0],"key":39,"choice":2,"rt":27.3149999557063,"outcome":0,"trial":75,"correct":0,"trial_type":"three-arm-trial","trial_index":180,"time_elapsed":1156608,"internal_node_id":"0.0-81.0-0.0","task_version":"screening-mturk","missing":false,"accuracy":0},{"contexts":["red","green","blue"],"outcomes":[0,0,0],"key":39,"choice":2,"rt":18.849999993108213,"outcome":0,"trial":76,"correct":1,"trial_type":"three-arm-trial","trial_index":181,"time_elapsed":1157837,"internal_node_id":"0.0-82.0-0.0","task_version":"screening-mturk","missing":false,"accuracy":0},{"contexts":["red","green","blue"],"outcomes":[0,1,1],"key":37,"choice":0,"rt":70.8149999845773,"outcome":0,"trial":77,"correct":1,"trial_type":"three-arm-trial","trial_index":182,"time_elapsed":1159111,"internal_node_id":"0.0-83.0-0.0","task_version":"screening-mturk","missing":false,"accuracy":0},{"contexts":["red","green","blue"],"outcomes":[0,0,1],"key":39,"choice":2,"rt":174.08500000601634,"outcome":1,"trial":78,"correct":1,"trial_type":"three-arm-trial","trial_index":183,"time_elapsed":1160489,"internal_node_id":"0.0-84.0-0.0","task_version":"screening-mturk","missing":false,"accuracy":0},{"contexts":["red","green","blue"],"outcomes":[0,1,0],"key":37,"choice":0,"rt":12.569999962579459,"outcome":0,"trial":79,"correct":1,"trial_type":"three-arm-trial","trial_index":184,"time_elapsed":1161704,"internal_node_id":"0.0-85.0-0.0","task_version":"screening-mturk","missing":false,"accuracy":0},{"contexts":["red","green","blue"],"outcomes":[0,1,1],"key":38,"choice":1,"rt":281.8599999882281,"outcome":1,"trial":80,"correct":1,"trial_type":"three-arm-trial","trial_index":185,"time_elapsed":1163191,"internal_node_id":"0.0-86.0-0.0","task_version":"screening-mturk","missing":false,"accuracy":1},{"contexts":["red","green","blue"],"outcomes":[0,1,0],"key":37,"choice":0,"rt":28.745000017806888,"outcome":0,"trial":81,"correct":1,"trial_type":"three-arm-trial","trial_index":186,"time_elapsed":1164422,"internal_node_id":"0.0-87.0-0.0","task_version":"screening-mturk","missing":false,"accuracy":0},{"contexts":["red","green","blue"],"outcomes":[1,1,0],"key":39,"choice":2,"rt":61.74999999348074,"outcome":0,"trial":82,"correct":1,"trial_type":"three-arm-trial","trial_index":187,"time_elapsed":1165687,"internal_node_id":"0.0-88.0-0.0","task_version":"screening-mturk","missing":false,"accuracy":0},{"contexts":["red","green","blue"],"outcomes":[0,1,0],"key":38,"choice":1,"rt":35.36000003805384,"outcome":1,"trial":83,"correct":1,"trial_type":"three-arm-trial","trial_index":188,"time_elapsed":1166925,"internal_node_id":"0.0-89.0-0.0","task_version":"screening-mturk","missing":false,"accuracy":1},{"contexts":["red","green","blue"],"outcomes":[1,1,0],"key":39,"choice":2,"rt":165.4700000071898,"outcome":0,"trial":84,"correct":1,"trial_type":"three-arm-trial","trial_index":189,"time_elapsed":1168298,"internal_node_id":"0.0-90.0-0.0","task_version":"screening-mturk","missing":false,"accuracy":0},{"contexts":["red","green","blue"],"outcomes":[1,1,0],"key":37,"choice":0,"rt":35.845000005792826,"outcome":1,"trial":85,"correct":1,"trial_type":"three-arm-trial","trial_index":190,"time_elapsed":1169546,"internal_node_id":"0.0-91.0-0.0","task_version":"screening-mturk","missing":false,"accuracy":0},{"contexts":["red","green","blue"],"outcomes":[0,1,0],"key":37,"choice":0,"rt":45.07500003091991,"outcome":0,"trial":86,"correct":1,"trial_type":"three-arm-trial","trial_index":191,"time_elapsed":1170793,"internal_node_id":"0.0-92.0-0.0","task_version":"screening-mturk","missing":false,"accuracy":0},{"contexts":["red","green","blue"],"outcomes":[0,1,0],"key":39,"choice":2,"rt":18.85500003118068,"outcome":0,"trial":87,"correct":1,"trial_type":"three-arm-trial","trial_index":192,"time_elapsed":1172018,"internal_node_id":"0.0-93.0-0.0","task_version":"screening-mturk","missing":false,"accuracy":0},{"contexts":["red","green","blue"],"outcomes":[0,1,1],"key":37,"choice":0,"rt":106.000000028871,"outcome":0,"trial":88,"correct":1,"trial_type":"three-arm-trial","trial_index":193,"time_elapsed":1173327,"internal_node_id":"0.0-94.0-0.0","task_version":"screening-mturk","missing":false,"accuracy":0},{"contexts":["red","green","blue"],"outcomes":[0,1,0],"key":39,"choice":2,"rt":222.4350000033155,"outcome":0,"trial":89,"correct":1,"trial_type":"three-arm-trial","trial_index":194,"time_elapsed":1174752,"internal_node_id":"0.0-95.0-0.0","task_version":"screening-mturk","missing":false,"accuracy":0},{"contexts":["red","green","blue"],"outcomes":[1,1,0],"key":37,"choice":0,"rt":64.2299999599345,"outcome":1,"trial":90,"correct":1,"trial_type":"three-arm-trial","trial_index":195,"time_elapsed":1176019,"internal_node_id":"0.0-96.0-0.0","task_version":"screening-mturk","missing":false,"accuracy":0},{"rt":27190.194999973755,"responses":{"age":"33","gender-categorical":"Female","gender-free-response":"","ethnicity":"Hispanic or Latino","race":["Black or African American"],"language":"Yes","fluency":"Very well","prolific":"Yes","prolific-this-study":"Yes"},"survey":"demographics","trial_type":"survey-demo","trial_index":196,"time_elapsed":1203216,"internal_node_id":"0.0-97.0","task_version":"screening-mturk","interactions":"[{\"event\":\"blur\",\"trial\":68,\"time\":573271},{\"event\":\"focus\",\"trial\":68,\"time\":574855},{\"event\":\"blur\",\"trial\":84,\"time\":732871},{\"event\":\"focus\",\"trial\":84,\"time\":761613},{\"event\":\"blur\",\"trial\":98,\"time\":875924},{\"event\":\"focus\",\"trial\":98,\"time\":926815},{\"event\":\"blur\",\"trial\":104,\"time\":1039632},{\"event\":\"focus\",\"trial\":104,\"time\":1042195}]"}]