[{"responses":{"Q09":"3","Q11":"2","Q06":"2","Q02":"2","Q04":"1","Q12":"1","Q03":"1","Q05":"0","Q15":"2","Q14":"3","Q01":"1","Q10":"2","Q08":"1","Q13":"2","Q07":"2"},"rt":204543.00000000146,"survey":"shaps","trial_type":"survey-template","trial_index":0,"time_elapsed":204565,"internal_node_id":"0.0-0.0","task_version":"screening-mturk"},{"responses":{"Q01":"2","Q05":"3","Q07":"2","Q04":"1","Q02":"1","Q03":"1","Q06":"1","Q08":"3"},"rt":8251.000000000204,"survey":"gad7","trial_type":"survey-template","trial_index":1,"time_elapsed":212822,"internal_node_id":"0.0-1.0","task_version":"screening-mturk"},{"responses":{"Q02":"3","Q03":"2","Q01":"2"},"rt":6036.000000000058,"survey":"pswq","trial_type":"survey-template","trial_index":2,"time_elapsed":218861,"internal_node_id":"0.0-2.0","task_version":"screening-mturk"},{"responses":{"Q11":"2","Q10":"2","Q02":"2","Q09":"2","Q06":"1","Q08":"3","Q07":"1","Q01":"2","Q03":"2","Q05":"3","Q13":"1","Q04":"2","Q12":"1"},"rt":14020.999999998836,"survey":"bisbas","trial_type":"survey-template","trial_index":3,"time_elapsed":232888,"internal_node_id":"0.0-3.0","task_version":"screening-mturk"},{"responses":{"Q10":"3","Q14":"2","Q09":"2","Q04":"2","Q01":"1","Q08":"3","Q06":"1","Q02":"3","Q07":"2","Q03":"2","Q15":"1","Q13":"1","Q11":"1","Q12":"3","Q05":"1"},"rt":32056.999999998894,"survey":"7up7down","trial_type":"survey-template","trial_index":4,"time_elapsed":264950,"internal_node_id":"0.0-4.0","task_version":"screening-mturk"},{"view_history":"[{\"page_index\":0,\"viewing_time\":1930.000000000291},{\"page_index\":1,\"viewing_time\":1022.9999999991851},{\"page_index\":2,\"viewing_time\":934.9999999995343},{\"page_index\":3,\"viewing_time\":1970.0000000011642},{\"page_index\":4,\"viewing_time\":1175.9999999994761},{\"page_index\":5,\"viewing_time\":1648.999999999418},{\"page_index\":6,\"viewing_time\":1536.0000000000582},{\"page_index\":7,\"viewing_time\":895.0000000004657}]","rt":11115.999999999942,"trial_type":"instructions","trial_index":5,"time_elapsed":276068,"internal_node_id":"0.0-5.0-0.0","task_version":"screening-mturk"},{"responses":["True","True","True","True","False"],"num_errors":3,"rt":14963.999999999884,"trial_type":"three-arm-comprehension","trial_index":6,"time_elapsed":291036,"internal_node_id":"0.0-5.0-1.0","task_version":"screening-mturk"},{"view_history":"[{\"page_index\":0,\"viewing_time\":3647.9999999992433},{\"page_index\":1,\"viewing_time\":1857},{\"page_index\":2,\"viewing_time\":5614.999999999767},{\"page_index\":3,\"viewing_time\":2288.0000000004657},{\"page_index\":4,\"viewing_time\":1087.999999999709},{\"page_index\":5,\"viewing_time\":1002.0000000004075},{\"page_index\":6,\"viewing_time\":902.0000000000582},{\"page_index\":7,\"viewing_time\":870.9999999991851}]","rt":17271.99999999901,"trial_type":"instructions","trial_index":7,"time_elapsed":308314,"internal_node_id":"0.0-5.1-0.1","task_version":"screening-mturk"},{"responses":["True","True","True","False","True"],"num_errors":1,"rt":24265.999999999593,"trial_type":"three-arm-comprehension","trial_index":8,"time_elapsed":332585,"internal_node_id":"0.0-5.1-1.1","task_version":"screening-mturk"},{"view_history":"[{\"page_index\":0,\"viewing_time\":2103.9999999993015},{\"page_index\":1,\"viewing_time\":3735.9999999990105},{\"page_index\":2,\"viewing_time\":4063.000000000058},{\"page_index\":3,\"viewing_time\":5337.000000001397},{\"page_index\":4,\"viewing_time\":4840.000000000116},{\"page_index\":5,\"viewing_time\":1599.9999999985448},{\"page_index\":6,\"viewing_time\":1319.0000000013388},{\"page_index\":7,\"viewing_time\":834.9999999991269}]","rt":23833.999999998894,"trial_type":"instructions","trial_index":9,"time_elapsed":356423,"internal_node_id":"0.0-5.2-0.2","task_version":"screening-mturk"},{"responses":["True","True","True","True","True"],"num_errors":2,"rt":7197.000000000116,"trial_type":"three-arm-comprehension","trial_index":10,"time_elapsed":363624,"internal_node_id":"0.0-5.2-1.2","task_version":"screening-mturk"},{"view_history":"[{\"page_index\":0,\"viewing_time\":1920.0000000000582},{\"page_index\":1,\"viewing_time\":706.0000000001164},{\"page_index\":2,\"viewing_time\":654.0000000004657},{\"page_index\":3,\"viewing_time\":625},{\"page_index\":4,\"viewing_time\":639.9999999994179},{\"page_index\":5,\"viewing_time\":584.0000000007567},{\"page_index\":6,\"viewing_time\":149.99999999965075},{\"page_index\":7,\"viewing_time\":137.99999999895226}]","rt":5417.999999999651,"trial_type":"instructions","trial_index":11,"time_elapsed":369046,"internal_node_id":"0.0-5.3-0.3","task_version":"screening-mturk"},{"responses":["False","True","False","True","True"],"num_errors":2,"rt":10879.000000000815,"trial_type":"three-arm-comprehension","trial_index":12,"time_elapsed":379929,"internal_node_id":"0.0-5.3-1.3","task_version":"screening-mturk"},{"view_history":"[{\"page_index\":0,\"viewing_time\":1519.0000000002328},{\"page_index\":1,\"viewing_time\":967.999999998894},{\"page_index\":2,\"viewing_time\":344.00000000098953},{\"page_index\":3,\"viewing_time\":200.99999999912689},{\"page_index\":4,\"viewing_time\":1936.0000000015134},{\"page_index\":5,\"viewing_time\":2982.99999999837},{\"page_index\":6,\"viewing_time\":1577.000000001106},{\"page_index\":7,\"viewing_time\":1038.9999999988358}]","rt":10567.999999999302,"trial_type":"instructions","trial_index":13,"time_elapsed":390501,"internal_node_id":"0.0-5.4-0.4","task_version":"screening-mturk"},{"responses":["True","True","True","False","False"],"num_errors":2,"rt":6519.000000000233,"trial_type":"three-arm-comprehension","trial_index":14,"time_elapsed":397023,"internal_node_id":"0.0-5.4-1.4","task_version":"screening-mturk"},{"view_history":"[{\"page_index\":0,\"viewing_time\":1875},{\"page_index\":1,\"viewing_time\":5432.999999999069},{\"page_index\":2,\"viewing_time\":409.0000000014552},{\"page_index\":3,\"viewing_time\":887.9999999990105},{\"page_index\":4,\"viewing_time\":929.0000000001164},{\"page_index\":5,\"viewing_time\":766.9999999997672},{\"page_index\":6,\"viewing_time\":11407.999999999476},{\"page_index\":7,\"viewing_time\":1464.0000000017462}]","rt":23173.00000000064,"trial_type":"instructions","trial_index":15,"time_elapsed":420205,"internal_node_id":"0.0-5.5-0.5","task_version":"screening-mturk"},{"responses":["True","True","False","False","True"],"num_errors":0,"rt":25988.000000001222,"trial_type":"three-arm-comprehension","trial_index":16,"time_elapsed":446197,"internal_node_id":"0.0-5.5-1.5","task_version":"screening-mturk"},{"view_history":"[{\"page_index\":0,\"viewing_time\":5808.999999999243}]","rt":5809.999999999476,"trial_type":"instructions","trial_index":17,"time_elapsed":452012,"internal_node_id":"0.0-6.0","task_version":"screening-mturk"},{"contexts":["green","blue","red"],"outcomes":[0,0,1],"key":39,"choice":2,"rt":3058.9999999993015,"outcome":1,"trial":1,"correct":2,"trial_type":"three-arm-trial","trial_index":18,"time_elapsed":456274,"internal_node_id":"0.0-7.0-0.0","task_version":"screening-mturk","missing":false,"accuracy":1},{"contexts":["green","blue","red"],"outcomes":[1,0,1],"key":39,"choice":2,"rt":67.99999999930151,"outcome":1,"trial":2,"correct":2,"trial_type":"three-arm-trial","trial_index":19,"time_elapsed":457546,"internal_node_id":"0.0-8.0-0.0","task_version":"screening-mturk","missing":false,"accuracy":1},{"contexts":["green","blue","red"],"outcomes":[0,1,0],"key":39,"choice":2,"rt":3975.0000000003492,"outcome":0,"trial":3,"correct":2,"trial_type":"three-arm-trial","trial_index":20,"time_elapsed":462727,"internal_node_id":"0.0-9.0-0.0","task_version":"screening-mturk","missing":false,"accuracy":1},{"contexts":["green","blue","red"],"outcomes":[0,0,1],"key":39,"choice":2,"rt":109.00000000040745,"outcome":1,"trial":4,"correct":2,"trial_type":"three-arm-trial","trial_index":21,"time_elapsed":464041,"internal_node_id":"0.0-10.0-0.0","task_version":"screening-mturk","missing":false,"accuracy":1},{"contexts":["green","blue","red"],"outcomes":[0,0,1],"key":39,"choice":2,"rt":695.9999999998836,"outcome":1,"trial":5,"correct":2,"trial_type":"three-arm-trial","trial_index":22,"time_elapsed":465940,"internal_node_id":"0.0-11.0-0.0","task_version":"screening-mturk","missing":false,"accuracy":1},{"contexts":["green","blue","red"],"outcomes":[0,1,1],"key":39,"choice":2,"rt":349.0000000001746,"outcome":1,"trial":6,"correct":2,"trial_type":"three-arm-trial","trial_index":23,"time_elapsed":467493,"internal_node_id":"0.0-12.0-0.0","task_version":"screening-mturk","missing":false,"accuracy":1},{"contexts":["green","blue","red"],"outcomes":[0,1,0],"key":39,"choice":2,"rt":50.99999999947613,"outcome":0,"trial":7,"correct":2,"trial_type":"three-arm-trial","trial_index":24,"time_elapsed":468748,"internal_node_id":"0.0-13.0-0.0","task_version":"screening-mturk","missing":false,"accuracy":1},{"contexts":["green","blue","red"],"outcomes":[0,0,0],"key":39,"choice":2,"rt":631.9999999995925,"outcome":0,"trial":8,"correct":2,"trial_type":"three-arm-trial","trial_index":25,"time_elapsed":470583,"internal_node_id":"0.0-14.0-0.0","task_version":"screening-mturk","missing":false,"accuracy":1},{"contexts":["green","blue","red"],"outcomes":[0,1,1],"key":37,"choice":0,"rt":51.999999999650754,"outcome":0,"trial":9,"correct":2,"trial_type":"three-arm-trial","trial_index":26,"time_elapsed":471838,"internal_node_id":"0.0-15.0-0.0","task_version":"screening-mturk","missing":false,"accuracy":0},{"contexts":["green","blue","red"],"outcomes":[1,1,0],"key":38,"choice":1,"rt":11.99999999877764,"outcome":1,"trial":10,"correct":2,"trial_type":"three-arm-trial","trial_index":27,"time_elapsed":473052,"internal_node_id":"0.0-16.0-0.0","task_version":"screening-mturk","missing":false,"accuracy":0},{"contexts":["green","blue","red"],"outcomes":[0,0,1],"key":39,"choice":2,"rt":68.99999999953434,"outcome":1,"trial":11,"correct":2,"trial_type":"three-arm-trial","trial_index":28,"time_elapsed":474326,"internal_node_id":"0.0-17.0-0.0","task_version":"screening-mturk","missing":false,"accuracy":1},{"contexts":["green","blue","red"],"outcomes":[0,0,1],"key":37,"choice":0,"rt":99.00000000017462,"outcome":0,"trial":12,"correct":2,"trial_type":"three-arm-trial","trial_index":29,"time_elapsed":475629,"internal_node_id":"0.0-18.0-0.0","task_version":"screening-mturk","missing":false,"accuracy":0},{"contexts":["green","blue","red"],"outcomes":[0,0,1],"key":37,"choice":0,"rt":65.99999999889405,"outcome":0,"trial":13,"correct":2,"trial_type":"three-arm-trial","trial_index":30,"time_elapsed":476899,"internal_node_id":"0.0-19.0-0.0","task_version":"screening-mturk","missing":false,"accuracy":0},{"contexts":["green","blue","red"],"outcomes":[0,0,1],"key":39,"choice":2,"rt":55.00000000029104,"outcome":1,"trial":14,"correct":2,"trial_type":"three-arm-trial","trial_index":31,"time_elapsed":478157,"internal_node_id":"0.0-20.0-0.0","task_version":"screening-mturk","missing":false,"accuracy":1},{"contexts":["green","blue","red"],"outcomes":[0,0,0],"key":39,"choice":2,"rt":157.99999999947613,"outcome":0,"trial":15,"correct":2,"trial_type":"three-arm-trial","trial_index":32,"time_elapsed":479519,"internal_node_id":"0.0-21.0-0.0","task_version":"screening-mturk","missing":false,"accuracy":1},{"contexts":["green","blue","red"],"outcomes":[1,0,1],"key":38,"choice":1,"rt":91.00000000034925,"outcome":0,"trial":16,"correct":0,"trial_type":"three-arm-trial","trial_index":33,"time_elapsed":480816,"internal_node_id":"0.0-22.0-0.0","task_version":"screening-mturk","missing":false,"accuracy":0},{"contexts":["green","blue","red"],"outcomes":[1,1,0],"key":38,"choice":1,"rt":243.00000000040745,"outcome":1,"trial":17,"correct":0,"trial_type":"three-arm-trial","trial_index":34,"time_elapsed":482261,"internal_node_id":"0.0-23.0-0.0","task_version":"screening-mturk","missing":false,"accuracy":0},{"contexts":["green","blue","red"],"outcomes":[1,0,0],"key":39,"choice":2,"rt":1554.0000000000582,"outcome":0,"trial":18,"correct":0,"trial_type":"three-arm-trial","trial_index":35,"time_elapsed":485023,"internal_node_id":"0.0-24.0-0.0","task_version":"screening-mturk","missing":false,"accuracy":0},{"contexts":["green","blue","red"],"outcomes":[1,0,1],"key":38,"choice":1,"rt":33.999999999650754,"outcome":0,"trial":19,"correct":0,"trial_type":"three-arm-trial","trial_index":36,"time_elapsed":486262,"internal_node_id":"0.0-25.0-0.0","task_version":"screening-mturk","missing":false,"accuracy":0},{"contexts":["green","blue","red"],"outcomes":[1,0,0],"key":39,"choice":2,"rt":103.99999999935972,"outcome":0,"trial":20,"correct":0,"trial_type":"three-arm-trial","trial_index":37,"time_elapsed":487570,"internal_node_id":"0.0-26.0-0.0","task_version":"screening-mturk","missing":false,"accuracy":0},{"contexts":["green","blue","red"],"outcomes":[1,1,0],"key":39,"choice":2,"rt":118.00000000040745,"outcome":0,"trial":21,"correct":0,"trial_type":"three-arm-trial","trial_index":38,"time_elapsed":488891,"internal_node_id":"0.0-27.0-0.0","task_version":"screening-mturk","missing":false,"accuracy":0},{"contexts":["green","blue","red"],"outcomes":[1,0,0],"key":39,"choice":2,"rt":125,"outcome":0,"trial":22,"correct":0,"trial_type":"three-arm-trial","trial_index":39,"time_elapsed":490219,"internal_node_id":"0.0-28.0-0.0","task_version":"screening-mturk","missing":false,"accuracy":0},{"contexts":["green","blue","red"],"outcomes":[1,0,0],"key":39,"choice":2,"rt":493.00000000040745,"outcome":0,"trial":23,"correct":0,"trial_type":"three-arm-trial","trial_index":40,"time_elapsed":491916,"internal_node_id":"0.0-29.0-0.0","task_version":"screening-mturk","missing":false,"accuracy":0},{"contexts":["green","blue","red"],"outcomes":[0,0,0],"key":37,"choice":0,"rt":68.99999999953434,"outcome":0,"trial":24,"correct":0,"trial_type":"three-arm-trial","trial_index":41,"time_elapsed":493187,"internal_node_id":"0.0-30.0-0.0","task_version":"screening-mturk","missing":false,"accuracy":1},{"contexts":["green","blue","red"],"outcomes":[1,0,0],"key":39,"choice":2,"rt":50.99999999947613,"outcome":0,"trial":25,"correct":0,"trial_type":"three-arm-trial","trial_index":42,"time_elapsed":494445,"internal_node_id":"0.0-31.0-0.0","task_version":"screening-mturk","missing":false,"accuracy":0},{"contexts":["green","blue","red"],"outcomes":[1,0,0],"key":37,"choice":0,"rt":59.000000001105946,"outcome":1,"trial":26,"correct":0,"trial_type":"three-arm-trial","trial_index":43,"time_elapsed":495708,"internal_node_id":"0.0-32.0-0.0","task_version":"screening-mturk","missing":false,"accuracy":1},{"contexts":["green","blue","red"],"outcomes":[1,0,0],"key":37,"choice":0,"rt":270.00000000046566,"outcome":1,"trial":27,"correct":0,"trial_type":"three-arm-trial","trial_index":44,"time_elapsed":497180,"internal_node_id":"0.0-33.0-0.0","task_version":"screening-mturk","missing":false,"accuracy":1},{"contexts":["green","blue","red"],"outcomes":[1,1,0],"key":39,"choice":2,"rt":32.99999999947613,"outcome":0,"trial":28,"correct":0,"trial_type":"three-arm-trial","trial_index":45,"time_elapsed":498417,"internal_node_id":"0.0-34.0-0.0","task_version":"screening-mturk","missing":false,"accuracy":0},{"contexts":["green","blue","red"],"outcomes":[1,0,0],"key":37,"choice":0,"rt":342.99999999895226,"outcome":1,"trial":29,"correct":0,"trial_type":"three-arm-trial","trial_index":46,"time_elapsed":499964,"internal_node_id":"0.0-35.0-0.0","task_version":"screening-mturk","missing":false,"accuracy":1},{"contexts":["green","blue","red"],"outcomes":[1,0,0],"key":39,"choice":2,"rt":102.0000000007567,"outcome":0,"trial":30,"correct":0,"trial_type":"three-arm-trial","trial_index":47,"time_elapsed":501268,"internal_node_id":"0.0-36.0-0.0","task_version":"screening-mturk","missing":false,"accuracy":0},{"contexts":["green","blue","red"],"outcomes":[0,0,0],"key":39,"choice":2,"rt":188.0000000000582,"outcome":0,"trial":31,"correct":1,"trial_type":"three-arm-trial","trial_index":48,"time_elapsed":502663,"internal_node_id":"0.0-37.0-0.0","task_version":"screening-mturk","missing":false,"accuracy":0},{"contexts":["green","blue","red"],"outcomes":[0,0,0],"key":39,"choice":2,"rt":60.99999999970896,"outcome":0,"trial":32,"correct":1,"trial_type":"three-arm-trial","trial_index":49,"time_elapsed":503928,"internal_node_id":"0.0-38.0-0.0","task_version":"screening-mturk","missing":false,"accuracy":0},{"contexts":["green","blue","red"],"outcomes":[0,1,0],"key":37,"choice":0,"rt":0,"outcome":0,"trial":33,"correct":1,"trial_type":"three-arm-trial","trial_index":50,"time_elapsed":505131,"internal_node_id":"0.0-39.0-0.0","task_version":"screening-mturk","missing":false,"accuracy":0},{"contexts":["green","blue","red"],"outcomes":[0,1,0],"key":37,"choice":0,"rt":103.99999999935972,"outcome":0,"trial":34,"correct":1,"trial_type":"three-arm-trial","trial_index":51,"time_elapsed":506437,"internal_node_id":"0.0-40.0-0.0","task_version":"screening-mturk","missing":false,"accuracy":0},{"contexts":["green","blue","red"],"outcomes":[1,0,0],"key":37,"choice":0,"rt":147.00000000087311,"outcome":1,"trial":35,"correct":1,"trial_type":"three-arm-trial","trial_index":52,"time_elapsed":507788,"internal_node_id":"0.0-41.0-0.0","task_version":"screening-mturk","missing":false,"accuracy":0},{"contexts":["green","blue","red"],"outcomes":[0,1,0],"key":38,"choice":1,"rt":132.99999999982538,"outcome":1,"trial":36,"correct":1,"trial_type":"three-arm-trial","trial_index":53,"time_elapsed":509125,"internal_node_id":"0.0-42.0-0.0","task_version":"screening-mturk","missing":false,"accuracy":1},{"contexts":["green","blue","red"],"outcomes":[1,0,0],"key":37,"choice":0,"rt":206.00000000011642,"outcome":1,"trial":37,"correct":1,"trial_type":"three-arm-trial","trial_index":54,"time_elapsed":510535,"internal_node_id":"0.0-43.0-0.0","task_version":"screening-mturk","missing":false,"accuracy":0},{"contexts":["green","blue","red"],"outcomes":[1,1,1],"key":39,"choice":2,"rt":354.00000000116415,"outcome":1,"trial":38,"correct":1,"trial_type":"three-arm-trial","trial_index":55,"time_elapsed":512091,"internal_node_id":"0.0-44.0-0.0","task_version":"screening-mturk","missing":false,"accuracy":0},{"contexts":["green","blue","red"],"outcomes":[0,1,0],"key":39,"choice":2,"rt":229.99999999959255,"outcome":0,"trial":39,"correct":1,"trial_type":"three-arm-trial","trial_index":56,"time_elapsed":513524,"internal_node_id":"0.0-45.0-0.0","task_version":"screening-mturk","missing":false,"accuracy":0},{"contexts":["green","blue","red"],"outcomes":[0,1,0],"key":38,"choice":1,"rt":60.99999999970896,"outcome":1,"trial":40,"correct":1,"trial_type":"three-arm-trial","trial_index":57,"time_elapsed":514790,"internal_node_id":"0.0-46.0-0.0","task_version":"screening-mturk","missing":false,"accuracy":1},{"contexts":["green","blue","red"],"outcomes":[0,1,0],"key":39,"choice":2,"rt":96.99999999970896,"outcome":0,"trial":41,"correct":1,"trial_type":"three-arm-trial","trial_index":58,"time_elapsed":516091,"internal_node_id":"0.0-47.0-0.0","task_version":"screening-mturk","missing":false,"accuracy":0},{"contexts":["green","blue","red"],"outcomes":[0,1,1],"key":39,"choice":2,"rt":64.00000000029104,"outcome":1,"trial":42,"correct":1,"trial_type":"three-arm-trial","trial_index":59,"time_elapsed":517361,"internal_node_id":"0.0-48.0-0.0","task_version":"screening-mturk","missing":false,"accuracy":0},{"contexts":["green","blue","red"],"outcomes":[1,1,0],"key":39,"choice":2,"rt":182.99999999906868,"outcome":0,"trial":43,"correct":1,"trial_type":"three-arm-trial","trial_index":60,"time_elapsed":518749,"internal_node_id":"0.0-49.0-0.0","task_version":"screening-mturk","missing":false,"accuracy":0},{"contexts":["green","blue","red"],"outcomes":[0,0,0],"key":39,"choice":2,"rt":130.00000000098953,"outcome":0,"trial":44,"correct":1,"trial_type":"three-arm-trial","trial_index":61,"time_elapsed":520084,"internal_node_id":"0.0-50.0-0.0","task_version":"screening-mturk","missing":false,"accuracy":0},{"contexts":["green","blue","red"],"outcomes":[1,1,0],"key":39,"choice":2,"rt":19.00000000023283,"outcome":0,"trial":45,"correct":1,"trial_type":"three-arm-trial","trial_index":62,"time_elapsed":521307,"internal_node_id":"0.0-51.0-0.0","task_version":"screening-mturk","missing":false,"accuracy":0},{"contexts":["green","blue","red"],"outcomes":[1,0,0],"key":39,"choice":2,"rt":45.000000000116415,"outcome":0,"trial":46,"correct":2,"trial_type":"three-arm-trial","trial_index":63,"time_elapsed":522554,"internal_node_id":"0.0-52.0-0.0","task_version":"screening-mturk","missing":false,"accuracy":1},{"contexts":["green","blue","red"],"outcomes":[0,0,1],"key":37,"choice":0,"rt":171.00000000023283,"outcome":0,"trial":47,"correct":2,"trial_type":"three-arm-trial","trial_index":64,"time_elapsed":523928,"internal_node_id":"0.0-53.0-0.0","task_version":"screening-mturk","missing":false,"accuracy":0},{"contexts":["green","blue","red"],"outcomes":[0,1,1],"key":39,"choice":2,"rt":241,"outcome":1,"trial":48,"correct":2,"trial_type":"three-arm-trial","trial_index":65,"time_elapsed":525371,"internal_node_id":"0.0-54.0-0.0","task_version":"screening-mturk","missing":false,"accuracy":1},{"contexts":["green","blue","red"],"outcomes":[0,0,1],"key":39,"choice":2,"rt":180.99999999871943,"outcome":1,"trial":49,"correct":2,"trial_type":"three-arm-trial","trial_index":66,"time_elapsed":526756,"internal_node_id":"0.0-55.0-0.0","task_version":"screening-mturk","missing":false,"accuracy":1},{"contexts":["green","blue","red"],"outcomes":[0,0,1],"key":37,"choice":0,"rt":52.999999999883585,"outcome":0,"trial":50,"correct":2,"trial_type":"three-arm-trial","trial_index":67,"time_elapsed":528011,"internal_node_id":"0.0-56.0-0.0","task_version":"screening-mturk","missing":false,"accuracy":0},{"contexts":["green","blue","red"],"outcomes":[1,0,1],"key":39,"choice":2,"rt":63.000000000116415,"outcome":1,"trial":51,"correct":2,"trial_type":"three-arm-trial","trial_index":68,"time_elapsed":529278,"internal_node_id":"0.0-57.0-0.0","task_version":"screening-mturk","missing":false,"accuracy":1},{"contexts":["green","blue","red"],"outcomes":[0,0,0],"key":38,"choice":1,"rt":141.99999999976717,"outcome":0,"trial":52,"correct":2,"trial_type":"three-arm-trial","trial_index":69,"time_elapsed":530628,"internal_node_id":"0.0-58.0-0.0","task_version":"screening-mturk","missing":false,"accuracy":0},{"contexts":["green","blue","red"],"outcomes":[0,0,0],"key":38,"choice":1,"rt":10.00000000023283,"outcome":0,"trial":53,"correct":2,"trial_type":"three-arm-trial","trial_index":70,"time_elapsed":531839,"internal_node_id":"0.0-59.0-0.0","task_version":"screening-mturk","missing":false,"accuracy":0},{"contexts":["green","blue","red"],"outcomes":[0,0,0],"key":39,"choice":2,"rt":136.00000000034925,"outcome":0,"trial":54,"correct":2,"trial_type":"three-arm-trial","trial_index":71,"time_elapsed":533179,"internal_node_id":"0.0-60.0-0.0","task_version":"screening-mturk","missing":false,"accuracy":1},{"contexts":["green","blue","red"],"outcomes":[0,1,1],"key":39,"choice":2,"rt":159.99999999988358,"outcome":1,"trial":55,"correct":2,"trial_type":"three-arm-trial","trial_index":72,"time_elapsed":534548,"internal_node_id":"0.0-61.0-0.0","task_version":"screening-mturk","missing":false,"accuracy":1},{"contexts":["green","blue","red"],"outcomes":[0,1,1],"key":39,"choice":2,"rt":95.99999999953434,"outcome":1,"trial":56,"correct":2,"trial_type":"three-arm-trial","trial_index":73,"time_elapsed":535847,"internal_node_id":"0.0-62.0-0.0","task_version":"screening-mturk","missing":false,"accuracy":1},{"contexts":["green","blue","red"],"outcomes":[0,0,0],"key":37,"choice":0,"rt":155.0000000006985,"outcome":0,"trial":57,"correct":2,"trial_type":"three-arm-trial","trial_index":74,"time_elapsed":537205,"internal_node_id":"0.0-63.0-0.0","task_version":"screening-mturk","missing":false,"accuracy":0},{"contexts":["green","blue","red"],"outcomes":[0,0,1],"key":39,"choice":2,"rt":123.99999999976717,"outcome":1,"trial":58,"correct":2,"trial_type":"three-arm-trial","trial_index":75,"time_elapsed":538533,"internal_node_id":"0.0-64.0-0.0","task_version":"screening-mturk","missing":false,"accuracy":1},{"contexts":["green","blue","red"],"outcomes":[0,0,0],"key":39,"choice":2,"rt":65.00000000046566,"outcome":0,"trial":59,"correct":2,"trial_type":"three-arm-trial","trial_index":76,"time_elapsed":539808,"internal_node_id":"0.0-65.0-0.0","task_version":"screening-mturk","missing":false,"accuracy":1},{"contexts":["green","blue","red"],"outcomes":[0,0,1],"key":39,"choice":2,"rt":167.99999999965075,"outcome":1,"trial":60,"correct":2,"trial_type":"three-arm-trial","trial_index":77,"time_elapsed":541178,"internal_node_id":"0.0-66.0-0.0","task_version":"screening-mturk","missing":false,"accuracy":1},{"contexts":["green","blue","red"],"outcomes":[1,0,0],"key":37,"choice":0,"rt":85.00000000093132,"outcome":1,"trial":61,"correct":0,"trial_type":"three-arm-trial","trial_index":78,"time_elapsed":542467,"internal_node_id":"0.0-67.0-0.0","task_version":"screening-mturk","missing":false,"accuracy":1},{"contexts":["green","blue","red"],"outcomes":[1,0,0],"key":39,"choice":2,"rt":161.9999999984866,"outcome":0,"trial":62,"correct":0,"trial_type":"three-arm-trial","trial_index":79,"time_elapsed":543837,"internal_node_id":"0.0-68.0-0.0","task_version":"screening-mturk","missing":false,"accuracy":0},{"contexts":["green","blue","red"],"outcomes":[0,0,0],"key":39,"choice":2,"rt":473.9999999983702,"outcome":0,"trial":63,"correct":0,"trial_type":"three-arm-trial","trial_index":80,"time_elapsed":545515,"internal_node_id":"0.0-69.0-0.0","task_version":"screening-mturk","missing":false,"accuracy":0},{"contexts":["green","blue","red"],"outcomes":[1,0,0],"key":39,"choice":2,"rt":117.00000000023283,"outcome":0,"trial":64,"correct":0,"trial_type":"three-arm-trial","trial_index":81,"time_elapsed":546835,"internal_node_id":"0.0-70.0-0.0","task_version":"screening-mturk","missing":false,"accuracy":0},{"contexts":["green","blue","red"],"outcomes":[1,0,1],"key":39,"choice":2,"rt":278.00000000034925,"outcome":1,"trial":65,"correct":0,"trial_type":"three-arm-trial","trial_index":82,"time_elapsed":548316,"internal_node_id":"0.0-71.0-0.0","task_version":"screening-mturk","missing":false,"accuracy":0},{"contexts":["green","blue","red"],"outcomes":[1,0,0],"key":39,"choice":2,"rt":83.00000000058208,"outcome":0,"trial":66,"correct":0,"trial_type":"three-arm-trial","trial_index":83,"time_elapsed":549605,"internal_node_id":"0.0-72.0-0.0","task_version":"screening-mturk","missing":false,"accuracy":0},{"contexts":["green","blue","red"],"outcomes":[1,0,1],"key":38,"choice":1,"rt":146.0000000006985,"outcome":0,"trial":67,"correct":0,"trial_type":"three-arm-trial","trial_index":84,"time_elapsed":550957,"internal_node_id":"0.0-73.0-0.0","task_version":"screening-mturk","missing":false,"accuracy":0},{"contexts":["green","blue","red"],"outcomes":[0,0,0],"key":39,"choice":2,"rt":90.00000000011642,"outcome":0,"trial":68,"correct":0,"trial_type":"three-arm-trial","trial_index":85,"time_elapsed":552251,"internal_node_id":"0.0-74.0-0.0","task_version":"screening-mturk","missing":false,"accuracy":0},{"contexts":["green","blue","red"],"outcomes":[1,0,0],"key":39,"choice":2,"rt":21.000000000582077,"outcome":0,"trial":69,"correct":0,"trial_type":"three-arm-trial","trial_index":86,"time_elapsed":553476,"internal_node_id":"0.0-75.0-0.0","task_version":"screening-mturk","missing":false,"accuracy":0},{"contexts":["green","blue","red"],"outcomes":[1,0,0],"key":37,"choice":0,"rt":149.99999999965075,"outcome":1,"trial":70,"correct":0,"trial_type":"three-arm-trial","trial_index":87,"time_elapsed":554829,"internal_node_id":"0.0-76.0-0.0","task_version":"screening-mturk","missing":false,"accuracy":1},{"contexts":["green","blue","red"],"outcomes":[1,1,0],"key":39,"choice":2,"rt":174.0000000008149,"outcome":0,"trial":71,"correct":0,"trial_type":"three-arm-trial","trial_index":88,"time_elapsed":556207,"internal_node_id":"0.0-77.0-0.0","task_version":"screening-mturk","missing":false,"accuracy":0},{"contexts":["green","blue","red"],"outcomes":[1,0,0],"key":37,"choice":0,"rt":463.9999999998836,"outcome":1,"trial":72,"correct":0,"trial_type":"three-arm-trial","trial_index":89,"time_elapsed":557877,"internal_node_id":"0.0-78.0-0.0","task_version":"screening-mturk","missing":false,"accuracy":1},{"contexts":["green","blue","red"],"outcomes":[0,0,0],"key":39,"choice":2,"rt":189.00000000023283,"outcome":0,"trial":73,"correct":0,"trial_type":"three-arm-trial","trial_index":90,"time_elapsed":559268,"internal_node_id":"0.0-79.0-0.0","task_version":"screening-mturk","missing":false,"accuracy":0},{"contexts":["green","blue","red"],"outcomes":[1,0,0],"key":37,"choice":0,"rt":147.0000000008149,"outcome":1,"trial":74,"correct":0,"trial_type":"three-arm-trial","trial_index":91,"time_elapsed":560620,"internal_node_id":"0.0-80.0-0.0","task_version":"screening-mturk","missing":false,"accuracy":1},{"contexts":["green","blue","red"],"outcomes":[1,1,0],"key":39,"choice":2,"rt":244.99999999895226,"outcome":0,"trial":75,"correct":0,"trial_type":"three-arm-trial","trial_index":92,"time_elapsed":562068,"internal_node_id":"0.0-81.0-0.0","task_version":"screening-mturk","missing":false,"accuracy":0},{"contexts":["green","blue","red"],"outcomes":[0,1,1],"key":39,"choice":2,"rt":102.99999999918509,"outcome":1,"trial":76,"correct":2,"trial_type":"three-arm-trial","trial_index":93,"time_elapsed":563375,"internal_node_id":"0.0-82.0-0.0","task_version":"screening-mturk","missing":false,"accuracy":1},{"contexts":["green","blue","red"],"outcomes":[0,0,1],"key":39,"choice":2,"rt":105.99999999976717,"outcome":1,"trial":77,"correct":2,"trial_type":"three-arm-trial","trial_index":94,"time_elapsed":564685,"internal_node_id":"0.0-83.0-0.0","task_version":"screening-mturk","missing":false,"accuracy":1},{"contexts":["green","blue","red"],"outcomes":[1,0,0],"key":39,"choice":2,"rt":314.99999999871943,"outcome":0,"trial":78,"correct":2,"trial_type":"three-arm-trial","trial_index":95,"time_elapsed":566204,"internal_node_id":"0.0-84.0-0.0","task_version":"screening-mturk","missing":false,"accuracy":1},{"contexts":["green","blue","red"],"outcomes":[0,0,0],"key":37,"choice":0,"rt":68.00000000104774,"outcome":0,"trial":79,"correct":2,"trial_type":"three-arm-trial","trial_index":96,"time_elapsed":567476,"internal_node_id":"0.0-85.0-0.0","task_version":"screening-mturk","missing":false,"accuracy":0},{"contexts":["green","blue","red"],"outcomes":[0,0,1],"key":38,"choice":1,"rt":165.9999999993015,"outcome":0,"trial":80,"correct":2,"trial_type":"three-arm-trial","trial_index":97,"time_elapsed":568847,"internal_node_id":"0.0-86.0-0.0","task_version":"screening-mturk","missing":false,"accuracy":0},{"contexts":["green","blue","red"],"outcomes":[0,0,1],"key":39,"choice":2,"rt":269.00000000023283,"outcome":1,"trial":81,"correct":2,"trial_type":"three-arm-trial","trial_index":98,"time_elapsed":570323,"internal_node_id":"0.0-87.0-0.0","task_version":"screening-mturk","missing":false,"accuracy":1},{"contexts":["green","blue","red"],"outcomes":[0,0,1],"key":39,"choice":2,"rt":475.00000000034925,"outcome":1,"trial":82,"correct":2,"trial_type":"three-arm-trial","trial_index":99,"time_elapsed":572003,"internal_node_id":"0.0-88.0-0.0","task_version":"screening-mturk","missing":false,"accuracy":1},{"contexts":["green","blue","red"],"outcomes":[1,1,1],"key":39,"choice":2,"rt":13.999999999301508,"outcome":1,"trial":83,"correct":2,"trial_type":"three-arm-trial","trial_index":100,"time_elapsed":573220,"internal_node_id":"0.0-89.0-0.0","task_version":"screening-mturk","missing":false,"accuracy":1},{"contexts":["green","blue","red"],"outcomes":[1,0,1],"key":37,"choice":0,"rt":300.99999999953434,"outcome":1,"trial":84,"correct":2,"trial_type":"three-arm-trial","trial_index":101,"time_elapsed":574724,"internal_node_id":"0.0-90.0-0.0","task_version":"screening-mturk","missing":false,"accuracy":0},{"contexts":["green","blue","red"],"outcomes":[0,0,1],"key":39,"choice":2,"rt":96.99999999965075,"outcome":1,"trial":85,"correct":2,"trial_type":"three-arm-trial","trial_index":102,"time_elapsed":576024,"internal_node_id":"0.0-91.0-0.0","task_version":"screening-mturk","missing":false,"accuracy":1},{"contexts":["green","blue","red"],"outcomes":[0,1,1],"key":39,"choice":2,"rt":216.99999999871943,"outcome":1,"trial":86,"correct":2,"trial_type":"three-arm-trial","trial_index":103,"time_elapsed":577445,"internal_node_id":"0.0-92.0-0.0","task_version":"screening-mturk","missing":false,"accuracy":1},{"contexts":["green","blue","red"],"outcomes":[0,1,1],"key":38,"choice":1,"rt":172.99999999883585,"outcome":1,"trial":87,"correct":2,"trial_type":"three-arm-trial","trial_index":104,"time_elapsed":578821,"internal_node_id":"0.0-93.0-0.0","task_version":"screening-mturk","missing":false,"accuracy":0},{"contexts":["green","blue","red"],"outcomes":[0,0,1],"key":39,"choice":2,"rt":1091.0000000003492,"outcome":1,"trial":88,"correct":2,"trial_type":"three-arm-trial","trial_index":105,"time_elapsed":581117,"internal_node_id":"0.0-94.0-0.0","task_version":"screening-mturk","missing":false,"accuracy":1},{"contexts":["green","blue","red"],"outcomes":[0,0,1],"key":39,"choice":2,"rt":426.99999999965075,"outcome":1,"trial":89,"correct":2,"trial_type":"three-arm-trial","trial_index":106,"time_elapsed":582749,"internal_node_id":"0.0-95.0-0.0","task_version":"screening-mturk","missing":false,"accuracy":1},{"contexts":["green","blue","red"],"outcomes":[0,1,1],"key":39,"choice":2,"rt":171.00000000034925,"outcome":1,"trial":90,"correct":2,"trial_type":"three-arm-trial","trial_index":107,"time_elapsed":584124,"internal_node_id":"0.0-96.0-0.0","task_version":"screening-mturk","missing":false,"accuracy":1},{"rt":22828.000000001397,"responses":{"age":"30","gender-categorical":"Male","gender-free-response":"","ethnicity":"Not Hispanic or Latino","race":["White"],"language":"Yes","fluency":"Very well","prolific":"Yes","prolific-this-study":"No"},"survey":"demographics","trial_type":"survey-demo","trial_index":108,"time_elapsed":606962,"internal_node_id":"0.0-97.0","task_version":"screening-mturk","interactions":"[{\"event\":\"blur\",\"trial\":0,\"time\":0},{\"event\":\"focus\",\"trial\":0,\"time\":1268},{\"event\":\"blur\",\"trial\":0,\"time\":4399},{\"event\":\"focus\",\"trial\":0,\"time\":185492},{\"event\":\"blur\",\"trial\":0,\"time\":195647},{\"event\":\"focus\",\"trial\":0,\"time\":197380},{\"event\":\"focus\",\"trial\":0,\"time\":197380},{\"event\":\"blur\",\"trial\":8,\"time\":313502},{\"event\":\"focus\",\"trial\":8,\"time\":316243},{\"event\":\"blur\",\"trial\":19,\"time\":457200},{\"event\":\"focus\",\"trial\":20,\"time\":459954}]"}]