[{"responses":{"Q04":"2","Q07":"2","Q02":"2","Q08":"3","Q09":"3","Q01":"2","Q13":"3","Q06":"2","Q11":"2","Q10":"2","Q05":"2","Q03":"2","Q12":"2"},"rt":35120.86999998428,"survey":"bisbas","trial_type":"survey-template","trial_index":0,"time_elapsed":35137,"internal_node_id":"0.0-0.0","task_version":"screening-mturk"},{"responses":{"Q02":"2","Q03":"2","Q01":"2"},"rt":8797.045000013895,"survey":"pswq","trial_type":"survey-template","trial_index":1,"time_elapsed":43967,"internal_node_id":"0.0-1.0","task_version":"screening-mturk"},{"responses":{"Q07":"0","Q04":"0","Q03":"0","Q05":"0","Q08":"0","Q06":"0","Q01":"0","Q02":"0"},"rt":14379.099999903701,"survey":"gad7","trial_type":"survey-template","trial_index":2,"time_elapsed":58378,"internal_node_id":"0.0-2.0","task_version":"screening-mturk"},{"responses":{"Q14":"0","Q01":"0","Q08":"0","Q10":"0","Q02":"0","Q07":"0","Q11":"0","Q13":"1","Q09":"0","Q15":"0","Q06":"0","Q05":"0","Q04":"0","Q12":"0","Q03":"0"},"rt":80168.30499994103,"survey":"7up7down","trial_type":"survey-template","trial_index":3,"time_elapsed":138581,"internal_node_id":"0.0-3.0","task_version":"screening-mturk"},{"responses":{"Q02":"3","Q11":"3","Q10":"3","Q09":"2","Q12":"3","Q06":"3","Q03":"3","Q13":"3","Q15":"3","Q04":"3","Q07":"2","Q14":"3","Q08":"2","Q01":"2","Q05":"3"},"rt":54629.56999999005,"survey":"shaps","trial_type":"survey-template","trial_index":4,"time_elapsed":193242,"internal_node_id":"0.0-4.0","task_version":"screening-mturk"},{"view_history":"[{\"page_index\":0,\"viewing_time\":5487.9499999806285},{\"page_index\":1,\"viewing_time\":7256.259999936447},{\"page_index\":2,\"viewing_time\":9545.090000028722},{\"page_index\":3,\"viewing_time\":5080.869999947026},{\"page_index\":4,\"viewing_time\":2847.935000085272},{\"page_index\":5,\"viewing_time\":1760.9950000187382},{\"page_index\":6,\"viewing_time\":2519.979999982752},{\"page_index\":7,\"viewing_time\":4121.054999995977},{\"page_index\":6,\"viewing_time\":567.864999989979},{\"page_index\":5,\"viewing_time\":535.0499999476597},{\"page_index\":4,\"viewing_time\":560.6700000353158},{\"page_index\":3,\"viewing_time\":1048.285000026226},{\"page_index\":2,\"viewing_time\":919.9650000082329},{\"page_index\":1,\"viewing_time\":35740.58999994304},{\"page_index\":2,\"viewing_time\":7719.909999985248},{\"page_index\":3,\"viewing_time\":2984.9750000284985},{\"page_index\":4,\"viewing_time\":5147.190000046976},{\"page_index\":5,\"viewing_time\":8142.714999965392},{\"page_index\":6,\"viewing_time\":5224.96499994304},{\"page_index\":7,\"viewing_time\":2094.9750000145286}]","rt":109308.38999990374,"trial_type":"instructions","trial_index":5,"time_elapsed":302581,"internal_node_id":"0.0-5.0-0.0","task_version":"screening-mturk"},{"responses":["True","True","False","False","True"],"num_errors":0,"rt":17191.67499989271,"trial_type":"three-arm-comprehension","trial_index":6,"time_elapsed":319777,"internal_node_id":"0.0-5.0-1.0","task_version":"screening-mturk"},{"view_history":"[{\"page_index\":0,\"viewing_time\":2965.070000034757}]","rt":2965.3800000669435,"trial_type":"instructions","trial_index":7,"time_elapsed":322775,"internal_node_id":"0.0-6.0","task_version":"screening-mturk"},{"contexts":["red","blue","green"],"outcomes":[1,0,1],"key":null,"rt":null,"trial":1,"correct":2,"trial_type":"three-arm-trial","trial_index":8,"time_elapsed":337783,"internal_node_id":"0.0-7.0-0.0","task_version":"screening-mturk","missing":true},{"contexts":["red","blue","green"],"outcomes":[1,0,1],"key":39,"choice":2,"rt":922.1299999626353,"outcome":1,"trial":1,"correct":2,"trial_type":"three-arm-trial","trial_index":9,"time_elapsed":339911,"internal_node_id":"0.0-7.1-0.1","task_version":"screening-mturk","missing":false,"accuracy":1},{"contexts":["red","blue","green"],"outcomes":[0,0,1],"key":37,"choice":0,"rt":1512.0900000911206,"outcome":0,"trial":2,"correct":2,"trial_type":"three-arm-trial","trial_index":10,"time_elapsed":342678,"internal_node_id":"0.0-8.0-0.0","task_version":"screening-mturk","missing":false,"accuracy":0},{"contexts":["red","blue","green"],"outcomes":[0,0,1],"key":38,"choice":1,"rt":809.0599999995902,"outcome":0,"trial":3,"correct":2,"trial_type":"three-arm-trial","trial_index":11,"time_elapsed":344740,"internal_node_id":"0.0-9.0-0.0","task_version":"screening-mturk","missing":false,"accuracy":0},{"contexts":["red","blue","green"],"outcomes":[0,0,1],"key":39,"choice":2,"rt":587.0199999772012,"outcome":1,"trial":4,"correct":2,"trial_type":"three-arm-trial","trial_index":12,"time_elapsed":346587,"internal_node_id":"0.0-10.0-0.0","task_version":"screening-mturk","missing":false,"accuracy":1},{"contexts":["red","blue","green"],"outcomes":[0,0,1],"key":39,"choice":2,"rt":613.3299999637529,"outcome":1,"trial":5,"correct":2,"trial_type":"three-arm-trial","trial_index":13,"time_elapsed":348451,"internal_node_id":"0.0-11.0-0.0","task_version":"screening-mturk","missing":false,"accuracy":1},{"contexts":["red","blue","green"],"outcomes":[1,0,1],"key":39,"choice":2,"rt":592.1650000382215,"outcome":1,"trial":6,"correct":2,"trial_type":"three-arm-trial","trial_index":14,"time_elapsed":350288,"internal_node_id":"0.0-12.0-0.0","task_version":"screening-mturk","missing":false,"accuracy":1},{"contexts":["red","blue","green"],"outcomes":[0,0,0],"key":39,"choice":2,"rt":561.9650000007823,"outcome":0,"trial":7,"correct":2,"trial_type":"three-arm-trial","trial_index":15,"time_elapsed":352106,"internal_node_id":"0.0-13.0-0.0","task_version":"screening-mturk","missing":false,"accuracy":1},{"contexts":["red","blue","green"],"outcomes":[0,0,1],"key":38,"choice":1,"rt":488.3549999212846,"outcome":0,"trial":8,"correct":2,"trial_type":"three-arm-trial","trial_index":16,"time_elapsed":353844,"internal_node_id":"0.0-14.0-0.0","task_version":"screening-mturk","missing":false,"accuracy":0},{"contexts":["red","blue","green"],"outcomes":[0,0,1],"key":39,"choice":2,"rt":749.4200000073761,"outcome":1,"trial":9,"correct":2,"trial_type":"three-arm-trial","trial_index":17,"time_elapsed":355841,"internal_node_id":"0.0-15.0-0.0","task_version":"screening-mturk","missing":false,"accuracy":1},{"contexts":["red","blue","green"],"outcomes":[0,0,1],"key":39,"choice":2,"rt":1391.3950000423938,"outcome":1,"trial":10,"correct":2,"trial_type":"three-arm-trial","trial_index":18,"time_elapsed":358487,"internal_node_id":"0.0-16.0-0.0","task_version":"screening-mturk","missing":false,"accuracy":1},{"contexts":["red","blue","green"],"outcomes":[0,1,1],"key":39,"choice":2,"rt":1491.4949999656528,"outcome":1,"trial":11,"correct":2,"trial_type":"three-arm-trial","trial_index":19,"time_elapsed":361244,"internal_node_id":"0.0-17.0-0.0","task_version":"screening-mturk","missing":false,"accuracy":1},{"contexts":["red","blue","green"],"outcomes":[0,0,0],"key":39,"choice":2,"rt":585.5999999912456,"outcome":0,"trial":12,"correct":2,"trial_type":"three-arm-trial","trial_index":20,"time_elapsed":363062,"internal_node_id":"0.0-18.0-0.0","task_version":"screening-mturk","missing":false,"accuracy":1},{"contexts":["red","blue","green"],"outcomes":[0,1,1],"key":37,"choice":0,"rt":307.8799999784678,"outcome":0,"trial":13,"correct":2,"trial_type":"three-arm-trial","trial_index":21,"time_elapsed":364636,"internal_node_id":"0.0-19.0-0.0","task_version":"screening-mturk","missing":false,"accuracy":0},{"contexts":["red","blue","green"],"outcomes":[0,0,1],"key":39,"choice":2,"rt":489.5099999848753,"outcome":1,"trial":14,"correct":2,"trial_type":"three-arm-trial","trial_index":22,"time_elapsed":366381,"internal_node_id":"0.0-20.0-0.0","task_version":"screening-mturk","missing":false,"accuracy":1},{"contexts":["red","blue","green"],"outcomes":[0,0,0],"key":39,"choice":2,"rt":623.8300000550225,"outcome":0,"trial":15,"correct":2,"trial_type":"three-arm-trial","trial_index":23,"time_elapsed":368249,"internal_node_id":"0.0-21.0-0.0","task_version":"screening-mturk","missing":false,"accuracy":1},{"contexts":["red","blue","green"],"outcomes":[1,0,0],"key":38,"choice":1,"rt":2098.7549999263138,"outcome":0,"trial":16,"correct":0,"trial_type":"three-arm-trial","trial_index":24,"time_elapsed":371609,"internal_node_id":"0.0-22.0-0.0","task_version":"screening-mturk","missing":false,"accuracy":0},{"contexts":["red","blue","green"],"outcomes":[0,1,1],"key":39,"choice":2,"rt":583.6800000397488,"outcome":1,"trial":17,"correct":0,"trial_type":"three-arm-trial","trial_index":25,"time_elapsed":373440,"internal_node_id":"0.0-23.0-0.0","task_version":"screening-mturk","missing":false,"accuracy":0},{"contexts":["red","blue","green"],"outcomes":[1,1,1],"key":39,"choice":2,"rt":548.9700000034645,"outcome":1,"trial":18,"correct":0,"trial_type":"three-arm-trial","trial_index":26,"time_elapsed":375236,"internal_node_id":"0.0-24.0-0.0","task_version":"screening-mturk","missing":false,"accuracy":0},{"contexts":["red","blue","green"],"outcomes":[1,0,0],"key":39,"choice":2,"rt":502.8450000099838,"outcome":0,"trial":19,"correct":0,"trial_type":"three-arm-trial","trial_index":27,"time_elapsed":376986,"internal_node_id":"0.0-25.0-0.0","task_version":"screening-mturk","missing":false,"accuracy":0},{"contexts":["red","blue","green"],"outcomes":[0,0,0],"key":37,"choice":0,"rt":642.4050000496209,"outcome":0,"trial":20,"correct":0,"trial_type":"three-arm-trial","trial_index":28,"time_elapsed":378895,"internal_node_id":"0.0-26.0-0.0","task_version":"screening-mturk","missing":false,"accuracy":1},{"contexts":["red","blue","green"],"outcomes":[0,0,0],"key":39,"choice":2,"rt":619.5199999492615,"outcome":0,"trial":21,"correct":0,"trial_type":"three-arm-trial","trial_index":29,"time_elapsed":380764,"internal_node_id":"0.0-27.0-0.0","task_version":"screening-mturk","missing":false,"accuracy":0},{"contexts":["red","blue","green"],"outcomes":[1,1,0],"key":37,"choice":0,"rt":551.6949999146163,"outcome":1,"trial":22,"correct":0,"trial_type":"three-arm-trial","trial_index":30,"time_elapsed":382564,"internal_node_id":"0.0-28.0-0.0","task_version":"screening-mturk","missing":false,"accuracy":1},{"contexts":["red","blue","green"],"outcomes":[0,0,0],"key":37,"choice":0,"rt":657.134999986738,"outcome":0,"trial":23,"correct":0,"trial_type":"three-arm-trial","trial_index":31,"time_elapsed":384482,"internal_node_id":"0.0-29.0-0.0","task_version":"screening-mturk","missing":false,"accuracy":1},{"contexts":["red","blue","green"],"outcomes":[1,0,0],"key":39,"choice":2,"rt":1483.3499999949709,"outcome":0,"trial":24,"correct":0,"trial_type":"three-arm-trial","trial_index":32,"time_elapsed":387226,"internal_node_id":"0.0-30.0-0.0","task_version":"screening-mturk","missing":false,"accuracy":0},{"contexts":["red","blue","green"],"outcomes":[1,0,0],"key":38,"choice":1,"rt":1510.840000002645,"outcome":0,"trial":25,"correct":0,"trial_type":"three-arm-trial","trial_index":33,"time_elapsed":389989,"internal_node_id":"0.0-31.0-0.0","task_version":"screening-mturk","missing":false,"accuracy":0},{"contexts":["red","blue","green"],"outcomes":[0,0,1],"key":39,"choice":2,"rt":557.3849999345839,"outcome":1,"trial":26,"correct":0,"trial_type":"three-arm-trial","trial_index":34,"time_elapsed":391800,"internal_node_id":"0.0-32.0-0.0","task_version":"screening-mturk","missing":false,"accuracy":0},{"contexts":["red","blue","green"],"outcomes":[1,1,0],"key":39,"choice":2,"rt":427.23999998997897,"outcome":0,"trial":27,"correct":0,"trial_type":"three-arm-trial","trial_index":35,"time_elapsed":393474,"internal_node_id":"0.0-33.0-0.0","task_version":"screening-mturk","missing":false,"accuracy":0},{"contexts":["red","blue","green"],"outcomes":[1,0,0],"key":37,"choice":0,"rt":665.8499999903142,"outcome":1,"trial":28,"correct":0,"trial_type":"three-arm-trial","trial_index":36,"time_elapsed":395389,"internal_node_id":"0.0-34.0-0.0","task_version":"screening-mturk","missing":false,"accuracy":1},{"contexts":["red","blue","green"],"outcomes":[1,1,0],"key":39,"choice":2,"rt":470.19499994348735,"outcome":0,"trial":29,"correct":0,"trial_type":"three-arm-trial","trial_index":37,"time_elapsed":397113,"internal_node_id":"0.0-35.0-0.0","task_version":"screening-mturk","missing":false,"accuracy":0},{"contexts":["red","blue","green"],"outcomes":[1,1,0],"key":37,"choice":0,"rt":438.98500001523644,"outcome":1,"trial":30,"correct":0,"trial_type":"three-arm-trial","trial_index":38,"time_elapsed":398799,"internal_node_id":"0.0-36.0-0.0","task_version":"screening-mturk","missing":false,"accuracy":1},{"contexts":["red","blue","green"],"outcomes":[0,0,0],"key":38,"choice":1,"rt":2163.094999967143,"outcome":0,"trial":31,"correct":2,"trial_type":"three-arm-trial","trial_index":39,"time_elapsed":402218,"internal_node_id":"0.0-37.0-0.0","task_version":"screening-mturk","missing":false,"accuracy":0},{"contexts":["red","blue","green"],"outcomes":[0,0,1],"key":37,"choice":0,"rt":409.1699999989942,"outcome":0,"trial":32,"correct":2,"trial_type":"three-arm-trial","trial_index":40,"time_elapsed":403885,"internal_node_id":"0.0-38.0-0.0","task_version":"screening-mturk","missing":false,"accuracy":0},{"contexts":["red","blue","green"],"outcomes":[0,0,1],"key":39,"choice":2,"rt":375.46499993186444,"outcome":1,"trial":33,"correct":2,"trial_type":"three-arm-trial","trial_index":41,"time_elapsed":405508,"internal_node_id":"0.0-39.0-0.0","task_version":"screening-mturk","missing":false,"accuracy":1},{"contexts":["red","blue","green"],"outcomes":[0,0,0],"key":39,"choice":2,"rt":699.5599999791011,"outcome":0,"trial":34,"correct":2,"trial_type":"three-arm-trial","trial_index":42,"time_elapsed":407461,"internal_node_id":"0.0-40.0-0.0","task_version":"screening-mturk","missing":false,"accuracy":1},{"contexts":["red","blue","green"],"outcomes":[0,0,1],"key":38,"choice":1,"rt":883.4900000365451,"outcome":0,"trial":35,"correct":2,"trial_type":"three-arm-trial","trial_index":43,"time_elapsed":409607,"internal_node_id":"0.0-41.0-0.0","task_version":"screening-mturk","missing":false,"accuracy":0},{"contexts":["red","blue","green"],"outcomes":[0,0,0],"key":39,"choice":2,"rt":492.40999994799495,"outcome":0,"trial":36,"correct":2,"trial_type":"three-arm-trial","trial_index":44,"time_elapsed":411361,"internal_node_id":"0.0-42.0-0.0","task_version":"screening-mturk","missing":false,"accuracy":1},{"contexts":["red","blue","green"],"outcomes":[0,0,1],"key":37,"choice":0,"rt":1136.47500006482,"outcome":0,"trial":37,"correct":2,"trial_type":"three-arm-trial","trial_index":45,"time_elapsed":413756,"internal_node_id":"0.0-43.0-0.0","task_version":"screening-mturk","missing":false,"accuracy":0},{"contexts":["red","blue","green"],"outcomes":[0,0,1],"key":39,"choice":2,"rt":410.535000031814,"outcome":1,"trial":38,"correct":2,"trial_type":"three-arm-trial","trial_index":46,"time_elapsed":415415,"internal_node_id":"0.0-44.0-0.0","task_version":"screening-mturk","missing":false,"accuracy":1},{"contexts":["red","blue","green"],"outcomes":[0,0,1],"key":39,"choice":2,"rt":552.3550000507385,"outcome":1,"trial":39,"correct":2,"trial_type":"three-arm-trial","trial_index":47,"time_elapsed":417229,"internal_node_id":"0.0-45.0-0.0","task_version":"screening-mturk","missing":false,"accuracy":1},{"contexts":["red","blue","green"],"outcomes":[0,0,0],"key":39,"choice":2,"rt":475.0200000125915,"outcome":0,"trial":40,"correct":2,"trial_type":"three-arm-trial","trial_index":48,"time_elapsed":418956,"internal_node_id":"0.0-46.0-0.0","task_version":"screening-mturk","missing":false,"accuracy":1},{"contexts":["red","blue","green"],"outcomes":[0,0,0],"key":37,"choice":0,"rt":788.4599999524653,"outcome":0,"trial":41,"correct":2,"trial_type":"three-arm-trial","trial_index":49,"time_elapsed":421005,"internal_node_id":"0.0-47.0-0.0","task_version":"screening-mturk","missing":false,"accuracy":0},{"contexts":["red","blue","green"],"outcomes":[0,0,1],"key":39,"choice":2,"rt":497.55999993067235,"outcome":1,"trial":42,"correct":2,"trial_type":"three-arm-trial","trial_index":50,"time_elapsed":422754,"internal_node_id":"0.0-48.0-0.0","task_version":"screening-mturk","missing":false,"accuracy":1},{"contexts":["red","blue","green"],"outcomes":[0,0,0],"key":39,"choice":2,"rt":481.95000004488975,"outcome":0,"trial":43,"correct":2,"trial_type":"three-arm-trial","trial_index":51,"time_elapsed":424486,"internal_node_id":"0.0-49.0-0.0","task_version":"screening-mturk","missing":false,"accuracy":1},{"contexts":["red","blue","green"],"outcomes":[1,0,1],"key":38,"choice":1,"rt":1048.1350000482053,"outcome":0,"trial":44,"correct":2,"trial_type":"three-arm-trial","trial_index":52,"time_elapsed":426788,"internal_node_id":"0.0-50.0-0.0","task_version":"screening-mturk","missing":false,"accuracy":0},{"contexts":["red","blue","green"],"outcomes":[0,0,1],"key":39,"choice":2,"rt":418.390000006184,"outcome":1,"trial":45,"correct":2,"trial_type":"three-arm-trial","trial_index":53,"time_elapsed":428463,"internal_node_id":"0.0-51.0-0.0","task_version":"screening-mturk","missing":false,"accuracy":1},{"contexts":["red","blue","green"],"outcomes":[0,0,0],"key":37,"choice":0,"rt":466.78500005509704,"outcome":0,"trial":46,"correct":1,"trial_type":"three-arm-trial","trial_index":54,"time_elapsed":430181,"internal_node_id":"0.0-52.0-0.0","task_version":"screening-mturk","missing":false,"accuracy":0},{"contexts":["red","blue","green"],"outcomes":[0,1,1],"key":39,"choice":2,"rt":413.6449999641627,"outcome":1,"trial":47,"correct":1,"trial_type":"three-arm-trial","trial_index":55,"time_elapsed":431848,"internal_node_id":"0.0-53.0-0.0","task_version":"screening-mturk","missing":false,"accuracy":0},{"contexts":["red","blue","green"],"outcomes":[0,1,1],"key":39,"choice":2,"rt":528.6300000734627,"outcome":1,"trial":48,"correct":1,"trial_type":"three-arm-trial","trial_index":56,"time_elapsed":433622,"internal_node_id":"0.0-54.0-0.0","task_version":"screening-mturk","missing":false,"accuracy":0},{"contexts":["red","blue","green"],"outcomes":[0,1,0],"key":37,"choice":0,"rt":413.7299999129027,"outcome":0,"trial":49,"correct":1,"trial_type":"three-arm-trial","trial_index":57,"time_elapsed":435297,"internal_node_id":"0.0-55.0-0.0","task_version":"screening-mturk","missing":false,"accuracy":0},{"contexts":["red","blue","green"],"outcomes":[0,1,0],"key":39,"choice":2,"rt":673.0749999405816,"outcome":0,"trial":50,"correct":1,"trial_type":"three-arm-trial","trial_index":58,"time_elapsed":437223,"internal_node_id":"0.0-56.0-0.0","task_version":"screening-mturk","missing":false,"accuracy":0},{"contexts":["red","blue","green"],"outcomes":[0,1,0],"key":38,"choice":1,"rt":1238.2999999681488,"outcome":1,"trial":51,"correct":1,"trial_type":"three-arm-trial","trial_index":59,"time_elapsed":439705,"internal_node_id":"0.0-57.0-0.0","task_version":"screening-mturk","missing":false,"accuracy":1},{"contexts":["red","blue","green"],"outcomes":[0,1,1],"key":38,"choice":1,"rt":466.29999997094274,"outcome":1,"trial":52,"correct":1,"trial_type":"three-arm-trial","trial_index":60,"time_elapsed":441417,"internal_node_id":"0.0-58.0-0.0","task_version":"screening-mturk","missing":false,"accuracy":1},{"contexts":["red","blue","green"],"outcomes":[0,1,0],"key":38,"choice":1,"rt":658.3649999229237,"outcome":1,"trial":53,"correct":1,"trial_type":"three-arm-trial","trial_index":61,"time_elapsed":443326,"internal_node_id":"0.0-59.0-0.0","task_version":"screening-mturk","missing":false,"accuracy":1},{"contexts":["red","blue","green"],"outcomes":[0,1,0],"key":38,"choice":1,"rt":398.964999942109,"outcome":1,"trial":54,"correct":1,"trial_type":"three-arm-trial","trial_index":62,"time_elapsed":444980,"internal_node_id":"0.0-60.0-0.0","task_version":"screening-mturk","missing":false,"accuracy":1},{"contexts":["red","blue","green"],"outcomes":[1,1,0],"key":38,"choice":1,"rt":457.9649999504909,"outcome":1,"trial":55,"correct":1,"trial_type":"three-arm-trial","trial_index":63,"time_elapsed":446705,"internal_node_id":"0.0-61.0-0.0","task_version":"screening-mturk","missing":false,"accuracy":1},{"contexts":["red","blue","green"],"outcomes":[0,1,0],"key":38,"choice":1,"rt":424.02499995660037,"outcome":1,"trial":56,"correct":1,"trial_type":"three-arm-trial","trial_index":64,"time_elapsed":448372,"internal_node_id":"0.0-62.0-0.0","task_version":"screening-mturk","missing":false,"accuracy":1},{"contexts":["red","blue","green"],"outcomes":[0,1,0],"key":38,"choice":1,"rt":556.9799999939278,"outcome":1,"trial":57,"correct":1,"trial_type":"three-arm-trial","trial_index":65,"time_elapsed":450181,"internal_node_id":"0.0-63.0-0.0","task_version":"screening-mturk","missing":false,"accuracy":1},{"contexts":["red","blue","green"],"outcomes":[0,1,0],"key":38,"choice":1,"rt":613.5550000471994,"outcome":1,"trial":58,"correct":1,"trial_type":"three-arm-trial","trial_index":66,"time_elapsed":452056,"internal_node_id":"0.0-64.0-0.0","task_version":"screening-mturk","missing":false,"accuracy":1},{"contexts":["red","blue","green"],"outcomes":[1,1,0],"key":38,"choice":1,"rt":537.4900000169873,"outcome":1,"trial":59,"correct":1,"trial_type":"three-arm-trial","trial_index":67,"time_elapsed":453845,"internal_node_id":"0.0-65.0-0.0","task_version":"screening-mturk","missing":false,"accuracy":1},{"contexts":["red","blue","green"],"outcomes":[0,1,0],"key":38,"choice":1,"rt":409.455000073649,"outcome":1,"trial":60,"correct":1,"trial_type":"three-arm-trial","trial_index":68,"time_elapsed":455488,"internal_node_id":"0.0-66.0-0.0","task_version":"screening-mturk","missing":false,"accuracy":1},{"contexts":["red","blue","green"],"outcomes":[0,0,0],"key":38,"choice":1,"rt":400.79500002320856,"outcome":0,"trial":61,"correct":2,"trial_type":"three-arm-trial","trial_index":69,"time_elapsed":457137,"internal_node_id":"0.0-67.0-0.0","task_version":"screening-mturk","missing":false,"accuracy":0},{"contexts":["red","blue","green"],"outcomes":[0,0,1],"key":39,"choice":2,"rt":384.3450000276789,"outcome":1,"trial":62,"correct":2,"trial_type":"three-arm-trial","trial_index":70,"time_elapsed":458768,"internal_node_id":"0.0-68.0-0.0","task_version":"screening-mturk","missing":false,"accuracy":1},{"contexts":["red","blue","green"],"outcomes":[0,0,1],"key":39,"choice":2,"rt":468.3400000212714,"outcome":1,"trial":63,"correct":2,"trial_type":"three-arm-trial","trial_index":71,"time_elapsed":460495,"internal_node_id":"0.0-69.0-0.0","task_version":"screening-mturk","missing":false,"accuracy":1},{"contexts":["red","blue","green"],"outcomes":[0,1,0],"key":39,"choice":2,"rt":453.20999994874,"outcome":0,"trial":64,"correct":2,"trial_type":"three-arm-trial","trial_index":72,"time_elapsed":462196,"internal_node_id":"0.0-70.0-0.0","task_version":"screening-mturk","missing":false,"accuracy":1},{"contexts":["red","blue","green"],"outcomes":[0,0,1],"key":38,"choice":1,"rt":358.29000000376254,"outcome":0,"trial":65,"correct":2,"trial_type":"three-arm-trial","trial_index":73,"time_elapsed":463805,"internal_node_id":"0.0-71.0-0.0","task_version":"screening-mturk","missing":false,"accuracy":0},{"contexts":["red","blue","green"],"outcomes":[0,0,1],"key":37,"choice":0,"rt":324.2549999849871,"outcome":0,"trial":66,"correct":2,"trial_type":"three-arm-trial","trial_index":74,"time_elapsed":465390,"internal_node_id":"0.0-72.0-0.0","task_version":"screening-mturk","missing":false,"accuracy":0},{"contexts":["red","blue","green"],"outcomes":[0,0,0],"key":38,"choice":1,"rt":313.6800000211224,"outcome":0,"trial":67,"correct":2,"trial_type":"three-arm-trial","trial_index":75,"time_elapsed":466948,"internal_node_id":"0.0-73.0-0.0","task_version":"screening-mturk","missing":false,"accuracy":0},{"contexts":["red","blue","green"],"outcomes":[0,0,1],"key":39,"choice":2,"rt":406.9049999816343,"outcome":1,"trial":68,"correct":2,"trial_type":"three-arm-trial","trial_index":76,"time_elapsed":468601,"internal_node_id":"0.0-74.0-0.0","task_version":"screening-mturk","missing":false,"accuracy":1},{"contexts":["red","blue","green"],"outcomes":[0,1,1],"key":39,"choice":2,"rt":279.8699999693781,"outcome":1,"trial":69,"correct":2,"trial_type":"three-arm-trial","trial_index":77,"time_elapsed":470124,"internal_node_id":"0.0-75.0-0.0","task_version":"screening-mturk","missing":false,"accuracy":1},{"contexts":["red","blue","green"],"outcomes":[1,0,1],"key":39,"choice":2,"rt":580.8050000341609,"outcome":1,"trial":70,"correct":2,"trial_type":"three-arm-trial","trial_index":78,"time_elapsed":471954,"internal_node_id":"0.0-76.0-0.0","task_version":"screening-mturk","missing":false,"accuracy":1},{"contexts":["red","blue","green"],"outcomes":[0,0,1],"key":39,"choice":2,"rt":369.22500003129244,"outcome":1,"trial":71,"correct":2,"trial_type":"three-arm-trial","trial_index":79,"time_elapsed":473573,"internal_node_id":"0.0-77.0-0.0","task_version":"screening-mturk","missing":false,"accuracy":1},{"contexts":["red","blue","green"],"outcomes":[0,0,1],"key":39,"choice":2,"rt":396.0099999094382,"outcome":1,"trial":72,"correct":2,"trial_type":"three-arm-trial","trial_index":80,"time_elapsed":475207,"internal_node_id":"0.0-78.0-0.0","task_version":"screening-mturk","missing":false,"accuracy":1},{"contexts":["red","blue","green"],"outcomes":[0,0,0],"key":39,"choice":2,"rt":389.3099999986589,"outcome":0,"trial":73,"correct":2,"trial_type":"three-arm-trial","trial_index":81,"time_elapsed":476841,"internal_node_id":"0.0-79.0-0.0","task_version":"screening-mturk","missing":false,"accuracy":1},{"contexts":["red","blue","green"],"outcomes":[0,0,1],"key":38,"choice":1,"rt":471.58499993383884,"outcome":0,"trial":74,"correct":2,"trial_type":"three-arm-trial","trial_index":82,"time_elapsed":478562,"internal_node_id":"0.0-80.0-0.0","task_version":"screening-mturk","missing":false,"accuracy":0},{"contexts":["red","blue","green"],"outcomes":[0,0,1],"key":39,"choice":2,"rt":555.6899999501184,"outcome":1,"trial":75,"correct":2,"trial_type":"three-arm-trial","trial_index":83,"time_elapsed":480360,"internal_node_id":"0.0-81.0-0.0","task_version":"screening-mturk","missing":false,"accuracy":1},{"contexts":["red","blue","green"],"outcomes":[1,0,0],"key":39,"choice":2,"rt":189.98000002466142,"outcome":0,"trial":76,"correct":0,"trial_type":"three-arm-trial","trial_index":84,"time_elapsed":481802,"internal_node_id":"0.0-82.0-0.0","task_version":"screening-mturk","missing":false,"accuracy":0},{"contexts":["red","blue","green"],"outcomes":[1,0,0],"key":38,"choice":1,"rt":246.55999999959022,"outcome":0,"trial":77,"correct":0,"trial_type":"three-arm-trial","trial_index":85,"time_elapsed":483296,"internal_node_id":"0.0-83.0-0.0","task_version":"screening-mturk","missing":false,"accuracy":0},{"contexts":["red","blue","green"],"outcomes":[1,0,0],"key":39,"choice":2,"rt":788.2250000257045,"outcome":0,"trial":78,"correct":0,"trial_type":"three-arm-trial","trial_index":86,"time_elapsed":485333,"internal_node_id":"0.0-84.0-0.0","task_version":"screening-mturk","missing":false,"accuracy":0},{"contexts":["red","blue","green"],"outcomes":[1,0,1],"key":37,"choice":0,"rt":849.5750000001863,"outcome":1,"trial":79,"correct":0,"trial_type":"three-arm-trial","trial_index":87,"time_elapsed":487440,"internal_node_id":"0.0-85.0-0.0","task_version":"screening-mturk","missing":false,"accuracy":1},{"contexts":["red","blue","green"],"outcomes":[1,0,0],"key":37,"choice":0,"rt":402.8999999864027,"outcome":1,"trial":80,"correct":0,"trial_type":"three-arm-trial","trial_index":88,"time_elapsed":489088,"internal_node_id":"0.0-86.0-0.0","task_version":"screening-mturk","missing":false,"accuracy":1},{"contexts":["red","blue","green"],"outcomes":[0,0,0],"key":37,"choice":0,"rt":377.24000005982816,"outcome":0,"trial":81,"correct":0,"trial_type":"three-arm-trial","trial_index":89,"time_elapsed":490714,"internal_node_id":"0.0-87.0-0.0","task_version":"screening-mturk","missing":false,"accuracy":1},{"contexts":["red","blue","green"],"outcomes":[1,0,0],"key":39,"choice":2,"rt":360.5199999874458,"outcome":0,"trial":82,"correct":0,"trial_type":"three-arm-trial","trial_index":90,"time_elapsed":492332,"internal_node_id":"0.0-88.0-0.0","task_version":"screening-mturk","missing":false,"accuracy":0},{"contexts":["red","blue","green"],"outcomes":[0,1,0],"key":37,"choice":0,"rt":484.2000000644475,"outcome":0,"trial":83,"correct":0,"trial_type":"three-arm-trial","trial_index":91,"time_elapsed":494059,"internal_node_id":"0.0-89.0-0.0","task_version":"screening-mturk","missing":false,"accuracy":1},{"contexts":["red","blue","green"],"outcomes":[1,0,1],"key":38,"choice":1,"rt":477.4650000035763,"outcome":0,"trial":84,"correct":0,"trial_type":"three-arm-trial","trial_index":92,"time_elapsed":495787,"internal_node_id":"0.0-90.0-0.0","task_version":"screening-mturk","missing":false,"accuracy":0},{"contexts":["red","blue","green"],"outcomes":[1,0,0],"key":39,"choice":2,"rt":223.41999993659556,"outcome":0,"trial":85,"correct":0,"trial_type":"three-arm-trial","trial_index":93,"time_elapsed":497273,"internal_node_id":"0.0-91.0-0.0","task_version":"screening-mturk","missing":false,"accuracy":0},{"contexts":["red","blue","green"],"outcomes":[1,0,0],"key":37,"choice":0,"rt":466.0300000105053,"outcome":1,"trial":86,"correct":0,"trial_type":"three-arm-trial","trial_index":94,"time_elapsed":498987,"internal_node_id":"0.0-92.0-0.0","task_version":"screening-mturk","missing":false,"accuracy":1},{"contexts":["red","blue","green"],"outcomes":[0,0,0],"key":37,"choice":0,"rt":375.07999991066754,"outcome":0,"trial":87,"correct":0,"trial_type":"three-arm-trial","trial_index":95,"time_elapsed":500613,"internal_node_id":"0.0-93.0-0.0","task_version":"screening-mturk","missing":false,"accuracy":1},{"contexts":["red","blue","green"],"outcomes":[1,0,0],"key":38,"choice":1,"rt":671.5899999253452,"outcome":0,"trial":88,"correct":0,"trial_type":"three-arm-trial","trial_index":96,"time_elapsed":502530,"internal_node_id":"0.0-94.0-0.0","task_version":"screening-mturk","missing":false,"accuracy":0},{"contexts":["red","blue","green"],"outcomes":[1,0,0],"key":37,"choice":0,"rt":247.41499999072403,"outcome":1,"trial":89,"correct":0,"trial_type":"three-arm-trial","trial_index":97,"time_elapsed":504045,"internal_node_id":"0.0-95.0-0.0","task_version":"screening-mturk","missing":false,"accuracy":1},{"contexts":["red","blue","green"],"outcomes":[1,0,0],"key":39,"choice":2,"rt":407.439999980852,"outcome":0,"trial":90,"correct":0,"trial_type":"three-arm-trial","trial_index":98,"time_elapsed":505707,"internal_node_id":"0.0-96.0-0.0","task_version":"screening-mturk","missing":false,"accuracy":0},{"rt":20265.334999887273,"responses":{"age":"56","gender-categorical":"Female","gender-free-response":"","ethnicity":"Not Hispanic or Latino","race":["Native Hawaiian or other Pacific Islander","White"],"language":"Yes","fluency":"Very well","prolific":"No","prolific-this-study":"No"},"survey":"demographics","trial_type":"survey-demo","trial_index":99,"time_elapsed":526028,"internal_node_id":"0.0-97.0","task_version":"screening-mturk","interactions":"[]"}]