[{"responses":{"Q02":"0","Q09":"0","Q11":"0","Q10":"0","Q13":"0","Q04":"0","Q14":"0","Q08":"0","Q03":"0","Q06":"0","Q05":"0","Q12":"0","Q15":"0","Q01":"0","Q07":"1"},"rt":72338.15999998478,"survey":"7up7down","trial_type":"survey-template","trial_index":0,"time_elapsed":72351,"internal_node_id":"0.0-0.0","task_version":"screening-mturk"},{"responses":{"Q03":"0","Q02":"0","Q01":"0"},"rt":5778.034999966621,"survey":"pswq","trial_type":"survey-template","trial_index":1,"time_elapsed":78132,"internal_node_id":"0.0-1.0","task_version":"screening-mturk"},{"responses":{"Q07":"2","Q03":"2","Q11":"2","Q14":"2","Q13":"2","Q06":"2","Q10":"2","Q02":"2","Q12":"2","Q15":"3","Q08":"2","Q04":"2","Q05":"2","Q09":"2","Q01":"2"},"rt":45682.26999999024,"survey":"shaps","trial_type":"survey-template","trial_index":2,"time_elapsed":123819,"internal_node_id":"0.0-2.0","task_version":"screening-mturk"},{"responses":{"Q10":"1","Q02":"0","Q09":"1","Q11":"2","Q12":"1","Q13":"3","Q07":"3","Q06":"3","Q05":"3","Q04":"0","Q03":"0","Q08":"2","Q01":"0"},"rt":42962.6350000035,"survey":"bisbas","trial_type":"survey-template","trial_index":3,"time_elapsed":166785,"internal_node_id":"0.0-3.0","task_version":"screening-mturk"},{"responses":{"Q06":"0","Q01":"0","Q08":"0","Q02":"0","Q04":"1","Q05":"0","Q07":"0","Q03":"0"},"rt":16509.16000001598,"survey":"gad7","trial_type":"survey-template","trial_index":4,"time_elapsed":183298,"internal_node_id":"0.0-4.0","task_version":"screening-mturk"},{"view_history":"[{\"page_index\":0,\"viewing_time\":4558.6200000252575},{\"page_index\":1,\"viewing_time\":7347.869999997783},{\"page_index\":2,\"viewing_time\":7731.129999971017},{\"page_index\":3,\"viewing_time\":3136.6549999802373},{\"page_index\":4,\"viewing_time\":10822.51000002725},{\"page_index\":5,\"viewing_time\":2038.025000016205},{\"page_index\":6,\"viewing_time\":2632.225000008475},{\"page_index\":7,\"viewing_time\":2094.619999988936}]","rt":40362.62500000885,"trial_type":"instructions","trial_index":5,"time_elapsed":223662,"internal_node_id":"0.0-5.0-0.0","task_version":"screening-mturk"},{"responses":["True","True","True","False","True"],"num_errors":1,"rt":15874.810000008438,"trial_type":"three-arm-comprehension","trial_index":6,"time_elapsed":239541,"internal_node_id":"0.0-5.0-1.0","task_version":"screening-mturk"},{"view_history":"[{\"page_index\":0,\"viewing_time\":3182.574999984354},{\"page_index\":1,\"viewing_time\":4779.62500002468},{\"page_index\":2,\"viewing_time\":1348.954999994021},{\"page_index\":3,\"viewing_time\":3583.7850000243634},{\"page_index\":4,\"viewing_time\":4484.644999960437},{\"page_index\":5,\"viewing_time\":7309.379999991506},{\"page_index\":6,\"viewing_time\":1005.1300000050105},{\"page_index\":7,\"viewing_time\":1112.1300000231713}]","rt":26806.530000001658,"trial_type":"instructions","trial_index":7,"time_elapsed":266351,"internal_node_id":"0.0-5.1-0.1","task_version":"screening-mturk"},{"responses":["True","True","True","True","True"],"num_errors":2,"rt":10767.214999999851,"trial_type":"three-arm-comprehension","trial_index":8,"time_elapsed":277120,"internal_node_id":"0.0-5.1-1.1","task_version":"screening-mturk"},{"view_history":"[{\"page_index\":0,\"viewing_time\":1983.6999999824911},{\"page_index\":1,\"viewing_time\":665.7600000035018},{\"page_index\":2,\"viewing_time\":943.1400000466965},{\"page_index\":3,\"viewing_time\":889.6899999817833},{\"page_index\":4,\"viewing_time\":1311.165000020992},{\"page_index\":5,\"viewing_time\":1564.9549999507144},{\"page_index\":6,\"viewing_time\":965.9950000350364},{\"page_index\":7,\"viewing_time\":1640.7799999578856}]","rt":9965.529999986757,"trial_type":"instructions","trial_index":9,"time_elapsed":287088,"internal_node_id":"0.0-5.2-0.2","task_version":"screening-mturk"},{"responses":["True","True","False","False","True"],"num_errors":0,"rt":12126.39000004856,"trial_type":"three-arm-comprehension","trial_index":10,"time_elapsed":299217,"internal_node_id":"0.0-5.2-1.2","task_version":"screening-mturk"},{"view_history":"[{\"page_index\":0,\"viewing_time\":1745.0899999821559}]","rt":1745.4150000121444,"trial_type":"instructions","trial_index":11,"time_elapsed":300965,"internal_node_id":"0.0-6.0","task_version":"screening-mturk"},{"contexts":["green","red","blue"],"outcomes":[0,0,0],"key":39,"choice":2,"rt":2370.8049999549985,"outcome":0,"trial":1,"correct":2,"trial_type":"three-arm-trial","trial_index":12,"time_elapsed":304542,"internal_node_id":"0.0-7.0-0.0","task_version":"screening-mturk","missing":false,"accuracy":1},{"contexts":["green","red","blue"],"outcomes":[0,0,1],"key":38,"choice":1,"rt":719.455000013113,"outcome":0,"trial":2,"correct":2,"trial_type":"three-arm-trial","trial_index":13,"time_elapsed":306471,"internal_node_id":"0.0-8.0-0.0","task_version":"screening-mturk","missing":false,"accuracy":0},{"contexts":["green","red","blue"],"outcomes":[0,0,1],"key":37,"choice":0,"rt":614.5299999625422,"outcome":0,"trial":3,"correct":2,"trial_type":"three-arm-trial","trial_index":14,"time_elapsed":308293,"internal_node_id":"0.0-9.0-0.0","task_version":"screening-mturk","missing":false,"accuracy":0},{"contexts":["green","red","blue"],"outcomes":[1,0,1],"key":39,"choice":2,"rt":472.1550000249408,"outcome":1,"trial":4,"correct":2,"trial_type":"three-arm-trial","trial_index":15,"time_elapsed":309976,"internal_node_id":"0.0-10.0-0.0","task_version":"screening-mturk","missing":false,"accuracy":1},{"contexts":["green","red","blue"],"outcomes":[0,1,1],"key":39,"choice":2,"rt":460.3199999546632,"outcome":1,"trial":5,"correct":2,"trial_type":"three-arm-trial","trial_index":16,"time_elapsed":311645,"internal_node_id":"0.0-11.0-0.0","task_version":"screening-mturk","missing":false,"accuracy":1},{"contexts":["green","red","blue"],"outcomes":[0,0,1],"key":39,"choice":2,"rt":585.8599999919534,"outcome":1,"trial":6,"correct":2,"trial_type":"three-arm-trial","trial_index":17,"time_elapsed":313442,"internal_node_id":"0.0-12.0-0.0","task_version":"screening-mturk","missing":false,"accuracy":1},{"contexts":["green","red","blue"],"outcomes":[0,0,0],"key":38,"choice":1,"rt":371.7000000178814,"outcome":0,"trial":7,"correct":2,"trial_type":"three-arm-trial","trial_index":18,"time_elapsed":315022,"internal_node_id":"0.0-13.0-0.0","task_version":"screening-mturk","missing":false,"accuracy":0},{"contexts":["green","red","blue"],"outcomes":[1,0,1],"key":39,"choice":2,"rt":342.3600000096485,"outcome":1,"trial":8,"correct":2,"trial_type":"three-arm-trial","trial_index":19,"time_elapsed":316573,"internal_node_id":"0.0-14.0-0.0","task_version":"screening-mturk","missing":false,"accuracy":1},{"contexts":["green","red","blue"],"outcomes":[0,0,1],"key":39,"choice":2,"rt":470.57499998481944,"outcome":1,"trial":9,"correct":2,"trial_type":"three-arm-trial","trial_index":20,"time_elapsed":318251,"internal_node_id":"0.0-15.0-0.0","task_version":"screening-mturk","missing":false,"accuracy":1},{"contexts":["green","red","blue"],"outcomes":[0,0,1],"key":39,"choice":2,"rt":331.24500000849366,"outcome":1,"trial":10,"correct":2,"trial_type":"three-arm-trial","trial_index":21,"time_elapsed":319794,"internal_node_id":"0.0-16.0-0.0","task_version":"screening-mturk","missing":false,"accuracy":1},{"contexts":["green","red","blue"],"outcomes":[0,1,1],"key":37,"choice":0,"rt":447.0100000035018,"outcome":0,"trial":11,"correct":2,"trial_type":"three-arm-trial","trial_index":22,"time_elapsed":321450,"internal_node_id":"0.0-17.0-0.0","task_version":"screening-mturk","missing":false,"accuracy":0},{"contexts":["green","red","blue"],"outcomes":[0,1,1],"key":39,"choice":2,"rt":245.62499998137355,"outcome":1,"trial":12,"correct":2,"trial_type":"three-arm-trial","trial_index":23,"time_elapsed":322904,"internal_node_id":"0.0-18.0-0.0","task_version":"screening-mturk","missing":false,"accuracy":1},{"contexts":["green","red","blue"],"outcomes":[0,0,1],"key":39,"choice":2,"rt":306.1099999467842,"outcome":1,"trial":13,"correct":2,"trial_type":"three-arm-trial","trial_index":24,"time_elapsed":324422,"internal_node_id":"0.0-19.0-0.0","task_version":"screening-mturk","missing":false,"accuracy":1},{"contexts":["green","red","blue"],"outcomes":[0,0,1],"key":39,"choice":2,"rt":309.87500003539026,"outcome":1,"trial":14,"correct":2,"trial_type":"three-arm-trial","trial_index":25,"time_elapsed":325942,"internal_node_id":"0.0-20.0-0.0","task_version":"screening-mturk","missing":false,"accuracy":1},{"contexts":["green","red","blue"],"outcomes":[0,1,1],"key":38,"choice":1,"rt":534.8200000007637,"outcome":1,"trial":15,"correct":2,"trial_type":"three-arm-trial","trial_index":26,"time_elapsed":327686,"internal_node_id":"0.0-21.0-0.0","task_version":"screening-mturk","missing":false,"accuracy":0},{"contexts":["green","red","blue"],"outcomes":[0,0,0],"key":38,"choice":1,"rt":353.7849999847822,"outcome":0,"trial":16,"correct":1,"trial_type":"three-arm-trial","trial_index":27,"time_elapsed":329248,"internal_node_id":"0.0-22.0-0.0","task_version":"screening-mturk","missing":false,"accuracy":1},{"contexts":["green","red","blue"],"outcomes":[1,1,0],"key":39,"choice":2,"rt":118.1499999947846,"outcome":0,"trial":17,"correct":1,"trial_type":"three-arm-trial","trial_index":28,"time_elapsed":330575,"internal_node_id":"0.0-23.0-0.0","task_version":"screening-mturk","missing":false,"accuracy":0},{"contexts":["green","red","blue"],"outcomes":[0,1,1],"key":37,"choice":0,"rt":107.11500002071261,"outcome":0,"trial":18,"correct":1,"trial_type":"three-arm-trial","trial_index":29,"time_elapsed":331890,"internal_node_id":"0.0-24.0-0.0","task_version":"screening-mturk","missing":false,"accuracy":0},{"contexts":["green","red","blue"],"outcomes":[0,1,0],"key":38,"choice":1,"rt":570.4100000439212,"outcome":1,"trial":19,"correct":1,"trial_type":"three-arm-trial","trial_index":30,"time_elapsed":333668,"internal_node_id":"0.0-25.0-0.0","task_version":"screening-mturk","missing":false,"accuracy":1},{"contexts":["green","red","blue"],"outcomes":[0,1,0],"key":38,"choice":1,"rt":175.6399999721907,"outcome":1,"trial":20,"correct":1,"trial_type":"three-arm-trial","trial_index":31,"time_elapsed":335051,"internal_node_id":"0.0-26.0-0.0","task_version":"screening-mturk","missing":false,"accuracy":1},{"contexts":["green","red","blue"],"outcomes":[0,1,0],"key":38,"choice":1,"rt":338.3299999986775,"outcome":1,"trial":21,"correct":1,"trial_type":"three-arm-trial","trial_index":32,"time_elapsed":336596,"internal_node_id":"0.0-27.0-0.0","task_version":"screening-mturk","missing":false,"accuracy":1},{"contexts":["green","red","blue"],"outcomes":[0,1,0],"key":38,"choice":1,"rt":323.6950000282377,"outcome":1,"trial":22,"correct":1,"trial_type":"three-arm-trial","trial_index":33,"time_elapsed":338133,"internal_node_id":"0.0-28.0-0.0","task_version":"screening-mturk","missing":false,"accuracy":1},{"contexts":["green","red","blue"],"outcomes":[0,1,0],"key":38,"choice":1,"rt":352.27999999187887,"outcome":1,"trial":23,"correct":1,"trial_type":"three-arm-trial","trial_index":34,"time_elapsed":339694,"internal_node_id":"0.0-29.0-0.0","task_version":"screening-mturk","missing":false,"accuracy":1},{"contexts":["green","red","blue"],"outcomes":[1,1,0],"key":38,"choice":1,"rt":354.51500001363456,"outcome":1,"trial":24,"correct":1,"trial_type":"three-arm-trial","trial_index":35,"time_elapsed":341255,"internal_node_id":"0.0-30.0-0.0","task_version":"screening-mturk","missing":false,"accuracy":1},{"contexts":["green","red","blue"],"outcomes":[0,1,1],"key":39,"choice":2,"rt":419.21500000171363,"outcome":1,"trial":25,"correct":1,"trial_type":"three-arm-trial","trial_index":36,"time_elapsed":342887,"internal_node_id":"0.0-31.0-0.0","task_version":"screening-mturk","missing":false,"accuracy":0},{"contexts":["green","red","blue"],"outcomes":[1,0,0],"key":39,"choice":2,"rt":195.4050000058487,"outcome":0,"trial":26,"correct":1,"trial_type":"three-arm-trial","trial_index":37,"time_elapsed":344290,"internal_node_id":"0.0-32.0-0.0","task_version":"screening-mturk","missing":false,"accuracy":0},{"contexts":["green","red","blue"],"outcomes":[0,1,0],"key":38,"choice":1,"rt":282.00499998638406,"outcome":1,"trial":27,"correct":1,"trial_type":"three-arm-trial","trial_index":38,"time_elapsed":345781,"internal_node_id":"0.0-33.0-0.0","task_version":"screening-mturk","missing":false,"accuracy":1},{"contexts":["green","red","blue"],"outcomes":[0,0,0],"key":38,"choice":1,"rt":270.53999999770895,"outcome":0,"trial":28,"correct":1,"trial_type":"three-arm-trial","trial_index":39,"time_elapsed":347257,"internal_node_id":"0.0-34.0-0.0","task_version":"screening-mturk","missing":false,"accuracy":1},{"contexts":["green","red","blue"],"outcomes":[1,1,1],"key":37,"choice":0,"rt":70.36499999230728,"outcome":1,"trial":29,"correct":1,"trial_type":"three-arm-trial","trial_index":40,"time_elapsed":348535,"internal_node_id":"0.0-35.0-0.0","task_version":"screening-mturk","missing":false,"accuracy":0},{"contexts":["green","red","blue"],"outcomes":[0,1,0],"key":37,"choice":0,"rt":246.64000002667308,"outcome":0,"trial":30,"correct":1,"trial_type":"three-arm-trial","trial_index":41,"time_elapsed":349988,"internal_node_id":"0.0-36.0-0.0","task_version":"screening-mturk","missing":false,"accuracy":0},{"contexts":["green","red","blue"],"outcomes":[0,0,0],"key":37,"choice":0,"rt":260.51499997265637,"outcome":0,"trial":31,"correct":0,"trial_type":"three-arm-trial","trial_index":42,"time_elapsed":351459,"internal_node_id":"0.0-37.0-0.0","task_version":"screening-mturk","missing":false,"accuracy":1},{"contexts":["green","red","blue"],"outcomes":[1,0,0],"key":39,"choice":2,"rt":610.1549999439158,"outcome":0,"trial":32,"correct":0,"trial_type":"three-arm-trial","trial_index":43,"time_elapsed":353279,"internal_node_id":"0.0-38.0-0.0","task_version":"screening-mturk","missing":false,"accuracy":0},{"contexts":["green","red","blue"],"outcomes":[1,1,0],"key":39,"choice":2,"rt":355.2499999641441,"outcome":0,"trial":33,"correct":0,"trial_type":"three-arm-trial","trial_index":44,"time_elapsed":354841,"internal_node_id":"0.0-39.0-0.0","task_version":"screening-mturk","missing":false,"accuracy":0},{"contexts":["green","red","blue"],"outcomes":[1,0,0],"key":38,"choice":1,"rt":379.71000000834465,"outcome":0,"trial":34,"correct":0,"trial_type":"three-arm-trial","trial_index":45,"time_elapsed":356428,"internal_node_id":"0.0-40.0-0.0","task_version":"screening-mturk","missing":false,"accuracy":0},{"contexts":["green","red","blue"],"outcomes":[1,1,0],"key":38,"choice":1,"rt":286.53500002110377,"outcome":1,"trial":35,"correct":0,"trial_type":"three-arm-trial","trial_index":46,"time_elapsed":357923,"internal_node_id":"0.0-41.0-0.0","task_version":"screening-mturk","missing":false,"accuracy":0},{"contexts":["green","red","blue"],"outcomes":[1,0,1],"key":38,"choice":1,"rt":302.4000000441447,"outcome":0,"trial":36,"correct":0,"trial_type":"three-arm-trial","trial_index":47,"time_elapsed":359438,"internal_node_id":"0.0-42.0-0.0","task_version":"screening-mturk","missing":false,"accuracy":0},{"contexts":["green","red","blue"],"outcomes":[1,1,0],"key":38,"choice":1,"rt":324.72500001313165,"outcome":1,"trial":37,"correct":0,"trial_type":"three-arm-trial","trial_index":48,"time_elapsed":360970,"internal_node_id":"0.0-43.0-0.0","task_version":"screening-mturk","missing":false,"accuracy":0},{"contexts":["green","red","blue"],"outcomes":[1,0,0],"key":38,"choice":1,"rt":334.160000027623,"outcome":0,"trial":38,"correct":0,"trial_type":"three-arm-trial","trial_index":49,"time_elapsed":362513,"internal_node_id":"0.0-44.0-0.0","task_version":"screening-mturk","missing":false,"accuracy":0},{"contexts":["green","red","blue"],"outcomes":[1,0,0],"key":39,"choice":2,"rt":71.23000000137836,"outcome":0,"trial":39,"correct":0,"trial_type":"three-arm-trial","trial_index":50,"time_elapsed":363795,"internal_node_id":"0.0-45.0-0.0","task_version":"screening-mturk","missing":false,"accuracy":0},{"contexts":["green","red","blue"],"outcomes":[1,0,0],"key":39,"choice":2,"rt":8.269999991171062,"outcome":0,"trial":40,"correct":0,"trial_type":"three-arm-trial","trial_index":51,"time_elapsed":365014,"internal_node_id":"0.0-46.0-0.0","task_version":"screening-mturk","missing":false,"accuracy":0},{"contexts":["green","red","blue"],"outcomes":[1,0,0],"key":39,"choice":2,"rt":756.4400000264868,"outcome":0,"trial":41,"correct":0,"trial_type":"three-arm-trial","trial_index":52,"time_elapsed":366981,"internal_node_id":"0.0-47.0-0.0","task_version":"screening-mturk","missing":false,"accuracy":0},{"contexts":["green","red","blue"],"outcomes":[1,0,0],"key":37,"choice":0,"rt":640.2149999630637,"outcome":1,"trial":42,"correct":0,"trial_type":"three-arm-trial","trial_index":53,"time_elapsed":368831,"internal_node_id":"0.0-48.0-0.0","task_version":"screening-mturk","missing":false,"accuracy":1},{"contexts":["green","red","blue"],"outcomes":[1,0,0],"key":37,"choice":0,"rt":59.89000003319234,"outcome":1,"trial":43,"correct":0,"trial_type":"three-arm-trial","trial_index":54,"time_elapsed":370099,"internal_node_id":"0.0-49.0-0.0","task_version":"screening-mturk","missing":false,"accuracy":1},{"contexts":["green","red","blue"],"outcomes":[1,0,0],"key":37,"choice":0,"rt":18.925000040326267,"outcome":1,"trial":44,"correct":0,"trial_type":"three-arm-trial","trial_index":55,"time_elapsed":371330,"internal_node_id":"0.0-50.0-0.0","task_version":"screening-mturk","missing":false,"accuracy":1},{"contexts":["green","red","blue"],"outcomes":[1,0,0],"key":38,"choice":1,"rt":1108.0650000367314,"outcome":0,"trial":45,"correct":0,"trial_type":"three-arm-trial","trial_index":56,"time_elapsed":373644,"internal_node_id":"0.0-51.0-0.0","task_version":"screening-mturk","missing":false,"accuracy":0},{"contexts":["green","red","blue"],"outcomes":[0,1,1],"key":38,"choice":1,"rt":694.0349999931641,"outcome":1,"trial":46,"correct":1,"trial_type":"three-arm-trial","trial_index":57,"time_elapsed":375546,"internal_node_id":"0.0-52.0-0.0","task_version":"screening-mturk","missing":false,"accuracy":1},{"contexts":["green","red","blue"],"outcomes":[0,1,0],"key":38,"choice":1,"rt":303.4600000246428,"outcome":1,"trial":47,"correct":1,"trial_type":"three-arm-trial","trial_index":58,"time_elapsed":377056,"internal_node_id":"0.0-53.0-0.0","task_version":"screening-mturk","missing":false,"accuracy":1},{"contexts":["green","red","blue"],"outcomes":[0,1,0],"key":38,"choice":1,"rt":370.7799999974668,"outcome":1,"trial":48,"correct":1,"trial_type":"three-arm-trial","trial_index":59,"time_elapsed":378635,"internal_node_id":"0.0-54.0-0.0","task_version":"screening-mturk","missing":false,"accuracy":1},{"contexts":["green","red","blue"],"outcomes":[0,0,0],"key":38,"choice":1,"rt":308.71499999193475,"outcome":0,"trial":49,"correct":1,"trial_type":"three-arm-trial","trial_index":60,"time_elapsed":380153,"internal_node_id":"0.0-55.0-0.0","task_version":"screening-mturk","missing":false,"accuracy":1},{"contexts":["green","red","blue"],"outcomes":[0,1,0],"key":37,"choice":0,"rt":356.0449999640696,"outcome":0,"trial":50,"correct":1,"trial_type":"three-arm-trial","trial_index":61,"time_elapsed":381717,"internal_node_id":"0.0-56.0-0.0","task_version":"screening-mturk","missing":false,"accuracy":0},{"contexts":["green","red","blue"],"outcomes":[0,1,0],"key":37,"choice":0,"rt":342.8750000311993,"outcome":0,"trial":51,"correct":1,"trial_type":"three-arm-trial","trial_index":62,"time_elapsed":383272,"internal_node_id":"0.0-57.0-0.0","task_version":"screening-mturk","missing":false,"accuracy":0},{"contexts":["green","red","blue"],"outcomes":[0,1,0],"key":37,"choice":0,"rt":323.7049999879673,"outcome":0,"trial":52,"correct":1,"trial_type":"three-arm-trial","trial_index":63,"time_elapsed":384805,"internal_node_id":"0.0-58.0-0.0","task_version":"screening-mturk","missing":false,"accuracy":0},{"contexts":["green","red","blue"],"outcomes":[0,1,0],"key":39,"choice":2,"rt":369.70499996095896,"outcome":0,"trial":53,"correct":1,"trial_type":"three-arm-trial","trial_index":64,"time_elapsed":386387,"internal_node_id":"0.0-59.0-0.0","task_version":"screening-mturk","missing":false,"accuracy":0},{"contexts":["green","red","blue"],"outcomes":[0,0,0],"key":39,"choice":2,"rt":301.99499998707324,"outcome":0,"trial":54,"correct":1,"trial_type":"three-arm-trial","trial_index":65,"time_elapsed":387898,"internal_node_id":"0.0-60.0-0.0","task_version":"screening-mturk","missing":false,"accuracy":0},{"contexts":["green","red","blue"],"outcomes":[1,1,0],"key":39,"choice":2,"rt":192.45500001125038,"outcome":0,"trial":55,"correct":1,"trial_type":"three-arm-trial","trial_index":66,"time_elapsed":389298,"internal_node_id":"0.0-61.0-0.0","task_version":"screening-mturk","missing":false,"accuracy":0},{"contexts":["green","red","blue"],"outcomes":[0,1,0],"key":39,"choice":2,"rt":308.69500001426786,"outcome":0,"trial":56,"correct":1,"trial_type":"three-arm-trial","trial_index":67,"time_elapsed":390815,"internal_node_id":"0.0-62.0-0.0","task_version":"screening-mturk","missing":false,"accuracy":0},{"contexts":["green","red","blue"],"outcomes":[0,0,0],"key":38,"choice":1,"rt":58.2799999974668,"outcome":0,"trial":57,"correct":1,"trial_type":"three-arm-trial","trial_index":68,"time_elapsed":392081,"internal_node_id":"0.0-63.0-0.0","task_version":"screening-mturk","missing":false,"accuracy":1},{"contexts":["green","red","blue"],"outcomes":[0,1,0],"key":38,"choice":1,"rt":73.4350000275299,"outcome":1,"trial":58,"correct":1,"trial_type":"three-arm-trial","trial_index":69,"time_elapsed":393369,"internal_node_id":"0.0-64.0-0.0","task_version":"screening-mturk","missing":false,"accuracy":1},{"contexts":["green","red","blue"],"outcomes":[0,1,0],"key":38,"choice":1,"rt":288.80999999819323,"outcome":1,"trial":59,"correct":1,"trial_type":"three-arm-trial","trial_index":70,"time_elapsed":394864,"internal_node_id":"0.0-65.0-0.0","task_version":"screening-mturk","missing":false,"accuracy":1},{"contexts":["green","red","blue"],"outcomes":[1,1,1],"key":38,"choice":1,"rt":316.42500002635643,"outcome":1,"trial":60,"correct":1,"trial_type":"three-arm-trial","trial_index":71,"time_elapsed":396386,"internal_node_id":"0.0-66.0-0.0","task_version":"screening-mturk","missing":false,"accuracy":1},{"contexts":["green","red","blue"],"outcomes":[1,0,0],"key":38,"choice":1,"rt":355.53000000072643,"outcome":0,"trial":61,"correct":0,"trial_type":"three-arm-trial","trial_index":72,"time_elapsed":397951,"internal_node_id":"0.0-67.0-0.0","task_version":"screening-mturk","missing":false,"accuracy":0},{"contexts":["green","red","blue"],"outcomes":[1,0,0],"key":37,"choice":0,"rt":304.69499999890104,"outcome":1,"trial":62,"correct":0,"trial_type":"three-arm-trial","trial_index":73,"time_elapsed":399466,"internal_node_id":"0.0-68.0-0.0","task_version":"screening-mturk","missing":false,"accuracy":1},{"contexts":["green","red","blue"],"outcomes":[1,1,0],"key":37,"choice":0,"rt":437.7749999985099,"outcome":1,"trial":63,"correct":0,"trial_type":"three-arm-trial","trial_index":74,"time_elapsed":401110,"internal_node_id":"0.0-69.0-0.0","task_version":"screening-mturk","missing":false,"accuracy":1},{"contexts":["green","red","blue"],"outcomes":[1,0,0],"key":37,"choice":0,"rt":324.39999998314306,"outcome":1,"trial":64,"correct":0,"trial_type":"three-arm-trial","trial_index":75,"time_elapsed":402640,"internal_node_id":"0.0-70.0-0.0","task_version":"screening-mturk","missing":false,"accuracy":1},{"contexts":["green","red","blue"],"outcomes":[1,0,0],"key":37,"choice":0,"rt":340.1100000482984,"outcome":1,"trial":65,"correct":0,"trial_type":"three-arm-trial","trial_index":76,"time_elapsed":404188,"internal_node_id":"0.0-71.0-0.0","task_version":"screening-mturk","missing":false,"accuracy":1},{"contexts":["green","red","blue"],"outcomes":[0,0,0],"key":37,"choice":0,"rt":515.8350000274368,"outcome":0,"trial":66,"correct":0,"trial_type":"three-arm-trial","trial_index":77,"time_elapsed":405911,"internal_node_id":"0.0-72.0-0.0","task_version":"screening-mturk","missing":false,"accuracy":1},{"contexts":["green","red","blue"],"outcomes":[1,0,0],"key":39,"choice":2,"rt":312.1500000124797,"outcome":0,"trial":67,"correct":0,"trial_type":"three-arm-trial","trial_index":78,"time_elapsed":407431,"internal_node_id":"0.0-73.0-0.0","task_version":"screening-mturk","missing":false,"accuracy":0},{"contexts":["green","red","blue"],"outcomes":[1,0,0],"key":39,"choice":2,"rt":319.92999999783933,"outcome":0,"trial":68,"correct":0,"trial_type":"three-arm-trial","trial_index":79,"time_elapsed":408957,"internal_node_id":"0.0-74.0-0.0","task_version":"screening-mturk","missing":false,"accuracy":0},{"contexts":["green","red","blue"],"outcomes":[1,0,1],"key":38,"choice":1,"rt":111.91499995766208,"outcome":0,"trial":69,"correct":0,"trial_type":"three-arm-trial","trial_index":80,"time_elapsed":410274,"internal_node_id":"0.0-75.0-0.0","task_version":"screening-mturk","missing":false,"accuracy":0},{"contexts":["green","red","blue"],"outcomes":[1,0,0],"key":38,"choice":1,"rt":244.03499998152256,"outcome":0,"trial":70,"correct":0,"trial_type":"three-arm-trial","trial_index":81,"time_elapsed":411727,"internal_node_id":"0.0-76.0-0.0","task_version":"screening-mturk","missing":false,"accuracy":0},{"contexts":["green","red","blue"],"outcomes":[0,0,0],"key":37,"choice":0,"rt":238.49000001791865,"outcome":0,"trial":71,"correct":0,"trial_type":"three-arm-trial","trial_index":82,"time_elapsed":413172,"internal_node_id":"0.0-77.0-0.0","task_version":"screening-mturk","missing":false,"accuracy":1},{"contexts":["green","red","blue"],"outcomes":[1,0,0],"key":37,"choice":0,"rt":340.36999999079853,"outcome":1,"trial":72,"correct":0,"trial_type":"three-arm-trial","trial_index":83,"time_elapsed":414719,"internal_node_id":"0.0-78.0-0.0","task_version":"screening-mturk","missing":false,"accuracy":1},{"contexts":["green","red","blue"],"outcomes":[1,0,0],"key":37,"choice":0,"rt":333.3649999694899,"outcome":1,"trial":73,"correct":0,"trial_type":"three-arm-trial","trial_index":84,"time_elapsed":416262,"internal_node_id":"0.0-79.0-0.0","task_version":"screening-mturk","missing":false,"accuracy":1},{"contexts":["green","red","blue"],"outcomes":[1,0,0],"key":37,"choice":0,"rt":316.5949999820441,"outcome":1,"trial":74,"correct":0,"trial_type":"three-arm-trial","trial_index":85,"time_elapsed":417785,"internal_node_id":"0.0-80.0-0.0","task_version":"screening-mturk","missing":false,"accuracy":1},{"contexts":["green","red","blue"],"outcomes":[0,0,0],"key":37,"choice":0,"rt":441.9050000142306,"outcome":0,"trial":75,"correct":0,"trial_type":"three-arm-trial","trial_index":86,"time_elapsed":419434,"internal_node_id":"0.0-81.0-0.0","task_version":"screening-mturk","missing":false,"accuracy":1},{"contexts":["green","red","blue"],"outcomes":[0,1,1],"key":38,"choice":1,"rt":115.9650000045076,"outcome":1,"trial":76,"correct":2,"trial_type":"three-arm-trial","trial_index":87,"time_elapsed":420762,"internal_node_id":"0.0-82.0-0.0","task_version":"screening-mturk","missing":false,"accuracy":0},{"contexts":["green","red","blue"],"outcomes":[0,0,1],"key":38,"choice":1,"rt":268.78499996382743,"outcome":0,"trial":77,"correct":2,"trial_type":"three-arm-trial","trial_index":88,"time_elapsed":422246,"internal_node_id":"0.0-83.0-0.0","task_version":"screening-mturk","missing":false,"accuracy":0},{"contexts":["green","red","blue"],"outcomes":[0,1,1],"key":39,"choice":2,"rt":296.84000002453104,"outcome":1,"trial":78,"correct":2,"trial_type":"three-arm-trial","trial_index":89,"time_elapsed":423752,"internal_node_id":"0.0-84.0-0.0","task_version":"screening-mturk","missing":false,"accuracy":1},{"contexts":["green","red","blue"],"outcomes":[1,0,1],"key":39,"choice":2,"rt":328.80000001750886,"outcome":1,"trial":79,"correct":2,"trial_type":"three-arm-trial","trial_index":90,"time_elapsed":425293,"internal_node_id":"0.0-85.0-0.0","task_version":"screening-mturk","missing":false,"accuracy":1},{"contexts":["green","red","blue"],"outcomes":[0,1,0],"key":39,"choice":2,"rt":480.40499998023733,"outcome":0,"trial":80,"correct":2,"trial_type":"three-arm-trial","trial_index":91,"time_elapsed":426982,"internal_node_id":"0.0-86.0-0.0","task_version":"screening-mturk","missing":false,"accuracy":1},{"contexts":["green","red","blue"],"outcomes":[0,0,1],"key":38,"choice":1,"rt":373.0050000012852,"outcome":0,"trial":81,"correct":2,"trial_type":"three-arm-trial","trial_index":92,"time_elapsed":428562,"internal_node_id":"0.0-87.0-0.0","task_version":"screening-mturk","missing":false,"accuracy":0},{"contexts":["green","red","blue"],"outcomes":[0,0,1],"key":38,"choice":1,"rt":233.76999999163672,"outcome":0,"trial":82,"correct":2,"trial_type":"three-arm-trial","trial_index":93,"time_elapsed":430004,"internal_node_id":"0.0-88.0-0.0","task_version":"screening-mturk","missing":false,"accuracy":0},{"contexts":["green","red","blue"],"outcomes":[0,0,1],"key":38,"choice":1,"rt":374.9900000402704,"outcome":0,"trial":83,"correct":2,"trial_type":"three-arm-trial","trial_index":94,"time_elapsed":431586,"internal_node_id":"0.0-89.0-0.0","task_version":"screening-mturk","missing":false,"accuracy":0},{"contexts":["green","red","blue"],"outcomes":[1,0,1],"key":37,"choice":0,"rt":331.7699999897741,"outcome":1,"trial":84,"correct":2,"trial_type":"three-arm-trial","trial_index":95,"time_elapsed":433125,"internal_node_id":"0.0-90.0-0.0","task_version":"screening-mturk","missing":false,"accuracy":0},{"contexts":["green","red","blue"],"outcomes":[1,0,0],"key":37,"choice":0,"rt":430.21999998018146,"outcome":1,"trial":85,"correct":2,"trial_type":"three-arm-trial","trial_index":96,"time_elapsed":434763,"internal_node_id":"0.0-91.0-0.0","task_version":"screening-mturk","missing":false,"accuracy":0},{"contexts":["green","red","blue"],"outcomes":[1,0,1],"key":37,"choice":0,"rt":435.7750000199303,"outcome":1,"trial":86,"correct":2,"trial_type":"three-arm-trial","trial_index":97,"time_elapsed":436408,"internal_node_id":"0.0-92.0-0.0","task_version":"screening-mturk","missing":false,"accuracy":0},{"contexts":["green","red","blue"],"outcomes":[0,0,1],"key":37,"choice":0,"rt":410.5399999534711,"outcome":0,"trial":87,"correct":2,"trial_type":"three-arm-trial","trial_index":98,"time_elapsed":438029,"internal_node_id":"0.0-93.0-0.0","task_version":"screening-mturk","missing":false,"accuracy":0},{"contexts":["green","red","blue"],"outcomes":[0,1,1],"key":39,"choice":2,"rt":321.8849999830127,"outcome":1,"trial":88,"correct":2,"trial_type":"three-arm-trial","trial_index":99,"time_elapsed":439556,"internal_node_id":"0.0-94.0-0.0","task_version":"screening-mturk","missing":false,"accuracy":1},{"contexts":["green","red","blue"],"outcomes":[0,0,1],"key":39,"choice":2,"rt":376.8599999602884,"outcome":1,"trial":89,"correct":2,"trial_type":"three-arm-trial","trial_index":100,"time_elapsed":441139,"internal_node_id":"0.0-95.0-0.0","task_version":"screening-mturk","missing":false,"accuracy":1},{"contexts":["green","red","blue"],"outcomes":[1,0,1],"key":39,"choice":2,"rt":371.01000000257045,"outcome":1,"trial":90,"correct":2,"trial_type":"three-arm-trial","trial_index":101,"time_elapsed":442717,"internal_node_id":"0.0-96.0-0.0","task_version":"screening-mturk","missing":false,"accuracy":1},{"rt":21258.674999990035,"responses":{"age":"56","gender-categorical":"Female","gender-free-response":"","ethnicity":"Not Hispanic or Latino","race":["White"],"language":"Yes","fluency":"Very well","prolific":"Yes","prolific-this-study":"No"},"survey":"demographics","trial_type":"survey-demo","trial_index":102,"time_elapsed":463988,"internal_node_id":"0.0-97.0","task_version":"screening-mturk","interactions":"[{\"event\":\"blur\",\"trial\":5,\"time\":211650},{\"event\":\"focus\",\"trial\":5,\"time\":212815}]"}]