[{"responses":{"Q14":"2","Q13":"3","Q05":"2","Q11":"1","Q07":"1","Q09":"2","Q01":"2","Q03":"3","Q06":"2","Q08":"3","Q02":"2","Q10":"1","Q12":"1","Q15":"2","Q04":"2"},"rt":77188.88999999763,"survey":"shaps","trial_type":"survey-template","trial_index":0,"time_elapsed":77202,"internal_node_id":"0.0-0.0","task_version":"screening-mturk"},{"responses":{"Q12":"1","Q03":"2","Q02":"2","Q10":"3","Q06":"1","Q09":"1","Q11":"2","Q08":"1","Q07":"2","Q05":"2","Q04":"3","Q01":"1","Q13":"2"},"rt":22524.584999999206,"survey":"bisbas","trial_type":"survey-template","trial_index":1,"time_elapsed":99731,"internal_node_id":"0.0-1.0","task_version":"screening-mturk"},{"responses":{"Q12":"1","Q01":"2","Q09":"2","Q05":"1","Q04":"1","Q11":"2","Q06":"2","Q07":"1","Q15":"1","Q13":"2","Q14":"2","Q02":"1","Q08":"1","Q10":"2","Q03":"2"},"rt":24610.970000001544,"survey":"7up7down","trial_type":"survey-template","trial_index":2,"time_elapsed":124346,"internal_node_id":"0.0-2.0","task_version":"screening-mturk"},{"responses":{"Q03":"1","Q02":"2","Q01":"3"},"rt":7195.354999996198,"survey":"pswq","trial_type":"survey-template","trial_index":3,"time_elapsed":131545,"internal_node_id":"0.0-3.0","task_version":"screening-mturk"},{"responses":{"Q05":"1","Q01":"2","Q08":"2","Q02":"2","Q06":"1","Q03":"1","Q07":"2","Q04":"3"},"rt":27884.584999999788,"survey":"gad7","trial_type":"survey-template","trial_index":4,"time_elapsed":159436,"internal_node_id":"0.0-4.0","task_version":"screening-mturk"},{"view_history":"[{\"page_index\":0,\"viewing_time\":9024.559999998019},{\"page_index\":1,\"viewing_time\":3719.570000001113},{\"page_index\":2,\"viewing_time\":12964.959999997518},{\"page_index\":3,\"viewing_time\":9949.905000001309},{\"page_index\":4,\"viewing_time\":22280.025000000023},{\"page_index\":5,\"viewing_time\":6129.9050000016},{\"page_index\":6,\"viewing_time\":5256.524999997055},{\"page_index\":7,\"viewing_time\":6275.229999999283}]","rt":75601.99499999726,"trial_type":"instructions","trial_index":5,"time_elapsed":235040,"internal_node_id":"0.0-5.0-0.0","task_version":"screening-mturk"},{"responses":["True","True","False","True","False"],"num_errors":2,"rt":22690.36000000051,"trial_type":"three-arm-comprehension","trial_index":6,"time_elapsed":257734,"internal_node_id":"0.0-5.0-1.0","task_version":"screening-mturk"},{"view_history":"[{\"page_index\":0,\"viewing_time\":4989.385000000766},{\"page_index\":1,\"viewing_time\":1374.8899999991409},{\"page_index\":2,\"viewing_time\":1445.1550000012503},{\"page_index\":3,\"viewing_time\":1955.09999999922},{\"page_index\":4,\"viewing_time\":3094.9000000036904},{\"page_index\":5,\"viewing_time\":3624.7650000004796},{\"page_index\":6,\"viewing_time\":3630.279999997583},{\"page_index\":7,\"viewing_time\":2589.7550000008778}]","rt":22704.640000003565,"trial_type":"instructions","trial_index":7,"time_elapsed":280442,"internal_node_id":"0.0-5.1-0.1","task_version":"screening-mturk"},{"responses":["True","False","True","True","True"],"num_errors":3,"rt":18463.3149999936,"trial_type":"three-arm-comprehension","trial_index":8,"time_elapsed":298908,"internal_node_id":"0.0-5.1-1.1","task_version":"screening-mturk"},{"view_history":"[{\"page_index\":0,\"viewing_time\":1860.3949999960605},{\"page_index\":1,\"viewing_time\":154.94000000035157},{\"page_index\":2,\"viewing_time\":190.11499999760417},{\"page_index\":3,\"viewing_time\":144.87000000372063},{\"page_index\":4,\"viewing_time\":205.0600000002305},{\"page_index\":5,\"viewing_time\":165.11999999784166},{\"page_index\":6,\"viewing_time\":724.7750000024098},{\"page_index\":7,\"viewing_time\":75.01999999658437}]","rt":3520.6299999990733,"trial_type":"instructions","trial_index":9,"time_elapsed":302432,"internal_node_id":"0.0-5.2-0.2","task_version":"screening-mturk"},{"responses":["True","False","False","True","False"],"num_errors":3,"rt":7288.9500000019325,"trial_type":"three-arm-comprehension","trial_index":10,"time_elapsed":309723,"internal_node_id":"0.0-5.2-1.2","task_version":"screening-mturk"},{"view_history":"[{\"page_index\":0,\"viewing_time\":1580.9949999966193},{\"page_index\":1,\"viewing_time\":179.07500000001164},{\"page_index\":2,\"viewing_time\":190.4500000018743},{\"page_index\":3,\"viewing_time\":179.92499999672873},{\"page_index\":4,\"viewing_time\":194.87500000104774},{\"page_index\":5,\"viewing_time\":200.33500000135973},{\"page_index\":6,\"viewing_time\":509.5299999957206},{\"page_index\":7,\"viewing_time\":800.0200000024051}]","rt":3835.5999999985215,"trial_type":"instructions","trial_index":11,"time_elapsed":313562,"internal_node_id":"0.0-5.3-0.3","task_version":"screening-mturk"},{"responses":["True","True","True","True","False"],"num_errors":3,"rt":12848.784999994677,"trial_type":"three-arm-comprehension","trial_index":12,"time_elapsed":326413,"internal_node_id":"0.0-5.3-1.3","task_version":"screening-mturk"},{"view_history":"[{\"page_index\":0,\"viewing_time\":2936.925000001793},{\"page_index\":1,\"viewing_time\":20443.439999995462},{\"page_index\":2,\"viewing_time\":5740.200000000186},{\"page_index\":3,\"viewing_time\":3879.815000000235},{\"page_index\":4,\"viewing_time\":1369.7749999992084},{\"page_index\":3,\"viewing_time\":4979.964999998629},{\"page_index\":4,\"viewing_time\":5709.9250000028405},{\"page_index\":5,\"viewing_time\":6772.5350000037},{\"page_index\":6,\"viewing_time\":5917.924999994284},{\"page_index\":7,\"viewing_time\":4657.050000001618}]","rt":62408.10500000225,"trial_type":"instructions","trial_index":13,"time_elapsed":388824,"internal_node_id":"0.0-5.4-0.4","task_version":"screening-mturk"},{"responses":["True","True","False","True","True"],"num_errors":1,"rt":24030.0900000002,"trial_type":"three-arm-comprehension","trial_index":14,"time_elapsed":412858,"internal_node_id":"0.0-5.4-1.4","task_version":"screening-mturk"},{"view_history":"[{\"page_index\":0,\"viewing_time\":2335.1699999984703},{\"page_index\":1,\"viewing_time\":303.2099999982165},{\"page_index\":2,\"viewing_time\":341.95500000350876},{\"page_index\":3,\"viewing_time\":284.7600000022794},{\"page_index\":4,\"viewing_time\":669.7749999948428},{\"page_index\":5,\"viewing_time\":18689.89000000147},{\"page_index\":6,\"viewing_time\":939.9499999999534},{\"page_index\":7,\"viewing_time\":960.3150000039022}]","rt":24525.470000000496,"trial_type":"instructions","trial_index":15,"time_elapsed":437387,"internal_node_id":"0.0-5.5-0.5","task_version":"screening-mturk"},{"responses":["True","False","True","True","True"],"num_errors":3,"rt":7254.469999999856,"trial_type":"three-arm-comprehension","trial_index":16,"time_elapsed":444644,"internal_node_id":"0.0-5.5-1.5","task_version":"screening-mturk"},{"view_history":"[{\"page_index\":0,\"viewing_time\":1628.244999999879},{\"page_index\":1,\"viewing_time\":209.90500000334578},{\"page_index\":2,\"viewing_time\":230.1450000013574},{\"page_index\":3,\"viewing_time\":149.98999999806983},{\"page_index\":4,\"viewing_time\":230.8599999960279},{\"page_index\":5,\"viewing_time\":749.165000001085},{\"page_index\":6,\"viewing_time\":759.7050000040326},{\"page_index\":7,\"viewing_time\":805.0849999999627}]","rt":4763.530000003811,"trial_type":"instructions","trial_index":17,"time_elapsed":449411,"internal_node_id":"0.0-5.6-0.6","task_version":"screening-mturk"},{"responses":["True","True","True","True","True"],"num_errors":2,"rt":45192.94000000082,"trial_type":"three-arm-comprehension","trial_index":18,"time_elapsed":494607,"internal_node_id":"0.0-5.6-1.6","task_version":"screening-mturk"},{"view_history":"[{\"page_index\":0,\"viewing_time\":1777.2800000020652},{\"page_index\":1,\"viewing_time\":408.6299999980838},{\"page_index\":2,\"viewing_time\":199.81499999994412},{\"page_index\":3,\"viewing_time\":159.9149999965448},{\"page_index\":4,\"viewing_time\":161.18000000278698},{\"page_index\":5,\"viewing_time\":179.03500000102213},{\"page_index\":6,\"viewing_time\":380.0249999985681},{\"page_index\":7,\"viewing_time\":209.8649999970803}]","rt":3476.2750000008964,"trial_type":"instructions","trial_index":19,"time_elapsed":498086,"internal_node_id":"0.0-5.7-0.7","task_version":"screening-mturk"},{"responses":["True","True","False","True","True"],"num_errors":1,"rt":10789.174999998068,"trial_type":"three-arm-comprehension","trial_index":20,"time_elapsed":508878,"internal_node_id":"0.0-5.7-1.7","task_version":"screening-mturk"},{"view_history":"[{\"page_index\":0,\"viewing_time\":1813.3850000012899},{\"page_index\":1,\"viewing_time\":170.29500000353437},{\"page_index\":2,\"viewing_time\":209.53000000008615},{\"page_index\":3,\"viewing_time\":200.65999999496853},{\"page_index\":4,\"viewing_time\":209.35000000463333},{\"page_index\":5,\"viewing_time\":200.16000000032363},{\"page_index\":6,\"viewing_time\":200.08499999676133},{\"page_index\":7,\"viewing_time\":200.02999999996973}]","rt":3203.910000003816,"trial_type":"instructions","trial_index":21,"time_elapsed":512086,"internal_node_id":"0.0-5.8-0.8","task_version":"screening-mturk"},{"responses":["True","True","True","False","True"],"num_errors":1,"rt":7028.290000002016,"trial_type":"three-arm-comprehension","trial_index":22,"time_elapsed":519118,"internal_node_id":"0.0-5.8-1.8","task_version":"screening-mturk"},{"view_history":"[{\"page_index\":0,\"viewing_time\":1434.8900000040885},{\"page_index\":1,\"viewing_time\":200.01999999664258},{\"page_index\":2,\"viewing_time\":169.96500000089873},{\"page_index\":3,\"viewing_time\":180.09000000159722},{\"page_index\":4,\"viewing_time\":160.19000000238884},{\"page_index\":5,\"viewing_time\":174.3399999977555},{\"page_index\":6,\"viewing_time\":175.32999999821186},{\"page_index\":7,\"viewing_time\":160.01500000129454}]","rt":2655.330000001355,"trial_type":"instructions","trial_index":23,"time_elapsed":521776,"internal_node_id":"0.0-5.9-0.9","task_version":"screening-mturk"},{"responses":["True","True","False","False","False"],"num_errors":1,"rt":5708.610000001499,"trial_type":"three-arm-comprehension","trial_index":24,"time_elapsed":527488,"internal_node_id":"0.0-5.9-1.9","task_version":"screening-mturk"},{"view_history":"[{\"page_index\":0,\"viewing_time\":1845.0749999973923},{\"page_index\":1,\"viewing_time\":159.83499999856576},{\"page_index\":2,\"viewing_time\":160.5150000032736},{\"page_index\":3,\"viewing_time\":179.72500000183936},{\"page_index\":4,\"viewing_time\":182.75500000151806},{\"page_index\":5,\"viewing_time\":176.97499999497086},{\"page_index\":6,\"viewing_time\":184.95000000251457},{\"page_index\":7,\"viewing_time\":175.42500000121072}]","rt":3065.679999999702,"trial_type":"instructions","trial_index":25,"time_elapsed":530556,"internal_node_id":"0.0-5.10-0.10","task_version":"screening-mturk"},{"responses":["True","True","False","False","True"],"num_errors":0,"rt":14258.249999998952,"trial_type":"three-arm-comprehension","trial_index":26,"time_elapsed":544817,"internal_node_id":"0.0-5.10-1.10","task_version":"screening-mturk"},{"view_history":"[{\"page_index\":0,\"viewing_time\":2677.8199999970384}]","rt":2678.264999995008,"trial_type":"instructions","trial_index":27,"time_elapsed":547498,"internal_node_id":"0.0-6.0","task_version":"screening-mturk"},{"contexts":["red","green","blue"],"outcomes":[1,0,1],"key":null,"rt":null,"trial":1,"correct":0,"trial_type":"three-arm-trial","trial_index":28,"time_elapsed":562505,"internal_node_id":"0.0-7.0-0.0","task_version":"screening-mturk","missing":true},{"contexts":["red","green","blue"],"outcomes":[1,0,1],"key":37,"choice":0,"rt":1173.785000006319,"outcome":1,"trial":1,"correct":0,"trial_type":"three-arm-trial","trial_index":29,"time_elapsed":564882,"internal_node_id":"0.0-7.1-0.1","task_version":"screening-mturk","missing":false,"accuracy":1},{"contexts":["red","green","blue"],"outcomes":[0,0,0],"key":37,"choice":0,"rt":1011.5450000013225,"outcome":0,"trial":2,"correct":0,"trial_type":"three-arm-trial","trial_index":30,"time_elapsed":567096,"internal_node_id":"0.0-8.0-0.0","task_version":"screening-mturk","missing":false,"accuracy":1},{"contexts":["red","green","blue"],"outcomes":[0,0,0],"key":39,"choice":2,"rt":768.1550000051502,"outcome":0,"trial":3,"correct":0,"trial_type":"three-arm-trial","trial_index":31,"time_elapsed":569069,"internal_node_id":"0.0-9.0-0.0","task_version":"screening-mturk","missing":false,"accuracy":0},{"contexts":["red","green","blue"],"outcomes":[0,0,0],"key":38,"choice":1,"rt":726.0900000038091,"outcome":0,"trial":4,"correct":0,"trial_type":"three-arm-trial","trial_index":32,"time_elapsed":570998,"internal_node_id":"0.0-10.0-0.0","task_version":"screening-mturk","missing":false,"accuracy":0},{"contexts":["red","green","blue"],"outcomes":[1,0,0],"key":38,"choice":1,"rt":911.0149999978021,"outcome":0,"trial":5,"correct":0,"trial_type":"three-arm-trial","trial_index":33,"time_elapsed":573115,"internal_node_id":"0.0-11.0-0.0","task_version":"screening-mturk","missing":false,"accuracy":0},{"contexts":["red","green","blue"],"outcomes":[1,0,0],"key":39,"choice":2,"rt":598.8400000059046,"outcome":0,"trial":6,"correct":0,"trial_type":"three-arm-trial","trial_index":34,"time_elapsed":574918,"internal_node_id":"0.0-12.0-0.0","task_version":"screening-mturk","missing":false,"accuracy":0},{"contexts":["red","green","blue"],"outcomes":[1,0,0],"key":38,"choice":1,"rt":660.4650000007823,"outcome":0,"trial":7,"correct":0,"trial_type":"three-arm-trial","trial_index":35,"time_elapsed":576781,"internal_node_id":"0.0-13.0-0.0","task_version":"screening-mturk","missing":false,"accuracy":0},{"contexts":["red","green","blue"],"outcomes":[0,0,0],"key":38,"choice":1,"rt":691.1200000031386,"outcome":0,"trial":8,"correct":0,"trial_type":"three-arm-trial","trial_index":36,"time_elapsed":578678,"internal_node_id":"0.0-14.0-0.0","task_version":"screening-mturk","missing":false,"accuracy":0},{"contexts":["red","green","blue"],"outcomes":[1,0,0],"key":37,"choice":0,"rt":635.0449999953853,"outcome":1,"trial":9,"correct":0,"trial_type":"three-arm-trial","trial_index":37,"time_elapsed":580517,"internal_node_id":"0.0-15.0-0.0","task_version":"screening-mturk","missing":false,"accuracy":1},{"contexts":["red","green","blue"],"outcomes":[1,0,0],"key":38,"choice":1,"rt":796.0499999971362,"outcome":0,"trial":10,"correct":0,"trial_type":"three-arm-trial","trial_index":38,"time_elapsed":582516,"internal_node_id":"0.0-16.0-0.0","task_version":"screening-mturk","missing":false,"accuracy":0},{"contexts":["red","green","blue"],"outcomes":[1,0,0],"key":39,"choice":2,"rt":807.0500000030734,"outcome":0,"trial":11,"correct":0,"trial_type":"three-arm-trial","trial_index":39,"time_elapsed":584527,"internal_node_id":"0.0-17.0-0.0","task_version":"screening-mturk","missing":false,"accuracy":0},{"contexts":["red","green","blue"],"outcomes":[1,0,0],"key":37,"choice":0,"rt":614.9199999999255,"outcome":1,"trial":12,"correct":0,"trial_type":"three-arm-trial","trial_index":40,"time_elapsed":586347,"internal_node_id":"0.0-18.0-0.0","task_version":"screening-mturk","missing":false,"accuracy":1},{"contexts":["red","green","blue"],"outcomes":[1,1,1],"key":37,"choice":0,"rt":715.8800000033807,"outcome":1,"trial":13,"correct":0,"trial_type":"three-arm-trial","trial_index":41,"time_elapsed":588271,"internal_node_id":"0.0-19.0-0.0","task_version":"screening-mturk","missing":false,"accuracy":1},{"contexts":["red","green","blue"],"outcomes":[1,0,0],"key":37,"choice":0,"rt":667.5350000004983,"outcome":1,"trial":14,"correct":0,"trial_type":"three-arm-trial","trial_index":42,"time_elapsed":590151,"internal_node_id":"0.0-20.0-0.0","task_version":"screening-mturk","missing":false,"accuracy":1},{"contexts":["red","green","blue"],"outcomes":[1,0,1],"key":37,"choice":0,"rt":642.3550000037067,"outcome":1,"trial":15,"correct":0,"trial_type":"three-arm-trial","trial_index":43,"time_elapsed":591997,"internal_node_id":"0.0-21.0-0.0","task_version":"screening-mturk","missing":false,"accuracy":1},{"contexts":["red","green","blue"],"outcomes":[0,1,0],"key":37,"choice":0,"rt":626.1050000030082,"outcome":0,"trial":16,"correct":1,"trial_type":"three-arm-trial","trial_index":44,"time_elapsed":593826,"internal_node_id":"0.0-22.0-0.0","task_version":"screening-mturk","missing":false,"accuracy":0},{"contexts":["red","green","blue"],"outcomes":[0,0,0],"key":38,"choice":1,"rt":682.9050000014249,"outcome":0,"trial":17,"correct":1,"trial_type":"three-arm-trial","trial_index":45,"time_elapsed":595713,"internal_node_id":"0.0-23.0-0.0","task_version":"screening-mturk","missing":false,"accuracy":1},{"contexts":["red","green","blue"],"outcomes":[0,1,0],"key":37,"choice":0,"rt":622.4999999976717,"outcome":0,"trial":18,"correct":1,"trial_type":"three-arm-trial","trial_index":46,"time_elapsed":597543,"internal_node_id":"0.0-24.0-0.0","task_version":"screening-mturk","missing":false,"accuracy":0},{"contexts":["red","green","blue"],"outcomes":[1,0,0],"key":39,"choice":2,"rt":670.2000000005355,"outcome":0,"trial":19,"correct":1,"trial_type":"three-arm-trial","trial_index":47,"time_elapsed":599417,"internal_node_id":"0.0-25.0-0.0","task_version":"screening-mturk","missing":false,"accuracy":0},{"contexts":["red","green","blue"],"outcomes":[0,1,0],"key":37,"choice":0,"rt":596.2399999988265,"outcome":0,"trial":20,"correct":1,"trial_type":"three-arm-trial","trial_index":48,"time_elapsed":601217,"internal_node_id":"0.0-26.0-0.0","task_version":"screening-mturk","missing":false,"accuracy":0},{"contexts":["red","green","blue"],"outcomes":[0,1,0],"key":38,"choice":1,"rt":848.2999999979511,"outcome":1,"trial":21,"correct":1,"trial_type":"three-arm-trial","trial_index":49,"time_elapsed":603269,"internal_node_id":"0.0-27.0-0.0","task_version":"screening-mturk","missing":false,"accuracy":1},{"contexts":["red","green","blue"],"outcomes":[0,1,0],"key":38,"choice":1,"rt":585.5799999989104,"outcome":1,"trial":22,"correct":1,"trial_type":"three-arm-trial","trial_index":50,"time_elapsed":605058,"internal_node_id":"0.0-28.0-0.0","task_version":"screening-mturk","missing":false,"accuracy":1},{"contexts":["red","green","blue"],"outcomes":[0,1,0],"key":38,"choice":1,"rt":644.8700000037206,"outcome":1,"trial":23,"correct":1,"trial_type":"three-arm-trial","trial_index":51,"time_elapsed":606906,"internal_node_id":"0.0-29.0-0.0","task_version":"screening-mturk","missing":false,"accuracy":1},{"contexts":["red","green","blue"],"outcomes":[0,1,0],"key":38,"choice":1,"rt":717.6049999980023,"outcome":1,"trial":24,"correct":1,"trial_type":"three-arm-trial","trial_index":52,"time_elapsed":608827,"internal_node_id":"0.0-30.0-0.0","task_version":"screening-mturk","missing":false,"accuracy":1},{"contexts":["red","green","blue"],"outcomes":[0,1,0],"key":38,"choice":1,"rt":741.9000000008382,"outcome":1,"trial":25,"correct":1,"trial_type":"three-arm-trial","trial_index":53,"time_elapsed":610776,"internal_node_id":"0.0-31.0-0.0","task_version":"screening-mturk","missing":false,"accuracy":1},{"contexts":["red","green","blue"],"outcomes":[0,1,0],"key":38,"choice":1,"rt":707.4050000009593,"outcome":1,"trial":26,"correct":1,"trial_type":"three-arm-trial","trial_index":54,"time_elapsed":612689,"internal_node_id":"0.0-32.0-0.0","task_version":"screening-mturk","missing":false,"accuracy":1},{"contexts":["red","green","blue"],"outcomes":[1,1,1],"key":38,"choice":1,"rt":763.8049999950454,"outcome":1,"trial":27,"correct":1,"trial_type":"three-arm-trial","trial_index":55,"time_elapsed":614656,"internal_node_id":"0.0-33.0-0.0","task_version":"screening-mturk","missing":false,"accuracy":1},{"contexts":["red","green","blue"],"outcomes":[0,1,0],"key":38,"choice":1,"rt":612.6350000050152,"outcome":1,"trial":28,"correct":1,"trial_type":"three-arm-trial","trial_index":56,"time_elapsed":616473,"internal_node_id":"0.0-34.0-0.0","task_version":"screening-mturk","missing":false,"accuracy":1},{"contexts":["red","green","blue"],"outcomes":[1,1,0],"key":38,"choice":1,"rt":710.3399999977555,"outcome":1,"trial":29,"correct":1,"trial_type":"three-arm-trial","trial_index":57,"time_elapsed":618392,"internal_node_id":"0.0-35.0-0.0","task_version":"screening-mturk","missing":false,"accuracy":1},{"contexts":["red","green","blue"],"outcomes":[0,1,0],"key":38,"choice":1,"rt":723.4099999986356,"outcome":1,"trial":30,"correct":1,"trial_type":"three-arm-trial","trial_index":58,"time_elapsed":620319,"internal_node_id":"0.0-36.0-0.0","task_version":"screening-mturk","missing":false,"accuracy":1},{"contexts":["red","green","blue"],"outcomes":[0,0,1],"key":38,"choice":1,"rt":704.0100000012899,"outcome":0,"trial":31,"correct":2,"trial_type":"three-arm-trial","trial_index":59,"time_elapsed":622226,"internal_node_id":"0.0-37.0-0.0","task_version":"screening-mturk","missing":false,"accuracy":0},{"contexts":["red","green","blue"],"outcomes":[0,0,1],"key":39,"choice":2,"rt":698.0049999984913,"outcome":1,"trial":32,"correct":2,"trial_type":"three-arm-trial","trial_index":60,"time_elapsed":624128,"internal_node_id":"0.0-38.0-0.0","task_version":"screening-mturk","missing":false,"accuracy":1},{"contexts":["red","green","blue"],"outcomes":[0,0,0],"key":39,"choice":2,"rt":680.7150000021793,"outcome":0,"trial":33,"correct":2,"trial_type":"three-arm-trial","trial_index":61,"time_elapsed":626012,"internal_node_id":"0.0-39.0-0.0","task_version":"screening-mturk","missing":false,"accuracy":1},{"contexts":["red","green","blue"],"outcomes":[0,0,0],"key":37,"choice":0,"rt":661.2749999985099,"outcome":0,"trial":34,"correct":2,"trial_type":"three-arm-trial","trial_index":62,"time_elapsed":627878,"internal_node_id":"0.0-40.0-0.0","task_version":"screening-mturk","missing":false,"accuracy":0},{"contexts":["red","green","blue"],"outcomes":[1,1,1],"key":39,"choice":2,"rt":524.7749999980442,"outcome":1,"trial":35,"correct":2,"trial_type":"three-arm-trial","trial_index":63,"time_elapsed":629607,"internal_node_id":"0.0-41.0-0.0","task_version":"screening-mturk","missing":false,"accuracy":1},{"contexts":["red","green","blue"],"outcomes":[1,0,1],"key":39,"choice":2,"rt":659.8549999981187,"outcome":1,"trial":36,"correct":2,"trial_type":"three-arm-trial","trial_index":64,"time_elapsed":631473,"internal_node_id":"0.0-42.0-0.0","task_version":"screening-mturk","missing":false,"accuracy":1},{"contexts":["red","green","blue"],"outcomes":[0,0,1],"key":39,"choice":2,"rt":765.4599999950733,"outcome":1,"trial":37,"correct":2,"trial_type":"three-arm-trial","trial_index":65,"time_elapsed":633442,"internal_node_id":"0.0-43.0-0.0","task_version":"screening-mturk","missing":false,"accuracy":1},{"contexts":["red","green","blue"],"outcomes":[1,0,1],"key":39,"choice":2,"rt":693.5149999989662,"outcome":1,"trial":38,"correct":2,"trial_type":"three-arm-trial","trial_index":66,"time_elapsed":635338,"internal_node_id":"0.0-44.0-0.0","task_version":"screening-mturk","missing":false,"accuracy":1},{"contexts":["red","green","blue"],"outcomes":[0,0,1],"key":39,"choice":2,"rt":755.380000002333,"outcome":1,"trial":39,"correct":2,"trial_type":"three-arm-trial","trial_index":67,"time_elapsed":637296,"internal_node_id":"0.0-45.0-0.0","task_version":"screening-mturk","missing":false,"accuracy":1},{"contexts":["red","green","blue"],"outcomes":[0,0,0],"key":39,"choice":2,"rt":1257.9850000038277,"outcome":0,"trial":40,"correct":2,"trial_type":"three-arm-trial","trial_index":68,"time_elapsed":639757,"internal_node_id":"0.0-46.0-0.0","task_version":"screening-mturk","missing":false,"accuracy":1},{"contexts":["red","green","blue"],"outcomes":[0,0,1],"key":37,"choice":0,"rt":706.2999999979511,"outcome":0,"trial":41,"correct":2,"trial_type":"three-arm-trial","trial_index":69,"time_elapsed":641666,"internal_node_id":"0.0-47.0-0.0","task_version":"screening-mturk","missing":false,"accuracy":0},{"contexts":["red","green","blue"],"outcomes":[0,1,1],"key":37,"choice":0,"rt":677.5699999998324,"outcome":0,"trial":42,"correct":2,"trial_type":"three-arm-trial","trial_index":70,"time_elapsed":643546,"internal_node_id":"0.0-48.0-0.0","task_version":"screening-mturk","missing":false,"accuracy":0},{"contexts":["red","green","blue"],"outcomes":[0,1,1],"key":37,"choice":0,"rt":667.7700000000186,"outcome":0,"trial":43,"correct":2,"trial_type":"three-arm-trial","trial_index":71,"time_elapsed":645418,"internal_node_id":"0.0-49.0-0.0","task_version":"screening-mturk","missing":false,"accuracy":0},{"contexts":["red","green","blue"],"outcomes":[0,0,1],"key":37,"choice":0,"rt":695.2799999997951,"outcome":0,"trial":44,"correct":2,"trial_type":"three-arm-trial","trial_index":72,"time_elapsed":647321,"internal_node_id":"0.0-50.0-0.0","task_version":"screening-mturk","missing":false,"accuracy":0},{"contexts":["red","green","blue"],"outcomes":[0,1,1],"key":38,"choice":1,"rt":621.8099999969127,"outcome":1,"trial":45,"correct":2,"trial_type":"three-arm-trial","trial_index":73,"time_elapsed":649148,"internal_node_id":"0.0-51.0-0.0","task_version":"screening-mturk","missing":false,"accuracy":0},{"contexts":["red","green","blue"],"outcomes":[1,0,0],"key":38,"choice":1,"rt":749.7949999962002,"outcome":0,"trial":46,"correct":0,"trial_type":"three-arm-trial","trial_index":74,"time_elapsed":651104,"internal_node_id":"0.0-52.0-0.0","task_version":"screening-mturk","missing":false,"accuracy":0},{"contexts":["red","green","blue"],"outcomes":[0,0,0],"key":37,"choice":0,"rt":666.9949999996461,"outcome":0,"trial":47,"correct":0,"trial_type":"three-arm-trial","trial_index":75,"time_elapsed":652978,"internal_node_id":"0.0-53.0-0.0","task_version":"screening-mturk","missing":false,"accuracy":1},{"contexts":["red","green","blue"],"outcomes":[1,0,0],"key":38,"choice":1,"rt":494.8149999980815,"outcome":0,"trial":48,"correct":0,"trial_type":"three-arm-trial","trial_index":76,"time_elapsed":654676,"internal_node_id":"0.0-54.0-0.0","task_version":"screening-mturk","missing":false,"accuracy":0},{"contexts":["red","green","blue"],"outcomes":[1,0,0],"key":39,"choice":2,"rt":727.1249999975553,"outcome":0,"trial":49,"correct":0,"trial_type":"three-arm-trial","trial_index":77,"time_elapsed":656608,"internal_node_id":"0.0-55.0-0.0","task_version":"screening-mturk","missing":false,"accuracy":0},{"contexts":["red","green","blue"],"outcomes":[0,0,0],"key":37,"choice":0,"rt":503.2199999986915,"outcome":0,"trial":50,"correct":0,"trial_type":"three-arm-trial","trial_index":78,"time_elapsed":658317,"internal_node_id":"0.0-56.0-0.0","task_version":"screening-mturk","missing":false,"accuracy":1},{"contexts":["red","green","blue"],"outcomes":[1,1,0],"key":38,"choice":1,"rt":512.4799999975367,"outcome":1,"trial":51,"correct":0,"trial_type":"three-arm-trial","trial_index":79,"time_elapsed":660032,"internal_node_id":"0.0-57.0-0.0","task_version":"screening-mturk","missing":false,"accuracy":0},{"contexts":["red","green","blue"],"outcomes":[1,1,0],"key":38,"choice":1,"rt":690.759999997681,"outcome":1,"trial":52,"correct":0,"trial_type":"three-arm-trial","trial_index":80,"time_elapsed":661928,"internal_node_id":"0.0-58.0-0.0","task_version":"screening-mturk","missing":false,"accuracy":0},{"contexts":["red","green","blue"],"outcomes":[1,1,0],"key":38,"choice":1,"rt":916.525000000489,"outcome":1,"trial":53,"correct":0,"trial_type":"three-arm-trial","trial_index":81,"time_elapsed":664048,"internal_node_id":"0.0-59.0-0.0","task_version":"screening-mturk","missing":false,"accuracy":0},{"contexts":["red","green","blue"],"outcomes":[0,1,0],"key":38,"choice":1,"rt":881.0549999980722,"outcome":1,"trial":54,"correct":0,"trial_type":"three-arm-trial","trial_index":82,"time_elapsed":666132,"internal_node_id":"0.0-60.0-0.0","task_version":"screening-mturk","missing":false,"accuracy":0},{"contexts":["red","green","blue"],"outcomes":[1,0,1],"key":38,"choice":1,"rt":761.2700000026962,"outcome":0,"trial":55,"correct":0,"trial_type":"three-arm-trial","trial_index":83,"time_elapsed":668098,"internal_node_id":"0.0-61.0-0.0","task_version":"screening-mturk","missing":false,"accuracy":0},{"contexts":["red","green","blue"],"outcomes":[1,0,0],"key":37,"choice":0,"rt":617.4350000001723,"outcome":1,"trial":56,"correct":0,"trial_type":"three-arm-trial","trial_index":84,"time_elapsed":669920,"internal_node_id":"0.0-62.0-0.0","task_version":"screening-mturk","missing":false,"accuracy":1},{"contexts":["red","green","blue"],"outcomes":[1,1,0],"key":37,"choice":0,"rt":834.3099999983096,"outcome":1,"trial":57,"correct":0,"trial_type":"three-arm-trial","trial_index":85,"time_elapsed":671958,"internal_node_id":"0.0-63.0-0.0","task_version":"screening-mturk","missing":false,"accuracy":1},{"contexts":["red","green","blue"],"outcomes":[1,0,1],"key":37,"choice":0,"rt":1128.7950000041164,"outcome":1,"trial":58,"correct":0,"trial_type":"three-arm-trial","trial_index":86,"time_elapsed":674298,"internal_node_id":"0.0-64.0-0.0","task_version":"screening-mturk","missing":false,"accuracy":1},{"contexts":["red","green","blue"],"outcomes":[1,0,0],"key":37,"choice":0,"rt":975.7100000061328,"outcome":1,"trial":59,"correct":0,"trial_type":"three-arm-trial","trial_index":87,"time_elapsed":676479,"internal_node_id":"0.0-65.0-0.0","task_version":"screening-mturk","missing":false,"accuracy":1},{"contexts":["red","green","blue"],"outcomes":[1,0,0],"key":37,"choice":0,"rt":824.17500000156,"outcome":1,"trial":60,"correct":0,"trial_type":"three-arm-trial","trial_index":88,"time_elapsed":678506,"internal_node_id":"0.0-66.0-0.0","task_version":"screening-mturk","missing":false,"accuracy":1},{"contexts":["red","green","blue"],"outcomes":[0,0,1],"key":37,"choice":0,"rt":968.8400000013644,"outcome":0,"trial":61,"correct":2,"trial_type":"three-arm-trial","trial_index":89,"time_elapsed":680677,"internal_node_id":"0.0-67.0-0.0","task_version":"screening-mturk","missing":false,"accuracy":0},{"contexts":["red","green","blue"],"outcomes":[1,0,1],"key":38,"choice":1,"rt":516.0150000010617,"outcome":0,"trial":62,"correct":2,"trial_type":"three-arm-trial","trial_index":90,"time_elapsed":682397,"internal_node_id":"0.0-68.0-0.0","task_version":"screening-mturk","missing":false,"accuracy":0},{"contexts":["red","green","blue"],"outcomes":[1,0,1],"key":39,"choice":2,"rt":366.2899999980582,"outcome":1,"trial":63,"correct":2,"trial_type":"three-arm-trial","trial_index":91,"time_elapsed":683970,"internal_node_id":"0.0-69.0-0.0","task_version":"screening-mturk","missing":false,"accuracy":1},{"contexts":["red","green","blue"],"outcomes":[0,0,0],"key":39,"choice":2,"rt":674.885000000475,"outcome":0,"trial":64,"correct":2,"trial_type":"three-arm-trial","trial_index":92,"time_elapsed":685850,"internal_node_id":"0.0-70.0-0.0","task_version":"screening-mturk","missing":false,"accuracy":1},{"contexts":["red","green","blue"],"outcomes":[0,0,0],"key":38,"choice":1,"rt":708.774999999092,"outcome":0,"trial":65,"correct":2,"trial_type":"three-arm-trial","trial_index":93,"time_elapsed":687761,"internal_node_id":"0.0-71.0-0.0","task_version":"screening-mturk","missing":false,"accuracy":0},{"contexts":["red","green","blue"],"outcomes":[0,0,1],"key":39,"choice":2,"rt":421.90000000130385,"outcome":1,"trial":66,"correct":2,"trial_type":"three-arm-trial","trial_index":94,"time_elapsed":689390,"internal_node_id":"0.0-72.0-0.0","task_version":"screening-mturk","missing":false,"accuracy":1},{"contexts":["red","green","blue"],"outcomes":[0,0,1],"key":39,"choice":2,"rt":693.3750000025611,"outcome":1,"trial":67,"correct":2,"trial_type":"three-arm-trial","trial_index":95,"time_elapsed":691288,"internal_node_id":"0.0-73.0-0.0","task_version":"screening-mturk","missing":false,"accuracy":1},{"contexts":["red","green","blue"],"outcomes":[0,1,1],"key":39,"choice":2,"rt":855.0449999966659,"outcome":1,"trial":68,"correct":2,"trial_type":"three-arm-trial","trial_index":96,"time_elapsed":693346,"internal_node_id":"0.0-74.0-0.0","task_version":"screening-mturk","missing":false,"accuracy":1},{"contexts":["red","green","blue"],"outcomes":[0,0,1],"key":39,"choice":2,"rt":1014.5449999980628,"outcome":1,"trial":69,"correct":2,"trial_type":"three-arm-trial","trial_index":97,"time_elapsed":695564,"internal_node_id":"0.0-75.0-0.0","task_version":"screening-mturk","missing":false,"accuracy":1},{"contexts":["red","green","blue"],"outcomes":[1,1,1],"key":39,"choice":2,"rt":755.0849999971688,"outcome":1,"trial":70,"correct":2,"trial_type":"three-arm-trial","trial_index":98,"time_elapsed":697522,"internal_node_id":"0.0-76.0-0.0","task_version":"screening-mturk","missing":false,"accuracy":1},{"contexts":["red","green","blue"],"outcomes":[1,0,1],"key":39,"choice":2,"rt":1452.5399999984074,"outcome":1,"trial":71,"correct":2,"trial_type":"three-arm-trial","trial_index":99,"time_elapsed":700179,"internal_node_id":"0.0-77.0-0.0","task_version":"screening-mturk","missing":false,"accuracy":1},{"contexts":["red","green","blue"],"outcomes":[0,1,1],"key":39,"choice":2,"rt":764.7049999940209,"outcome":1,"trial":72,"correct":2,"trial_type":"three-arm-trial","trial_index":100,"time_elapsed":702147,"internal_node_id":"0.0-78.0-0.0","task_version":"screening-mturk","missing":false,"accuracy":1},{"contexts":["red","green","blue"],"outcomes":[0,0,0],"key":39,"choice":2,"rt":771.6349999973318,"outcome":0,"trial":73,"correct":2,"trial_type":"three-arm-trial","trial_index":101,"time_elapsed":704122,"internal_node_id":"0.0-79.0-0.0","task_version":"screening-mturk","missing":false,"accuracy":1},{"contexts":["red","green","blue"],"outcomes":[1,0,1],"key":38,"choice":1,"rt":626.7050000024028,"outcome":0,"trial":74,"correct":2,"trial_type":"three-arm-trial","trial_index":102,"time_elapsed":705952,"internal_node_id":"0.0-80.0-0.0","task_version":"screening-mturk","missing":false,"accuracy":0},{"contexts":["red","green","blue"],"outcomes":[0,0,1],"key":38,"choice":1,"rt":591.1249999990687,"outcome":0,"trial":75,"correct":2,"trial_type":"three-arm-trial","trial_index":103,"time_elapsed":707747,"internal_node_id":"0.0-81.0-0.0","task_version":"screening-mturk","missing":false,"accuracy":0},{"contexts":["red","green","blue"],"outcomes":[1,0,0],"key":37,"choice":0,"rt":616.7950000017881,"outcome":1,"trial":76,"correct":0,"trial_type":"three-arm-trial","trial_index":104,"time_elapsed":709567,"internal_node_id":"0.0-82.0-0.0","task_version":"screening-mturk","missing":false,"accuracy":1},{"contexts":["red","green","blue"],"outcomes":[1,1,0],"key":37,"choice":0,"rt":661.3849999995437,"outcome":1,"trial":77,"correct":0,"trial_type":"three-arm-trial","trial_index":105,"time_elapsed":711432,"internal_node_id":"0.0-83.0-0.0","task_version":"screening-mturk","missing":false,"accuracy":1},{"contexts":["red","green","blue"],"outcomes":[1,0,0],"key":37,"choice":0,"rt":783.5199999972247,"outcome":1,"trial":78,"correct":0,"trial_type":"three-arm-trial","trial_index":106,"time_elapsed":713419,"internal_node_id":"0.0-84.0-0.0","task_version":"screening-mturk","missing":false,"accuracy":1},{"contexts":["red","green","blue"],"outcomes":[1,1,0],"key":37,"choice":0,"rt":753.850000000908,"outcome":1,"trial":79,"correct":0,"trial_type":"three-arm-trial","trial_index":107,"time_elapsed":715376,"internal_node_id":"0.0-85.0-0.0","task_version":"screening-mturk","missing":false,"accuracy":1},{"contexts":["red","green","blue"],"outcomes":[1,0,0],"key":37,"choice":0,"rt":687.2700000022305,"outcome":1,"trial":80,"correct":0,"trial_type":"three-arm-trial","trial_index":108,"time_elapsed":717267,"internal_node_id":"0.0-86.0-0.0","task_version":"screening-mturk","missing":false,"accuracy":1},{"contexts":["red","green","blue"],"outcomes":[1,0,0],"key":37,"choice":0,"rt":666.3550000011455,"outcome":1,"trial":81,"correct":0,"trial_type":"three-arm-trial","trial_index":109,"time_elapsed":719137,"internal_node_id":"0.0-87.0-0.0","task_version":"screening-mturk","missing":false,"accuracy":1},{"contexts":["red","green","blue"],"outcomes":[1,0,0],"key":37,"choice":0,"rt":691.1399999953574,"outcome":1,"trial":82,"correct":0,"trial_type":"three-arm-trial","trial_index":110,"time_elapsed":721032,"internal_node_id":"0.0-88.0-0.0","task_version":"screening-mturk","missing":false,"accuracy":1},{"contexts":["red","green","blue"],"outcomes":[1,0,0],"key":37,"choice":0,"rt":660.7199999997392,"outcome":1,"trial":83,"correct":0,"trial_type":"three-arm-trial","trial_index":111,"time_elapsed":722896,"internal_node_id":"0.0-89.0-0.0","task_version":"screening-mturk","missing":false,"accuracy":1},{"contexts":["red","green","blue"],"outcomes":[0,0,0],"key":37,"choice":0,"rt":687.4250000037719,"outcome":0,"trial":84,"correct":0,"trial_type":"three-arm-trial","trial_index":112,"time_elapsed":724790,"internal_node_id":"0.0-90.0-0.0","task_version":"screening-mturk","missing":false,"accuracy":1},{"contexts":["red","green","blue"],"outcomes":[1,0,0],"key":38,"choice":1,"rt":652.6999999987893,"outcome":0,"trial":85,"correct":0,"trial_type":"three-arm-trial","trial_index":113,"time_elapsed":726648,"internal_node_id":"0.0-91.0-0.0","task_version":"screening-mturk","missing":false,"accuracy":0},{"contexts":["red","green","blue"],"outcomes":[1,0,0],"key":39,"choice":2,"rt":710.1399999955902,"outcome":0,"trial":86,"correct":0,"trial_type":"three-arm-trial","trial_index":114,"time_elapsed":728566,"internal_node_id":"0.0-92.0-0.0","task_version":"screening-mturk","missing":false,"accuracy":0},{"contexts":["red","green","blue"],"outcomes":[1,0,0],"key":38,"choice":1,"rt":557.730000000447,"outcome":0,"trial":87,"correct":0,"trial_type":"three-arm-trial","trial_index":115,"time_elapsed":730327,"internal_node_id":"0.0-93.0-0.0","task_version":"screening-mturk","missing":false,"accuracy":0},{"contexts":["red","green","blue"],"outcomes":[1,0,0],"key":39,"choice":2,"rt":766.1850000005215,"outcome":0,"trial":88,"correct":0,"trial_type":"three-arm-trial","trial_index":116,"time_elapsed":732297,"internal_node_id":"0.0-94.0-0.0","task_version":"screening-mturk","missing":false,"accuracy":0},{"contexts":["red","green","blue"],"outcomes":[1,1,0],"key":37,"choice":0,"rt":696.7949999962002,"outcome":1,"trial":89,"correct":0,"trial_type":"three-arm-trial","trial_index":117,"time_elapsed":734199,"internal_node_id":"0.0-95.0-0.0","task_version":"screening-mturk","missing":false,"accuracy":1},{"contexts":["red","green","blue"],"outcomes":[1,1,0],"key":37,"choice":0,"rt":691.1949999994831,"outcome":1,"trial":90,"correct":0,"trial_type":"three-arm-trial","trial_index":118,"time_elapsed":736093,"internal_node_id":"0.0-96.0-0.0","task_version":"screening-mturk","missing":false,"accuracy":1},{"rt":20210.0849999988,"responses":{"age":"33","gender-categorical":"Female","gender-free-response":"","ethnicity":"Not Hispanic or Latino","race":["White"],"language":"Yes","fluency":"Very well","prolific":"Yes","prolific-this-study":"No"},"survey":"demographics","trial_type":"survey-demo","trial_index":119,"time_elapsed":756311,"internal_node_id":"0.0-97.0","task_version":"screening-mturk","interactions":"[{\"event\":\"blur\",\"trial\":15,\"time\":418481},{\"event\":\"focus\",\"trial\":15,\"time\":432635},{\"event\":\"blur\",\"trial\":18,\"time\":477207},{\"event\":\"focus\",\"trial\":18,\"time\":484333},{\"event\":\"blur\",\"trial\":28,\"time\":549728},{\"event\":\"focus\",\"trial\":28,\"time\":551862}]"}]