[{"responses":{"Q13":"2","Q03":"0","Q05":"3","Q07":"0","Q11":"3","Q04":"3","Q09":"1","Q02":"2","Q10":"3","Q01":"2","Q08":"0","Q06":"2","Q12":"3"},"rt":11513.004999998884,"survey":"bisbas","trial_type":"survey-template","trial_index":0,"time_elapsed":11525,"internal_node_id":"0.0-0.0","task_version":"screening-mturk"},{"responses":{"Q06":"0","Q11":"2","Q04":"0","Q13":"0","Q03":"3","Q07":"1","Q12":"3","Q01":"3","Q05":"2","Q08":"0","Q15":"1","Q02":"2","Q10":"3","Q09":"2","Q14":"3"},"rt":15954.0649999999,"survey":"shaps","trial_type":"survey-template","trial_index":1,"time_elapsed":27484,"internal_node_id":"0.0-1.0","task_version":"screening-mturk"},{"responses":{"Q13":"2","Q11":"3","Q01":"0","Q05":"1","Q10":"2","Q03":"3","Q02":"0","Q15":"2","Q07":"0","Q06":"1","Q09":"3","Q08":"0","Q14":"0","Q12":"0","Q04":"2"},"rt":4133.934999999838,"survey":"7up7down","trial_type":"survey-template","trial_index":2,"time_elapsed":31622,"internal_node_id":"0.0-2.0","task_version":"screening-mturk"},{"responses":{"Q05":"3","Q04":"1","Q03":"1","Q01":"2","Q02":"0","Q08":"2","Q06":"3","Q07":"0"},"rt":12994.370000000345,"survey":"gad7","trial_type":"survey-template","trial_index":3,"time_elapsed":44620,"internal_node_id":"0.0-3.0","task_version":"screening-mturk"},{"responses":{"Q03":"4","Q01":"3","Q02":"3"},"rt":2245.200000001205,"survey":"pswq","trial_type":"survey-template","trial_index":4,"time_elapsed":46867,"internal_node_id":"0.0-4.0","task_version":"screening-mturk"},{"view_history":"[{\"page_index\":0,\"viewing_time\":2186.4299999997456},{\"page_index\":1,\"viewing_time\":7497.059999999692},{\"page_index\":2,\"viewing_time\":2376.9849999989674},{\"page_index\":3,\"viewing_time\":7668.16000000108},{\"page_index\":4,\"viewing_time\":5718.595000000278},{\"page_index\":5,\"viewing_time\":1028.0650000004243},{\"page_index\":6,\"viewing_time\":1967.0899999982794},{\"page_index\":7,\"viewing_time\":3434.4850000015867}]","rt":31877.684999999474,"trial_type":"instructions","trial_index":5,"time_elapsed":78746,"internal_node_id":"0.0-5.0-0.0","task_version":"screening-mturk"},{"responses":["True","True","True","False","False"],"num_errors":2,"rt":20796.49999999856,"trial_type":"three-arm-comprehension","trial_index":6,"time_elapsed":99547,"internal_node_id":"0.0-5.0-1.0","task_version":"screening-mturk"},{"view_history":"[{\"page_index\":0,\"viewing_time\":2945.944999999483},{\"page_index\":1,\"viewing_time\":1237.540000000081},{\"page_index\":2,\"viewing_time\":5988.93500000122},{\"page_index\":3,\"viewing_time\":7005.464999998367},{\"page_index\":4,\"viewing_time\":2257.8250000005937},{\"page_index\":5,\"viewing_time\":471.9600000007631},{\"page_index\":6,\"viewing_time\":740.4649999989488},{\"page_index\":7,\"viewing_time\":698.4800000009272}]","rt":21346.84500000003,"trial_type":"instructions","trial_index":7,"time_elapsed":120898,"internal_node_id":"0.0-5.1-0.1","task_version":"screening-mturk"},{"responses":["True","True","True","True","True"],"num_errors":2,"rt":13268.025000001202,"trial_type":"three-arm-comprehension","trial_index":8,"time_elapsed":134168,"internal_node_id":"0.0-5.1-1.1","task_version":"screening-mturk"},{"view_history":"[{\"page_index\":0,\"viewing_time\":8688.285000000178},{\"page_index\":1,\"viewing_time\":12914.09000000023},{\"page_index\":2,\"viewing_time\":5302.994999999995},{\"page_index\":3,\"viewing_time\":5418.599999999045},{\"page_index\":4,\"viewing_time\":7616.7700000005425},{\"page_index\":5,\"viewing_time\":9248.190000000264},{\"page_index\":6,\"viewing_time\":1750.314999999333},{\"page_index\":7,\"viewing_time\":1451.2899999990477}]","rt":52390.77499999985,"trial_type":"instructions","trial_index":9,"time_elapsed":186561,"internal_node_id":"0.0-5.2-0.2","task_version":"screening-mturk"},{"responses":["True","True","True","False","True"],"num_errors":1,"rt":23081.865000000107,"trial_type":"three-arm-comprehension","trial_index":10,"time_elapsed":209645,"internal_node_id":"0.0-5.2-1.2","task_version":"screening-mturk"},{"view_history":"[{\"page_index\":0,\"viewing_time\":2373.050000000134},{\"page_index\":1,\"viewing_time\":4706.94499999992},{\"page_index\":2,\"viewing_time\":1203.149999999354},{\"page_index\":3,\"viewing_time\":682.5250000001979},{\"page_index\":4,\"viewing_time\":519.3749999998254},{\"page_index\":5,\"viewing_time\":381.93999999930384},{\"page_index\":6,\"viewing_time\":410.94000000157394},{\"page_index\":7,\"viewing_time\":486.4199999992852}]","rt":10764.564999999508,"trial_type":"instructions","trial_index":11,"time_elapsed":220413,"internal_node_id":"0.0-5.3-0.3","task_version":"screening-mturk"},{"responses":["True","True","True","True","True"],"num_errors":2,"rt":5528.580000000162,"trial_type":"three-arm-comprehension","trial_index":12,"time_elapsed":225945,"internal_node_id":"0.0-5.3-1.3","task_version":"screening-mturk"},{"view_history":"[{\"page_index\":0,\"viewing_time\":3140.914999999979},{\"page_index\":1,\"viewing_time\":16612.030000000203},{\"page_index\":2,\"viewing_time\":1132.1700000007986},{\"page_index\":3,\"viewing_time\":710.6899999998859},{\"page_index\":4,\"viewing_time\":618.599999999773},{\"page_index\":5,\"viewing_time\":495.904999999766},{\"page_index\":6,\"viewing_time\":617.7600000009988},{\"page_index\":7,\"viewing_time\":1570.915000000241},{\"page_index\":6,\"viewing_time\":2383.7850000000035},{\"page_index\":5,\"viewing_time\":1278.1049999993993},{\"page_index\":6,\"viewing_time\":374.28000000002794},{\"page_index\":7,\"viewing_time\":1200.334999999497}]","rt":30135.715000000375,"trial_type":"instructions","trial_index":13,"time_elapsed":256082,"internal_node_id":"0.0-5.4-0.4","task_version":"screening-mturk"},{"responses":["True","True","False","False","True"],"num_errors":0,"rt":13394.449999999779,"trial_type":"three-arm-comprehension","trial_index":14,"time_elapsed":269479,"internal_node_id":"0.0-5.4-1.4","task_version":"screening-mturk"},{"view_history":"[{\"page_index\":0,\"viewing_time\":1918.6550000013085}]","rt":1918.8600000016158,"trial_type":"instructions","trial_index":15,"time_elapsed":271400,"internal_node_id":"0.0-6.0","task_version":"screening-mturk"},{"contexts":["red","green","blue"],"outcomes":[0,1,0],"key":38,"choice":1,"rt":2055.4350000002305,"outcome":1,"trial":1,"correct":1,"trial_type":"three-arm-trial","trial_index":16,"time_elapsed":274659,"internal_node_id":"0.0-7.0-0.0","task_version":"screening-mturk","missing":false,"accuracy":1},{"contexts":["red","green","blue"],"outcomes":[1,0,1],"key":37,"choice":0,"rt":1740.1900000004098,"outcome":1,"trial":2,"correct":1,"trial_type":"three-arm-trial","trial_index":17,"time_elapsed":277602,"internal_node_id":"0.0-8.0-0.0","task_version":"screening-mturk","missing":false,"accuracy":0},{"contexts":["red","green","blue"],"outcomes":[0,1,0],"key":38,"choice":1,"rt":380.4749999999185,"outcome":1,"trial":3,"correct":1,"trial_type":"three-arm-trial","trial_index":18,"time_elapsed":279186,"internal_node_id":"0.0-9.0-0.0","task_version":"screening-mturk","missing":false,"accuracy":1},{"contexts":["red","green","blue"],"outcomes":[0,0,0],"key":38,"choice":1,"rt":434.0949999986915,"outcome":0,"trial":4,"correct":1,"trial_type":"three-arm-trial","trial_index":19,"time_elapsed":280824,"internal_node_id":"0.0-10.0-0.0","task_version":"screening-mturk","missing":false,"accuracy":1},{"contexts":["red","green","blue"],"outcomes":[0,1,0],"key":39,"choice":2,"rt":363.8799999989569,"outcome":0,"trial":5,"correct":1,"trial_type":"three-arm-trial","trial_index":20,"time_elapsed":282390,"internal_node_id":"0.0-11.0-0.0","task_version":"screening-mturk","missing":false,"accuracy":0},{"contexts":["red","green","blue"],"outcomes":[0,1,0],"key":38,"choice":1,"rt":567.2599999997765,"outcome":1,"trial":6,"correct":1,"trial_type":"three-arm-trial","trial_index":21,"time_elapsed":284160,"internal_node_id":"0.0-12.0-0.0","task_version":"screening-mturk","missing":false,"accuracy":1},{"contexts":["red","green","blue"],"outcomes":[0,1,0],"key":37,"choice":0,"rt":387.3599999988219,"outcome":0,"trial":7,"correct":1,"trial_type":"three-arm-trial","trial_index":22,"time_elapsed":285750,"internal_node_id":"0.0-13.0-0.0","task_version":"screening-mturk","missing":false,"accuracy":0},{"contexts":["red","green","blue"],"outcomes":[1,1,0],"key":38,"choice":1,"rt":177.13000000006286,"outcome":1,"trial":8,"correct":1,"trial_type":"three-arm-trial","trial_index":23,"time_elapsed":287131,"internal_node_id":"0.0-14.0-0.0","task_version":"screening-mturk","missing":false,"accuracy":1},{"contexts":["red","green","blue"],"outcomes":[0,0,1],"key":38,"choice":1,"rt":267.36499999969965,"outcome":0,"trial":9,"correct":1,"trial_type":"three-arm-trial","trial_index":24,"time_elapsed":288601,"internal_node_id":"0.0-15.0-0.0","task_version":"screening-mturk","missing":false,"accuracy":1},{"contexts":["red","green","blue"],"outcomes":[0,0,0],"key":38,"choice":1,"rt":270.1699999998091,"outcome":0,"trial":10,"correct":1,"trial_type":"three-arm-trial","trial_index":25,"time_elapsed":290074,"internal_node_id":"0.0-16.0-0.0","task_version":"screening-mturk","missing":false,"accuracy":1},{"contexts":["red","green","blue"],"outcomes":[1,1,0],"key":38,"choice":1,"rt":266.364999999525,"outcome":1,"trial":11,"correct":1,"trial_type":"three-arm-trial","trial_index":26,"time_elapsed":291543,"internal_node_id":"0.0-17.0-0.0","task_version":"screening-mturk","missing":false,"accuracy":1},{"contexts":["red","green","blue"],"outcomes":[0,1,0],"key":38,"choice":1,"rt":220.61000000027707,"outcome":1,"trial":12,"correct":1,"trial_type":"three-arm-trial","trial_index":27,"time_elapsed":292967,"internal_node_id":"0.0-18.0-0.0","task_version":"screening-mturk","missing":false,"accuracy":1},{"contexts":["red","green","blue"],"outcomes":[0,1,0],"key":38,"choice":1,"rt":225.23499999986961,"outcome":1,"trial":13,"correct":1,"trial_type":"three-arm-trial","trial_index":28,"time_elapsed":294395,"internal_node_id":"0.0-19.0-0.0","task_version":"screening-mturk","missing":false,"accuracy":1},{"contexts":["red","green","blue"],"outcomes":[0,0,1],"key":38,"choice":1,"rt":98.24999999906868,"outcome":0,"trial":14,"correct":1,"trial_type":"three-arm-trial","trial_index":29,"time_elapsed":295697,"internal_node_id":"0.0-20.0-0.0","task_version":"screening-mturk","missing":false,"accuracy":1},{"contexts":["red","green","blue"],"outcomes":[0,1,0],"key":39,"choice":2,"rt":12.060000000987202,"outcome":0,"trial":15,"correct":1,"trial_type":"three-arm-trial","trial_index":30,"time_elapsed":296913,"internal_node_id":"0.0-21.0-0.0","task_version":"screening-mturk","missing":false,"accuracy":0},{"contexts":["red","green","blue"],"outcomes":[1,0,0],"key":37,"choice":0,"rt":273.9599999986822,"outcome":1,"trial":16,"correct":0,"trial_type":"three-arm-trial","trial_index":31,"time_elapsed":298390,"internal_node_id":"0.0-22.0-0.0","task_version":"screening-mturk","missing":false,"accuracy":1},{"contexts":["red","green","blue"],"outcomes":[1,0,0],"key":37,"choice":0,"rt":52.06999999971595,"outcome":1,"trial":17,"correct":0,"trial_type":"three-arm-trial","trial_index":32,"time_elapsed":299644,"internal_node_id":"0.0-23.0-0.0","task_version":"screening-mturk","missing":false,"accuracy":1},{"contexts":["red","green","blue"],"outcomes":[1,1,0],"key":37,"choice":0,"rt":256.0300000004936,"outcome":1,"trial":18,"correct":0,"trial_type":"three-arm-trial","trial_index":33,"time_elapsed":301104,"internal_node_id":"0.0-24.0-0.0","task_version":"screening-mturk","missing":false,"accuracy":1},{"contexts":["red","green","blue"],"outcomes":[0,0,0],"key":38,"choice":1,"rt":426.6349999998347,"outcome":0,"trial":19,"correct":0,"trial_type":"three-arm-trial","trial_index":34,"time_elapsed":302732,"internal_node_id":"0.0-25.0-0.0","task_version":"screening-mturk","missing":false,"accuracy":0},{"contexts":["red","green","blue"],"outcomes":[0,0,1],"key":37,"choice":0,"rt":169.75000000093132,"outcome":0,"trial":20,"correct":0,"trial_type":"three-arm-trial","trial_index":35,"time_elapsed":304106,"internal_node_id":"0.0-26.0-0.0","task_version":"screening-mturk","missing":false,"accuracy":1},{"contexts":["red","green","blue"],"outcomes":[1,0,0],"key":37,"choice":0,"rt":56.06000000081258,"outcome":1,"trial":21,"correct":0,"trial_type":"three-arm-trial","trial_index":36,"time_elapsed":305364,"internal_node_id":"0.0-27.0-0.0","task_version":"screening-mturk","missing":false,"accuracy":1},{"contexts":["red","green","blue"],"outcomes":[0,0,1],"key":37,"choice":0,"rt":54.03500000102213,"outcome":0,"trial":22,"correct":0,"trial_type":"three-arm-trial","trial_index":37,"time_elapsed":306621,"internal_node_id":"0.0-28.0-0.0","task_version":"screening-mturk","missing":false,"accuracy":1},{"contexts":["red","green","blue"],"outcomes":[1,0,0],"key":38,"choice":1,"rt":287.34999999869615,"outcome":0,"trial":23,"correct":0,"trial_type":"three-arm-trial","trial_index":38,"time_elapsed":308112,"internal_node_id":"0.0-29.0-0.0","task_version":"screening-mturk","missing":false,"accuracy":0},{"contexts":["red","green","blue"],"outcomes":[1,0,0],"key":37,"choice":0,"rt":661.2999999996973,"outcome":1,"trial":24,"correct":0,"trial_type":"three-arm-trial","trial_index":39,"time_elapsed":309976,"internal_node_id":"0.0-30.0-0.0","task_version":"screening-mturk","missing":false,"accuracy":1},{"contexts":["red","green","blue"],"outcomes":[1,1,0],"key":39,"choice":2,"rt":413.7799999989802,"outcome":0,"trial":25,"correct":0,"trial_type":"three-arm-trial","trial_index":40,"time_elapsed":311594,"internal_node_id":"0.0-31.0-0.0","task_version":"screening-mturk","missing":false,"accuracy":0},{"contexts":["red","green","blue"],"outcomes":[1,0,0],"key":37,"choice":0,"rt":319.6149999985355,"outcome":1,"trial":26,"correct":0,"trial_type":"three-arm-trial","trial_index":41,"time_elapsed":313116,"internal_node_id":"0.0-32.0-0.0","task_version":"screening-mturk","missing":false,"accuracy":1},{"contexts":["red","green","blue"],"outcomes":[0,0,0],"key":38,"choice":1,"rt":403.1500000000815,"outcome":0,"trial":27,"correct":0,"trial_type":"three-arm-trial","trial_index":42,"time_elapsed":314721,"internal_node_id":"0.0-33.0-0.0","task_version":"screening-mturk","missing":false,"accuracy":0},{"contexts":["red","green","blue"],"outcomes":[1,0,0],"key":37,"choice":0,"rt":72.19999999867287,"outcome":1,"trial":28,"correct":0,"trial_type":"three-arm-trial","trial_index":43,"time_elapsed":315997,"internal_node_id":"0.0-34.0-0.0","task_version":"screening-mturk","missing":false,"accuracy":1},{"contexts":["red","green","blue"],"outcomes":[0,0,0],"key":37,"choice":0,"rt":455.3050000012736,"outcome":0,"trial":29,"correct":0,"trial_type":"three-arm-trial","trial_index":44,"time_elapsed":317655,"internal_node_id":"0.0-35.0-0.0","task_version":"screening-mturk","missing":false,"accuracy":1},{"contexts":["red","green","blue"],"outcomes":[1,0,1],"key":38,"choice":1,"rt":379.58500000060303,"outcome":0,"trial":30,"correct":0,"trial_type":"three-arm-trial","trial_index":45,"time_elapsed":319238,"internal_node_id":"0.0-36.0-0.0","task_version":"screening-mturk","missing":false,"accuracy":0},{"contexts":["red","green","blue"],"outcomes":[0,1,0],"key":39,"choice":2,"rt":523.7149999993853,"outcome":0,"trial":31,"correct":1,"trial_type":"three-arm-trial","trial_index":46,"time_elapsed":320966,"internal_node_id":"0.0-37.0-0.0","task_version":"screening-mturk","missing":false,"accuracy":0},{"contexts":["red","green","blue"],"outcomes":[1,0,0],"key":38,"choice":1,"rt":1108.0849999998463,"outcome":0,"trial":32,"correct":1,"trial_type":"three-arm-trial","trial_index":47,"time_elapsed":323277,"internal_node_id":"0.0-38.0-0.0","task_version":"screening-mturk","missing":false,"accuracy":1},{"contexts":["red","green","blue"],"outcomes":[1,1,0],"key":37,"choice":0,"rt":675.9899999996996,"outcome":1,"trial":33,"correct":1,"trial_type":"three-arm-trial","trial_index":48,"time_elapsed":325155,"internal_node_id":"0.0-39.0-0.0","task_version":"screening-mturk","missing":false,"accuracy":0},{"contexts":["red","green","blue"],"outcomes":[1,1,0],"key":37,"choice":0,"rt":3149.1800000003423,"outcome":1,"trial":34,"correct":1,"trial_type":"three-arm-trial","trial_index":49,"time_elapsed":329507,"internal_node_id":"0.0-40.0-0.0","task_version":"screening-mturk","missing":false,"accuracy":0},{"contexts":["red","green","blue"],"outcomes":[0,1,0],"key":37,"choice":0,"rt":949.8949999997858,"outcome":0,"trial":35,"correct":1,"trial_type":"three-arm-trial","trial_index":50,"time_elapsed":331660,"internal_node_id":"0.0-41.0-0.0","task_version":"screening-mturk","missing":false,"accuracy":0},{"contexts":["red","green","blue"],"outcomes":[0,0,0],"key":38,"choice":1,"rt":500.45500000123866,"outcome":0,"trial":36,"correct":1,"trial_type":"three-arm-trial","trial_index":51,"time_elapsed":333363,"internal_node_id":"0.0-42.0-0.0","task_version":"screening-mturk","missing":false,"accuracy":1},{"contexts":["red","green","blue"],"outcomes":[0,0,0],"key":38,"choice":1,"rt":1426.1450000012992,"outcome":0,"trial":37,"correct":1,"trial_type":"three-arm-trial","trial_index":52,"time_elapsed":335991,"internal_node_id":"0.0-43.0-0.0","task_version":"screening-mturk","missing":false,"accuracy":1},{"contexts":["red","green","blue"],"outcomes":[0,1,0],"key":37,"choice":0,"rt":755.514999998908,"outcome":0,"trial":38,"correct":1,"trial_type":"three-arm-trial","trial_index":53,"time_elapsed":337951,"internal_node_id":"0.0-44.0-0.0","task_version":"screening-mturk","missing":false,"accuracy":0},{"contexts":["red","green","blue"],"outcomes":[0,0,0],"key":39,"choice":2,"rt":128.9550000001327,"outcome":0,"trial":39,"correct":1,"trial_type":"three-arm-trial","trial_index":54,"time_elapsed":339284,"internal_node_id":"0.0-45.0-0.0","task_version":"screening-mturk","missing":false,"accuracy":0},{"contexts":["red","green","blue"],"outcomes":[0,1,0],"key":38,"choice":1,"rt":822.9800000008545,"outcome":1,"trial":40,"correct":1,"trial_type":"three-arm-trial","trial_index":55,"time_elapsed":341310,"internal_node_id":"0.0-46.0-0.0","task_version":"screening-mturk","missing":false,"accuracy":1},{"contexts":["red","green","blue"],"outcomes":[0,1,0],"key":38,"choice":1,"rt":5990.230000001262,"outcome":1,"trial":41,"correct":1,"trial_type":"three-arm-trial","trial_index":56,"time_elapsed":348503,"internal_node_id":"0.0-47.0-0.0","task_version":"screening-mturk","missing":false,"accuracy":1},{"contexts":["red","green","blue"],"outcomes":[0,0,0],"key":38,"choice":1,"rt":916.3399999997346,"outcome":0,"trial":42,"correct":1,"trial_type":"three-arm-trial","trial_index":57,"time_elapsed":350624,"internal_node_id":"0.0-48.0-0.0","task_version":"screening-mturk","missing":false,"accuracy":1},{"contexts":["red","green","blue"],"outcomes":[0,0,0],"key":39,"choice":2,"rt":2157.8549999994575,"outcome":0,"trial":43,"correct":1,"trial_type":"three-arm-trial","trial_index":58,"time_elapsed":353985,"internal_node_id":"0.0-49.0-0.0","task_version":"screening-mturk","missing":false,"accuracy":0},{"contexts":["red","green","blue"],"outcomes":[0,1,1],"key":null,"rt":null,"trial":44,"correct":1,"trial_type":"three-arm-trial","trial_index":59,"time_elapsed":368989,"internal_node_id":"0.0-50.0-0.0","task_version":"screening-mturk","missing":true},{"contexts":["red","green","blue"],"outcomes":[0,1,1],"key":37,"choice":0,"rt":9037.290000000212,"outcome":0,"trial":44,"correct":1,"trial_type":"three-arm-trial","trial_index":60,"time_elapsed":379228,"internal_node_id":"0.0-50.1-0.1","task_version":"screening-mturk","missing":false,"accuracy":0},{"contexts":["red","green","blue"],"outcomes":[0,0,0],"key":38,"choice":1,"rt":947.1899999989546,"outcome":0,"trial":45,"correct":1,"trial_type":"three-arm-trial","trial_index":61,"time_elapsed":381377,"internal_node_id":"0.0-51.0-0.0","task_version":"screening-mturk","missing":false,"accuracy":1},{"contexts":["red","green","blue"],"outcomes":[0,1,1],"key":37,"choice":0,"rt":2903.940000000177,"outcome":0,"trial":46,"correct":2,"trial_type":"three-arm-trial","trial_index":62,"time_elapsed":385484,"internal_node_id":"0.0-52.0-0.0","task_version":"screening-mturk","missing":false,"accuracy":0},{"contexts":["red","green","blue"],"outcomes":[0,0,1],"key":39,"choice":2,"rt":2822.9850000006845,"outcome":1,"trial":47,"correct":2,"trial_type":"three-arm-trial","trial_index":63,"time_elapsed":389510,"internal_node_id":"0.0-53.0-0.0","task_version":"screening-mturk","missing":false,"accuracy":1},{"contexts":["red","green","blue"],"outcomes":[1,1,1],"key":39,"choice":2,"rt":3898.149999999092,"outcome":1,"trial":48,"correct":2,"trial_type":"three-arm-trial","trial_index":64,"time_elapsed":394610,"internal_node_id":"0.0-54.0-0.0","task_version":"screening-mturk","missing":false,"accuracy":1},{"contexts":["red","green","blue"],"outcomes":[0,0,1],"key":38,"choice":1,"rt":1293.3150000008172,"outcome":0,"trial":49,"correct":2,"trial_type":"three-arm-trial","trial_index":65,"time_elapsed":397106,"internal_node_id":"0.0-55.0-0.0","task_version":"screening-mturk","missing":false,"accuracy":0},{"contexts":["red","green","blue"],"outcomes":[0,0,1],"key":37,"choice":0,"rt":927.4450000012293,"outcome":0,"trial":50,"correct":2,"trial_type":"three-arm-trial","trial_index":66,"time_elapsed":399237,"internal_node_id":"0.0-56.0-0.0","task_version":"screening-mturk","missing":false,"accuracy":0},{"contexts":["red","green","blue"],"outcomes":[0,1,0],"key":38,"choice":1,"rt":8324.345000000903,"outcome":1,"trial":51,"correct":2,"trial_type":"three-arm-trial","trial_index":67,"time_elapsed":408763,"internal_node_id":"0.0-57.0-0.0","task_version":"screening-mturk","missing":false,"accuracy":0},{"contexts":["red","green","blue"],"outcomes":[0,1,1],"key":38,"choice":1,"rt":3478.8850000004168,"outcome":1,"trial":52,"correct":2,"trial_type":"three-arm-trial","trial_index":68,"time_elapsed":413446,"internal_node_id":"0.0-58.0-0.0","task_version":"screening-mturk","missing":false,"accuracy":0},{"contexts":["red","green","blue"],"outcomes":[1,0,1],"key":38,"choice":1,"rt":2688.2450000012177,"outcome":0,"trial":53,"correct":2,"trial_type":"three-arm-trial","trial_index":69,"time_elapsed":417337,"internal_node_id":"0.0-59.0-0.0","task_version":"screening-mturk","missing":false,"accuracy":0},{"contexts":["red","green","blue"],"outcomes":[0,0,1],"key":37,"choice":0,"rt":242.8500000005588,"outcome":0,"trial":54,"correct":2,"trial_type":"three-arm-trial","trial_index":70,"time_elapsed":418784,"internal_node_id":"0.0-60.0-0.0","task_version":"screening-mturk","missing":false,"accuracy":0},{"contexts":["red","green","blue"],"outcomes":[0,0,1],"key":38,"choice":1,"rt":4995.520000000368,"outcome":0,"trial":55,"correct":2,"trial_type":"three-arm-trial","trial_index":71,"time_elapsed":424983,"internal_node_id":"0.0-61.0-0.0","task_version":"screening-mturk","missing":false,"accuracy":0},{"contexts":["red","green","blue"],"outcomes":[0,0,1],"key":38,"choice":1,"rt":6577.2100000013015,"outcome":0,"trial":56,"correct":2,"trial_type":"three-arm-trial","trial_index":72,"time_elapsed":432762,"internal_node_id":"0.0-62.0-0.0","task_version":"screening-mturk","missing":false,"accuracy":0},{"contexts":["red","green","blue"],"outcomes":[0,0,1],"key":null,"rt":null,"trial":57,"correct":2,"trial_type":"three-arm-trial","trial_index":73,"time_elapsed":447767,"internal_node_id":"0.0-63.0-0.0","task_version":"screening-mturk","missing":true},{"contexts":["red","green","blue"],"outcomes":[0,0,1],"key":38,"choice":1,"rt":627.5549999991199,"outcome":0,"trial":57,"correct":2,"trial_type":"three-arm-trial","trial_index":74,"time_elapsed":449596,"internal_node_id":"0.0-63.1-0.1","task_version":"screening-mturk","missing":false,"accuracy":0},{"contexts":["red","green","blue"],"outcomes":[0,0,1],"key":37,"choice":0,"rt":8.934999999823049,"outcome":0,"trial":58,"correct":2,"trial_type":"three-arm-trial","trial_index":75,"time_elapsed":450808,"internal_node_id":"0.0-64.0-0.0","task_version":"screening-mturk","missing":false,"accuracy":0},{"contexts":["red","green","blue"],"outcomes":[0,0,0],"key":39,"choice":2,"rt":293.7149999997346,"outcome":0,"trial":59,"correct":2,"trial_type":"three-arm-trial","trial_index":76,"time_elapsed":452304,"internal_node_id":"0.0-65.0-0.0","task_version":"screening-mturk","missing":false,"accuracy":1},{"contexts":["red","green","blue"],"outcomes":[1,1,1],"key":39,"choice":2,"rt":143.1300000003539,"outcome":1,"trial":60,"correct":2,"trial_type":"three-arm-trial","trial_index":77,"time_elapsed":453649,"internal_node_id":"0.0-66.0-0.0","task_version":"screening-mturk","missing":false,"accuracy":1},{"contexts":["red","green","blue"],"outcomes":[1,0,0],"key":39,"choice":2,"rt":576.3499999993364,"outcome":0,"trial":61,"correct":0,"trial_type":"three-arm-trial","trial_index":78,"time_elapsed":455428,"internal_node_id":"0.0-67.0-0.0","task_version":"screening-mturk","missing":false,"accuracy":0},{"contexts":["red","green","blue"],"outcomes":[1,1,0],"key":38,"choice":1,"rt":415.935000000929,"outcome":1,"trial":62,"correct":0,"trial_type":"three-arm-trial","trial_index":79,"time_elapsed":457047,"internal_node_id":"0.0-68.0-0.0","task_version":"screening-mturk","missing":false,"accuracy":0},{"contexts":["red","green","blue"],"outcomes":[1,0,0],"key":38,"choice":1,"rt":1421.2150000002584,"outcome":0,"trial":63,"correct":0,"trial_type":"three-arm-trial","trial_index":80,"time_elapsed":459672,"internal_node_id":"0.0-69.0-0.0","task_version":"screening-mturk","missing":false,"accuracy":0},{"contexts":["red","green","blue"],"outcomes":[1,0,1],"key":38,"choice":1,"rt":5623.575000001409,"outcome":0,"trial":64,"correct":0,"trial_type":"three-arm-trial","trial_index":81,"time_elapsed":466500,"internal_node_id":"0.0-70.0-0.0","task_version":"screening-mturk","missing":false,"accuracy":0},{"contexts":["red","green","blue"],"outcomes":[1,0,0],"key":37,"choice":0,"rt":141.0899999991525,"outcome":1,"trial":65,"correct":0,"trial_type":"three-arm-trial","trial_index":82,"time_elapsed":467843,"internal_node_id":"0.0-71.0-0.0","task_version":"screening-mturk","missing":false,"accuracy":1},{"contexts":["red","green","blue"],"outcomes":[1,0,0],"key":37,"choice":0,"rt":549.2850000009639,"outcome":1,"trial":66,"correct":0,"trial_type":"three-arm-trial","trial_index":83,"time_elapsed":469595,"internal_node_id":"0.0-72.0-0.0","task_version":"screening-mturk","missing":false,"accuracy":1},{"contexts":["red","green","blue"],"outcomes":[1,0,0],"key":37,"choice":0,"rt":1897.06500000105,"outcome":1,"trial":67,"correct":0,"trial_type":"three-arm-trial","trial_index":84,"time_elapsed":472696,"internal_node_id":"0.0-73.0-0.0","task_version":"screening-mturk","missing":false,"accuracy":1},{"contexts":["red","green","blue"],"outcomes":[1,0,0],"key":39,"choice":2,"rt":5376.1500000000815,"outcome":0,"trial":68,"correct":0,"trial_type":"three-arm-trial","trial_index":85,"time_elapsed":479275,"internal_node_id":"0.0-74.0-0.0","task_version":"screening-mturk","missing":false,"accuracy":0},{"contexts":["red","green","blue"],"outcomes":[1,1,1],"key":37,"choice":0,"rt":1091.2850000003818,"outcome":1,"trial":69,"correct":0,"trial_type":"three-arm-trial","trial_index":86,"time_elapsed":481570,"internal_node_id":"0.0-75.0-0.0","task_version":"screening-mturk","missing":false,"accuracy":1},{"contexts":["red","green","blue"],"outcomes":[1,0,0],"key":38,"choice":1,"rt":723.5650000002352,"outcome":0,"trial":70,"correct":0,"trial_type":"three-arm-trial","trial_index":87,"time_elapsed":483497,"internal_node_id":"0.0-76.0-0.0","task_version":"screening-mturk","missing":false,"accuracy":0},{"contexts":["red","green","blue"],"outcomes":[0,0,1],"key":37,"choice":0,"rt":68.00000000110595,"outcome":0,"trial":71,"correct":0,"trial_type":"three-arm-trial","trial_index":88,"time_elapsed":484773,"internal_node_id":"0.0-77.0-0.0","task_version":"screening-mturk","missing":false,"accuracy":1},{"contexts":["red","green","blue"],"outcomes":[1,0,0],"key":38,"choice":1,"rt":2484.624999999185,"outcome":0,"trial":72,"correct":0,"trial_type":"three-arm-trial","trial_index":89,"time_elapsed":488463,"internal_node_id":"0.0-78.0-0.0","task_version":"screening-mturk","missing":false,"accuracy":0},{"contexts":["red","green","blue"],"outcomes":[1,1,0],"key":37,"choice":0,"rt":284.99499999999534,"outcome":1,"trial":73,"correct":0,"trial_type":"three-arm-trial","trial_index":90,"time_elapsed":489952,"internal_node_id":"0.0-79.0-0.0","task_version":"screening-mturk","missing":false,"accuracy":1},{"contexts":["red","green","blue"],"outcomes":[1,1,0],"key":37,"choice":0,"rt":2148.7350000006845,"outcome":1,"trial":74,"correct":0,"trial_type":"three-arm-trial","trial_index":91,"time_elapsed":493304,"internal_node_id":"0.0-80.0-0.0","task_version":"screening-mturk","missing":false,"accuracy":1},{"contexts":["red","green","blue"],"outcomes":[1,0,1],"key":37,"choice":0,"rt":348.4499999994878,"outcome":1,"trial":75,"correct":0,"trial_type":"three-arm-trial","trial_index":92,"time_elapsed":494856,"internal_node_id":"0.0-81.0-0.0","task_version":"screening-mturk","missing":false,"accuracy":1},{"contexts":["red","green","blue"],"outcomes":[1,1,0],"key":37,"choice":0,"rt":241.13500000018394,"outcome":1,"trial":76,"correct":1,"trial_type":"three-arm-trial","trial_index":93,"time_elapsed":496300,"internal_node_id":"0.0-82.0-0.0","task_version":"screening-mturk","missing":false,"accuracy":0},{"contexts":["red","green","blue"],"outcomes":[0,0,0],"key":37,"choice":0,"rt":190.7399999999907,"outcome":0,"trial":77,"correct":1,"trial_type":"three-arm-trial","trial_index":94,"time_elapsed":497695,"internal_node_id":"0.0-83.0-0.0","task_version":"screening-mturk","missing":false,"accuracy":0},{"contexts":["red","green","blue"],"outcomes":[0,1,0],"key":37,"choice":0,"rt":1792.6849999985425,"outcome":0,"trial":78,"correct":1,"trial_type":"three-arm-trial","trial_index":95,"time_elapsed":500693,"internal_node_id":"0.0-84.0-0.0","task_version":"screening-mturk","missing":false,"accuracy":0},{"contexts":["red","green","blue"],"outcomes":[0,1,1],"key":38,"choice":1,"rt":106.92999999993481,"outcome":1,"trial":79,"correct":1,"trial_type":"three-arm-trial","trial_index":96,"time_elapsed":502004,"internal_node_id":"0.0-85.0-0.0","task_version":"screening-mturk","missing":false,"accuracy":1},{"contexts":["red","green","blue"],"outcomes":[0,1,0],"key":38,"choice":1,"rt":592.994999999064,"outcome":1,"trial":80,"correct":1,"trial_type":"three-arm-trial","trial_index":97,"time_elapsed":503800,"internal_node_id":"0.0-86.0-0.0","task_version":"screening-mturk","missing":false,"accuracy":1},{"contexts":["red","green","blue"],"outcomes":[1,1,1],"key":38,"choice":1,"rt":2124.880000001227,"outcome":1,"trial":81,"correct":1,"trial_type":"three-arm-trial","trial_index":98,"time_elapsed":507129,"internal_node_id":"0.0-87.0-0.0","task_version":"screening-mturk","missing":false,"accuracy":1},{"contexts":["red","green","blue"],"outcomes":[0,1,1],"key":38,"choice":1,"rt":855.4000000003725,"outcome":1,"trial":82,"correct":1,"trial_type":"three-arm-trial","trial_index":99,"time_elapsed":509188,"internal_node_id":"0.0-88.0-0.0","task_version":"screening-mturk","missing":false,"accuracy":1},{"contexts":["red","green","blue"],"outcomes":[1,1,1],"key":38,"choice":1,"rt":1672.7149999988033,"outcome":1,"trial":83,"correct":1,"trial_type":"three-arm-trial","trial_index":100,"time_elapsed":512064,"internal_node_id":"0.0-89.0-0.0","task_version":"screening-mturk","missing":false,"accuracy":1},{"contexts":["red","green","blue"],"outcomes":[0,1,0],"key":38,"choice":1,"rt":542.609999998589,"outcome":1,"trial":84,"correct":1,"trial_type":"three-arm-trial","trial_index":101,"time_elapsed":513810,"internal_node_id":"0.0-90.0-0.0","task_version":"screening-mturk","missing":false,"accuracy":1},{"contexts":["red","green","blue"],"outcomes":[0,1,0],"key":38,"choice":1,"rt":1438.9499999997206,"outcome":1,"trial":85,"correct":1,"trial_type":"three-arm-trial","trial_index":102,"time_elapsed":516453,"internal_node_id":"0.0-91.0-0.0","task_version":"screening-mturk","missing":false,"accuracy":1},{"contexts":["red","green","blue"],"outcomes":[0,1,0],"key":38,"choice":1,"rt":2153.229999999865,"outcome":1,"trial":86,"correct":1,"trial_type":"three-arm-trial","trial_index":103,"time_elapsed":519810,"internal_node_id":"0.0-92.0-0.0","task_version":"screening-mturk","missing":false,"accuracy":1},{"contexts":["red","green","blue"],"outcomes":[0,0,0],"key":38,"choice":1,"rt":1538.5549999992363,"outcome":0,"trial":87,"correct":1,"trial_type":"three-arm-trial","trial_index":104,"time_elapsed":522554,"internal_node_id":"0.0-93.0-0.0","task_version":"screening-mturk","missing":false,"accuracy":1},{"contexts":["red","green","blue"],"outcomes":[0,0,0],"key":38,"choice":1,"rt":2322.7249999999767,"outcome":0,"trial":88,"correct":1,"trial_type":"three-arm-trial","trial_index":105,"time_elapsed":526081,"internal_node_id":"0.0-94.0-0.0","task_version":"screening-mturk","missing":false,"accuracy":1},{"contexts":["red","green","blue"],"outcomes":[1,1,0],"key":38,"choice":1,"rt":924.1299999994226,"outcome":1,"trial":89,"correct":1,"trial_type":"three-arm-trial","trial_index":106,"time_elapsed":528208,"internal_node_id":"0.0-95.0-0.0","task_version":"screening-mturk","missing":false,"accuracy":1},{"contexts":["red","green","blue"],"outcomes":[0,1,0],"key":38,"choice":1,"rt":1771.2250000004424,"outcome":1,"trial":90,"correct":1,"trial_type":"three-arm-trial","trial_index":107,"time_elapsed":531183,"internal_node_id":"0.0-96.0-0.0","task_version":"screening-mturk","missing":false,"accuracy":1},{"rt":54056.04000000132,"responses":{"age":"40","gender-categorical":"Male","gender-free-response":"","ethnicity":"Hispanic or Latino","race":["White"],"language":"Yes","fluency":"Very well","prolific":"Yes","prolific-this-study":"No"},"survey":"demographics","trial_type":"survey-demo","trial_index":108,"time_elapsed":585248,"internal_node_id":"0.0-97.0","task_version":"screening-mturk","interactions":"[{\"event\":\"blur\",\"trial\":3,\"time\":39547},{\"event\":\"focus\",\"trial\":3,\"time\":41561},{\"event\":\"blur\",\"trial\":13,\"time\":233688},{\"event\":\"focus\",\"trial\":13,\"time\":239279},{\"event\":\"blur\",\"trial\":13,\"time\":239279},{\"event\":\"focus\",\"trial\":13,\"time\":243402},{\"event\":\"blur\",\"trial\":85,\"time\":473733},{\"event\":\"focus\",\"trial\":85,\"time\":477627}]"}]