[{"responses":{"Q06":"2","Q10":"3","Q13":"2","Q04":"3","Q03":"3","Q09":"2","Q01":"3","Q08":"2","Q05":"3","Q11":"2","Q12":"2","Q02":"3","Q07":"2"},"rt":56325.5600000266,"survey":"bisbas","trial_type":"survey-template","trial_index":0,"time_elapsed":56338,"internal_node_id":"0.0-0.0","task_version":"screening-mturk"},{"responses":{"Q03":"4","Q02":"3","Q01":"4"},"rt":9983.319999882951,"survey":"pswq","trial_type":"survey-template","trial_index":1,"time_elapsed":66326,"internal_node_id":"0.0-1.0","task_version":"screening-mturk"},{"responses":{"Q08":"3","Q14":"2","Q05":"2","Q13":"3","Q10":"3","Q04":"2","Q02":"3","Q07":"2","Q12":"3","Q03":"2","Q11":"3","Q01":"3","Q15":"2","Q06":"3","Q09":"2"},"rt":36798.47000003792,"survey":"shaps","trial_type":"survey-template","trial_index":2,"time_elapsed":103129,"internal_node_id":"0.0-2.0","task_version":"screening-mturk"},{"responses":{"Q08":"3","Q04":"2","Q07":"3","Q02":"3","Q03":"2","Q01":"3","Q05":"2","Q06":"3"},"rt":12083.895000163466,"survey":"gad7","trial_type":"survey-template","trial_index":3,"time_elapsed":115216,"internal_node_id":"0.0-3.0","task_version":"screening-mturk"},{"responses":{"Q07":"3","Q01":"2","Q08":"3","Q10":"3","Q04":"2","Q14":"2","Q06":"3","Q11":"2","Q03":"3","Q12":"2","Q15":"3","Q09":"2","Q05":"3","Q13":"2","Q02":"2"},"rt":46631.58000004478,"survey":"7up7down","trial_type":"survey-template","trial_index":4,"time_elapsed":161852,"internal_node_id":"0.0-4.0","task_version":"screening-mturk"},{"view_history":"[{\"page_index\":0,\"viewing_time\":8079.885000130162},{\"page_index\":1,\"viewing_time\":4039.504999993369},{\"page_index\":2,\"viewing_time\":989.314999897033},{\"page_index\":3,\"viewing_time\":5419.675000011921},{\"page_index\":4,\"viewing_time\":2600.444999989122},{\"page_index\":5,\"viewing_time\":1380.400000140071},{\"page_index\":6,\"viewing_time\":1549.519999884069},{\"page_index\":7,\"viewing_time\":1480.3550001233816}]","rt":25540.325000183657,"trial_type":"instructions","trial_index":5,"time_elapsed":187395,"internal_node_id":"0.0-5.0-0.0","task_version":"screening-mturk"},{"responses":["True","True","True","False","True"],"num_errors":1,"rt":94896.90000005066,"trial_type":"three-arm-comprehension","trial_index":6,"time_elapsed":282297,"internal_node_id":"0.0-5.0-1.0","task_version":"screening-mturk"},{"view_history":"[{\"page_index\":0,\"viewing_time\":4653.399999951944},{\"page_index\":1,\"viewing_time\":3370.9950000047684},{\"page_index\":2,\"viewing_time\":35339.440000010654},{\"page_index\":3,\"viewing_time\":10020.04999993369},{\"page_index\":4,\"viewing_time\":8909.620000049472},{\"page_index\":5,\"viewing_time\":6859.810000052676},{\"page_index\":6,\"viewing_time\":2400.029999902472},{\"page_index\":7,\"viewing_time\":1299.885000102222}]","rt":72853.6600000225,"trial_type":"instructions","trial_index":7,"time_elapsed":355154,"internal_node_id":"0.0-5.1-0.1","task_version":"screening-mturk"},{"responses":["True","True","False","False","True"],"num_errors":0,"rt":189048.7749997992,"trial_type":"three-arm-comprehension","trial_index":8,"time_elapsed":544206,"internal_node_id":"0.0-5.1-1.1","task_version":"screening-mturk"},{"view_history":"[{\"page_index\":0,\"viewing_time\":3044.8200001847}]","rt":3045.2750001568347,"trial_type":"instructions","trial_index":9,"time_elapsed":547254,"internal_node_id":"0.0-6.0","task_version":"screening-mturk"},{"contexts":["red","blue","green"],"outcomes":[1,1,0],"key":null,"rt":null,"trial":1,"correct":0,"trial_type":"three-arm-trial","trial_index":10,"time_elapsed":562259,"internal_node_id":"0.0-7.0-0.0","task_version":"screening-mturk","missing":true},{"contexts":["red","blue","green"],"outcomes":[1,1,0],"key":37,"choice":0,"rt":4382.844999898225,"outcome":1,"trial":1,"correct":0,"trial_type":"three-arm-trial","trial_index":11,"time_elapsed":567848,"internal_node_id":"0.0-7.1-0.1","task_version":"screening-mturk","missing":false,"accuracy":1},{"contexts":["red","blue","green"],"outcomes":[1,1,0],"key":38,"choice":1,"rt":283.945000031963,"outcome":1,"trial":2,"correct":0,"trial_type":"three-arm-trial","trial_index":12,"time_elapsed":569335,"internal_node_id":"0.0-8.0-0.0","task_version":"screening-mturk","missing":false,"accuracy":0},{"contexts":["red","blue","green"],"outcomes":[1,0,0],"key":37,"choice":0,"rt":266.9049999676645,"outcome":1,"trial":3,"correct":0,"trial_type":"three-arm-trial","trial_index":13,"time_elapsed":570806,"internal_node_id":"0.0-9.0-0.0","task_version":"screening-mturk","missing":false,"accuracy":1},{"contexts":["red","blue","green"],"outcomes":[1,0,1],"key":38,"choice":1,"rt":5.710000172257423,"outcome":0,"trial":4,"correct":0,"trial_type":"three-arm-trial","trial_index":14,"time_elapsed":572015,"internal_node_id":"0.0-10.0-0.0","task_version":"screening-mturk","missing":false,"accuracy":0},{"contexts":["red","blue","green"],"outcomes":[1,0,0],"key":38,"choice":1,"rt":162.17499994672835,"outcome":0,"trial":5,"correct":0,"trial_type":"three-arm-trial","trial_index":15,"time_elapsed":573380,"internal_node_id":"0.0-11.0-0.0","task_version":"screening-mturk","missing":false,"accuracy":0},{"contexts":["red","blue","green"],"outcomes":[1,0,0],"key":38,"choice":1,"rt":150.36999993026257,"outcome":0,"trial":6,"correct":0,"trial_type":"three-arm-trial","trial_index":16,"time_elapsed":574734,"internal_node_id":"0.0-12.0-0.0","task_version":"screening-mturk","missing":false,"accuracy":0},{"contexts":["red","blue","green"],"outcomes":[1,0,0],"key":38,"choice":1,"rt":157.55499992519617,"outcome":0,"trial":7,"correct":0,"trial_type":"three-arm-trial","trial_index":17,"time_elapsed":576097,"internal_node_id":"0.0-13.0-0.0","task_version":"screening-mturk","missing":false,"accuracy":0},{"contexts":["red","blue","green"],"outcomes":[1,0,0],"key":38,"choice":1,"rt":309.6549999900162,"outcome":0,"trial":8,"correct":0,"trial_type":"three-arm-trial","trial_index":18,"time_elapsed":577610,"internal_node_id":"0.0-14.0-0.0","task_version":"screening-mturk","missing":false,"accuracy":0},{"contexts":["red","blue","green"],"outcomes":[1,1,0],"key":38,"choice":1,"rt":251.64499995298684,"outcome":1,"trial":9,"correct":0,"trial_type":"three-arm-trial","trial_index":19,"time_elapsed":579065,"internal_node_id":"0.0-15.0-0.0","task_version":"screening-mturk","missing":false,"accuracy":0},{"contexts":["red","blue","green"],"outcomes":[1,0,0],"key":38,"choice":1,"rt":126.7750000115484,"outcome":0,"trial":10,"correct":0,"trial_type":"three-arm-trial","trial_index":20,"time_elapsed":580396,"internal_node_id":"0.0-16.0-0.0","task_version":"screening-mturk","missing":false,"accuracy":0},{"contexts":["red","blue","green"],"outcomes":[0,0,0],"key":38,"choice":1,"rt":16.02500001899898,"outcome":0,"trial":11,"correct":0,"trial_type":"three-arm-trial","trial_index":21,"time_elapsed":581616,"internal_node_id":"0.0-17.0-0.0","task_version":"screening-mturk","missing":false,"accuracy":0},{"contexts":["red","blue","green"],"outcomes":[1,1,0],"key":38,"choice":1,"rt":35.60000006109476,"outcome":1,"trial":12,"correct":0,"trial_type":"three-arm-trial","trial_index":22,"time_elapsed":582856,"internal_node_id":"0.0-18.0-0.0","task_version":"screening-mturk","missing":false,"accuracy":0},{"contexts":["red","blue","green"],"outcomes":[0,0,0],"key":38,"choice":1,"rt":15.164999989792705,"outcome":0,"trial":13,"correct":0,"trial_type":"three-arm-trial","trial_index":23,"time_elapsed":584075,"internal_node_id":"0.0-19.0-0.0","task_version":"screening-mturk","missing":false,"accuracy":0},{"contexts":["red","blue","green"],"outcomes":[1,1,0],"key":39,"choice":2,"rt":225.6499999202788,"outcome":0,"trial":14,"correct":0,"trial_type":"three-arm-trial","trial_index":24,"time_elapsed":585503,"internal_node_id":"0.0-20.0-0.0","task_version":"screening-mturk","missing":false,"accuracy":0},{"contexts":["red","blue","green"],"outcomes":[1,0,0],"key":39,"choice":2,"rt":38.53499982506037,"outcome":0,"trial":15,"correct":0,"trial_type":"three-arm-trial","trial_index":25,"time_elapsed":586745,"internal_node_id":"0.0-21.0-0.0","task_version":"screening-mturk","missing":false,"accuracy":0},{"contexts":["red","blue","green"],"outcomes":[1,0,0],"key":37,"choice":0,"rt":76.91500009968877,"outcome":1,"trial":16,"correct":1,"trial_type":"three-arm-trial","trial_index":26,"time_elapsed":588028,"internal_node_id":"0.0-22.0-0.0","task_version":"screening-mturk","missing":false,"accuracy":0},{"contexts":["red","blue","green"],"outcomes":[0,1,0],"key":37,"choice":0,"rt":18.34499998949468,"outcome":0,"trial":17,"correct":1,"trial_type":"three-arm-trial","trial_index":27,"time_elapsed":589250,"internal_node_id":"0.0-23.0-0.0","task_version":"screening-mturk","missing":false,"accuracy":0},{"contexts":["red","blue","green"],"outcomes":[0,0,0],"key":37,"choice":0,"rt":3.019999945536256,"outcome":0,"trial":18,"correct":1,"trial_type":"three-arm-trial","trial_index":28,"time_elapsed":590455,"internal_node_id":"0.0-24.0-0.0","task_version":"screening-mturk","missing":false,"accuracy":0},{"contexts":["red","blue","green"],"outcomes":[1,1,0],"key":37,"choice":0,"rt":26.10999997705221,"outcome":1,"trial":19,"correct":1,"trial_type":"three-arm-trial","trial_index":29,"time_elapsed":591684,"internal_node_id":"0.0-25.0-0.0","task_version":"screening-mturk","missing":false,"accuracy":0},{"contexts":["red","blue","green"],"outcomes":[1,0,0],"key":39,"choice":2,"rt":191.8049999512732,"outcome":0,"trial":20,"correct":1,"trial_type":"three-arm-trial","trial_index":30,"time_elapsed":593079,"internal_node_id":"0.0-26.0-0.0","task_version":"screening-mturk","missing":false,"accuracy":0},{"contexts":["red","blue","green"],"outcomes":[1,1,1],"key":39,"choice":2,"rt":102.19999984838068,"outcome":1,"trial":21,"correct":1,"trial_type":"three-arm-trial","trial_index":31,"time_elapsed":594384,"internal_node_id":"0.0-27.0-0.0","task_version":"screening-mturk","missing":false,"accuracy":0},{"contexts":["red","blue","green"],"outcomes":[0,1,0],"key":39,"choice":2,"rt":136.7800000589341,"outcome":0,"trial":22,"correct":1,"trial_type":"three-arm-trial","trial_index":32,"time_elapsed":595726,"internal_node_id":"0.0-28.0-0.0","task_version":"screening-mturk","missing":false,"accuracy":0},{"contexts":["red","blue","green"],"outcomes":[0,1,0],"key":37,"choice":0,"rt":140.0950001552701,"outcome":0,"trial":23,"correct":1,"trial_type":"three-arm-trial","trial_index":33,"time_elapsed":597069,"internal_node_id":"0.0-29.0-0.0","task_version":"screening-mturk","missing":false,"accuracy":0},{"contexts":["red","blue","green"],"outcomes":[0,0,0],"key":37,"choice":0,"rt":42.190000182017684,"outcome":0,"trial":24,"correct":1,"trial_type":"three-arm-trial","trial_index":34,"time_elapsed":598315,"internal_node_id":"0.0-30.0-0.0","task_version":"screening-mturk","missing":false,"accuracy":0},{"contexts":["red","blue","green"],"outcomes":[0,0,1],"key":37,"choice":0,"rt":115.56999990716577,"outcome":0,"trial":25,"correct":1,"trial_type":"three-arm-trial","trial_index":35,"time_elapsed":599634,"internal_node_id":"0.0-31.0-0.0","task_version":"screening-mturk","missing":false,"accuracy":0},{"contexts":["red","blue","green"],"outcomes":[0,1,0],"key":37,"choice":0,"rt":162.23499993793666,"outcome":0,"trial":26,"correct":1,"trial_type":"three-arm-trial","trial_index":36,"time_elapsed":600999,"internal_node_id":"0.0-32.0-0.0","task_version":"screening-mturk","missing":false,"accuracy":0},{"contexts":["red","blue","green"],"outcomes":[0,1,0],"key":37,"choice":0,"rt":176.9050001166761,"outcome":0,"trial":27,"correct":1,"trial_type":"three-arm-trial","trial_index":37,"time_elapsed":602379,"internal_node_id":"0.0-33.0-0.0","task_version":"screening-mturk","missing":false,"accuracy":0},{"contexts":["red","blue","green"],"outcomes":[0,1,0],"key":37,"choice":0,"rt":4.1500001680105925,"outcome":0,"trial":28,"correct":1,"trial_type":"three-arm-trial","trial_index":38,"time_elapsed":603586,"internal_node_id":"0.0-34.0-0.0","task_version":"screening-mturk","missing":false,"accuracy":0},{"contexts":["red","blue","green"],"outcomes":[1,1,0],"key":37,"choice":0,"rt":184.7100001759827,"outcome":1,"trial":29,"correct":1,"trial_type":"three-arm-trial","trial_index":39,"time_elapsed":604975,"internal_node_id":"0.0-35.0-0.0","task_version":"screening-mturk","missing":false,"accuracy":0},{"contexts":["red","blue","green"],"outcomes":[0,1,0],"key":39,"choice":2,"rt":126.08499987982213,"outcome":0,"trial":30,"correct":1,"trial_type":"three-arm-trial","trial_index":40,"time_elapsed":606305,"internal_node_id":"0.0-36.0-0.0","task_version":"screening-mturk","missing":false,"accuracy":0},{"contexts":["red","blue","green"],"outcomes":[0,1,1],"key":39,"choice":2,"rt":175.65499991178513,"outcome":1,"trial":31,"correct":2,"trial_type":"three-arm-trial","trial_index":41,"time_elapsed":607684,"internal_node_id":"0.0-37.0-0.0","task_version":"screening-mturk","missing":false,"accuracy":1},{"contexts":["red","blue","green"],"outcomes":[0,0,1],"key":39,"choice":2,"rt":166.60499991849065,"outcome":1,"trial":32,"correct":2,"trial_type":"three-arm-trial","trial_index":42,"time_elapsed":609054,"internal_node_id":"0.0-38.0-0.0","task_version":"screening-mturk","missing":false,"accuracy":1},{"contexts":["red","blue","green"],"outcomes":[0,0,1],"key":39,"choice":2,"rt":102.29500010609627,"outcome":1,"trial":33,"correct":2,"trial_type":"three-arm-trial","trial_index":43,"time_elapsed":610358,"internal_node_id":"0.0-39.0-0.0","task_version":"screening-mturk","missing":false,"accuracy":1},{"contexts":["red","blue","green"],"outcomes":[0,0,1],"key":39,"choice":2,"rt":52.53999982960522,"outcome":1,"trial":34,"correct":2,"trial_type":"three-arm-trial","trial_index":44,"time_elapsed":611614,"internal_node_id":"0.0-40.0-0.0","task_version":"screening-mturk","missing":false,"accuracy":1},{"contexts":["red","blue","green"],"outcomes":[1,0,0],"key":39,"choice":2,"rt":107.31500014662743,"outcome":0,"trial":35,"correct":2,"trial_type":"three-arm-trial","trial_index":45,"time_elapsed":612924,"internal_node_id":"0.0-41.0-0.0","task_version":"screening-mturk","missing":false,"accuracy":1},{"contexts":["red","blue","green"],"outcomes":[0,0,1],"key":37,"choice":0,"rt":176.0950000025332,"outcome":0,"trial":36,"correct":2,"trial_type":"three-arm-trial","trial_index":46,"time_elapsed":614304,"internal_node_id":"0.0-42.0-0.0","task_version":"screening-mturk","missing":false,"accuracy":0},{"contexts":["red","blue","green"],"outcomes":[0,1,1],"key":37,"choice":0,"rt":36.95999993942678,"outcome":0,"trial":37,"correct":2,"trial_type":"three-arm-trial","trial_index":47,"time_elapsed":615545,"internal_node_id":"0.0-43.0-0.0","task_version":"screening-mturk","missing":false,"accuracy":0},{"contexts":["red","blue","green"],"outcomes":[0,0,1],"key":37,"choice":0,"rt":1095.54999996908,"outcome":0,"trial":38,"correct":2,"trial_type":"three-arm-trial","trial_index":48,"time_elapsed":617843,"internal_node_id":"0.0-44.0-0.0","task_version":"screening-mturk","missing":false,"accuracy":0},{"contexts":["red","blue","green"],"outcomes":[0,0,1],"key":38,"choice":1,"rt":167.73499990813434,"outcome":0,"trial":39,"correct":2,"trial_type":"three-arm-trial","trial_index":49,"time_elapsed":619214,"internal_node_id":"0.0-45.0-0.0","task_version":"screening-mturk","missing":false,"accuracy":0},{"contexts":["red","blue","green"],"outcomes":[0,1,1],"key":39,"choice":2,"rt":146.269999910146,"outcome":1,"trial":40,"correct":2,"trial_type":"three-arm-trial","trial_index":50,"time_elapsed":620564,"internal_node_id":"0.0-46.0-0.0","task_version":"screening-mturk","missing":false,"accuracy":1},{"contexts":["red","blue","green"],"outcomes":[0,0,1],"key":39,"choice":2,"rt":176.4749998692423,"outcome":1,"trial":41,"correct":2,"trial_type":"three-arm-trial","trial_index":51,"time_elapsed":621945,"internal_node_id":"0.0-47.0-0.0","task_version":"screening-mturk","missing":false,"accuracy":1},{"contexts":["red","blue","green"],"outcomes":[1,0,1],"key":39,"choice":2,"rt":115.63499993644655,"outcome":1,"trial":42,"correct":2,"trial_type":"three-arm-trial","trial_index":52,"time_elapsed":623265,"internal_node_id":"0.0-48.0-0.0","task_version":"screening-mturk","missing":false,"accuracy":1},{"contexts":["red","blue","green"],"outcomes":[0,0,0],"key":37,"choice":0,"rt":126.1999998241663,"outcome":0,"trial":43,"correct":2,"trial_type":"three-arm-trial","trial_index":53,"time_elapsed":624594,"internal_node_id":"0.0-49.0-0.0","task_version":"screening-mturk","missing":false,"accuracy":0},{"contexts":["red","blue","green"],"outcomes":[0,0,1],"key":38,"choice":1,"rt":117.55499988794327,"outcome":0,"trial":44,"correct":2,"trial_type":"three-arm-trial","trial_index":54,"time_elapsed":625914,"internal_node_id":"0.0-50.0-0.0","task_version":"screening-mturk","missing":false,"accuracy":0},{"contexts":["red","blue","green"],"outcomes":[0,1,1],"key":38,"choice":1,"rt":276.7549999989569,"outcome":1,"trial":45,"correct":2,"trial_type":"three-arm-trial","trial_index":55,"time_elapsed":627394,"internal_node_id":"0.0-51.0-0.0","task_version":"screening-mturk","missing":false,"accuracy":0},{"contexts":["red","blue","green"],"outcomes":[1,0,0],"key":37,"choice":0,"rt":106.90500005148351,"outcome":1,"trial":46,"correct":0,"trial_type":"three-arm-trial","trial_index":56,"time_elapsed":628703,"internal_node_id":"0.0-52.0-0.0","task_version":"screening-mturk","missing":false,"accuracy":1},{"contexts":["red","blue","green"],"outcomes":[1,1,0],"key":38,"choice":1,"rt":187.57500010542572,"outcome":1,"trial":47,"correct":0,"trial_type":"three-arm-trial","trial_index":57,"time_elapsed":630097,"internal_node_id":"0.0-53.0-0.0","task_version":"screening-mturk","missing":false,"accuracy":0},{"contexts":["red","blue","green"],"outcomes":[1,0,0],"key":39,"choice":2,"rt":115.02999998629093,"outcome":0,"trial":48,"correct":0,"trial_type":"three-arm-trial","trial_index":58,"time_elapsed":631414,"internal_node_id":"0.0-54.0-0.0","task_version":"screening-mturk","missing":false,"accuracy":0},{"contexts":["red","blue","green"],"outcomes":[1,0,0],"key":39,"choice":2,"rt":68.90499987639487,"outcome":0,"trial":49,"correct":0,"trial_type":"three-arm-trial","trial_index":59,"time_elapsed":632687,"internal_node_id":"0.0-55.0-0.0","task_version":"screening-mturk","missing":false,"accuracy":0},{"contexts":["red","blue","green"],"outcomes":[0,0,0],"key":39,"choice":2,"rt":24.994999868795276,"outcome":0,"trial":50,"correct":0,"trial_type":"three-arm-trial","trial_index":60,"time_elapsed":633915,"internal_node_id":"0.0-56.0-0.0","task_version":"screening-mturk","missing":false,"accuracy":0},{"contexts":["red","blue","green"],"outcomes":[1,0,0],"key":37,"choice":0,"rt":145.66000015474856,"outcome":1,"trial":51,"correct":0,"trial_type":"three-arm-trial","trial_index":61,"time_elapsed":635263,"internal_node_id":"0.0-57.0-0.0","task_version":"screening-mturk","missing":false,"accuracy":1},{"contexts":["red","blue","green"],"outcomes":[1,1,0],"key":37,"choice":0,"rt":197.93500006198883,"outcome":1,"trial":52,"correct":0,"trial_type":"three-arm-trial","trial_index":62,"time_elapsed":636664,"internal_node_id":"0.0-58.0-0.0","task_version":"screening-mturk","missing":false,"accuracy":1},{"contexts":["red","blue","green"],"outcomes":[1,1,0],"key":37,"choice":0,"rt":177.56500001996756,"outcome":1,"trial":53,"correct":0,"trial_type":"three-arm-trial","trial_index":63,"time_elapsed":638045,"internal_node_id":"0.0-59.0-0.0","task_version":"screening-mturk","missing":false,"accuracy":1},{"contexts":["red","blue","green"],"outcomes":[1,0,0],"key":38,"choice":1,"rt":175.18000002019107,"outcome":0,"trial":54,"correct":0,"trial_type":"three-arm-trial","trial_index":64,"time_elapsed":639423,"internal_node_id":"0.0-60.0-0.0","task_version":"screening-mturk","missing":false,"accuracy":0},{"contexts":["red","blue","green"],"outcomes":[0,0,0],"key":38,"choice":1,"rt":67.44999997317791,"outcome":0,"trial":55,"correct":0,"trial_type":"three-arm-trial","trial_index":65,"time_elapsed":640693,"internal_node_id":"0.0-61.0-0.0","task_version":"screening-mturk","missing":false,"accuracy":0},{"contexts":["red","blue","green"],"outcomes":[1,0,0],"key":39,"choice":2,"rt":218.06500013917685,"outcome":0,"trial":56,"correct":0,"trial_type":"three-arm-trial","trial_index":66,"time_elapsed":642113,"internal_node_id":"0.0-62.0-0.0","task_version":"screening-mturk","missing":false,"accuracy":0},{"contexts":["red","blue","green"],"outcomes":[1,0,0],"key":39,"choice":2,"rt":7.870000088587403,"outcome":0,"trial":57,"correct":0,"trial_type":"three-arm-trial","trial_index":67,"time_elapsed":643325,"internal_node_id":"0.0-63.0-0.0","task_version":"screening-mturk","missing":false,"accuracy":0},{"contexts":["red","blue","green"],"outcomes":[0,0,1],"key":39,"choice":2,"rt":16.594999935477972,"outcome":1,"trial":58,"correct":0,"trial_type":"three-arm-trial","trial_index":68,"time_elapsed":644545,"internal_node_id":"0.0-64.0-0.0","task_version":"screening-mturk","missing":false,"accuracy":0},{"contexts":["red","blue","green"],"outcomes":[1,0,0],"key":37,"choice":0,"rt":195.23000018671155,"outcome":1,"trial":59,"correct":0,"trial_type":"three-arm-trial","trial_index":69,"time_elapsed":645943,"internal_node_id":"0.0-65.0-0.0","task_version":"screening-mturk","missing":false,"accuracy":1},{"contexts":["red","blue","green"],"outcomes":[1,1,0],"key":37,"choice":0,"rt":7.579999975860119,"outcome":1,"trial":60,"correct":0,"trial_type":"three-arm-trial","trial_index":70,"time_elapsed":647155,"internal_node_id":"0.0-66.0-0.0","task_version":"screening-mturk","missing":false,"accuracy":1},{"contexts":["red","blue","green"],"outcomes":[1,0,1],"key":39,"choice":2,"rt":155.93499992974102,"outcome":1,"trial":61,"correct":2,"trial_type":"three-arm-trial","trial_index":71,"time_elapsed":648514,"internal_node_id":"0.0-67.0-0.0","task_version":"screening-mturk","missing":false,"accuracy":1},{"contexts":["red","blue","green"],"outcomes":[1,1,1],"key":39,"choice":2,"rt":57.05499998293817,"outcome":1,"trial":62,"correct":2,"trial_type":"three-arm-trial","trial_index":72,"time_elapsed":649774,"internal_node_id":"0.0-68.0-0.0","task_version":"screening-mturk","missing":false,"accuracy":1},{"contexts":["red","blue","green"],"outcomes":[0,0,1],"key":39,"choice":2,"rt":226.99000011198223,"outcome":1,"trial":63,"correct":2,"trial_type":"three-arm-trial","trial_index":73,"time_elapsed":651208,"internal_node_id":"0.0-69.0-0.0","task_version":"screening-mturk","missing":false,"accuracy":1},{"contexts":["red","blue","green"],"outcomes":[0,0,0],"key":39,"choice":2,"rt":23.139999946579337,"outcome":0,"trial":64,"correct":2,"trial_type":"three-arm-trial","trial_index":74,"time_elapsed":652434,"internal_node_id":"0.0-70.0-0.0","task_version":"screening-mturk","missing":false,"accuracy":1},{"contexts":["red","blue","green"],"outcomes":[0,0,0],"key":37,"choice":0,"rt":166.76499997265637,"outcome":0,"trial":65,"correct":2,"trial_type":"three-arm-trial","trial_index":75,"time_elapsed":653803,"internal_node_id":"0.0-71.0-0.0","task_version":"screening-mturk","missing":false,"accuracy":0},{"contexts":["red","blue","green"],"outcomes":[0,0,0],"key":37,"choice":0,"rt":37.24999981932342,"outcome":0,"trial":66,"correct":2,"trial_type":"three-arm-trial","trial_index":76,"time_elapsed":655044,"internal_node_id":"0.0-72.0-0.0","task_version":"screening-mturk","missing":false,"accuracy":0},{"contexts":["red","blue","green"],"outcomes":[1,0,1],"key":37,"choice":0,"rt":236.75499996170402,"outcome":1,"trial":67,"correct":2,"trial_type":"three-arm-trial","trial_index":77,"time_elapsed":656488,"internal_node_id":"0.0-73.0-0.0","task_version":"screening-mturk","missing":false,"accuracy":0},{"contexts":["red","blue","green"],"outcomes":[1,0,1],"key":39,"choice":2,"rt":13.73000000603497,"outcome":1,"trial":68,"correct":2,"trial_type":"three-arm-trial","trial_index":78,"time_elapsed":657705,"internal_node_id":"0.0-74.0-0.0","task_version":"screening-mturk","missing":false,"accuracy":1},{"contexts":["red","blue","green"],"outcomes":[0,1,1],"key":39,"choice":2,"rt":158.31500012427568,"outcome":1,"trial":69,"correct":2,"trial_type":"three-arm-trial","trial_index":79,"time_elapsed":659066,"internal_node_id":"0.0-75.0-0.0","task_version":"screening-mturk","missing":false,"accuracy":1},{"contexts":["red","blue","green"],"outcomes":[0,0,1],"key":38,"choice":1,"rt":15.919999917969108,"outcome":0,"trial":70,"correct":2,"trial_type":"three-arm-trial","trial_index":80,"time_elapsed":660286,"internal_node_id":"0.0-76.0-0.0","task_version":"screening-mturk","missing":false,"accuracy":0},{"contexts":["red","blue","green"],"outcomes":[0,0,1],"key":38,"choice":1,"rt":15.059999888762832,"outcome":0,"trial":71,"correct":2,"trial_type":"three-arm-trial","trial_index":81,"time_elapsed":661505,"internal_node_id":"0.0-77.0-0.0","task_version":"screening-mturk","missing":false,"accuracy":0},{"contexts":["red","blue","green"],"outcomes":[0,1,1],"key":38,"choice":1,"rt":505.98499993793666,"outcome":1,"trial":72,"correct":2,"trial_type":"three-arm-trial","trial_index":82,"time_elapsed":663215,"internal_node_id":"0.0-78.0-0.0","task_version":"screening-mturk","missing":false,"accuracy":0},{"contexts":["red","blue","green"],"outcomes":[0,0,1],"key":38,"choice":1,"rt":162.61500003747642,"outcome":0,"trial":73,"correct":2,"trial_type":"three-arm-trial","trial_index":83,"time_elapsed":664581,"internal_node_id":"0.0-79.0-0.0","task_version":"screening-mturk","missing":false,"accuracy":0},{"contexts":["red","blue","green"],"outcomes":[0,0,1],"key":38,"choice":1,"rt":140.25500020943582,"outcome":0,"trial":74,"correct":2,"trial_type":"three-arm-trial","trial_index":84,"time_elapsed":665926,"internal_node_id":"0.0-80.0-0.0","task_version":"screening-mturk","missing":false,"accuracy":0},{"contexts":["red","blue","green"],"outcomes":[0,0,1],"key":38,"choice":1,"rt":76.15000009536743,"outcome":0,"trial":75,"correct":2,"trial_type":"three-arm-trial","trial_index":85,"time_elapsed":667205,"internal_node_id":"0.0-81.0-0.0","task_version":"screening-mturk","missing":false,"accuracy":0},{"contexts":["red","blue","green"],"outcomes":[1,1,0],"key":38,"choice":1,"rt":112.05499991774559,"outcome":1,"trial":76,"correct":0,"trial_type":"three-arm-trial","trial_index":86,"time_elapsed":668521,"internal_node_id":"0.0-82.0-0.0","task_version":"screening-mturk","missing":false,"accuracy":0},{"contexts":["red","blue","green"],"outcomes":[1,0,0],"key":38,"choice":1,"rt":59.529999969527125,"outcome":0,"trial":77,"correct":0,"trial_type":"three-arm-trial","trial_index":87,"time_elapsed":669784,"internal_node_id":"0.0-83.0-0.0","task_version":"screening-mturk","missing":false,"accuracy":0},{"contexts":["red","blue","green"],"outcomes":[1,0,0],"key":39,"choice":2,"rt":227.90999989956617,"outcome":0,"trial":78,"correct":0,"trial_type":"three-arm-trial","trial_index":88,"time_elapsed":671214,"internal_node_id":"0.0-84.0-0.0","task_version":"screening-mturk","missing":false,"accuracy":0},{"contexts":["red","blue","green"],"outcomes":[1,0,1],"key":39,"choice":2,"rt":65.97999995574355,"outcome":1,"trial":79,"correct":0,"trial_type":"three-arm-trial","trial_index":89,"time_elapsed":672485,"internal_node_id":"0.0-85.0-0.0","task_version":"screening-mturk","missing":false,"accuracy":0},{"contexts":["red","blue","green"],"outcomes":[1,0,0],"key":38,"choice":1,"rt":26.910000015050173,"outcome":0,"trial":80,"correct":0,"trial_type":"three-arm-trial","trial_index":90,"time_elapsed":673715,"internal_node_id":"0.0-86.0-0.0","task_version":"screening-mturk","missing":false,"accuracy":0},{"contexts":["red","blue","green"],"outcomes":[1,0,0],"key":38,"choice":1,"rt":148.0600000359118,"outcome":0,"trial":81,"correct":0,"trial_type":"three-arm-trial","trial_index":91,"time_elapsed":675068,"internal_node_id":"0.0-87.0-0.0","task_version":"screening-mturk","missing":false,"accuracy":0},{"contexts":["red","blue","green"],"outcomes":[1,0,0],"key":38,"choice":1,"rt":23.39999983087182,"outcome":0,"trial":82,"correct":0,"trial_type":"three-arm-trial","trial_index":92,"time_elapsed":676295,"internal_node_id":"0.0-88.0-0.0","task_version":"screening-mturk","missing":false,"accuracy":0},{"contexts":["red","blue","green"],"outcomes":[1,0,0],"key":39,"choice":2,"rt":199.5349999051541,"outcome":0,"trial":83,"correct":0,"trial_type":"three-arm-trial","trial_index":93,"time_elapsed":677697,"internal_node_id":"0.0-89.0-0.0","task_version":"screening-mturk","missing":false,"accuracy":0},{"contexts":["red","blue","green"],"outcomes":[1,0,0],"key":39,"choice":2,"rt":25.54999990388751,"outcome":0,"trial":84,"correct":0,"trial_type":"three-arm-trial","trial_index":94,"time_elapsed":678926,"internal_node_id":"0.0-90.0-0.0","task_version":"screening-mturk","missing":false,"accuracy":0},{"contexts":["red","blue","green"],"outcomes":[1,0,0],"key":37,"choice":0,"rt":246.01999996230006,"outcome":1,"trial":85,"correct":0,"trial_type":"three-arm-trial","trial_index":95,"time_elapsed":680378,"internal_node_id":"0.0-91.0-0.0","task_version":"screening-mturk","missing":false,"accuracy":1},{"contexts":["red","blue","green"],"outcomes":[0,0,0],"key":37,"choice":0,"rt":133.53500002995133,"outcome":0,"trial":86,"correct":0,"trial_type":"three-arm-trial","trial_index":96,"time_elapsed":681716,"internal_node_id":"0.0-92.0-0.0","task_version":"screening-mturk","missing":false,"accuracy":1},{"contexts":["red","blue","green"],"outcomes":[1,1,0],"key":38,"choice":1,"rt":335.51499992609024,"outcome":1,"trial":87,"correct":0,"trial_type":"three-arm-trial","trial_index":97,"time_elapsed":683255,"internal_node_id":"0.0-93.0-0.0","task_version":"screening-mturk","missing":false,"accuracy":0},{"contexts":["red","blue","green"],"outcomes":[0,1,1],"key":38,"choice":1,"rt":46.639999840408564,"outcome":1,"trial":88,"correct":0,"trial_type":"three-arm-trial","trial_index":98,"time_elapsed":684504,"internal_node_id":"0.0-94.0-0.0","task_version":"screening-mturk","missing":false,"accuracy":0},{"contexts":["red","blue","green"],"outcomes":[0,0,0],"key":38,"choice":1,"rt":147.3650000989437,"outcome":0,"trial":89,"correct":0,"trial_type":"three-arm-trial","trial_index":99,"time_elapsed":685854,"internal_node_id":"0.0-95.0-0.0","task_version":"screening-mturk","missing":false,"accuracy":0},{"contexts":["red","blue","green"],"outcomes":[1,0,0],"key":37,"choice":0,"rt":137.394999852404,"outcome":1,"trial":90,"correct":0,"trial_type":"three-arm-trial","trial_index":100,"time_elapsed":687196,"internal_node_id":"0.0-96.0-0.0","task_version":"screening-mturk","missing":false,"accuracy":1},{"rt":94026.68999996968,"responses":{"age":"32","gender-categorical":"Female","gender-free-response":"","ethnicity":"Not Hispanic or Latino","race":["Black or African American"],"language":"Yes","fluency":"Very well","prolific":"Yes","prolific-this-study":"No"},"survey":"demographics","trial_type":"survey-demo","trial_index":101,"time_elapsed":781227,"internal_node_id":"0.0-97.0","task_version":"screening-mturk","interactions":"[{\"event\":\"blur\",\"trial\":6,\"time\":205573},{\"event\":\"focus\",\"trial\":6,\"time\":209576}]"}]