[{"responses":{"Q13":"2","Q02":"1","Q15":"2","Q04":"1","Q07":"2","Q09":"1","Q01":"2","Q11":"1","Q10":"1","Q05":"1","Q14":"2","Q06":"2","Q08":"1","Q03":"2","Q12":"1"},"rt":47890.90000000033,"survey":"7up7down","trial_type":"survey-template","trial_index":0,"time_elapsed":47915,"internal_node_id":"0.0-0.0","task_version":"screening-mturk"},{"responses":{"Q01":"1","Q09":"2","Q13":"1","Q08":"2","Q06":"1","Q04":"1","Q02":"2","Q03":"1","Q11":"2","Q07":"2","Q12":"1","Q10":"1","Q05":"2"},"rt":33261.59499999994,"survey":"bisbas","trial_type":"survey-template","trial_index":1,"time_elapsed":81184,"internal_node_id":"0.0-1.0","task_version":"screening-mturk"},{"responses":{"Q02":"0","Q01":"1","Q03":"0"},"rt":10377.324999999473,"survey":"pswq","trial_type":"survey-template","trial_index":2,"time_elapsed":91565,"internal_node_id":"0.0-2.0","task_version":"screening-mturk"},{"responses":{"Q04":"1","Q08":"1","Q01":"0","Q03":"2","Q05":"1","Q06":"2","Q07":"1","Q02":"1"},"rt":24252.109999999448,"survey":"gad7","trial_type":"survey-template","trial_index":3,"time_elapsed":115822,"internal_node_id":"0.0-3.0","task_version":"screening-mturk"},{"responses":{"Q09":"2","Q04":"3","Q12":"3","Q10":"3","Q07":"3","Q14":"2","Q03":"2","Q01":"3","Q06":"2","Q02":"3","Q11":"3","Q08":"2","Q13":"2","Q05":"2","Q15":"2"},"rt":31723.874999999694,"survey":"shaps","trial_type":"survey-template","trial_index":4,"time_elapsed":147551,"internal_node_id":"0.0-4.0","task_version":"screening-mturk"},{"view_history":"[{\"page_index\":0,\"viewing_time\":26784.67999999883},{\"page_index\":1,\"viewing_time\":18224.01999999967},{\"page_index\":2,\"viewing_time\":32695.19000000035},{\"page_index\":3,\"viewing_time\":12008.475000000559},{\"page_index\":4,\"viewing_time\":24903.379999999714},{\"page_index\":5,\"viewing_time\":6272.1450000008335},{\"page_index\":6,\"viewing_time\":5327.8049999990035},{\"page_index\":7,\"viewing_time\":6008.434999999707}]","rt":132225.58500000014,"trial_type":"instructions","trial_index":5,"time_elapsed":279779,"internal_node_id":"0.0-5.0-0.0","task_version":"screening-mturk"},{"responses":["True","True","False","True","False"],"num_errors":2,"rt":36259.78000000038,"trial_type":"three-arm-comprehension","trial_index":6,"time_elapsed":316044,"internal_node_id":"0.0-5.0-1.0","task_version":"screening-mturk"},{"view_history":"[{\"page_index\":0,\"viewing_time\":8199.835000001243},{\"page_index\":1,\"viewing_time\":7399.969999998575},{\"page_index\":2,\"viewing_time\":1191.9850000013248},{\"page_index\":3,\"viewing_time\":800.0499999998137},{\"page_index\":4,\"viewing_time\":800.1750000002794},{\"page_index\":5,\"viewing_time\":887.7949999987613},{\"page_index\":6,\"viewing_time\":1120.4050000014831},{\"page_index\":7,\"viewing_time\":935.4749999984051}]","rt":21336.83000000019,"trial_type":"instructions","trial_index":7,"time_elapsed":337386,"internal_node_id":"0.0-5.1-0.1","task_version":"screening-mturk"},{"responses":["True","True","True","True","True"],"num_errors":2,"rt":6701.325000000012,"trial_type":"three-arm-comprehension","trial_index":8,"time_elapsed":344091,"internal_node_id":"0.0-5.1-1.1","task_version":"screening-mturk"},{"view_history":"[{\"page_index\":0,\"viewing_time\":2673.9400000005844},{\"page_index\":1,\"viewing_time\":343.9399999988382},{\"page_index\":2,\"viewing_time\":431.99500000081025},{\"page_index\":3,\"viewing_time\":312.31999999907566},{\"page_index\":4,\"viewing_time\":431.69500000117114},{\"page_index\":5,\"viewing_time\":471.8849999989616},{\"page_index\":6,\"viewing_time\":440.3849999998929},{\"page_index\":7,\"viewing_time\":479.7900000012596}]","rt":5586.294999999111,"trial_type":"instructions","trial_index":9,"time_elapsed":349682,"internal_node_id":"0.0-5.2-0.2","task_version":"screening-mturk"},{"responses":["False","True","False","True","False"],"num_errors":3,"rt":9614.00499999948,"trial_type":"three-arm-comprehension","trial_index":10,"time_elapsed":359299,"internal_node_id":"0.0-5.2-1.2","task_version":"screening-mturk"},{"view_history":"[{\"page_index\":0,\"viewing_time\":3666.2649999998393},{\"page_index\":1,\"viewing_time\":5447.6500000000815},{\"page_index\":2,\"viewing_time\":3879.884999998496},{\"page_index\":3,\"viewing_time\":4976.320000001579},{\"page_index\":4,\"viewing_time\":3951.8049999987707},{\"page_index\":5,\"viewing_time\":1559.7950000010314},{\"page_index\":6,\"viewing_time\":864.12000000017},{\"page_index\":7,\"viewing_time\":1544.4950000001118}]","rt":25890.739999998943,"trial_type":"instructions","trial_index":11,"time_elapsed":385194,"internal_node_id":"0.0-5.3-0.3","task_version":"screening-mturk"},{"responses":["False","True","True","True","False"],"num_errors":4,"rt":11181.94000000041,"trial_type":"three-arm-comprehension","trial_index":12,"time_elapsed":396379,"internal_node_id":"0.0-5.3-1.3","task_version":"screening-mturk"},{"view_history":"[{\"page_index\":0,\"viewing_time\":1666.3800000005867},{\"page_index\":1,\"viewing_time\":392.0899999993853},{\"page_index\":2,\"viewing_time\":487.6449999992619},{\"page_index\":3,\"viewing_time\":304.2700000005425},{\"page_index\":4,\"viewing_time\":487.8300000000163},{\"page_index\":5,\"viewing_time\":472.4999999998254},{\"page_index\":6,\"viewing_time\":471.7500000006403},{\"page_index\":7,\"viewing_time\":671.7649999991409}]","rt":4954.5650000000605,"trial_type":"instructions","trial_index":13,"time_elapsed":401337,"internal_node_id":"0.0-5.4-0.4","task_version":"screening-mturk"},{"responses":["True","False","True","False","True"],"num_errors":2,"rt":9310.535000000556,"trial_type":"three-arm-comprehension","trial_index":14,"time_elapsed":410650,"internal_node_id":"0.0-5.4-1.4","task_version":"screening-mturk"},{"view_history":"[{\"page_index\":0,\"viewing_time\":1994.355000000738},{\"page_index\":1,\"viewing_time\":416.20999999938067},{\"page_index\":2,\"viewing_time\":335.77999999944586},{\"page_index\":3,\"viewing_time\":280.4300000007497},{\"page_index\":4,\"viewing_time\":319.5400000003865},{\"page_index\":5,\"viewing_time\":496.33999999967637},{\"page_index\":6,\"viewing_time\":503.56500000093365},{\"page_index\":7,\"viewing_time\":456.12499999877764}]","rt":4802.73500000115,"trial_type":"instructions","trial_index":15,"time_elapsed":415457,"internal_node_id":"0.0-5.5-0.5","task_version":"screening-mturk"},{"responses":["True","True","False","False","True"],"num_errors":0,"rt":19486.25499999983,"trial_type":"three-arm-comprehension","trial_index":16,"time_elapsed":434946,"internal_node_id":"0.0-5.5-1.5","task_version":"screening-mturk"},{"view_history":"[{\"page_index\":0,\"viewing_time\":4234.039999999397}]","rt":4234.449999999953,"trial_type":"instructions","trial_index":17,"time_elapsed":439184,"internal_node_id":"0.0-6.0","task_version":"screening-mturk"},{"contexts":["green","red","blue"],"outcomes":[1,0,0],"key":37,"choice":0,"rt":9012.535000001662,"outcome":1,"trial":1,"correct":0,"trial_type":"three-arm-trial","trial_index":18,"time_elapsed":449403,"internal_node_id":"0.0-7.0-0.0","task_version":"screening-mturk","missing":false,"accuracy":1},{"contexts":["green","red","blue"],"outcomes":[1,0,0],"key":38,"choice":1,"rt":5417.5649999997695,"outcome":0,"trial":2,"correct":0,"trial_type":"three-arm-trial","trial_index":19,"time_elapsed":456025,"internal_node_id":"0.0-8.0-0.0","task_version":"screening-mturk","missing":false,"accuracy":0},{"contexts":["green","red","blue"],"outcomes":[1,0,0],"key":39,"choice":2,"rt":1642.5950000011944,"outcome":0,"trial":3,"correct":0,"trial_type":"three-arm-trial","trial_index":20,"time_elapsed":458871,"internal_node_id":"0.0-9.0-0.0","task_version":"screening-mturk","missing":false,"accuracy":0},{"contexts":["green","red","blue"],"outcomes":[1,0,0],"key":37,"choice":0,"rt":1805.8650000002817,"outcome":1,"trial":4,"correct":0,"trial_type":"three-arm-trial","trial_index":21,"time_elapsed":461882,"internal_node_id":"0.0-10.0-0.0","task_version":"screening-mturk","missing":false,"accuracy":1},{"contexts":["green","red","blue"],"outcomes":[1,1,1],"key":37,"choice":0,"rt":1265.5500000001048,"outcome":1,"trial":5,"correct":0,"trial_type":"three-arm-trial","trial_index":22,"time_elapsed":464352,"internal_node_id":"0.0-11.0-0.0","task_version":"screening-mturk","missing":false,"accuracy":1},{"contexts":["green","red","blue"],"outcomes":[1,0,1],"key":37,"choice":0,"rt":659.4349999995902,"outcome":1,"trial":6,"correct":0,"trial_type":"three-arm-trial","trial_index":23,"time_elapsed":466217,"internal_node_id":"0.0-12.0-0.0","task_version":"screening-mturk","missing":false,"accuracy":1},{"contexts":["green","red","blue"],"outcomes":[1,0,0],"key":37,"choice":0,"rt":459.2850000008475,"outcome":1,"trial":7,"correct":0,"trial_type":"three-arm-trial","trial_index":24,"time_elapsed":467881,"internal_node_id":"0.0-13.0-0.0","task_version":"screening-mturk","missing":false,"accuracy":1},{"contexts":["green","red","blue"],"outcomes":[0,0,0],"key":37,"choice":0,"rt":363.32000000035623,"outcome":0,"trial":8,"correct":0,"trial_type":"three-arm-trial","trial_index":25,"time_elapsed":469448,"internal_node_id":"0.0-14.0-0.0","task_version":"screening-mturk","missing":false,"accuracy":1},{"contexts":["green","red","blue"],"outcomes":[1,0,0],"key":38,"choice":1,"rt":156.12500000133878,"outcome":0,"trial":9,"correct":0,"trial_type":"three-arm-trial","trial_index":26,"time_elapsed":470808,"internal_node_id":"0.0-15.0-0.0","task_version":"screening-mturk","missing":false,"accuracy":0},{"contexts":["green","red","blue"],"outcomes":[1,0,0],"key":39,"choice":2,"rt":667.1699999988195,"outcome":0,"trial":10,"correct":0,"trial_type":"three-arm-trial","trial_index":27,"time_elapsed":472679,"internal_node_id":"0.0-16.0-0.0","task_version":"screening-mturk","missing":false,"accuracy":0},{"contexts":["green","red","blue"],"outcomes":[0,0,0],"key":38,"choice":1,"rt":942.9149999996298,"outcome":0,"trial":11,"correct":0,"trial_type":"three-arm-trial","trial_index":28,"time_elapsed":474826,"internal_node_id":"0.0-17.0-0.0","task_version":"screening-mturk","missing":false,"accuracy":0},{"contexts":["green","red","blue"],"outcomes":[0,0,0],"key":37,"choice":0,"rt":499.11500000057276,"outcome":0,"trial":12,"correct":0,"trial_type":"three-arm-trial","trial_index":29,"time_elapsed":476528,"internal_node_id":"0.0-18.0-0.0","task_version":"screening-mturk","missing":false,"accuracy":1},{"contexts":["green","red","blue"],"outcomes":[1,0,0],"key":39,"choice":2,"rt":396.9250000009197,"outcome":0,"trial":13,"correct":0,"trial_type":"three-arm-trial","trial_index":30,"time_elapsed":478129,"internal_node_id":"0.0-19.0-0.0","task_version":"screening-mturk","missing":false,"accuracy":0},{"contexts":["green","red","blue"],"outcomes":[1,0,1],"key":39,"choice":2,"rt":348.1200000005774,"outcome":1,"trial":14,"correct":0,"trial_type":"three-arm-trial","trial_index":31,"time_elapsed":479681,"internal_node_id":"0.0-20.0-0.0","task_version":"screening-mturk","missing":false,"accuracy":0},{"contexts":["green","red","blue"],"outcomes":[1,0,0],"key":39,"choice":2,"rt":555.1099999993457,"outcome":0,"trial":15,"correct":0,"trial_type":"three-arm-trial","trial_index":32,"time_elapsed":481439,"internal_node_id":"0.0-21.0-0.0","task_version":"screening-mturk","missing":false,"accuracy":0},{"contexts":["green","red","blue"],"outcomes":[0,0,1],"key":38,"choice":1,"rt":349.37499999976717,"outcome":0,"trial":16,"correct":2,"trial_type":"three-arm-trial","trial_index":33,"time_elapsed":482993,"internal_node_id":"0.0-22.0-0.0","task_version":"screening-mturk","missing":false,"accuracy":0},{"contexts":["green","red","blue"],"outcomes":[0,0,1],"key":38,"choice":1,"rt":638.9949999993551,"outcome":0,"trial":17,"correct":2,"trial_type":"three-arm-trial","trial_index":34,"time_elapsed":484839,"internal_node_id":"0.0-23.0-0.0","task_version":"screening-mturk","missing":false,"accuracy":0},{"contexts":["green","red","blue"],"outcomes":[0,0,1],"key":38,"choice":1,"rt":445.2500000006985,"outcome":0,"trial":18,"correct":2,"trial_type":"three-arm-trial","trial_index":35,"time_elapsed":486488,"internal_node_id":"0.0-24.0-0.0","task_version":"screening-mturk","missing":false,"accuracy":0},{"contexts":["green","red","blue"],"outcomes":[0,0,1],"key":37,"choice":0,"rt":315.135000000766,"outcome":0,"trial":19,"correct":2,"trial_type":"three-arm-trial","trial_index":36,"time_elapsed":488008,"internal_node_id":"0.0-25.0-0.0","task_version":"screening-mturk","missing":false,"accuracy":0},{"contexts":["green","red","blue"],"outcomes":[0,0,1],"key":37,"choice":0,"rt":660.929999999993,"outcome":0,"trial":20,"correct":2,"trial_type":"three-arm-trial","trial_index":37,"time_elapsed":489873,"internal_node_id":"0.0-26.0-0.0","task_version":"screening-mturk","missing":false,"accuracy":0},{"contexts":["green","red","blue"],"outcomes":[1,0,1],"key":39,"choice":2,"rt":348.42000000021653,"outcome":1,"trial":21,"correct":2,"trial_type":"three-arm-trial","trial_index":38,"time_elapsed":491425,"internal_node_id":"0.0-27.0-0.0","task_version":"screening-mturk","missing":false,"accuracy":1},{"contexts":["green","red","blue"],"outcomes":[1,0,0],"key":39,"choice":2,"rt":338.13999999983935,"outcome":0,"trial":22,"correct":2,"trial_type":"three-arm-trial","trial_index":39,"time_elapsed":492968,"internal_node_id":"0.0-28.0-0.0","task_version":"screening-mturk","missing":false,"accuracy":1},{"contexts":["green","red","blue"],"outcomes":[0,0,1],"key":39,"choice":2,"rt":148.51500000077067,"outcome":1,"trial":23,"correct":2,"trial_type":"three-arm-trial","trial_index":40,"time_elapsed":494320,"internal_node_id":"0.0-29.0-0.0","task_version":"screening-mturk","missing":false,"accuracy":1},{"contexts":["green","red","blue"],"outcomes":[0,1,1],"key":39,"choice":2,"rt":363.82000000047265,"outcome":1,"trial":24,"correct":2,"trial_type":"three-arm-trial","trial_index":41,"time_elapsed":495888,"internal_node_id":"0.0-30.0-0.0","task_version":"screening-mturk","missing":false,"accuracy":1},{"contexts":["green","red","blue"],"outcomes":[0,1,1],"key":37,"choice":0,"rt":1341.8550000005635,"outcome":0,"trial":25,"correct":2,"trial_type":"three-arm-trial","trial_index":42,"time_elapsed":498433,"internal_node_id":"0.0-31.0-0.0","task_version":"screening-mturk","missing":false,"accuracy":0},{"contexts":["green","red","blue"],"outcomes":[0,0,1],"key":37,"choice":0,"rt":394.6999999989057,"outcome":0,"trial":26,"correct":2,"trial_type":"three-arm-trial","trial_index":43,"time_elapsed":500032,"internal_node_id":"0.0-32.0-0.0","task_version":"screening-mturk","missing":false,"accuracy":0},{"contexts":["green","red","blue"],"outcomes":[0,1,1],"key":38,"choice":1,"rt":644.7099999986822,"outcome":1,"trial":27,"correct":2,"trial_type":"three-arm-trial","trial_index":44,"time_elapsed":501880,"internal_node_id":"0.0-33.0-0.0","task_version":"screening-mturk","missing":false,"accuracy":0},{"contexts":["green","red","blue"],"outcomes":[0,0,1],"key":38,"choice":1,"rt":500.9349999999977,"outcome":0,"trial":28,"correct":2,"trial_type":"three-arm-trial","trial_index":45,"time_elapsed":503584,"internal_node_id":"0.0-34.0-0.0","task_version":"screening-mturk","missing":false,"accuracy":0},{"contexts":["green","red","blue"],"outcomes":[1,0,1],"key":38,"choice":1,"rt":827.7500000004075,"outcome":0,"trial":29,"correct":2,"trial_type":"three-arm-trial","trial_index":46,"time_elapsed":505615,"internal_node_id":"0.0-35.0-0.0","task_version":"screening-mturk","missing":false,"accuracy":0},{"contexts":["green","red","blue"],"outcomes":[0,0,1],"key":37,"choice":0,"rt":309.0350000002072,"outcome":0,"trial":30,"correct":2,"trial_type":"three-arm-trial","trial_index":47,"time_elapsed":507128,"internal_node_id":"0.0-36.0-0.0","task_version":"screening-mturk","missing":false,"accuracy":0},{"contexts":["green","red","blue"],"outcomes":[0,1,0],"key":37,"choice":0,"rt":2036.1400000001886,"outcome":0,"trial":31,"correct":1,"trial_type":"three-arm-trial","trial_index":48,"time_elapsed":510367,"internal_node_id":"0.0-37.0-0.0","task_version":"screening-mturk","missing":false,"accuracy":0},{"contexts":["green","red","blue"],"outcomes":[0,1,0],"key":39,"choice":2,"rt":412.6999999989639,"outcome":0,"trial":32,"correct":1,"trial_type":"three-arm-trial","trial_index":49,"time_elapsed":511983,"internal_node_id":"0.0-38.0-0.0","task_version":"screening-mturk","missing":false,"accuracy":0},{"contexts":["green","red","blue"],"outcomes":[0,1,0],"key":38,"choice":1,"rt":1221.3949999986799,"outcome":1,"trial":33,"correct":1,"trial_type":"three-arm-trial","trial_index":50,"time_elapsed":514408,"internal_node_id":"0.0-39.0-0.0","task_version":"screening-mturk","missing":false,"accuracy":1},{"contexts":["green","red","blue"],"outcomes":[0,1,0],"key":38,"choice":1,"rt":627.6849999994738,"outcome":1,"trial":34,"correct":1,"trial_type":"three-arm-trial","trial_index":51,"time_elapsed":516240,"internal_node_id":"0.0-40.0-0.0","task_version":"screening-mturk","missing":false,"accuracy":1},{"contexts":["green","red","blue"],"outcomes":[0,1,0],"key":37,"choice":0,"rt":443.8850000005914,"outcome":0,"trial":35,"correct":1,"trial_type":"three-arm-trial","trial_index":52,"time_elapsed":517887,"internal_node_id":"0.0-41.0-0.0","task_version":"screening-mturk","missing":false,"accuracy":0},{"contexts":["green","red","blue"],"outcomes":[0,0,0],"key":37,"choice":0,"rt":452.2249999991036,"outcome":0,"trial":36,"correct":1,"trial_type":"three-arm-trial","trial_index":53,"time_elapsed":519544,"internal_node_id":"0.0-42.0-0.0","task_version":"screening-mturk","missing":false,"accuracy":0},{"contexts":["green","red","blue"],"outcomes":[0,1,0],"key":37,"choice":0,"rt":379.66000000049826,"outcome":0,"trial":37,"correct":1,"trial_type":"three-arm-trial","trial_index":54,"time_elapsed":521127,"internal_node_id":"0.0-43.0-0.0","task_version":"screening-mturk","missing":false,"accuracy":0},{"contexts":["green","red","blue"],"outcomes":[1,1,0],"key":39,"choice":2,"rt":292.4100000000326,"outcome":0,"trial":38,"correct":1,"trial_type":"three-arm-trial","trial_index":55,"time_elapsed":522624,"internal_node_id":"0.0-44.0-0.0","task_version":"screening-mturk","missing":false,"accuracy":0},{"contexts":["green","red","blue"],"outcomes":[0,1,0],"key":38,"choice":1,"rt":251.3650000001071,"outcome":1,"trial":39,"correct":1,"trial_type":"three-arm-trial","trial_index":56,"time_elapsed":524079,"internal_node_id":"0.0-45.0-0.0","task_version":"screening-mturk","missing":false,"accuracy":1},{"contexts":["green","red","blue"],"outcomes":[1,0,0],"key":38,"choice":1,"rt":316.48499999940395,"outcome":0,"trial":40,"correct":1,"trial_type":"three-arm-trial","trial_index":57,"time_elapsed":525599,"internal_node_id":"0.0-46.0-0.0","task_version":"screening-mturk","missing":false,"accuracy":1},{"contexts":["green","red","blue"],"outcomes":[1,0,0],"key":38,"choice":1,"rt":316.5000000008149,"outcome":0,"trial":41,"correct":1,"trial_type":"three-arm-trial","trial_index":58,"time_elapsed":527120,"internal_node_id":"0.0-47.0-0.0","task_version":"screening-mturk","missing":false,"accuracy":1},{"contexts":["green","red","blue"],"outcomes":[0,1,0],"key":37,"choice":0,"rt":300.4999999994179,"outcome":0,"trial":42,"correct":1,"trial_type":"three-arm-trial","trial_index":59,"time_elapsed":528624,"internal_node_id":"0.0-48.0-0.0","task_version":"screening-mturk","missing":false,"accuracy":0},{"contexts":["green","red","blue"],"outcomes":[0,1,0],"key":37,"choice":0,"rt":236.1799999998184,"outcome":0,"trial":43,"correct":1,"trial_type":"three-arm-trial","trial_index":60,"time_elapsed":530064,"internal_node_id":"0.0-49.0-0.0","task_version":"screening-mturk","missing":false,"accuracy":0},{"contexts":["green","red","blue"],"outcomes":[0,0,1],"key":37,"choice":0,"rt":356.9900000002235,"outcome":0,"trial":44,"correct":1,"trial_type":"three-arm-trial","trial_index":61,"time_elapsed":531624,"internal_node_id":"0.0-50.0-0.0","task_version":"screening-mturk","missing":false,"accuracy":0},{"contexts":["green","red","blue"],"outcomes":[1,0,0],"key":39,"choice":2,"rt":6.634999999776483,"outcome":0,"trial":45,"correct":1,"trial_type":"three-arm-trial","trial_index":62,"time_elapsed":532837,"internal_node_id":"0.0-51.0-0.0","task_version":"screening-mturk","missing":false,"accuracy":0},{"contexts":["green","red","blue"],"outcomes":[1,0,1],"key":39,"choice":2,"rt":191.5649999991292,"outcome":1,"trial":46,"correct":0,"trial_type":"three-arm-trial","trial_index":63,"time_elapsed":534233,"internal_node_id":"0.0-52.0-0.0","task_version":"screening-mturk","missing":false,"accuracy":0},{"contexts":["green","red","blue"],"outcomes":[1,0,1],"key":39,"choice":2,"rt":417.85499999974854,"outcome":1,"trial":47,"correct":0,"trial_type":"three-arm-trial","trial_index":64,"time_elapsed":535855,"internal_node_id":"0.0-53.0-0.0","task_version":"screening-mturk","missing":false,"accuracy":0},{"contexts":["green","red","blue"],"outcomes":[1,0,1],"key":38,"choice":1,"rt":508.5350000008475,"outcome":0,"trial":48,"correct":0,"trial_type":"three-arm-trial","trial_index":65,"time_elapsed":537568,"internal_node_id":"0.0-54.0-0.0","task_version":"screening-mturk","missing":false,"accuracy":0},{"contexts":["green","red","blue"],"outcomes":[1,0,0],"key":38,"choice":1,"rt":299.629999999539,"outcome":0,"trial":49,"correct":0,"trial_type":"three-arm-trial","trial_index":66,"time_elapsed":539072,"internal_node_id":"0.0-55.0-0.0","task_version":"screening-mturk","missing":false,"accuracy":0},{"contexts":["green","red","blue"],"outcomes":[1,0,1],"key":38,"choice":1,"rt":323.76000000117347,"outcome":0,"trial":50,"correct":0,"trial_type":"three-arm-trial","trial_index":67,"time_elapsed":540600,"internal_node_id":"0.0-56.0-0.0","task_version":"screening-mturk","missing":false,"accuracy":0},{"contexts":["green","red","blue"],"outcomes":[1,0,0],"key":37,"choice":0,"rt":211.49999999941792,"outcome":1,"trial":51,"correct":0,"trial_type":"three-arm-trial","trial_index":68,"time_elapsed":542016,"internal_node_id":"0.0-57.0-0.0","task_version":"screening-mturk","missing":false,"accuracy":1},{"contexts":["green","red","blue"],"outcomes":[1,0,0],"key":37,"choice":0,"rt":337.835000000312,"outcome":1,"trial":52,"correct":0,"trial_type":"three-arm-trial","trial_index":69,"time_elapsed":543560,"internal_node_id":"0.0-58.0-0.0","task_version":"screening-mturk","missing":false,"accuracy":1},{"contexts":["green","red","blue"],"outcomes":[1,0,0],"key":37,"choice":0,"rt":711.7100000014761,"outcome":1,"trial":53,"correct":0,"trial_type":"three-arm-trial","trial_index":70,"time_elapsed":545475,"internal_node_id":"0.0-59.0-0.0","task_version":"screening-mturk","missing":false,"accuracy":1},{"contexts":["green","red","blue"],"outcomes":[1,0,0],"key":37,"choice":0,"rt":363.0200000006007,"outcome":1,"trial":54,"correct":0,"trial_type":"three-arm-trial","trial_index":71,"time_elapsed":547043,"internal_node_id":"0.0-60.0-0.0","task_version":"screening-mturk","missing":false,"accuracy":1},{"contexts":["green","red","blue"],"outcomes":[1,0,0],"key":37,"choice":0,"rt":408.69999999995343,"outcome":1,"trial":55,"correct":0,"trial_type":"three-arm-trial","trial_index":72,"time_elapsed":548655,"internal_node_id":"0.0-61.0-0.0","task_version":"screening-mturk","missing":false,"accuracy":1},{"contexts":["green","red","blue"],"outcomes":[1,0,0],"key":37,"choice":0,"rt":324.2850000006147,"outcome":1,"trial":56,"correct":0,"trial_type":"three-arm-trial","trial_index":73,"time_elapsed":550183,"internal_node_id":"0.0-62.0-0.0","task_version":"screening-mturk","missing":false,"accuracy":1},{"contexts":["green","red","blue"],"outcomes":[0,0,1],"key":37,"choice":0,"rt":365.0999999990454,"outcome":0,"trial":57,"correct":0,"trial_type":"three-arm-trial","trial_index":74,"time_elapsed":551752,"internal_node_id":"0.0-63.0-0.0","task_version":"screening-mturk","missing":false,"accuracy":1},{"contexts":["green","red","blue"],"outcomes":[1,1,0],"key":39,"choice":2,"rt":539.5449999995762,"outcome":0,"trial":58,"correct":0,"trial_type":"three-arm-trial","trial_index":75,"time_elapsed":553496,"internal_node_id":"0.0-64.0-0.0","task_version":"screening-mturk","missing":false,"accuracy":0},{"contexts":["green","red","blue"],"outcomes":[1,0,0],"key":39,"choice":2,"rt":91.09499999973923,"outcome":0,"trial":59,"correct":0,"trial_type":"three-arm-trial","trial_index":76,"time_elapsed":554791,"internal_node_id":"0.0-65.0-0.0","task_version":"screening-mturk","missing":false,"accuracy":0},{"contexts":["green","red","blue"],"outcomes":[1,0,0],"key":38,"choice":1,"rt":364.835000000312,"outcome":0,"trial":60,"correct":0,"trial_type":"three-arm-trial","trial_index":77,"time_elapsed":556359,"internal_node_id":"0.0-66.0-0.0","task_version":"screening-mturk","missing":false,"accuracy":0},{"contexts":["green","red","blue"],"outcomes":[0,0,0],"key":38,"choice":1,"rt":333.31999999971595,"outcome":0,"trial":61,"correct":2,"trial_type":"three-arm-trial","trial_index":78,"time_elapsed":557897,"internal_node_id":"0.0-67.0-0.0","task_version":"screening-mturk","missing":false,"accuracy":0},{"contexts":["green","red","blue"],"outcomes":[0,1,0],"key":37,"choice":0,"rt":178.2600000007078,"outcome":0,"trial":62,"correct":2,"trial_type":"three-arm-trial","trial_index":79,"time_elapsed":559279,"internal_node_id":"0.0-68.0-0.0","task_version":"screening-mturk","missing":false,"accuracy":0},{"contexts":["green","red","blue"],"outcomes":[1,0,1],"key":37,"choice":0,"rt":308.1650000003865,"outcome":1,"trial":63,"correct":2,"trial_type":"three-arm-trial","trial_index":80,"time_elapsed":560791,"internal_node_id":"0.0-69.0-0.0","task_version":"screening-mturk","missing":false,"accuracy":0},{"contexts":["green","red","blue"],"outcomes":[0,0,0],"key":37,"choice":0,"rt":332.86500000033993,"outcome":0,"trial":64,"correct":2,"trial_type":"three-arm-trial","trial_index":81,"time_elapsed":562327,"internal_node_id":"0.0-70.0-0.0","task_version":"screening-mturk","missing":false,"accuracy":0},{"contexts":["green","red","blue"],"outcomes":[0,0,1],"key":37,"choice":0,"rt":341.5900000000838,"outcome":0,"trial":65,"correct":2,"trial_type":"three-arm-trial","trial_index":82,"time_elapsed":563873,"internal_node_id":"0.0-71.0-0.0","task_version":"screening-mturk","missing":false,"accuracy":0},{"contexts":["green","red","blue"],"outcomes":[0,0,1],"key":37,"choice":0,"rt":354.52999999863096,"outcome":0,"trial":66,"correct":2,"trial_type":"three-arm-trial","trial_index":83,"time_elapsed":565431,"internal_node_id":"0.0-72.0-0.0","task_version":"screening-mturk","missing":false,"accuracy":0},{"contexts":["green","red","blue"],"outcomes":[0,0,1],"key":39,"choice":2,"rt":316.67500000004657,"outcome":1,"trial":67,"correct":2,"trial_type":"three-arm-trial","trial_index":84,"time_elapsed":566952,"internal_node_id":"0.0-73.0-0.0","task_version":"screening-mturk","missing":false,"accuracy":1},{"contexts":["green","red","blue"],"outcomes":[0,0,1],"key":39,"choice":2,"rt":531.1450000008335,"outcome":1,"trial":68,"correct":2,"trial_type":"three-arm-trial","trial_index":85,"time_elapsed":568687,"internal_node_id":"0.0-74.0-0.0","task_version":"screening-mturk","missing":false,"accuracy":1},{"contexts":["green","red","blue"],"outcomes":[0,0,1],"key":39,"choice":2,"rt":972.809999999241,"outcome":1,"trial":69,"correct":2,"trial_type":"three-arm-trial","trial_index":86,"time_elapsed":570863,"internal_node_id":"0.0-75.0-0.0","task_version":"screening-mturk","missing":false,"accuracy":1},{"contexts":["green","red","blue"],"outcomes":[0,0,1],"key":39,"choice":2,"rt":804.7699999987381,"outcome":1,"trial":70,"correct":2,"trial_type":"three-arm-trial","trial_index":87,"time_elapsed":572871,"internal_node_id":"0.0-76.0-0.0","task_version":"screening-mturk","missing":false,"accuracy":1},{"contexts":["green","red","blue"],"outcomes":[1,0,1],"key":39,"choice":2,"rt":963.8649999997579,"outcome":1,"trial":71,"correct":2,"trial_type":"three-arm-trial","trial_index":88,"time_elapsed":575040,"internal_node_id":"0.0-77.0-0.0","task_version":"screening-mturk","missing":false,"accuracy":1},{"contexts":["green","red","blue"],"outcomes":[0,0,1],"key":39,"choice":2,"rt":1316.0800000005402,"outcome":1,"trial":72,"correct":2,"trial_type":"three-arm-trial","trial_index":89,"time_elapsed":577559,"internal_node_id":"0.0-78.0-0.0","task_version":"screening-mturk","missing":false,"accuracy":1},{"contexts":["green","red","blue"],"outcomes":[1,0,1],"key":39,"choice":2,"rt":1068.5699999994831,"outcome":1,"trial":73,"correct":2,"trial_type":"three-arm-trial","trial_index":90,"time_elapsed":579831,"internal_node_id":"0.0-79.0-0.0","task_version":"screening-mturk","missing":false,"accuracy":1},{"contexts":["green","red","blue"],"outcomes":[1,1,1],"key":39,"choice":2,"rt":1092.3500000007916,"outcome":1,"trial":74,"correct":2,"trial_type":"three-arm-trial","trial_index":91,"time_elapsed":582128,"internal_node_id":"0.0-80.0-0.0","task_version":"screening-mturk","missing":false,"accuracy":1},{"contexts":["green","red","blue"],"outcomes":[0,0,1],"key":39,"choice":2,"rt":1347.6549999995623,"outcome":1,"trial":75,"correct":2,"trial_type":"three-arm-trial","trial_index":92,"time_elapsed":584680,"internal_node_id":"0.0-81.0-0.0","task_version":"screening-mturk","missing":false,"accuracy":1},{"contexts":["green","red","blue"],"outcomes":[1,0,0],"key":39,"choice":2,"rt":860.5950000000885,"outcome":0,"trial":76,"correct":0,"trial_type":"three-arm-trial","trial_index":93,"time_elapsed":586743,"internal_node_id":"0.0-82.0-0.0","task_version":"screening-mturk","missing":false,"accuracy":0},{"contexts":["green","red","blue"],"outcomes":[1,0,1],"key":38,"choice":1,"rt":156.26999999943655,"outcome":0,"trial":77,"correct":0,"trial_type":"three-arm-trial","trial_index":94,"time_elapsed":588103,"internal_node_id":"0.0-83.0-0.0","task_version":"screening-mturk","missing":false,"accuracy":0},{"contexts":["green","red","blue"],"outcomes":[1,1,0],"key":38,"choice":1,"rt":284.4500000010012,"outcome":1,"trial":78,"correct":0,"trial_type":"three-arm-trial","trial_index":95,"time_elapsed":589591,"internal_node_id":"0.0-84.0-0.0","task_version":"screening-mturk","missing":false,"accuracy":0},{"contexts":["green","red","blue"],"outcomes":[1,0,0],"key":38,"choice":1,"rt":284.96000000089407,"outcome":0,"trial":79,"correct":0,"trial_type":"three-arm-trial","trial_index":96,"time_elapsed":591079,"internal_node_id":"0.0-85.0-0.0","task_version":"screening-mturk","missing":false,"accuracy":0},{"contexts":["green","red","blue"],"outcomes":[0,0,0],"key":38,"choice":1,"rt":316.3100000001723,"outcome":0,"trial":80,"correct":0,"trial_type":"three-arm-trial","trial_index":97,"time_elapsed":592598,"internal_node_id":"0.0-86.0-0.0","task_version":"screening-mturk","missing":false,"accuracy":0},{"contexts":["green","red","blue"],"outcomes":[0,0,0],"key":37,"choice":0,"rt":950.6099999998696,"outcome":0,"trial":81,"correct":0,"trial_type":"three-arm-trial","trial_index":98,"time_elapsed":594755,"internal_node_id":"0.0-87.0-0.0","task_version":"screening-mturk","missing":false,"accuracy":1},{"contexts":["green","red","blue"],"outcomes":[1,1,0],"key":37,"choice":0,"rt":401.20999999996275,"outcome":1,"trial":82,"correct":0,"trial_type":"three-arm-trial","trial_index":99,"time_elapsed":596359,"internal_node_id":"0.0-88.0-0.0","task_version":"screening-mturk","missing":false,"accuracy":1},{"contexts":["green","red","blue"],"outcomes":[1,0,1],"key":37,"choice":0,"rt":309.1899999999441,"outcome":1,"trial":83,"correct":0,"trial_type":"three-arm-trial","trial_index":100,"time_elapsed":597871,"internal_node_id":"0.0-89.0-0.0","task_version":"screening-mturk","missing":false,"accuracy":1},{"contexts":["green","red","blue"],"outcomes":[1,0,0],"key":37,"choice":0,"rt":332.77000000094995,"outcome":1,"trial":84,"correct":0,"trial_type":"three-arm-trial","trial_index":101,"time_elapsed":599407,"internal_node_id":"0.0-90.0-0.0","task_version":"screening-mturk","missing":false,"accuracy":1},{"contexts":["green","red","blue"],"outcomes":[0,0,0],"key":37,"choice":0,"rt":373.9100000002654,"outcome":0,"trial":85,"correct":0,"trial_type":"three-arm-trial","trial_index":102,"time_elapsed":600985,"internal_node_id":"0.0-91.0-0.0","task_version":"screening-mturk","missing":false,"accuracy":1},{"contexts":["green","red","blue"],"outcomes":[0,0,0],"key":39,"choice":2,"rt":176.3499999997439,"outcome":0,"trial":86,"correct":0,"trial_type":"three-arm-trial","trial_index":103,"time_elapsed":602368,"internal_node_id":"0.0-92.0-0.0","task_version":"screening-mturk","missing":false,"accuracy":0},{"contexts":["green","red","blue"],"outcomes":[1,0,0],"key":39,"choice":2,"rt":443.63499999966007,"outcome":0,"trial":87,"correct":0,"trial_type":"three-arm-trial","trial_index":104,"time_elapsed":604016,"internal_node_id":"0.0-93.0-0.0","task_version":"screening-mturk","missing":false,"accuracy":0},{"contexts":["green","red","blue"],"outcomes":[1,1,0],"key":38,"choice":1,"rt":370.94500000053085,"outcome":1,"trial":88,"correct":0,"trial_type":"three-arm-trial","trial_index":105,"time_elapsed":605591,"internal_node_id":"0.0-94.0-0.0","task_version":"screening-mturk","missing":false,"accuracy":0},{"contexts":["green","red","blue"],"outcomes":[1,0,0],"key":38,"choice":1,"rt":380.05499999958556,"outcome":0,"trial":89,"correct":0,"trial_type":"three-arm-trial","trial_index":106,"time_elapsed":607175,"internal_node_id":"0.0-95.0-0.0","task_version":"screening-mturk","missing":false,"accuracy":0},{"contexts":["green","red","blue"],"outcomes":[1,0,0],"key":38,"choice":1,"rt":356.10499999893364,"outcome":0,"trial":90,"correct":0,"trial_type":"three-arm-trial","trial_index":107,"time_elapsed":608735,"internal_node_id":"0.0-96.0-0.0","task_version":"screening-mturk","missing":false,"accuracy":0},{"rt":55726.55000000121,"responses":{"age":"52","gender-categorical":"Female","gender-free-response":"","ethnicity":"Not Hispanic or Latino","race":["White"],"language":"Yes","fluency":"Very well","prolific":"Yes","prolific-this-study":"No"},"survey":"demographics","trial_type":"survey-demo","trial_index":108,"time_elapsed":664468,"internal_node_id":"0.0-97.0","task_version":"screening-mturk","interactions":"[{\"event\":\"blur\",\"trial\":0,\"time\":46643},{\"event\":\"focus\",\"trial\":0,\"time\":46931},{\"event\":\"blur\",\"trial\":5,\"time\":171342},{\"event\":\"focus\",\"trial\":5,\"time\":173172},{\"event\":\"blur\",\"trial\":108,\"time\":648393},{\"event\":\"focus\",\"trial\":108,\"time\":657902}]"}]