[{"responses":{"Q08":"0","Q02":"0","Q04":"0","Q06":"0","Q03":"0","Q01":"0","Q07":"0","Q05":"0"},"rt":32967.91499998653,"survey":"gad7","trial_type":"survey-template","trial_index":0,"time_elapsed":32995,"internal_node_id":"0.0-0.0","task_version":"screening-mturk"},{"responses":{"Q02":"0","Q01":"0","Q03":"0"},"rt":12809.639999992214,"survey":"pswq","trial_type":"survey-template","trial_index":1,"time_elapsed":45811,"internal_node_id":"0.0-1.0","task_version":"screening-mturk"},{"responses":{"Q04":"2","Q09":"2","Q02":"0","Q12":"0","Q07":"1","Q05":"3","Q11":"2","Q06":"3","Q08":"2","Q13":"0","Q01":"3","Q10":"2","Q03":"2"},"rt":123487.73500003153,"survey":"bisbas","trial_type":"survey-template","trial_index":2,"time_elapsed":169308,"internal_node_id":"0.0-2.0","task_version":"screening-mturk"},{"responses":{"Q10":"3","Q14":"2","Q03":"1","Q09":"2","Q01":"0","Q13":"0","Q06":"2","Q15":"1","Q02":"1","Q04":"2","Q05":"1","Q11":"2","Q07":"3","Q12":"2","Q08":"1"},"rt":52086.70500002336,"survey":"7up7down","trial_type":"survey-template","trial_index":3,"time_elapsed":221408,"internal_node_id":"0.0-3.0","task_version":"screening-mturk"},{"responses":{"Q08":"3","Q12":"3","Q06":"3","Q15":"3","Q09":"3","Q04":"3","Q07":"3","Q01":"3","Q13":"3","Q14":"2","Q10":"3","Q02":"3","Q03":"3","Q11":"3","Q05":"3"},"rt":73112.46999999275,"survey":"shaps","trial_type":"survey-template","trial_index":4,"time_elapsed":294533,"internal_node_id":"0.0-4.0","task_version":"screening-mturk"},{"view_history":"[{\"page_index\":0,\"viewing_time\":8173.829999985173},{\"page_index\":1,\"viewing_time\":27921.02500004694},{\"page_index\":2,\"viewing_time\":7263.814999954775},{\"page_index\":3,\"viewing_time\":9976.980000035837},{\"page_index\":2,\"viewing_time\":3589.9099999805912},{\"page_index\":3,\"viewing_time\":10988.25500003295},{\"page_index\":4,\"viewing_time\":7128.054999979213},{\"page_index\":5,\"viewing_time\":9891.330000013113},{\"page_index\":6,\"viewing_time\":7745.6599999568425},{\"page_index\":7,\"viewing_time\":7695.530000026338}]","rt":100374.88499999745,"trial_type":"instructions","trial_index":5,"time_elapsed":394914,"internal_node_id":"0.0-5.0-0.0","task_version":"screening-mturk"},{"responses":["True","True","True","True","False"],"num_errors":3,"rt":37751.645000011194,"trial_type":"three-arm-comprehension","trial_index":6,"time_elapsed":432671,"internal_node_id":"0.0-5.0-1.0","task_version":"screening-mturk"},{"view_history":"[{\"page_index\":0,\"viewing_time\":2994.2450000089593},{\"page_index\":1,\"viewing_time\":2109.8650000058115},{\"page_index\":2,\"viewing_time\":4100.3599999821745},{\"page_index\":3,\"viewing_time\":3279.355000006035},{\"page_index\":4,\"viewing_time\":2002.6749999960884},{\"page_index\":5,\"viewing_time\":1999.9700000043958},{\"page_index\":6,\"viewing_time\":2805.2349999779835},{\"page_index\":7,\"viewing_time\":1852.24500001641}]","rt":21144.679999968503,"trial_type":"instructions","trial_index":7,"time_elapsed":453827,"internal_node_id":"0.0-5.1-0.1","task_version":"screening-mturk"},{"responses":["True","False","True","True","False"],"num_errors":4,"rt":15471.26500000013,"trial_type":"three-arm-comprehension","trial_index":8,"time_elapsed":469305,"internal_node_id":"0.0-5.1-1.1","task_version":"screening-mturk"},{"view_history":"[{\"page_index\":0,\"viewing_time\":1548.7399999983609},{\"page_index\":1,\"viewing_time\":649.3849999969825},{\"page_index\":2,\"viewing_time\":1297.6049999706447},{\"page_index\":3,\"viewing_time\":7779.730000009295},{\"page_index\":4,\"viewing_time\":13652.209999971092},{\"page_index\":5,\"viewing_time\":9135.195000038948},{\"page_index\":6,\"viewing_time\":6255.490000010468},{\"page_index\":7,\"viewing_time\":8163.944999978412}]","rt":48483.16499998327,"trial_type":"instructions","trial_index":9,"time_elapsed":517797,"internal_node_id":"0.0-5.2-0.2","task_version":"screening-mturk"},{"responses":["True","True","True","True","True"],"num_errors":2,"rt":6014.599999994971,"trial_type":"three-arm-comprehension","trial_index":10,"time_elapsed":523816,"internal_node_id":"0.0-5.2-1.2","task_version":"screening-mturk"},{"view_history":"[{\"page_index\":0,\"viewing_time\":1455.725000007078},{\"page_index\":1,\"viewing_time\":196.14000001456589},{\"page_index\":2,\"viewing_time\":235.3550000116229},{\"page_index\":3,\"viewing_time\":186.0099999466911},{\"page_index\":4,\"viewing_time\":552.0750000141561},{\"page_index\":5,\"viewing_time\":470.64499999396503},{\"page_index\":6,\"viewing_time\":477.1850000252016},{\"page_index\":7,\"viewing_time\":562.7399999648333}]","rt":4136.545000015758,"trial_type":"instructions","trial_index":11,"time_elapsed":527959,"internal_node_id":"0.0-5.3-0.3","task_version":"screening-mturk"},{"responses":["True","False","True","True","False"],"num_errors":4,"rt":12283.655000035651,"trial_type":"three-arm-comprehension","trial_index":12,"time_elapsed":540248,"internal_node_id":"0.0-5.3-1.3","task_version":"screening-mturk"},{"view_history":"[{\"page_index\":0,\"viewing_time\":1375.0599999912083},{\"page_index\":1,\"viewing_time\":185.95000001369044},{\"page_index\":2,\"viewing_time\":187.8349999897182},{\"page_index\":3,\"viewing_time\":200.28499996988103},{\"page_index\":4,\"viewing_time\":629.8900000401773},{\"page_index\":5,\"viewing_time\":502.08999996539205},{\"page_index\":6,\"viewing_time\":511.9350000168197},{\"page_index\":7,\"viewing_time\":551.9649999914691}]","rt":4145.634999964386,"trial_type":"instructions","trial_index":13,"time_elapsed":544400,"internal_node_id":"0.0-5.4-0.4","task_version":"screening-mturk"},{"responses":["True","True","False","True","False"],"num_errors":2,"rt":9391.189999994822,"trial_type":"three-arm-comprehension","trial_index":14,"time_elapsed":553798,"internal_node_id":"0.0-5.4-1.4","task_version":"screening-mturk"},{"view_history":"[{\"page_index\":0,\"viewing_time\":1381.4399999682792},{\"page_index\":1,\"viewing_time\":200.02500002738088},{\"page_index\":2,\"viewing_time\":185.9249999979511},{\"page_index\":3,\"viewing_time\":200.00499999150634},{\"page_index\":4,\"viewing_time\":498.56500001624227},{\"page_index\":5,\"viewing_time\":482.2149999672547},{\"page_index\":6,\"viewing_time\":497.7450000005774},{\"page_index\":7,\"viewing_time\":533.9200000162236}]","rt":3980.340000009164,"trial_type":"instructions","trial_index":15,"time_elapsed":557786,"internal_node_id":"0.0-5.5-0.5","task_version":"screening-mturk"},{"responses":["True","False","False","True","True"],"num_errors":2,"rt":4695.590000017546,"trial_type":"three-arm-comprehension","trial_index":16,"time_elapsed":562487,"internal_node_id":"0.0-5.5-1.5","task_version":"screening-mturk"},{"view_history":"[{\"page_index\":0,\"viewing_time\":1057.5100000132807},{\"page_index\":1,\"viewing_time\":216.59999998519197},{\"page_index\":2,\"viewing_time\":192.1800000127405},{\"page_index\":3,\"viewing_time\":182.02999996719882},{\"page_index\":4,\"viewing_time\":569.7350000264123},{\"page_index\":5,\"viewing_time\":529.9900000100024},{\"page_index\":6,\"viewing_time\":546.024999988731},{\"page_index\":7,\"viewing_time\":542.0099999755621}]","rt":3836.7100000032224,"trial_type":"instructions","trial_index":17,"time_elapsed":566331,"internal_node_id":"0.0-5.6-0.6","task_version":"screening-mturk"},{"responses":["True","False","False","False","False"],"num_errors":2,"rt":4725.150000012945,"trial_type":"three-arm-comprehension","trial_index":18,"time_elapsed":571061,"internal_node_id":"0.0-5.6-1.6","task_version":"screening-mturk"},{"view_history":"[{\"page_index\":0,\"viewing_time\":1054.6599999652244},{\"page_index\":1,\"viewing_time\":193.27500002691522},{\"page_index\":2,\"viewing_time\":192.66000000061467},{\"page_index\":3,\"viewing_time\":184.2049999977462},{\"page_index\":4,\"viewing_time\":185.91499998001382},{\"page_index\":5,\"viewing_time\":228.07000001193956},{\"page_index\":6,\"viewing_time\":225.88500002166256},{\"page_index\":7,\"viewing_time\":191.99500000104308}]","rt":2457.2449999977835,"trial_type":"instructions","trial_index":19,"time_elapsed":573525,"internal_node_id":"0.0-5.7-0.7","task_version":"screening-mturk"},{"responses":["False","True","False","True","False"],"num_errors":3,"rt":5875.4299999563955,"trial_type":"three-arm-comprehension","trial_index":20,"time_elapsed":579405,"internal_node_id":"0.0-5.7-1.7","task_version":"screening-mturk"},{"view_history":"[{\"page_index\":0,\"viewing_time\":838.5450000059791},{\"page_index\":1,\"viewing_time\":200.25500003248453},{\"page_index\":2,\"viewing_time\":191.8749999604188},{\"page_index\":3,\"viewing_time\":177.88500001188368},{\"page_index\":4,\"viewing_time\":188.10999998822808},{\"page_index\":5,\"viewing_time\":188.03000001935288},{\"page_index\":6,\"viewing_time\":213.92000000923872},{\"page_index\":7,\"viewing_time\":318.059999961406}]","rt":2317.250000021886,"trial_type":"instructions","trial_index":21,"time_elapsed":581729,"internal_node_id":"0.0-5.8-0.8","task_version":"screening-mturk"},{"responses":["True","True","True","False","True"],"num_errors":1,"rt":40346.935000037774,"trial_type":"three-arm-comprehension","trial_index":22,"time_elapsed":622080,"internal_node_id":"0.0-5.8-1.8","task_version":"screening-mturk"},{"view_history":"[{\"page_index\":0,\"viewing_time\":1458.5450000013225},{\"page_index\":1,\"viewing_time\":204.1099999914877},{\"page_index\":2,\"viewing_time\":191.81499996921048},{\"page_index\":3,\"viewing_time\":186.56000000191852},{\"page_index\":4,\"viewing_time\":200.06000000284985},{\"page_index\":5,\"viewing_time\":194.0349999931641},{\"page_index\":6,\"viewing_time\":299.99999998835847},{\"page_index\":7,\"viewing_time\":354.31000002427027}]","rt":3090.314999979455,"trial_type":"instructions","trial_index":23,"time_elapsed":625174,"internal_node_id":"0.0-5.9-0.9","task_version":"screening-mturk"},{"responses":["True","True","True","False","False"],"num_errors":2,"rt":4949.579999956768,"trial_type":"three-arm-comprehension","trial_index":24,"time_elapsed":630132,"internal_node_id":"0.0-5.9-1.9","task_version":"screening-mturk"},{"view_history":"[{\"page_index\":0,\"viewing_time\":910.0800000014715},{\"page_index\":1,\"viewing_time\":191.97999994503334},{\"page_index\":2,\"viewing_time\":185.93500001588836},{\"page_index\":3,\"viewing_time\":187.4449999886565},{\"page_index\":4,\"viewing_time\":477.855000004638},{\"page_index\":5,\"viewing_time\":474.335000035353},{\"page_index\":6,\"viewing_time\":521.984999999404},{\"page_index\":7,\"viewing_time\":632.370000006631}]","rt":3582.53999997396,"trial_type":"instructions","trial_index":25,"time_elapsed":633721,"internal_node_id":"0.0-5.10-0.10","task_version":"screening-mturk"},{"responses":["True","True","False","False","False"],"num_errors":1,"rt":6415.529999998398,"trial_type":"three-arm-comprehension","trial_index":26,"time_elapsed":640141,"internal_node_id":"0.0-5.10-1.10","task_version":"screening-mturk"},{"view_history":"[{\"page_index\":0,\"viewing_time\":1218.2000000029802},{\"page_index\":1,\"viewing_time\":191.98500004131347},{\"page_index\":2,\"viewing_time\":189.8749999818392},{\"page_index\":3,\"viewing_time\":180.02500000875443},{\"page_index\":4,\"viewing_time\":182.0999999763444},{\"page_index\":5,\"viewing_time\":195.21000003442168},{\"page_index\":6,\"viewing_time\":304.6650000032969},{\"page_index\":7,\"viewing_time\":559.4299999647774}]","rt":3021.790000027977,"trial_type":"instructions","trial_index":27,"time_elapsed":643170,"internal_node_id":"0.0-5.11-0.11","task_version":"screening-mturk"},{"responses":["True","False","True","False","False"],"num_errors":3,"rt":4799.239999963902,"trial_type":"three-arm-comprehension","trial_index":28,"time_elapsed":647973,"internal_node_id":"0.0-5.11-1.11","task_version":"screening-mturk"},{"view_history":"[{\"page_index\":0,\"viewing_time\":2313.829999999143},{\"page_index\":1,\"viewing_time\":8770.65500000026},{\"page_index\":2,\"viewing_time\":7104.300000006333},{\"page_index\":3,\"viewing_time\":2717.624999990221},{\"page_index\":4,\"viewing_time\":8802.245000028051},{\"page_index\":5,\"viewing_time\":6697.294999961741},{\"page_index\":6,\"viewing_time\":809.9400000064634},{\"page_index\":7,\"viewing_time\":3671.810000028927},{\"page_index\":6,\"viewing_time\":3177.945000003092},{\"page_index\":5,\"viewing_time\":20191.66499999119},{\"page_index\":6,\"viewing_time\":881.6200000001118},{\"page_index\":7,\"viewing_time\":4102.0949999801815}]","rt":69241.5349999792,"trial_type":"instructions","trial_index":29,"time_elapsed":717220,"internal_node_id":"0.0-5.12-0.12","task_version":"screening-mturk"},{"responses":["True","False","False","False","True"],"num_errors":1,"rt":7833.89500004705,"trial_type":"three-arm-comprehension","trial_index":30,"time_elapsed":725059,"internal_node_id":"0.0-5.12-1.12","task_version":"screening-mturk"},{"view_history":"[{\"page_index\":0,\"viewing_time\":966.7250000056811},{\"page_index\":1,\"viewing_time\":195.23499999195337},{\"page_index\":2,\"viewing_time\":194.2150000249967},{\"page_index\":3,\"viewing_time\":183.71499999193475},{\"page_index\":4,\"viewing_time\":204.52999998815358},{\"page_index\":5,\"viewing_time\":289.73999997833744},{\"page_index\":6,\"viewing_time\":434.04500000178814},{\"page_index\":7,\"viewing_time\":465.55000002263114}]","rt":2934.095000033267,"trial_type":"instructions","trial_index":31,"time_elapsed":727999,"internal_node_id":"0.0-5.13-0.13","task_version":"screening-mturk"},{"responses":["True","True","False","False","False"],"num_errors":1,"rt":6156.455000047572,"trial_type":"three-arm-comprehension","trial_index":32,"time_elapsed":734159,"internal_node_id":"0.0-5.13-1.13","task_version":"screening-mturk"},{"view_history":"[{\"page_index\":0,\"viewing_time\":960.44500003336},{\"page_index\":1,\"viewing_time\":196.43000001087785},{\"page_index\":2,\"viewing_time\":190.06999995326623},{\"page_index\":3,\"viewing_time\":192.76000000536442},{\"page_index\":4,\"viewing_time\":171.52500001247972},{\"page_index\":5,\"viewing_time\":453.830000013113},{\"page_index\":6,\"viewing_time\":489.7200000123121},{\"page_index\":7,\"viewing_time\":477.5499999523163}]","rt":3132.8550000325777,"trial_type":"instructions","trial_index":33,"time_elapsed":737297,"internal_node_id":"0.0-5.14-0.14","task_version":"screening-mturk"},{"responses":["True","True","False","False","True"],"num_errors":0,"rt":4639.035000000149,"trial_type":"three-arm-comprehension","trial_index":34,"time_elapsed":741940,"internal_node_id":"0.0-5.14-1.14","task_version":"screening-mturk"},{"view_history":"[{\"page_index\":0,\"viewing_time\":3449.1500000003725}]","rt":3449.5849999948405,"trial_type":"instructions","trial_index":35,"time_elapsed":745393,"internal_node_id":"0.0-6.0","task_version":"screening-mturk"},{"contexts":["green","red","blue"],"outcomes":[1,0,0],"key":38,"choice":1,"rt":8006.1250000144355,"outcome":0,"trial":1,"correct":0,"trial_type":"three-arm-trial","trial_index":36,"time_elapsed":754609,"internal_node_id":"0.0-7.0-0.0","task_version":"screening-mturk","missing":false,"accuracy":0},{"contexts":["green","red","blue"],"outcomes":[1,0,0],"key":39,"choice":2,"rt":710.1949999923818,"outcome":0,"trial":2,"correct":0,"trial_type":"three-arm-trial","trial_index":37,"time_elapsed":756527,"internal_node_id":"0.0-8.0-0.0","task_version":"screening-mturk","missing":false,"accuracy":0},{"contexts":["green","red","blue"],"outcomes":[1,0,0],"key":37,"choice":0,"rt":368.709999951534,"outcome":1,"trial":3,"correct":0,"trial_type":"three-arm-trial","trial_index":38,"time_elapsed":758103,"internal_node_id":"0.0-9.0-0.0","task_version":"screening-mturk","missing":false,"accuracy":1},{"contexts":["green","red","blue"],"outcomes":[0,0,0],"key":37,"choice":0,"rt":2425.6350000505336,"outcome":0,"trial":4,"correct":0,"trial_type":"three-arm-trial","trial_index":39,"time_elapsed":761734,"internal_node_id":"0.0-10.0-0.0","task_version":"screening-mturk","missing":false,"accuracy":1},{"contexts":["green","red","blue"],"outcomes":[1,0,0],"key":38,"choice":1,"rt":418.2400000281632,"outcome":0,"trial":5,"correct":0,"trial_type":"three-arm-trial","trial_index":40,"time_elapsed":763357,"internal_node_id":"0.0-11.0-0.0","task_version":"screening-mturk","missing":false,"accuracy":0},{"contexts":["green","red","blue"],"outcomes":[1,0,0],"key":38,"choice":1,"rt":1213.9500000048429,"outcome":0,"trial":6,"correct":0,"trial_type":"three-arm-trial","trial_index":41,"time_elapsed":765775,"internal_node_id":"0.0-12.0-0.0","task_version":"screening-mturk","missing":false,"accuracy":0},{"contexts":["green","red","blue"],"outcomes":[0,0,0],"key":37,"choice":0,"rt":385.2199999964796,"outcome":0,"trial":7,"correct":0,"trial_type":"three-arm-trial","trial_index":42,"time_elapsed":767368,"internal_node_id":"0.0-13.0-0.0","task_version":"screening-mturk","missing":false,"accuracy":1},{"contexts":["green","red","blue"],"outcomes":[1,0,0],"key":39,"choice":2,"rt":456.0200000414625,"outcome":0,"trial":8,"correct":0,"trial_type":"three-arm-trial","trial_index":43,"time_elapsed":769030,"internal_node_id":"0.0-14.0-0.0","task_version":"screening-mturk","missing":false,"accuracy":0},{"contexts":["green","red","blue"],"outcomes":[0,0,0],"key":38,"choice":1,"rt":362.554999999702,"outcome":0,"trial":9,"correct":0,"trial_type":"three-arm-trial","trial_index":44,"time_elapsed":770597,"internal_node_id":"0.0-15.0-0.0","task_version":"screening-mturk","missing":false,"accuracy":0},{"contexts":["green","red","blue"],"outcomes":[1,0,1],"key":37,"choice":0,"rt":803.9299999945797,"outcome":1,"trial":10,"correct":0,"trial_type":"three-arm-trial","trial_index":45,"time_elapsed":772605,"internal_node_id":"0.0-16.0-0.0","task_version":"screening-mturk","missing":false,"accuracy":1},{"contexts":["green","red","blue"],"outcomes":[1,0,0],"key":39,"choice":2,"rt":1098.844999971334,"outcome":0,"trial":11,"correct":0,"trial_type":"three-arm-trial","trial_index":46,"time_elapsed":774911,"internal_node_id":"0.0-17.0-0.0","task_version":"screening-mturk","missing":false,"accuracy":0},{"contexts":["green","red","blue"],"outcomes":[0,1,0],"key":37,"choice":0,"rt":360.930000024382,"outcome":0,"trial":12,"correct":0,"trial_type":"three-arm-trial","trial_index":47,"time_elapsed":776477,"internal_node_id":"0.0-18.0-0.0","task_version":"screening-mturk","missing":false,"accuracy":1},{"contexts":["green","red","blue"],"outcomes":[1,0,0],"key":39,"choice":2,"rt":282.59000001708046,"outcome":0,"trial":13,"correct":0,"trial_type":"three-arm-trial","trial_index":48,"time_elapsed":777969,"internal_node_id":"0.0-19.0-0.0","task_version":"screening-mturk","missing":false,"accuracy":0},{"contexts":["green","red","blue"],"outcomes":[1,0,0],"key":38,"choice":1,"rt":25.329999974928796,"outcome":0,"trial":14,"correct":0,"trial_type":"three-arm-trial","trial_index":49,"time_elapsed":779200,"internal_node_id":"0.0-20.0-0.0","task_version":"screening-mturk","missing":false,"accuracy":0},{"contexts":["green","red","blue"],"outcomes":[0,0,0],"key":37,"choice":0,"rt":366.72499997075647,"outcome":0,"trial":15,"correct":0,"trial_type":"three-arm-trial","trial_index":50,"time_elapsed":780772,"internal_node_id":"0.0-21.0-0.0","task_version":"screening-mturk","missing":false,"accuracy":1},{"contexts":["green","red","blue"],"outcomes":[1,1,0],"key":39,"choice":2,"rt":427.4800000130199,"outcome":0,"trial":16,"correct":1,"trial_type":"three-arm-trial","trial_index":51,"time_elapsed":782404,"internal_node_id":"0.0-22.0-0.0","task_version":"screening-mturk","missing":false,"accuracy":0},{"contexts":["green","red","blue"],"outcomes":[1,1,0],"key":37,"choice":0,"rt":596.6599999810569,"outcome":1,"trial":17,"correct":1,"trial_type":"three-arm-trial","trial_index":52,"time_elapsed":784206,"internal_node_id":"0.0-23.0-0.0","task_version":"screening-mturk","missing":false,"accuracy":0},{"contexts":["green","red","blue"],"outcomes":[0,1,0],"key":38,"choice":1,"rt":784.3250000150874,"outcome":1,"trial":18,"correct":1,"trial_type":"three-arm-trial","trial_index":53,"time_elapsed":786197,"internal_node_id":"0.0-24.0-0.0","task_version":"screening-mturk","missing":false,"accuracy":1},{"contexts":["green","red","blue"],"outcomes":[0,1,1],"key":37,"choice":0,"rt":475.5200000363402,"outcome":0,"trial":19,"correct":1,"trial_type":"three-arm-trial","trial_index":54,"time_elapsed":787878,"internal_node_id":"0.0-25.0-0.0","task_version":"screening-mturk","missing":false,"accuracy":0},{"contexts":["green","red","blue"],"outcomes":[0,1,0],"key":38,"choice":1,"rt":545.5100000253879,"outcome":1,"trial":20,"correct":1,"trial_type":"three-arm-trial","trial_index":55,"time_elapsed":789628,"internal_node_id":"0.0-26.0-0.0","task_version":"screening-mturk","missing":false,"accuracy":1},{"contexts":["green","red","blue"],"outcomes":[0,1,1],"key":39,"choice":2,"rt":340.23999999044463,"outcome":1,"trial":21,"correct":1,"trial_type":"three-arm-trial","trial_index":56,"time_elapsed":791173,"internal_node_id":"0.0-27.0-0.0","task_version":"screening-mturk","missing":false,"accuracy":0},{"contexts":["green","red","blue"],"outcomes":[1,1,0],"key":37,"choice":0,"rt":1331.2049999949522,"outcome":1,"trial":22,"correct":1,"trial_type":"three-arm-trial","trial_index":57,"time_elapsed":793710,"internal_node_id":"0.0-28.0-0.0","task_version":"screening-mturk","missing":false,"accuracy":0},{"contexts":["green","red","blue"],"outcomes":[0,1,0],"key":39,"choice":2,"rt":426.12999997800216,"outcome":0,"trial":23,"correct":1,"trial_type":"three-arm-trial","trial_index":58,"time_elapsed":795341,"internal_node_id":"0.0-29.0-0.0","task_version":"screening-mturk","missing":false,"accuracy":0},{"contexts":["green","red","blue"],"outcomes":[0,1,1],"key":38,"choice":1,"rt":596.7750000418164,"outcome":1,"trial":24,"correct":1,"trial_type":"three-arm-trial","trial_index":59,"time_elapsed":797141,"internal_node_id":"0.0-30.0-0.0","task_version":"screening-mturk","missing":false,"accuracy":1},{"contexts":["green","red","blue"],"outcomes":[1,1,1],"key":39,"choice":2,"rt":625.8200000156648,"outcome":1,"trial":25,"correct":1,"trial_type":"three-arm-trial","trial_index":60,"time_elapsed":798979,"internal_node_id":"0.0-31.0-0.0","task_version":"screening-mturk","missing":false,"accuracy":0},{"contexts":["green","red","blue"],"outcomes":[1,1,0],"key":37,"choice":0,"rt":680.1899999845773,"outcome":1,"trial":26,"correct":1,"trial_type":"three-arm-trial","trial_index":61,"time_elapsed":800867,"internal_node_id":"0.0-32.0-0.0","task_version":"screening-mturk","missing":false,"accuracy":0},{"contexts":["green","red","blue"],"outcomes":[0,1,0],"key":38,"choice":1,"rt":452.2149999975227,"outcome":1,"trial":27,"correct":1,"trial_type":"three-arm-trial","trial_index":62,"time_elapsed":802525,"internal_node_id":"0.0-33.0-0.0","task_version":"screening-mturk","missing":false,"accuracy":1},{"contexts":["green","red","blue"],"outcomes":[0,1,0],"key":39,"choice":2,"rt":314.11999999545515,"outcome":0,"trial":28,"correct":1,"trial_type":"three-arm-trial","trial_index":63,"time_elapsed":804047,"internal_node_id":"0.0-34.0-0.0","task_version":"screening-mturk","missing":false,"accuracy":0},{"contexts":["green","red","blue"],"outcomes":[0,1,0],"key":37,"choice":0,"rt":585.7349999714643,"outcome":0,"trial":29,"correct":1,"trial_type":"three-arm-trial","trial_index":64,"time_elapsed":805839,"internal_node_id":"0.0-35.0-0.0","task_version":"screening-mturk","missing":false,"accuracy":0},{"contexts":["green","red","blue"],"outcomes":[0,0,0],"key":37,"choice":0,"rt":1039.8050000076182,"outcome":0,"trial":30,"correct":1,"trial_type":"three-arm-trial","trial_index":65,"time_elapsed":808087,"internal_node_id":"0.0-36.0-0.0","task_version":"screening-mturk","missing":false,"accuracy":0},{"contexts":["green","red","blue"],"outcomes":[0,0,0],"key":38,"choice":1,"rt":617.8000000072643,"outcome":0,"trial":31,"correct":2,"trial_type":"three-arm-trial","trial_index":66,"time_elapsed":809913,"internal_node_id":"0.0-37.0-0.0","task_version":"screening-mturk","missing":false,"accuracy":0},{"contexts":["green","red","blue"],"outcomes":[0,0,1],"key":37,"choice":0,"rt":726.6100000124425,"outcome":0,"trial":32,"correct":2,"trial_type":"three-arm-trial","trial_index":67,"time_elapsed":811847,"internal_node_id":"0.0-38.0-0.0","task_version":"screening-mturk","missing":false,"accuracy":0},{"contexts":["green","red","blue"],"outcomes":[0,0,1],"key":39,"choice":2,"rt":337.1550000156276,"outcome":1,"trial":33,"correct":2,"trial_type":"three-arm-trial","trial_index":68,"time_elapsed":813389,"internal_node_id":"0.0-39.0-0.0","task_version":"screening-mturk","missing":false,"accuracy":1},{"contexts":["green","red","blue"],"outcomes":[1,0,1],"key":39,"choice":2,"rt":1563.220000010915,"outcome":1,"trial":34,"correct":2,"trial_type":"three-arm-trial","trial_index":69,"time_elapsed":816159,"internal_node_id":"0.0-40.0-0.0","task_version":"screening-mturk","missing":false,"accuracy":1},{"contexts":["green","red","blue"],"outcomes":[0,0,1],"key":38,"choice":1,"rt":758.9199999929406,"outcome":0,"trial":35,"correct":2,"trial_type":"three-arm-trial","trial_index":70,"time_elapsed":818124,"internal_node_id":"0.0-41.0-0.0","task_version":"screening-mturk","missing":false,"accuracy":0},{"contexts":["green","red","blue"],"outcomes":[1,0,1],"key":39,"choice":2,"rt":844.4049999816343,"outcome":1,"trial":36,"correct":2,"trial_type":"three-arm-trial","trial_index":71,"time_elapsed":820174,"internal_node_id":"0.0-42.0-0.0","task_version":"screening-mturk","missing":false,"accuracy":1},{"contexts":["green","red","blue"],"outcomes":[0,0,0],"key":37,"choice":0,"rt":497.86999996285886,"outcome":0,"trial":37,"correct":2,"trial_type":"three-arm-trial","trial_index":72,"time_elapsed":821877,"internal_node_id":"0.0-43.0-0.0","task_version":"screening-mturk","missing":false,"accuracy":0},{"contexts":["green","red","blue"],"outcomes":[0,0,1],"key":38,"choice":1,"rt":322.43499998003244,"outcome":0,"trial":38,"correct":2,"trial_type":"three-arm-trial","trial_index":73,"time_elapsed":823404,"internal_node_id":"0.0-44.0-0.0","task_version":"screening-mturk","missing":false,"accuracy":0},{"contexts":["green","red","blue"],"outcomes":[0,1,1],"key":39,"choice":2,"rt":626.749999995809,"outcome":1,"trial":39,"correct":2,"trial_type":"three-arm-trial","trial_index":74,"time_elapsed":825237,"internal_node_id":"0.0-45.0-0.0","task_version":"screening-mturk","missing":false,"accuracy":1},{"contexts":["green","red","blue"],"outcomes":[0,1,1],"key":39,"choice":2,"rt":374.56500000553206,"outcome":1,"trial":40,"correct":2,"trial_type":"three-arm-trial","trial_index":75,"time_elapsed":826822,"internal_node_id":"0.0-46.0-0.0","task_version":"screening-mturk","missing":false,"accuracy":1},{"contexts":["green","red","blue"],"outcomes":[1,0,1],"key":39,"choice":2,"rt":392.90999999502674,"outcome":1,"trial":41,"correct":2,"trial_type":"three-arm-trial","trial_index":76,"time_elapsed":828421,"internal_node_id":"0.0-47.0-0.0","task_version":"screening-mturk","missing":false,"accuracy":1},{"contexts":["green","red","blue"],"outcomes":[0,0,1],"key":37,"choice":0,"rt":987.7400000113994,"outcome":0,"trial":42,"correct":2,"trial_type":"three-arm-trial","trial_index":77,"time_elapsed":830614,"internal_node_id":"0.0-48.0-0.0","task_version":"screening-mturk","missing":false,"accuracy":0},{"contexts":["green","red","blue"],"outcomes":[1,0,0],"key":39,"choice":2,"rt":361.99499998474494,"outcome":0,"trial":43,"correct":2,"trial_type":"three-arm-trial","trial_index":78,"time_elapsed":832185,"internal_node_id":"0.0-49.0-0.0","task_version":"screening-mturk","missing":false,"accuracy":1},{"contexts":["green","red","blue"],"outcomes":[1,0,0],"key":38,"choice":1,"rt":301.97500000940636,"outcome":0,"trial":44,"correct":2,"trial_type":"three-arm-trial","trial_index":79,"time_elapsed":833692,"internal_node_id":"0.0-50.0-0.0","task_version":"screening-mturk","missing":false,"accuracy":0},{"contexts":["green","red","blue"],"outcomes":[0,1,0],"key":37,"choice":0,"rt":338.9200000092387,"outcome":0,"trial":45,"correct":2,"trial_type":"three-arm-trial","trial_index":80,"time_elapsed":835236,"internal_node_id":"0.0-51.0-0.0","task_version":"screening-mturk","missing":false,"accuracy":0},{"contexts":["green","red","blue"],"outcomes":[1,0,1],"key":39,"choice":2,"rt":339.89000000292435,"outcome":1,"trial":46,"correct":0,"trial_type":"three-arm-trial","trial_index":81,"time_elapsed":836781,"internal_node_id":"0.0-52.0-0.0","task_version":"screening-mturk","missing":false,"accuracy":0},{"contexts":["green","red","blue"],"outcomes":[1,0,1],"key":39,"choice":2,"rt":378.9550000219606,"outcome":1,"trial":47,"correct":0,"trial_type":"three-arm-trial","trial_index":82,"time_elapsed":838368,"internal_node_id":"0.0-53.0-0.0","task_version":"screening-mturk","missing":false,"accuracy":0},{"contexts":["green","red","blue"],"outcomes":[1,0,1],"key":39,"choice":2,"rt":327.3800000315532,"outcome":1,"trial":48,"correct":0,"trial_type":"three-arm-trial","trial_index":83,"time_elapsed":839901,"internal_node_id":"0.0-54.0-0.0","task_version":"screening-mturk","missing":false,"accuracy":0},{"contexts":["green","red","blue"],"outcomes":[1,0,0],"key":39,"choice":2,"rt":410.0699999835342,"outcome":0,"trial":49,"correct":0,"trial_type":"three-arm-trial","trial_index":84,"time_elapsed":841515,"internal_node_id":"0.0-55.0-0.0","task_version":"screening-mturk","missing":false,"accuracy":0},{"contexts":["green","red","blue"],"outcomes":[0,1,0],"key":38,"choice":1,"rt":933.2999999751337,"outcome":1,"trial":50,"correct":0,"trial_type":"three-arm-trial","trial_index":85,"time_elapsed":843652,"internal_node_id":"0.0-56.0-0.0","task_version":"screening-mturk","missing":false,"accuracy":0},{"contexts":["green","red","blue"],"outcomes":[1,1,0],"key":37,"choice":0,"rt":290.3799999621697,"outcome":1,"trial":51,"correct":0,"trial_type":"three-arm-trial","trial_index":86,"time_elapsed":845147,"internal_node_id":"0.0-57.0-0.0","task_version":"screening-mturk","missing":false,"accuracy":1},{"contexts":["green","red","blue"],"outcomes":[0,0,0],"key":38,"choice":1,"rt":747.6399999577552,"outcome":0,"trial":52,"correct":0,"trial_type":"three-arm-trial","trial_index":87,"time_elapsed":847100,"internal_node_id":"0.0-58.0-0.0","task_version":"screening-mturk","missing":false,"accuracy":0},{"contexts":["green","red","blue"],"outcomes":[1,0,0],"key":37,"choice":0,"rt":354.94499997003004,"outcome":1,"trial":53,"correct":0,"trial_type":"three-arm-trial","trial_index":88,"time_elapsed":848660,"internal_node_id":"0.0-59.0-0.0","task_version":"screening-mturk","missing":false,"accuracy":1},{"contexts":["green","red","blue"],"outcomes":[1,0,0],"key":39,"choice":2,"rt":406.5700000501238,"outcome":0,"trial":54,"correct":0,"trial_type":"three-arm-trial","trial_index":89,"time_elapsed":850278,"internal_node_id":"0.0-60.0-0.0","task_version":"screening-mturk","missing":false,"accuracy":0},{"contexts":["green","red","blue"],"outcomes":[0,1,0],"key":37,"choice":0,"rt":383.2449999754317,"outcome":0,"trial":55,"correct":0,"trial_type":"three-arm-trial","trial_index":90,"time_elapsed":851867,"internal_node_id":"0.0-61.0-0.0","task_version":"screening-mturk","missing":false,"accuracy":1},{"contexts":["green","red","blue"],"outcomes":[1,0,1],"key":39,"choice":2,"rt":304.9800000153482,"outcome":1,"trial":56,"correct":0,"trial_type":"three-arm-trial","trial_index":91,"time_elapsed":853382,"internal_node_id":"0.0-62.0-0.0","task_version":"screening-mturk","missing":false,"accuracy":0},{"contexts":["green","red","blue"],"outcomes":[1,0,0],"key":39,"choice":2,"rt":400.20000003278255,"outcome":0,"trial":57,"correct":0,"trial_type":"three-arm-trial","trial_index":92,"time_elapsed":854989,"internal_node_id":"0.0-63.0-0.0","task_version":"screening-mturk","missing":false,"accuracy":0},{"contexts":["green","red","blue"],"outcomes":[1,0,1],"key":37,"choice":0,"rt":168.94000000320375,"outcome":1,"trial":58,"correct":0,"trial_type":"three-arm-trial","trial_index":93,"time_elapsed":856363,"internal_node_id":"0.0-64.0-0.0","task_version":"screening-mturk","missing":false,"accuracy":1},{"contexts":["green","red","blue"],"outcomes":[1,0,0],"key":38,"choice":1,"rt":266.7599999695085,"outcome":0,"trial":59,"correct":0,"trial_type":"three-arm-trial","trial_index":94,"time_elapsed":857836,"internal_node_id":"0.0-65.0-0.0","task_version":"screening-mturk","missing":false,"accuracy":0},{"contexts":["green","red","blue"],"outcomes":[1,0,0],"key":37,"choice":0,"rt":150.8400000166148,"outcome":1,"trial":60,"correct":0,"trial_type":"three-arm-trial","trial_index":95,"time_elapsed":859193,"internal_node_id":"0.0-66.0-0.0","task_version":"screening-mturk","missing":false,"accuracy":1},{"contexts":["green","red","blue"],"outcomes":[1,1,0],"key":39,"choice":2,"rt":429.05499995686114,"outcome":0,"trial":61,"correct":1,"trial_type":"three-arm-trial","trial_index":96,"time_elapsed":860828,"internal_node_id":"0.0-67.0-0.0","task_version":"screening-mturk","missing":false,"accuracy":0},{"contexts":["green","red","blue"],"outcomes":[1,0,1],"key":38,"choice":1,"rt":417.6900000311434,"outcome":0,"trial":62,"correct":1,"trial_type":"three-arm-trial","trial_index":97,"time_elapsed":862453,"internal_node_id":"0.0-68.0-0.0","task_version":"screening-mturk","missing":false,"accuracy":1},{"contexts":["green","red","blue"],"outcomes":[0,0,0],"key":37,"choice":0,"rt":400.35999997053295,"outcome":0,"trial":63,"correct":1,"trial_type":"three-arm-trial","trial_index":98,"time_elapsed":864060,"internal_node_id":"0.0-69.0-0.0","task_version":"screening-mturk","missing":false,"accuracy":0},{"contexts":["green","red","blue"],"outcomes":[0,1,0],"key":39,"choice":2,"rt":320.6249999930151,"outcome":0,"trial":64,"correct":1,"trial_type":"three-arm-trial","trial_index":99,"time_elapsed":865591,"internal_node_id":"0.0-70.0-0.0","task_version":"screening-mturk","missing":false,"accuracy":0},{"contexts":["green","red","blue"],"outcomes":[1,1,0],"key":37,"choice":0,"rt":422.95500001637265,"outcome":1,"trial":65,"correct":1,"trial_type":"three-arm-trial","trial_index":100,"time_elapsed":867222,"internal_node_id":"0.0-71.0-0.0","task_version":"screening-mturk","missing":false,"accuracy":0},{"contexts":["green","red","blue"],"outcomes":[1,1,0],"key":37,"choice":0,"rt":346.07000002870336,"outcome":1,"trial":66,"correct":1,"trial_type":"three-arm-trial","trial_index":101,"time_elapsed":868774,"internal_node_id":"0.0-72.0-0.0","task_version":"screening-mturk","missing":false,"accuracy":0},{"contexts":["green","red","blue"],"outcomes":[0,1,0],"key":37,"choice":0,"rt":393.9799999934621,"outcome":0,"trial":67,"correct":1,"trial_type":"three-arm-trial","trial_index":102,"time_elapsed":870375,"internal_node_id":"0.0-73.0-0.0","task_version":"screening-mturk","missing":false,"accuracy":0},{"contexts":["green","red","blue"],"outcomes":[1,1,0],"key":38,"choice":1,"rt":321.8599999672733,"outcome":1,"trial":68,"correct":1,"trial_type":"three-arm-trial","trial_index":103,"time_elapsed":871903,"internal_node_id":"0.0-74.0-0.0","task_version":"screening-mturk","missing":false,"accuracy":1},{"contexts":["green","red","blue"],"outcomes":[0,1,1],"key":39,"choice":2,"rt":607.9800000297837,"outcome":1,"trial":69,"correct":1,"trial_type":"three-arm-trial","trial_index":104,"time_elapsed":873719,"internal_node_id":"0.0-75.0-0.0","task_version":"screening-mturk","missing":false,"accuracy":0},{"contexts":["green","red","blue"],"outcomes":[0,1,0],"key":39,"choice":2,"rt":322.16499996138737,"outcome":0,"trial":70,"correct":1,"trial_type":"three-arm-trial","trial_index":105,"time_elapsed":875244,"internal_node_id":"0.0-76.0-0.0","task_version":"screening-mturk","missing":false,"accuracy":0},{"contexts":["green","red","blue"],"outcomes":[0,1,0],"key":38,"choice":1,"rt":314.76000003749505,"outcome":1,"trial":71,"correct":1,"trial_type":"three-arm-trial","trial_index":106,"time_elapsed":876771,"internal_node_id":"0.0-77.0-0.0","task_version":"screening-mturk","missing":false,"accuracy":1},{"contexts":["green","red","blue"],"outcomes":[1,1,0],"key":37,"choice":0,"rt":524.5499999728054,"outcome":1,"trial":72,"correct":1,"trial_type":"three-arm-trial","trial_index":107,"time_elapsed":878502,"internal_node_id":"0.0-78.0-0.0","task_version":"screening-mturk","missing":false,"accuracy":0},{"contexts":["green","red","blue"],"outcomes":[1,1,0],"key":38,"choice":1,"rt":321.7949999962002,"outcome":1,"trial":73,"correct":1,"trial_type":"three-arm-trial","trial_index":108,"time_elapsed":880029,"internal_node_id":"0.0-79.0-0.0","task_version":"screening-mturk","missing":false,"accuracy":1},{"contexts":["green","red","blue"],"outcomes":[0,1,0],"key":37,"choice":0,"rt":417.97999996924773,"outcome":0,"trial":74,"correct":1,"trial_type":"three-arm-trial","trial_index":109,"time_elapsed":881654,"internal_node_id":"0.0-80.0-0.0","task_version":"screening-mturk","missing":false,"accuracy":0},{"contexts":["green","red","blue"],"outcomes":[0,1,0],"key":38,"choice":1,"rt":739.0400000149384,"outcome":1,"trial":75,"correct":1,"trial_type":"three-arm-trial","trial_index":110,"time_elapsed":883597,"internal_node_id":"0.0-81.0-0.0","task_version":"screening-mturk","missing":false,"accuracy":1},{"contexts":["green","red","blue"],"outcomes":[0,0,1],"key":39,"choice":2,"rt":433.7950000190176,"outcome":1,"trial":76,"correct":2,"trial_type":"three-arm-trial","trial_index":111,"time_elapsed":885236,"internal_node_id":"0.0-82.0-0.0","task_version":"screening-mturk","missing":false,"accuracy":1},{"contexts":["green","red","blue"],"outcomes":[0,0,1],"key":37,"choice":0,"rt":403.90500001376495,"outcome":0,"trial":77,"correct":2,"trial_type":"three-arm-trial","trial_index":112,"time_elapsed":886845,"internal_node_id":"0.0-83.0-0.0","task_version":"screening-mturk","missing":false,"accuracy":0},{"contexts":["green","red","blue"],"outcomes":[0,0,1],"key":39,"choice":2,"rt":339.22500000335276,"outcome":1,"trial":78,"correct":2,"trial_type":"three-arm-trial","trial_index":113,"time_elapsed":888389,"internal_node_id":"0.0-84.0-0.0","task_version":"screening-mturk","missing":false,"accuracy":1},{"contexts":["green","red","blue"],"outcomes":[0,0,1],"key":39,"choice":2,"rt":498.9099999656901,"outcome":1,"trial":79,"correct":2,"trial_type":"three-arm-trial","trial_index":114,"time_elapsed":890092,"internal_node_id":"0.0-85.0-0.0","task_version":"screening-mturk","missing":false,"accuracy":1},{"contexts":["green","red","blue"],"outcomes":[1,0,1],"key":38,"choice":1,"rt":628.8899999926798,"outcome":0,"trial":80,"correct":2,"trial_type":"three-arm-trial","trial_index":115,"time_elapsed":891925,"internal_node_id":"0.0-86.0-0.0","task_version":"screening-mturk","missing":false,"accuracy":0},{"contexts":["green","red","blue"],"outcomes":[0,0,0],"key":37,"choice":0,"rt":489.41999999806285,"outcome":0,"trial":81,"correct":2,"trial_type":"three-arm-trial","trial_index":116,"time_elapsed":893620,"internal_node_id":"0.0-87.0-0.0","task_version":"screening-mturk","missing":false,"accuracy":0},{"contexts":["green","red","blue"],"outcomes":[0,1,1],"key":39,"choice":2,"rt":402.92999998200685,"outcome":1,"trial":82,"correct":2,"trial_type":"three-arm-trial","trial_index":117,"time_elapsed":895230,"internal_node_id":"0.0-88.0-0.0","task_version":"screening-mturk","missing":false,"accuracy":1},{"contexts":["green","red","blue"],"outcomes":[0,0,0],"key":38,"choice":1,"rt":641.9699999969453,"outcome":0,"trial":83,"correct":2,"trial_type":"three-arm-trial","trial_index":118,"time_elapsed":897078,"internal_node_id":"0.0-89.0-0.0","task_version":"screening-mturk","missing":false,"accuracy":0},{"contexts":["green","red","blue"],"outcomes":[0,0,1],"key":39,"choice":2,"rt":353.4449999569915,"outcome":1,"trial":84,"correct":2,"trial_type":"three-arm-trial","trial_index":119,"time_elapsed":898637,"internal_node_id":"0.0-90.0-0.0","task_version":"screening-mturk","missing":false,"accuracy":1},{"contexts":["green","red","blue"],"outcomes":[0,0,1],"key":39,"choice":2,"rt":514.9500000406988,"outcome":1,"trial":85,"correct":2,"trial_type":"three-arm-trial","trial_index":120,"time_elapsed":900357,"internal_node_id":"0.0-91.0-0.0","task_version":"screening-mturk","missing":false,"accuracy":1},{"contexts":["green","red","blue"],"outcomes":[0,1,1],"key":39,"choice":2,"rt":361.78999999538064,"outcome":1,"trial":86,"correct":2,"trial_type":"three-arm-trial","trial_index":121,"time_elapsed":901925,"internal_node_id":"0.0-92.0-0.0","task_version":"screening-mturk","missing":false,"accuracy":1},{"contexts":["green","red","blue"],"outcomes":[0,0,1],"key":37,"choice":0,"rt":1489.9100000038743,"outcome":0,"trial":87,"correct":2,"trial_type":"three-arm-trial","trial_index":122,"time_elapsed":904620,"internal_node_id":"0.0-93.0-0.0","task_version":"screening-mturk","missing":false,"accuracy":0},{"contexts":["green","red","blue"],"outcomes":[0,0,1],"key":39,"choice":2,"rt":408.92499999608845,"outcome":1,"trial":88,"correct":2,"trial_type":"three-arm-trial","trial_index":123,"time_elapsed":906237,"internal_node_id":"0.0-94.0-0.0","task_version":"screening-mturk","missing":false,"accuracy":1},{"contexts":["green","red","blue"],"outcomes":[0,0,0],"key":39,"choice":2,"rt":329.9249999690801,"outcome":0,"trial":89,"correct":2,"trial_type":"three-arm-trial","trial_index":124,"time_elapsed":907771,"internal_node_id":"0.0-95.0-0.0","task_version":"screening-mturk","missing":false,"accuracy":1},{"contexts":["green","red","blue"],"outcomes":[0,0,1],"key":38,"choice":1,"rt":412.5950000016019,"outcome":0,"trial":90,"correct":2,"trial_type":"three-arm-trial","trial_index":125,"time_elapsed":909390,"internal_node_id":"0.0-96.0-0.0","task_version":"screening-mturk","missing":false,"accuracy":0},{"rt":42126.95000000531,"responses":{"age":"49","gender-categorical":"Female","gender-free-response":"","ethnicity":"Not Hispanic or Latino","race":["White"],"language":"Yes","fluency":"Very well","prolific":"Yes","prolific-this-study":"No"},"survey":"demographics","trial_type":"survey-demo","trial_index":126,"time_elapsed":951529,"internal_node_id":"0.0-97.0","task_version":"screening-mturk","interactions":"[{\"event\":\"blur\",\"trial\":0,\"time\":29134},{\"event\":\"focus\",\"trial\":0,\"time\":29417},{\"event\":\"blur\",\"trial\":2,\"time\":47268},{\"event\":\"focus\",\"trial\":2,\"time\":68397},{\"event\":\"blur\",\"trial\":2,\"time\":124346},{\"event\":\"focus\",\"trial\":2,\"time\":124670},{\"event\":\"blur\",\"trial\":5,\"time\":307086},{\"event\":\"focus\",\"trial\":5,\"time\":309099},{\"event\":\"blur\",\"trial\":5,\"time\":309989},{\"event\":\"focus\",\"trial\":5,\"time\":311791},{\"event\":\"blur\",\"trial\":6,\"time\":422176},{\"event\":\"focus\",\"trial\":6,\"time\":431211},{\"event\":\"blur\",\"trial\":22,\"time\":587118},{\"event\":\"focus\",\"trial\":22,\"time\":593295},{\"event\":\"blur\",\"trial\":22,\"time\":595775},{\"event\":\"focus\",\"trial\":22,\"time\":600201},{\"event\":\"blur\",\"trial\":22,\"time\":602071},{\"event\":\"focus\",\"trial\":22,\"time\":605198},{\"event\":\"blur\",\"trial\":22,\"time\":607745},{\"event\":\"focus\",\"trial\":22,\"time\":613522},{\"event\":\"blur\",\"trial\":22,\"time\":614910},{\"event\":\"focus\",\"trial\":22,\"time\":619412},{\"event\":\"blur\",\"trial\":29,\"time\":680416},{\"event\":\"focus\",\"trial\":29,\"time\":684315},{\"event\":\"blur\",\"trial\":29,\"time\":701733},{\"event\":\"focus\",\"trial\":29,\"time\":707635},{\"event\":\"blur\",\"trial\":29,\"time\":709527},{\"event\":\"focus\",\"trial\":29,\"time\":710937},{\"event\":\"blur\",\"trial\":126,\"time\":936223},{\"event\":\"focus\",\"trial\":126,\"time\":941480}]"}]