[{"responses":{"Q07":"3","Q03":"3","Q01":"2","Q08":"2","Q04":"3","Q06":"2","Q11":"1","Q10":"1","Q09":"1","Q05":"2","Q12":"0","Q13":"3","Q02":"3"},"rt":42741.500000003725,"survey":"bisbas","trial_type":"survey-template","trial_index":0,"time_elapsed":42758,"internal_node_id":"0.0-0.0","task_version":"screening-mturk"},{"responses":{"Q01":"3","Q10":"3","Q02":"3","Q14":"2","Q12":"1","Q08":"2","Q03":"2","Q05":"3","Q07":"3","Q15":"3","Q06":"2","Q09":"3","Q11":"2","Q13":"3","Q04":"3"},"rt":47669.54000014812,"survey":"shaps","trial_type":"survey-template","trial_index":1,"time_elapsed":90444,"internal_node_id":"0.0-1.0","task_version":"screening-mturk"},{"responses":{"Q04":"0","Q06":"1","Q02":"1","Q03":"1","Q07":"1","Q05":"0","Q08":"0","Q01":"1"},"rt":17734.105000272393,"survey":"gad7","trial_type":"survey-template","trial_index":2,"time_elapsed":108195,"internal_node_id":"0.0-2.0","task_version":"screening-mturk"},{"responses":{"Q01":"2","Q03":"2","Q02":"3"},"rt":8490.81499967724,"survey":"pswq","trial_type":"survey-template","trial_index":3,"time_elapsed":116698,"internal_node_id":"0.0-3.0","task_version":"screening-mturk"},{"responses":{"Q13":"0","Q12":"1","Q14":"0","Q03":"1","Q10":"1","Q15":"0","Q02":"0","Q09":"1","Q05":"1","Q04":"1","Q01":"0","Q08":"0","Q06":"0","Q11":"1","Q07":"1"},"rt":91901.56000014395,"survey":"7up7down","trial_type":"survey-template","trial_index":4,"time_elapsed":208613,"internal_node_id":"0.0-4.0","task_version":"screening-mturk"},{"view_history":"[{\"page_index\":0,\"viewing_time\":6105.130000039935},{\"page_index\":1,\"viewing_time\":7846.9850001856685},{\"page_index\":2,\"viewing_time\":8919.859999790788},{\"page_index\":3,\"viewing_time\":4184.040000196546},{\"page_index\":4,\"viewing_time\":3823.959999717772},{\"page_index\":5,\"viewing_time\":3072.0799998380244},{\"page_index\":6,\"viewing_time\":4959.955000318587},{\"page_index\":7,\"viewing_time\":2047.8849997743964}]","rt":40961.0799998045,"trial_type":"instructions","trial_index":5,"time_elapsed":249584,"internal_node_id":"0.0-5.0-0.0","task_version":"screening-mturk"},{"responses":["True","True","False","False","True"],"num_errors":0,"rt":17901.06499986723,"trial_type":"three-arm-comprehension","trial_index":6,"time_elapsed":267490,"internal_node_id":"0.0-5.0-1.0","task_version":"screening-mturk"},{"view_history":"[{\"page_index\":0,\"viewing_time\":2463.109999895096}]","rt":2463.5700001381338,"trial_type":"instructions","trial_index":7,"time_elapsed":269968,"internal_node_id":"0.0-6.0","task_version":"screening-mturk"},{"contexts":["green","red","blue"],"outcomes":[1,0,0],"key":38,"choice":1,"rt":2547.6949997246265,"outcome":0,"trial":1,"correct":1,"trial_type":"three-arm-trial","trial_index":8,"time_elapsed":273720,"internal_node_id":"0.0-7.0-0.0","task_version":"screening-mturk","missing":false,"accuracy":1},{"contexts":["green","red","blue"],"outcomes":[0,1,0],"key":37,"choice":0,"rt":452.63499999418855,"outcome":0,"trial":2,"correct":1,"trial_type":"three-arm-trial","trial_index":9,"time_elapsed":275384,"internal_node_id":"0.0-8.0-0.0","task_version":"screening-mturk","missing":false,"accuracy":0},{"contexts":["green","red","blue"],"outcomes":[1,1,0],"key":39,"choice":2,"rt":236.67500028386712,"outcome":0,"trial":3,"correct":1,"trial_type":"three-arm-trial","trial_index":10,"time_elapsed":276831,"internal_node_id":"0.0-9.0-0.0","task_version":"screening-mturk","missing":false,"accuracy":0},{"contexts":["green","red","blue"],"outcomes":[1,1,0],"key":39,"choice":2,"rt":360.8499998226762,"outcome":0,"trial":4,"correct":1,"trial_type":"three-arm-trial","trial_index":11,"time_elapsed":278408,"internal_node_id":"0.0-10.0-0.0","task_version":"screening-mturk","missing":false,"accuracy":0},{"contexts":["green","red","blue"],"outcomes":[1,1,0],"key":38,"choice":1,"rt":379.1849999688566,"outcome":1,"trial":5,"correct":1,"trial_type":"three-arm-trial","trial_index":12,"time_elapsed":279999,"internal_node_id":"0.0-11.0-0.0","task_version":"screening-mturk","missing":false,"accuracy":1},{"contexts":["green","red","blue"],"outcomes":[1,1,0],"key":38,"choice":1,"rt":365.9500000067055,"outcome":1,"trial":6,"correct":1,"trial_type":"three-arm-trial","trial_index":13,"time_elapsed":281574,"internal_node_id":"0.0-12.0-0.0","task_version":"screening-mturk","missing":false,"accuracy":1},{"contexts":["green","red","blue"],"outcomes":[0,1,0],"key":38,"choice":1,"rt":236.3549997098744,"outcome":1,"trial":7,"correct":1,"trial_type":"three-arm-trial","trial_index":14,"time_elapsed":283021,"internal_node_id":"0.0-13.0-0.0","task_version":"screening-mturk","missing":false,"accuracy":1},{"contexts":["green","red","blue"],"outcomes":[0,0,0],"key":38,"choice":1,"rt":326.1700002476573,"outcome":0,"trial":8,"correct":1,"trial_type":"three-arm-trial","trial_index":15,"time_elapsed":284559,"internal_node_id":"0.0-14.0-0.0","task_version":"screening-mturk","missing":false,"accuracy":1},{"contexts":["green","red","blue"],"outcomes":[0,1,0],"key":38,"choice":1,"rt":365.16999965533614,"outcome":1,"trial":9,"correct":1,"trial_type":"three-arm-trial","trial_index":16,"time_elapsed":286135,"internal_node_id":"0.0-15.0-0.0","task_version":"screening-mturk","missing":false,"accuracy":1},{"contexts":["green","red","blue"],"outcomes":[0,1,0],"key":38,"choice":1,"rt":356.475000269711,"outcome":1,"trial":10,"correct":1,"trial_type":"three-arm-trial","trial_index":17,"time_elapsed":287703,"internal_node_id":"0.0-16.0-0.0","task_version":"screening-mturk","missing":false,"accuracy":1},{"contexts":["green","red","blue"],"outcomes":[1,0,1],"key":38,"choice":1,"rt":462.4350001104176,"outcome":0,"trial":11,"correct":1,"trial_type":"three-arm-trial","trial_index":18,"time_elapsed":289379,"internal_node_id":"0.0-17.0-0.0","task_version":"screening-mturk","missing":false,"accuracy":1},{"contexts":["green","red","blue"],"outcomes":[0,1,1],"key":37,"choice":0,"rt":448.05500004440546,"outcome":0,"trial":12,"correct":1,"trial_type":"three-arm-trial","trial_index":19,"time_elapsed":291037,"internal_node_id":"0.0-18.0-0.0","task_version":"screening-mturk","missing":false,"accuracy":0},{"contexts":["green","red","blue"],"outcomes":[1,1,1],"key":37,"choice":0,"rt":357.0000003091991,"outcome":1,"trial":13,"correct":1,"trial_type":"three-arm-trial","trial_index":20,"time_elapsed":292605,"internal_node_id":"0.0-19.0-0.0","task_version":"screening-mturk","missing":false,"accuracy":0},{"contexts":["green","red","blue"],"outcomes":[0,1,0],"key":37,"choice":0,"rt":335.2600000798702,"outcome":0,"trial":14,"correct":1,"trial_type":"three-arm-trial","trial_index":21,"time_elapsed":294151,"internal_node_id":"0.0-20.0-0.0","task_version":"screening-mturk","missing":false,"accuracy":0},{"contexts":["green","red","blue"],"outcomes":[0,1,0],"key":39,"choice":2,"rt":416.1700000986457,"outcome":0,"trial":15,"correct":1,"trial_type":"three-arm-trial","trial_index":22,"time_elapsed":295778,"internal_node_id":"0.0-21.0-0.0","task_version":"screening-mturk","missing":false,"accuracy":0},{"contexts":["green","red","blue"],"outcomes":[0,0,0],"key":39,"choice":2,"rt":315.53500005975366,"outcome":0,"trial":16,"correct":2,"trial_type":"three-arm-trial","trial_index":23,"time_elapsed":297305,"internal_node_id":"0.0-22.0-0.0","task_version":"screening-mturk","missing":false,"accuracy":1},{"contexts":["green","red","blue"],"outcomes":[0,0,1],"key":39,"choice":2,"rt":327.8099996969104,"outcome":1,"trial":17,"correct":2,"trial_type":"three-arm-trial","trial_index":24,"time_elapsed":298842,"internal_node_id":"0.0-23.0-0.0","task_version":"screening-mturk","missing":false,"accuracy":1},{"contexts":["green","red","blue"],"outcomes":[0,0,1],"key":39,"choice":2,"rt":351.5850002877414,"outcome":1,"trial":18,"correct":2,"trial_type":"three-arm-trial","trial_index":25,"time_elapsed":300408,"internal_node_id":"0.0-24.0-0.0","task_version":"screening-mturk","missing":false,"accuracy":1},{"contexts":["green","red","blue"],"outcomes":[0,0,1],"key":39,"choice":2,"rt":96.40500042587519,"outcome":1,"trial":19,"correct":2,"trial_type":"three-arm-trial","trial_index":26,"time_elapsed":301715,"internal_node_id":"0.0-25.0-0.0","task_version":"screening-mturk","missing":false,"accuracy":1},{"contexts":["green","red","blue"],"outcomes":[0,0,1],"key":39,"choice":2,"rt":324.33999981731176,"outcome":1,"trial":20,"correct":2,"trial_type":"three-arm-trial","trial_index":27,"time_elapsed":303252,"internal_node_id":"0.0-26.0-0.0","task_version":"screening-mturk","missing":false,"accuracy":1},{"contexts":["green","red","blue"],"outcomes":[1,0,1],"key":39,"choice":2,"rt":321.2000001221895,"outcome":1,"trial":21,"correct":2,"trial_type":"three-arm-trial","trial_index":28,"time_elapsed":304784,"internal_node_id":"0.0-27.0-0.0","task_version":"screening-mturk","missing":false,"accuracy":1},{"contexts":["green","red","blue"],"outcomes":[0,0,1],"key":39,"choice":2,"rt":142.2749999910593,"outcome":1,"trial":22,"correct":2,"trial_type":"three-arm-trial","trial_index":29,"time_elapsed":306138,"internal_node_id":"0.0-28.0-0.0","task_version":"screening-mturk","missing":false,"accuracy":1},{"contexts":["green","red","blue"],"outcomes":[0,0,1],"key":39,"choice":2,"rt":258.4099997766316,"outcome":1,"trial":23,"correct":2,"trial_type":"three-arm-trial","trial_index":30,"time_elapsed":307608,"internal_node_id":"0.0-29.0-0.0","task_version":"screening-mturk","missing":false,"accuracy":1},{"contexts":["green","red","blue"],"outcomes":[0,0,1],"key":39,"choice":2,"rt":394.10499995574355,"outcome":1,"trial":24,"correct":2,"trial_type":"three-arm-trial","trial_index":31,"time_elapsed":309214,"internal_node_id":"0.0-30.0-0.0","task_version":"screening-mturk","missing":false,"accuracy":1},{"contexts":["green","red","blue"],"outcomes":[0,1,0],"key":39,"choice":2,"rt":277.24000019952655,"outcome":0,"trial":25,"correct":2,"trial_type":"three-arm-trial","trial_index":32,"time_elapsed":310703,"internal_node_id":"0.0-31.0-0.0","task_version":"screening-mturk","missing":false,"accuracy":1},{"contexts":["green","red","blue"],"outcomes":[1,0,1],"key":39,"choice":2,"rt":75.23000007495284,"outcome":1,"trial":26,"correct":2,"trial_type":"three-arm-trial","trial_index":33,"time_elapsed":311989,"internal_node_id":"0.0-32.0-0.0","task_version":"screening-mturk","missing":false,"accuracy":1},{"contexts":["green","red","blue"],"outcomes":[1,1,1],"key":39,"choice":2,"rt":170.38500029593706,"outcome":1,"trial":27,"correct":2,"trial_type":"three-arm-trial","trial_index":34,"time_elapsed":313370,"internal_node_id":"0.0-33.0-0.0","task_version":"screening-mturk","missing":false,"accuracy":1},{"contexts":["green","red","blue"],"outcomes":[1,0,1],"key":39,"choice":2,"rt":155.20500019192696,"outcome":1,"trial":28,"correct":2,"trial_type":"three-arm-trial","trial_index":35,"time_elapsed":314736,"internal_node_id":"0.0-34.0-0.0","task_version":"screening-mturk","missing":false,"accuracy":1},{"contexts":["green","red","blue"],"outcomes":[0,0,0],"key":39,"choice":2,"rt":47.23999975249171,"outcome":0,"trial":29,"correct":2,"trial_type":"three-arm-trial","trial_index":36,"time_elapsed":315995,"internal_node_id":"0.0-35.0-0.0","task_version":"screening-mturk","missing":false,"accuracy":1},{"contexts":["green","red","blue"],"outcomes":[1,0,1],"key":39,"choice":2,"rt":35.55000014603138,"outcome":1,"trial":30,"correct":2,"trial_type":"three-arm-trial","trial_index":37,"time_elapsed":317242,"internal_node_id":"0.0-36.0-0.0","task_version":"screening-mturk","missing":false,"accuracy":1},{"contexts":["green","red","blue"],"outcomes":[0,0,0],"key":39,"choice":2,"rt":316.00499991327524,"outcome":0,"trial":31,"correct":0,"trial_type":"three-arm-trial","trial_index":38,"time_elapsed":318770,"internal_node_id":"0.0-37.0-0.0","task_version":"screening-mturk","missing":false,"accuracy":0},{"contexts":["green","red","blue"],"outcomes":[1,1,0],"key":39,"choice":2,"rt":386.56000001356006,"outcome":0,"trial":32,"correct":0,"trial_type":"three-arm-trial","trial_index":39,"time_elapsed":320375,"internal_node_id":"0.0-38.0-0.0","task_version":"screening-mturk","missing":false,"accuracy":0},{"contexts":["green","red","blue"],"outcomes":[1,0,0],"key":39,"choice":2,"rt":336.1800001002848,"outcome":0,"trial":33,"correct":0,"trial_type":"three-arm-trial","trial_index":40,"time_elapsed":321922,"internal_node_id":"0.0-39.0-0.0","task_version":"screening-mturk","missing":false,"accuracy":0},{"contexts":["green","red","blue"],"outcomes":[1,0,0],"key":37,"choice":0,"rt":97.4649996496737,"outcome":1,"trial":34,"correct":0,"trial_type":"three-arm-trial","trial_index":41,"time_elapsed":323231,"internal_node_id":"0.0-40.0-0.0","task_version":"screening-mturk","missing":false,"accuracy":1},{"contexts":["green","red","blue"],"outcomes":[1,0,0],"key":37,"choice":0,"rt":367.24000005051494,"outcome":1,"trial":35,"correct":0,"trial_type":"three-arm-trial","trial_index":42,"time_elapsed":324810,"internal_node_id":"0.0-41.0-0.0","task_version":"screening-mturk","missing":false,"accuracy":1},{"contexts":["green","red","blue"],"outcomes":[1,0,1],"key":37,"choice":0,"rt":359.29999966174364,"outcome":1,"trial":36,"correct":0,"trial_type":"three-arm-trial","trial_index":43,"time_elapsed":326385,"internal_node_id":"0.0-42.0-0.0","task_version":"screening-mturk","missing":false,"accuracy":1},{"contexts":["green","red","blue"],"outcomes":[0,0,0],"key":37,"choice":0,"rt":106.11999966204166,"outcome":0,"trial":37,"correct":0,"trial_type":"three-arm-trial","trial_index":44,"time_elapsed":327703,"internal_node_id":"0.0-43.0-0.0","task_version":"screening-mturk","missing":false,"accuracy":1},{"contexts":["green","red","blue"],"outcomes":[1,0,0],"key":37,"choice":0,"rt":295.10500002652407,"outcome":1,"trial":38,"correct":0,"trial_type":"three-arm-trial","trial_index":45,"time_elapsed":329210,"internal_node_id":"0.0-44.0-0.0","task_version":"screening-mturk","missing":false,"accuracy":1},{"contexts":["green","red","blue"],"outcomes":[0,0,0],"key":37,"choice":0,"rt":227.9500002041459,"outcome":0,"trial":39,"correct":0,"trial_type":"three-arm-trial","trial_index":46,"time_elapsed":330648,"internal_node_id":"0.0-45.0-0.0","task_version":"screening-mturk","missing":false,"accuracy":1},{"contexts":["green","red","blue"],"outcomes":[1,0,0],"key":37,"choice":0,"rt":236.6100000217557,"outcome":1,"trial":40,"correct":0,"trial_type":"three-arm-trial","trial_index":47,"time_elapsed":332095,"internal_node_id":"0.0-46.0-0.0","task_version":"screening-mturk","missing":false,"accuracy":1},{"contexts":["green","red","blue"],"outcomes":[0,0,1],"key":37,"choice":0,"rt":267.84999994561076,"outcome":0,"trial":41,"correct":0,"trial_type":"three-arm-trial","trial_index":48,"time_elapsed":333574,"internal_node_id":"0.0-47.0-0.0","task_version":"screening-mturk","missing":false,"accuracy":1},{"contexts":["green","red","blue"],"outcomes":[1,0,0],"key":37,"choice":0,"rt":142.90999993681908,"outcome":1,"trial":42,"correct":0,"trial_type":"three-arm-trial","trial_index":49,"time_elapsed":334929,"internal_node_id":"0.0-48.0-0.0","task_version":"screening-mturk","missing":false,"accuracy":1},{"contexts":["green","red","blue"],"outcomes":[0,0,0],"key":37,"choice":0,"rt":293.8899998553097,"outcome":0,"trial":43,"correct":0,"trial_type":"three-arm-trial","trial_index":50,"time_elapsed":336437,"internal_node_id":"0.0-49.0-0.0","task_version":"screening-mturk","missing":false,"accuracy":1},{"contexts":["green","red","blue"],"outcomes":[1,0,0],"key":37,"choice":0,"rt":145.5700001679361,"outcome":1,"trial":44,"correct":0,"trial_type":"three-arm-trial","trial_index":51,"time_elapsed":337794,"internal_node_id":"0.0-50.0-0.0","task_version":"screening-mturk","missing":false,"accuracy":1},{"contexts":["green","red","blue"],"outcomes":[0,0,0],"key":37,"choice":0,"rt":256.57999981194735,"outcome":0,"trial":45,"correct":0,"trial_type":"three-arm-trial","trial_index":52,"time_elapsed":339261,"internal_node_id":"0.0-51.0-0.0","task_version":"screening-mturk","missing":false,"accuracy":1},{"contexts":["green","red","blue"],"outcomes":[0,0,0],"key":37,"choice":0,"rt":224.01500027626753,"outcome":0,"trial":46,"correct":2,"trial_type":"three-arm-trial","trial_index":53,"time_elapsed":340700,"internal_node_id":"0.0-52.0-0.0","task_version":"screening-mturk","missing":false,"accuracy":0},{"contexts":["green","red","blue"],"outcomes":[0,0,1],"key":38,"choice":1,"rt":79.37000039964914,"outcome":0,"trial":47,"correct":2,"trial_type":"three-arm-trial","trial_index":54,"time_elapsed":341998,"internal_node_id":"0.0-53.0-0.0","task_version":"screening-mturk","missing":false,"accuracy":0},{"contexts":["green","red","blue"],"outcomes":[1,0,1],"key":38,"choice":1,"rt":47.15999960899353,"outcome":0,"trial":48,"correct":2,"trial_type":"three-arm-trial","trial_index":55,"time_elapsed":343256,"internal_node_id":"0.0-54.0-0.0","task_version":"screening-mturk","missing":false,"accuracy":0},{"contexts":["green","red","blue"],"outcomes":[1,0,0],"key":38,"choice":1,"rt":17.11999997496605,"outcome":0,"trial":49,"correct":2,"trial_type":"three-arm-trial","trial_index":56,"time_elapsed":344483,"internal_node_id":"0.0-55.0-0.0","task_version":"screening-mturk","missing":false,"accuracy":0},{"contexts":["green","red","blue"],"outcomes":[0,0,1],"key":38,"choice":1,"rt":496.35000014677644,"outcome":0,"trial":50,"correct":2,"trial_type":"three-arm-trial","trial_index":57,"time_elapsed":346190,"internal_node_id":"0.0-56.0-0.0","task_version":"screening-mturk","missing":false,"accuracy":0},{"contexts":["green","red","blue"],"outcomes":[0,0,0],"key":39,"choice":2,"rt":413.86500000953674,"outcome":0,"trial":51,"correct":2,"trial_type":"three-arm-trial","trial_index":58,"time_elapsed":347814,"internal_node_id":"0.0-57.0-0.0","task_version":"screening-mturk","missing":false,"accuracy":1},{"contexts":["green","red","blue"],"outcomes":[0,0,1],"key":39,"choice":2,"rt":347.5449997931719,"outcome":1,"trial":52,"correct":2,"trial_type":"three-arm-trial","trial_index":59,"time_elapsed":349373,"internal_node_id":"0.0-58.0-0.0","task_version":"screening-mturk","missing":false,"accuracy":1},{"contexts":["green","red","blue"],"outcomes":[0,0,1],"key":39,"choice":2,"rt":348.93500013276935,"outcome":1,"trial":53,"correct":2,"trial_type":"three-arm-trial","trial_index":60,"time_elapsed":350933,"internal_node_id":"0.0-59.0-0.0","task_version":"screening-mturk","missing":false,"accuracy":1},{"contexts":["green","red","blue"],"outcomes":[0,0,1],"key":39,"choice":2,"rt":284.39000016078353,"outcome":1,"trial":54,"correct":2,"trial_type":"three-arm-trial","trial_index":61,"time_elapsed":352429,"internal_node_id":"0.0-60.0-0.0","task_version":"screening-mturk","missing":false,"accuracy":1},{"contexts":["green","red","blue"],"outcomes":[0,0,1],"key":39,"choice":2,"rt":184.6149996854365,"outcome":1,"trial":55,"correct":2,"trial_type":"three-arm-trial","trial_index":62,"time_elapsed":353833,"internal_node_id":"0.0-61.0-0.0","task_version":"screening-mturk","missing":false,"accuracy":1},{"contexts":["green","red","blue"],"outcomes":[0,0,1],"key":39,"choice":2,"rt":379.8650000244379,"outcome":1,"trial":56,"correct":2,"trial_type":"three-arm-trial","trial_index":63,"time_elapsed":355423,"internal_node_id":"0.0-62.0-0.0","task_version":"screening-mturk","missing":false,"accuracy":1},{"contexts":["green","red","blue"],"outcomes":[0,1,1],"key":39,"choice":2,"rt":342.08500012755394,"outcome":1,"trial":57,"correct":2,"trial_type":"three-arm-trial","trial_index":64,"time_elapsed":356981,"internal_node_id":"0.0-63.0-0.0","task_version":"screening-mturk","missing":false,"accuracy":1},{"contexts":["green","red","blue"],"outcomes":[1,0,1],"key":39,"choice":2,"rt":354.91500003263354,"outcome":1,"trial":58,"correct":2,"trial_type":"three-arm-trial","trial_index":65,"time_elapsed":358548,"internal_node_id":"0.0-64.0-0.0","task_version":"screening-mturk","missing":false,"accuracy":1},{"contexts":["green","red","blue"],"outcomes":[0,0,1],"key":39,"choice":2,"rt":126.10000045970082,"outcome":1,"trial":59,"correct":2,"trial_type":"three-arm-trial","trial_index":66,"time_elapsed":359886,"internal_node_id":"0.0-65.0-0.0","task_version":"screening-mturk","missing":false,"accuracy":1},{"contexts":["green","red","blue"],"outcomes":[0,0,1],"key":39,"choice":2,"rt":321.84999994933605,"outcome":1,"trial":60,"correct":2,"trial_type":"three-arm-trial","trial_index":67,"time_elapsed":361423,"internal_node_id":"0.0-66.0-0.0","task_version":"screening-mturk","missing":false,"accuracy":1},{"contexts":["green","red","blue"],"outcomes":[0,0,0],"key":39,"choice":2,"rt":276.3300002552569,"outcome":0,"trial":61,"correct":0,"trial_type":"three-arm-trial","trial_index":68,"time_elapsed":362912,"internal_node_id":"0.0-67.0-0.0","task_version":"screening-mturk","missing":false,"accuracy":0},{"contexts":["green","red","blue"],"outcomes":[1,0,0],"key":39,"choice":2,"rt":345.02000035718083,"outcome":0,"trial":62,"correct":0,"trial_type":"three-arm-trial","trial_index":69,"time_elapsed":364468,"internal_node_id":"0.0-68.0-0.0","task_version":"screening-mturk","missing":false,"accuracy":0},{"contexts":["green","red","blue"],"outcomes":[1,1,0],"key":37,"choice":0,"rt":165.24500027298927,"outcome":1,"trial":63,"correct":0,"trial_type":"three-arm-trial","trial_index":70,"time_elapsed":365847,"internal_node_id":"0.0-69.0-0.0","task_version":"screening-mturk","missing":false,"accuracy":1},{"contexts":["green","red","blue"],"outcomes":[0,0,0],"key":37,"choice":0,"rt":301.5150004066527,"outcome":0,"trial":64,"correct":0,"trial_type":"three-arm-trial","trial_index":71,"time_elapsed":367363,"internal_node_id":"0.0-70.0-0.0","task_version":"screening-mturk","missing":false,"accuracy":1},{"contexts":["green","red","blue"],"outcomes":[1,0,1],"key":37,"choice":0,"rt":363.0400002002716,"outcome":1,"trial":65,"correct":0,"trial_type":"three-arm-trial","trial_index":72,"time_elapsed":368950,"internal_node_id":"0.0-71.0-0.0","task_version":"screening-mturk","missing":false,"accuracy":1},{"contexts":["green","red","blue"],"outcomes":[1,0,1],"key":37,"choice":0,"rt":335.95999982208014,"outcome":1,"trial":66,"correct":0,"trial_type":"three-arm-trial","trial_index":73,"time_elapsed":370497,"internal_node_id":"0.0-72.0-0.0","task_version":"screening-mturk","missing":false,"accuracy":1},{"contexts":["green","red","blue"],"outcomes":[1,0,0],"key":37,"choice":0,"rt":345.5100003629923,"outcome":1,"trial":67,"correct":0,"trial_type":"three-arm-trial","trial_index":74,"time_elapsed":372054,"internal_node_id":"0.0-73.0-0.0","task_version":"screening-mturk","missing":false,"accuracy":1},{"contexts":["green","red","blue"],"outcomes":[1,0,0],"key":37,"choice":0,"rt":232.96499997377396,"outcome":1,"trial":68,"correct":0,"trial_type":"three-arm-trial","trial_index":75,"time_elapsed":373501,"internal_node_id":"0.0-74.0-0.0","task_version":"screening-mturk","missing":false,"accuracy":1},{"contexts":["green","red","blue"],"outcomes":[1,0,0],"key":37,"choice":0,"rt":325.3550003282726,"outcome":1,"trial":69,"correct":0,"trial_type":"three-arm-trial","trial_index":76,"time_elapsed":375039,"internal_node_id":"0.0-75.0-0.0","task_version":"screening-mturk","missing":false,"accuracy":1},{"contexts":["green","red","blue"],"outcomes":[0,0,0],"key":37,"choice":0,"rt":216.83999989181757,"outcome":0,"trial":70,"correct":0,"trial_type":"three-arm-trial","trial_index":77,"time_elapsed":376467,"internal_node_id":"0.0-76.0-0.0","task_version":"screening-mturk","missing":false,"accuracy":1},{"contexts":["green","red","blue"],"outcomes":[1,1,0],"key":37,"choice":0,"rt":254.7249998897314,"outcome":1,"trial":71,"correct":0,"trial_type":"three-arm-trial","trial_index":78,"time_elapsed":377935,"internal_node_id":"0.0-77.0-0.0","task_version":"screening-mturk","missing":false,"accuracy":1},{"contexts":["green","red","blue"],"outcomes":[0,1,0],"key":37,"choice":0,"rt":317.4199997447431,"outcome":0,"trial":72,"correct":0,"trial_type":"three-arm-trial","trial_index":79,"time_elapsed":379463,"internal_node_id":"0.0-78.0-0.0","task_version":"screening-mturk","missing":false,"accuracy":1},{"contexts":["green","red","blue"],"outcomes":[0,0,0],"key":37,"choice":0,"rt":300.7849999703467,"outcome":0,"trial":73,"correct":0,"trial_type":"three-arm-trial","trial_index":80,"time_elapsed":380981,"internal_node_id":"0.0-79.0-0.0","task_version":"screening-mturk","missing":false,"accuracy":1},{"contexts":["green","red","blue"],"outcomes":[0,0,0],"key":38,"choice":1,"rt":518.6499999836087,"outcome":0,"trial":74,"correct":0,"trial_type":"three-arm-trial","trial_index":81,"time_elapsed":382711,"internal_node_id":"0.0-80.0-0.0","task_version":"screening-mturk","missing":false,"accuracy":0},{"contexts":["green","red","blue"],"outcomes":[1,0,0],"key":38,"choice":1,"rt":385.9899998642504,"outcome":0,"trial":75,"correct":0,"trial_type":"three-arm-trial","trial_index":82,"time_elapsed":384308,"internal_node_id":"0.0-81.0-0.0","task_version":"screening-mturk","missing":false,"accuracy":0},{"contexts":["green","red","blue"],"outcomes":[1,0,1],"key":38,"choice":1,"rt":355.5999998934567,"outcome":0,"trial":76,"correct":2,"trial_type":"three-arm-trial","trial_index":83,"time_elapsed":385875,"internal_node_id":"0.0-82.0-0.0","task_version":"screening-mturk","missing":false,"accuracy":0},{"contexts":["green","red","blue"],"outcomes":[0,0,1],"key":39,"choice":2,"rt":19.77499993517995,"outcome":1,"trial":77,"correct":2,"trial_type":"three-arm-trial","trial_index":84,"time_elapsed":387108,"internal_node_id":"0.0-83.0-0.0","task_version":"screening-mturk","missing":false,"accuracy":1},{"contexts":["green","red","blue"],"outcomes":[0,0,1],"key":39,"choice":2,"rt":340.71499994024634,"outcome":1,"trial":78,"correct":2,"trial_type":"three-arm-trial","trial_index":85,"time_elapsed":388659,"internal_node_id":"0.0-84.0-0.0","task_version":"screening-mturk","missing":false,"accuracy":1},{"contexts":["green","red","blue"],"outcomes":[0,0,1],"key":39,"choice":2,"rt":236.76500003784895,"outcome":1,"trial":79,"correct":2,"trial_type":"three-arm-trial","trial_index":86,"time_elapsed":390107,"internal_node_id":"0.0-85.0-0.0","task_version":"screening-mturk","missing":false,"accuracy":1},{"contexts":["green","red","blue"],"outcomes":[0,1,1],"key":39,"choice":2,"rt":280.629999935627,"outcome":1,"trial":80,"correct":2,"trial_type":"three-arm-trial","trial_index":87,"time_elapsed":391604,"internal_node_id":"0.0-86.0-0.0","task_version":"screening-mturk","missing":false,"accuracy":1},{"contexts":["green","red","blue"],"outcomes":[1,1,0],"key":39,"choice":2,"rt":196.31000002846122,"outcome":0,"trial":81,"correct":2,"trial_type":"three-arm-trial","trial_index":88,"time_elapsed":393011,"internal_node_id":"0.0-87.0-0.0","task_version":"screening-mturk","missing":false,"accuracy":1},{"contexts":["green","red","blue"],"outcomes":[0,0,1],"key":39,"choice":2,"rt":296.70500010252,"outcome":1,"trial":82,"correct":2,"trial_type":"three-arm-trial","trial_index":89,"time_elapsed":394519,"internal_node_id":"0.0-88.0-0.0","task_version":"screening-mturk","missing":false,"accuracy":1},{"contexts":["green","red","blue"],"outcomes":[0,1,1],"key":39,"choice":2,"rt":338.5149999521673,"outcome":1,"trial":83,"correct":2,"trial_type":"three-arm-trial","trial_index":90,"time_elapsed":396069,"internal_node_id":"0.0-89.0-0.0","task_version":"screening-mturk","missing":false,"accuracy":1},{"contexts":["green","red","blue"],"outcomes":[0,0,1],"key":39,"choice":2,"rt":201.8949999473989,"outcome":1,"trial":84,"correct":2,"trial_type":"three-arm-trial","trial_index":91,"time_elapsed":397485,"internal_node_id":"0.0-90.0-0.0","task_version":"screening-mturk","missing":false,"accuracy":1},{"contexts":["green","red","blue"],"outcomes":[0,0,1],"key":39,"choice":2,"rt":94.24000000581145,"outcome":1,"trial":85,"correct":2,"trial_type":"three-arm-trial","trial_index":92,"time_elapsed":398792,"internal_node_id":"0.0-91.0-0.0","task_version":"screening-mturk","missing":false,"accuracy":1},{"contexts":["green","red","blue"],"outcomes":[1,0,0],"key":39,"choice":2,"rt":324.4900000281632,"outcome":0,"trial":86,"correct":2,"trial_type":"three-arm-trial","trial_index":93,"time_elapsed":400329,"internal_node_id":"0.0-92.0-0.0","task_version":"screening-mturk","missing":false,"accuracy":1},{"contexts":["green","red","blue"],"outcomes":[0,0,1],"key":39,"choice":2,"rt":236.2500000745058,"outcome":1,"trial":87,"correct":2,"trial_type":"three-arm-trial","trial_index":94,"time_elapsed":401776,"internal_node_id":"0.0-93.0-0.0","task_version":"screening-mturk","missing":false,"accuracy":1},{"contexts":["green","red","blue"],"outcomes":[1,0,1],"key":39,"choice":2,"rt":299.254999961704,"outcome":1,"trial":88,"correct":2,"trial_type":"three-arm-trial","trial_index":95,"time_elapsed":403293,"internal_node_id":"0.0-94.0-0.0","task_version":"screening-mturk","missing":false,"accuracy":1},{"contexts":["green","red","blue"],"outcomes":[1,0,1],"key":39,"choice":2,"rt":237.62500006705523,"outcome":1,"trial":89,"correct":2,"trial_type":"three-arm-trial","trial_index":96,"time_elapsed":404740,"internal_node_id":"0.0-95.0-0.0","task_version":"screening-mturk","missing":false,"accuracy":1},{"contexts":["green","red","blue"],"outcomes":[0,0,0],"key":39,"choice":2,"rt":128.2999999821186,"outcome":0,"trial":90,"correct":2,"trial_type":"three-arm-trial","trial_index":97,"time_elapsed":406079,"internal_node_id":"0.0-96.0-0.0","task_version":"screening-mturk","missing":false,"accuracy":1},{"rt":31712.390000000596,"responses":{"age":"46","gender-categorical":"Female","gender-free-response":"","ethnicity":"Not Hispanic or Latino","race":["White"],"language":"Yes","fluency":"Very well","prolific":"Yes","prolific-this-study":"No"},"survey":"demographics","trial_type":"survey-demo","trial_index":98,"time_elapsed":437807,"internal_node_id":"0.0-97.0","task_version":"screening-mturk","interactions":"[]"}]