[{"responses":{"Q08":"2","Q13":"3","Q10":"2","Q07":"2","Q09":"2","Q02":"0","Q05":"2","Q01":"1","Q03":"1","Q12":"2","Q04":"0","Q06":"3","Q11":"2"},"rt":46871.764999988955,"survey":"bisbas","trial_type":"survey-template","trial_index":0,"time_elapsed":46880,"internal_node_id":"0.0-0.0","task_version":"screening-mturk"},{"responses":{"Q03":"0","Q07":"0","Q05":"0","Q04":"0","Q06":"0","Q02":"0","Q08":"0","Q01":"0"},"rt":30858.990000007907,"survey":"gad7","trial_type":"survey-template","trial_index":1,"time_elapsed":77742,"internal_node_id":"0.0-1.0","task_version":"screening-mturk"},{"responses":{"Q12":"2","Q06":"3","Q07":"3","Q04":"3","Q08":"2","Q03":"2","Q11":"2","Q13":"2","Q10":"3","Q05":"2","Q15":"3","Q14":"2","Q09":"2","Q02":"2","Q01":"2"},"rt":53595.95000001718,"survey":"shaps","trial_type":"survey-template","trial_index":2,"time_elapsed":131341,"internal_node_id":"0.0-2.0","task_version":"screening-mturk"},{"responses":{"Q04":"0","Q12":"0","Q01":"0","Q08":"1","Q14":"0","Q13":"0","Q02":"0","Q11":"0","Q05":"0","Q15":"0","Q09":"0","Q10":"0","Q07":"0","Q03":"0","Q06":"0"},"rt":134512.075000006,"survey":"7up7down","trial_type":"survey-template","trial_index":3,"time_elapsed":265857,"internal_node_id":"0.0-3.0","task_version":"screening-mturk"},{"responses":{"Q02":"0","Q01":"0","Q03":"0"},"rt":6207.269999984419,"survey":"pswq","trial_type":"survey-template","trial_index":4,"time_elapsed":272067,"internal_node_id":"0.0-4.0","task_version":"screening-mturk"},{"view_history":"[{\"page_index\":0,\"viewing_time\":2573.2150000112597},{\"page_index\":1,\"viewing_time\":3669.0700000035577},{\"page_index\":2,\"viewing_time\":4091.2850000022445},{\"page_index\":3,\"viewing_time\":1219.9499999987893},{\"page_index\":4,\"viewing_time\":1922.084999998333},{\"page_index\":5,\"viewing_time\":2040.0300000037532},{\"page_index\":6,\"viewing_time\":1908.964999980526},{\"page_index\":7,\"viewing_time\":935.4300000122748}]","rt":18360.87000000407,"trial_type":"instructions","trial_index":5,"time_elapsed":290428,"internal_node_id":"0.0-5.0-0.0","task_version":"screening-mturk"},{"responses":["True","True","False","False","True"],"num_errors":0,"rt":12746.335000003455,"trial_type":"three-arm-comprehension","trial_index":6,"time_elapsed":303178,"internal_node_id":"0.0-5.0-1.0","task_version":"screening-mturk"},{"view_history":"[{\"page_index\":0,\"viewing_time\":2202.2300000244286}]","rt":2202.420000015991,"trial_type":"instructions","trial_index":7,"time_elapsed":305384,"internal_node_id":"0.0-6.0","task_version":"screening-mturk"},{"contexts":["red","green","blue"],"outcomes":[0,1,1],"key":38,"choice":1,"rt":1242.3750000016298,"outcome":1,"trial":1,"correct":1,"trial_type":"three-arm-trial","trial_index":8,"time_elapsed":307828,"internal_node_id":"0.0-7.0-0.0","task_version":"screening-mturk","missing":false,"accuracy":1},{"contexts":["red","green","blue"],"outcomes":[0,0,0],"key":38,"choice":1,"rt":341.4950000005774,"outcome":0,"trial":2,"correct":1,"trial_type":"three-arm-trial","trial_index":9,"time_elapsed":309372,"internal_node_id":"0.0-8.0-0.0","task_version":"screening-mturk","missing":false,"accuracy":1},{"contexts":["red","green","blue"],"outcomes":[0,0,0],"key":38,"choice":1,"rt":813.3249999955297,"outcome":0,"trial":3,"correct":1,"trial_type":"three-arm-trial","trial_index":10,"time_elapsed":311389,"internal_node_id":"0.0-9.0-0.0","task_version":"screening-mturk","missing":false,"accuracy":1},{"contexts":["red","green","blue"],"outcomes":[0,1,0],"key":37,"choice":0,"rt":309.2600000090897,"outcome":0,"trial":4,"correct":1,"trial_type":"three-arm-trial","trial_index":11,"time_elapsed":312901,"internal_node_id":"0.0-10.0-0.0","task_version":"screening-mturk","missing":false,"accuracy":0},{"contexts":["red","green","blue"],"outcomes":[0,0,0],"key":39,"choice":2,"rt":45.42000000947155,"outcome":0,"trial":5,"correct":1,"trial_type":"three-arm-trial","trial_index":12,"time_elapsed":314148,"internal_node_id":"0.0-11.0-0.0","task_version":"screening-mturk","missing":false,"accuracy":0},{"contexts":["red","green","blue"],"outcomes":[0,1,0],"key":38,"choice":1,"rt":229.68499999842606,"outcome":1,"trial":6,"correct":1,"trial_type":"three-arm-trial","trial_index":13,"time_elapsed":315580,"internal_node_id":"0.0-12.0-0.0","task_version":"screening-mturk","missing":false,"accuracy":1},{"contexts":["red","green","blue"],"outcomes":[0,1,1],"key":38,"choice":1,"rt":501.4599999994971,"outcome":1,"trial":7,"correct":1,"trial_type":"three-arm-trial","trial_index":14,"time_elapsed":317285,"internal_node_id":"0.0-13.0-0.0","task_version":"screening-mturk","missing":false,"accuracy":1},{"contexts":["red","green","blue"],"outcomes":[1,1,0],"key":38,"choice":1,"rt":245.1450000226032,"outcome":1,"trial":8,"correct":1,"trial_type":"three-arm-trial","trial_index":15,"time_elapsed":318733,"internal_node_id":"0.0-14.0-0.0","task_version":"screening-mturk","missing":false,"accuracy":1},{"contexts":["red","green","blue"],"outcomes":[1,1,1],"key":38,"choice":1,"rt":621.6850000200793,"outcome":1,"trial":9,"correct":1,"trial_type":"three-arm-trial","trial_index":16,"time_elapsed":320559,"internal_node_id":"0.0-15.0-0.0","task_version":"screening-mturk","missing":false,"accuracy":1},{"contexts":["red","green","blue"],"outcomes":[1,1,0],"key":38,"choice":1,"rt":330.5199999886099,"outcome":1,"trial":10,"correct":1,"trial_type":"three-arm-trial","trial_index":17,"time_elapsed":322093,"internal_node_id":"0.0-16.0-0.0","task_version":"screening-mturk","missing":false,"accuracy":1},{"contexts":["red","green","blue"],"outcomes":[1,1,1],"key":38,"choice":1,"rt":66.79000001167879,"outcome":1,"trial":11,"correct":1,"trial_type":"three-arm-trial","trial_index":18,"time_elapsed":323420,"internal_node_id":"0.0-17.0-0.0","task_version":"screening-mturk","missing":false,"accuracy":1},{"contexts":["red","green","blue"],"outcomes":[0,1,1],"key":38,"choice":1,"rt":270.14999999664724,"outcome":1,"trial":12,"correct":1,"trial_type":"three-arm-trial","trial_index":19,"time_elapsed":324894,"internal_node_id":"0.0-18.0-0.0","task_version":"screening-mturk","missing":false,"accuracy":1},{"contexts":["red","green","blue"],"outcomes":[0,1,0],"key":38,"choice":1,"rt":211.21999999741092,"outcome":1,"trial":13,"correct":1,"trial_type":"three-arm-trial","trial_index":20,"time_elapsed":326308,"internal_node_id":"0.0-19.0-0.0","task_version":"screening-mturk","missing":false,"accuracy":1},{"contexts":["red","green","blue"],"outcomes":[0,1,1],"key":38,"choice":1,"rt":342.10999999777414,"outcome":1,"trial":14,"correct":1,"trial_type":"three-arm-trial","trial_index":21,"time_elapsed":327852,"internal_node_id":"0.0-20.0-0.0","task_version":"screening-mturk","missing":false,"accuracy":1},{"contexts":["red","green","blue"],"outcomes":[1,1,0],"key":38,"choice":1,"rt":309.7999999881722,"outcome":1,"trial":15,"correct":1,"trial_type":"three-arm-trial","trial_index":22,"time_elapsed":329364,"internal_node_id":"0.0-21.0-0.0","task_version":"screening-mturk","missing":false,"accuracy":1},{"contexts":["red","green","blue"],"outcomes":[1,0,0],"key":38,"choice":1,"rt":589.8999999917578,"outcome":0,"trial":16,"correct":0,"trial_type":"three-arm-trial","trial_index":23,"time_elapsed":331156,"internal_node_id":"0.0-22.0-0.0","task_version":"screening-mturk","missing":false,"accuracy":0},{"contexts":["red","green","blue"],"outcomes":[0,0,1],"key":38,"choice":1,"rt":421.9900000025518,"outcome":0,"trial":17,"correct":0,"trial_type":"three-arm-trial","trial_index":24,"time_elapsed":332780,"internal_node_id":"0.0-23.0-0.0","task_version":"screening-mturk","missing":false,"accuracy":0},{"contexts":["red","green","blue"],"outcomes":[0,0,0],"key":38,"choice":1,"rt":1301.6650000063237,"outcome":0,"trial":18,"correct":0,"trial_type":"three-arm-trial","trial_index":25,"time_elapsed":335285,"internal_node_id":"0.0-24.0-0.0","task_version":"screening-mturk","missing":false,"accuracy":0},{"contexts":["red","green","blue"],"outcomes":[1,1,0],"key":37,"choice":0,"rt":133.2350000157021,"outcome":1,"trial":19,"correct":0,"trial_type":"three-arm-trial","trial_index":26,"time_elapsed":336621,"internal_node_id":"0.0-25.0-0.0","task_version":"screening-mturk","missing":false,"accuracy":1},{"contexts":["red","green","blue"],"outcomes":[1,1,0],"key":37,"choice":0,"rt":340.5499999935273,"outcome":1,"trial":20,"correct":0,"trial_type":"three-arm-trial","trial_index":27,"time_elapsed":338164,"internal_node_id":"0.0-26.0-0.0","task_version":"screening-mturk","missing":false,"accuracy":1},{"contexts":["red","green","blue"],"outcomes":[0,1,0],"key":37,"choice":0,"rt":85.6050000002142,"outcome":0,"trial":21,"correct":0,"trial_type":"three-arm-trial","trial_index":28,"time_elapsed":339452,"internal_node_id":"0.0-27.0-0.0","task_version":"screening-mturk","missing":false,"accuracy":1},{"contexts":["red","green","blue"],"outcomes":[1,0,0],"key":37,"choice":0,"rt":309.9050000018906,"outcome":1,"trial":22,"correct":0,"trial_type":"three-arm-trial","trial_index":29,"time_elapsed":340964,"internal_node_id":"0.0-28.0-0.0","task_version":"screening-mturk","missing":false,"accuracy":1},{"contexts":["red","green","blue"],"outcomes":[1,0,1],"key":37,"choice":0,"rt":941.4899999974295,"outcome":1,"trial":23,"correct":0,"trial_type":"three-arm-trial","trial_index":30,"time_elapsed":343109,"internal_node_id":"0.0-29.0-0.0","task_version":"screening-mturk","missing":false,"accuracy":1},{"contexts":["red","green","blue"],"outcomes":[0,0,0],"key":37,"choice":0,"rt":797.4899999971967,"outcome":0,"trial":24,"correct":0,"trial_type":"three-arm-trial","trial_index":31,"time_elapsed":345109,"internal_node_id":"0.0-30.0-0.0","task_version":"screening-mturk","missing":false,"accuracy":1},{"contexts":["red","green","blue"],"outcomes":[1,1,0],"key":37,"choice":0,"rt":381.3700000173412,"outcome":1,"trial":25,"correct":0,"trial_type":"three-arm-trial","trial_index":32,"time_elapsed":346692,"internal_node_id":"0.0-31.0-0.0","task_version":"screening-mturk","missing":false,"accuracy":1},{"contexts":["red","green","blue"],"outcomes":[0,0,0],"key":37,"choice":0,"rt":365.6550000014249,"outcome":0,"trial":26,"correct":0,"trial_type":"three-arm-trial","trial_index":33,"time_elapsed":348260,"internal_node_id":"0.0-32.0-0.0","task_version":"screening-mturk","missing":false,"accuracy":1},{"contexts":["red","green","blue"],"outcomes":[1,0,1],"key":37,"choice":0,"rt":270.6449999823235,"outcome":1,"trial":27,"correct":0,"trial_type":"three-arm-trial","trial_index":34,"time_elapsed":349733,"internal_node_id":"0.0-33.0-0.0","task_version":"screening-mturk","missing":false,"accuracy":1},{"contexts":["red","green","blue"],"outcomes":[1,0,1],"key":37,"choice":0,"rt":533.0549999780487,"outcome":1,"trial":28,"correct":0,"trial_type":"three-arm-trial","trial_index":35,"time_elapsed":351469,"internal_node_id":"0.0-34.0-0.0","task_version":"screening-mturk","missing":false,"accuracy":1},{"contexts":["red","green","blue"],"outcomes":[0,0,1],"key":37,"choice":0,"rt":933.0049999989569,"outcome":0,"trial":29,"correct":0,"trial_type":"three-arm-trial","trial_index":36,"time_elapsed":353604,"internal_node_id":"0.0-35.0-0.0","task_version":"screening-mturk","missing":false,"accuracy":1},{"contexts":["red","green","blue"],"outcomes":[1,0,0],"key":37,"choice":0,"rt":542.5150000082795,"outcome":1,"trial":30,"correct":0,"trial_type":"three-arm-trial","trial_index":37,"time_elapsed":355349,"internal_node_id":"0.0-36.0-0.0","task_version":"screening-mturk","missing":false,"accuracy":1},{"contexts":["red","green","blue"],"outcomes":[1,0,1],"key":37,"choice":0,"rt":348.8999999826774,"outcome":1,"trial":31,"correct":2,"trial_type":"three-arm-trial","trial_index":38,"time_elapsed":356902,"internal_node_id":"0.0-37.0-0.0","task_version":"screening-mturk","missing":false,"accuracy":0},{"contexts":["red","green","blue"],"outcomes":[0,0,1],"key":37,"choice":0,"rt":460.5500000179745,"outcome":0,"trial":32,"correct":2,"trial_type":"three-arm-trial","trial_index":39,"time_elapsed":358565,"internal_node_id":"0.0-38.0-0.0","task_version":"screening-mturk","missing":false,"accuracy":0},{"contexts":["red","green","blue"],"outcomes":[0,0,0],"key":37,"choice":0,"rt":237.5350000220351,"outcome":0,"trial":33,"correct":2,"trial_type":"three-arm-trial","trial_index":40,"time_elapsed":360005,"internal_node_id":"0.0-39.0-0.0","task_version":"screening-mturk","missing":false,"accuracy":0},{"contexts":["red","green","blue"],"outcomes":[1,0,1],"key":39,"choice":2,"rt":301.4850000035949,"outcome":1,"trial":34,"correct":2,"trial_type":"three-arm-trial","trial_index":41,"time_elapsed":361509,"internal_node_id":"0.0-40.0-0.0","task_version":"screening-mturk","missing":false,"accuracy":1},{"contexts":["red","green","blue"],"outcomes":[0,0,0],"key":39,"choice":2,"rt":2981.529999990016,"outcome":0,"trial":35,"correct":2,"trial_type":"three-arm-trial","trial_index":42,"time_elapsed":365692,"internal_node_id":"0.0-41.0-0.0","task_version":"screening-mturk","missing":false,"accuracy":1},{"contexts":["red","green","blue"],"outcomes":[0,0,0],"key":37,"choice":0,"rt":389.61500002187677,"outcome":0,"trial":36,"correct":2,"trial_type":"three-arm-trial","trial_index":43,"time_elapsed":367285,"internal_node_id":"0.0-42.0-0.0","task_version":"screening-mturk","missing":false,"accuracy":0},{"contexts":["red","green","blue"],"outcomes":[0,0,1],"key":38,"choice":1,"rt":15.050000016344711,"outcome":0,"trial":37,"correct":2,"trial_type":"three-arm-trial","trial_index":44,"time_elapsed":368502,"internal_node_id":"0.0-43.0-0.0","task_version":"screening-mturk","missing":false,"accuracy":0},{"contexts":["red","green","blue"],"outcomes":[0,0,1],"key":37,"choice":0,"rt":35.540000011678785,"outcome":0,"trial":38,"correct":2,"trial_type":"three-arm-trial","trial_index":45,"time_elapsed":369740,"internal_node_id":"0.0-44.0-0.0","task_version":"screening-mturk","missing":false,"accuracy":0},{"contexts":["red","green","blue"],"outcomes":[0,0,1],"key":39,"choice":2,"rt":2446.479999984149,"outcome":1,"trial":39,"correct":2,"trial_type":"three-arm-trial","trial_index":46,"time_elapsed":373389,"internal_node_id":"0.0-45.0-0.0","task_version":"screening-mturk","missing":false,"accuracy":1},{"contexts":["red","green","blue"],"outcomes":[0,0,1],"key":39,"choice":2,"rt":317.2150000173133,"outcome":1,"trial":40,"correct":2,"trial_type":"three-arm-trial","trial_index":47,"time_elapsed":374908,"internal_node_id":"0.0-46.0-0.0","task_version":"screening-mturk","missing":false,"accuracy":1},{"contexts":["red","green","blue"],"outcomes":[0,1,0],"key":39,"choice":2,"rt":118.16000001272187,"outcome":0,"trial":41,"correct":2,"trial_type":"three-arm-trial","trial_index":48,"time_elapsed":376229,"internal_node_id":"0.0-47.0-0.0","task_version":"screening-mturk","missing":false,"accuracy":1},{"contexts":["red","green","blue"],"outcomes":[1,0,1],"key":39,"choice":2,"rt":901.110000006156,"outcome":1,"trial":42,"correct":2,"trial_type":"three-arm-trial","trial_index":49,"time_elapsed":378333,"internal_node_id":"0.0-48.0-0.0","task_version":"screening-mturk","missing":false,"accuracy":1},{"contexts":["red","green","blue"],"outcomes":[1,0,1],"key":39,"choice":2,"rt":725.0150000036228,"outcome":1,"trial":43,"correct":2,"trial_type":"three-arm-trial","trial_index":50,"time_elapsed":380261,"internal_node_id":"0.0-49.0-0.0","task_version":"screening-mturk","missing":false,"accuracy":1},{"contexts":["red","green","blue"],"outcomes":[0,1,1],"key":39,"choice":2,"rt":1013.4249999828171,"outcome":1,"trial":44,"correct":2,"trial_type":"three-arm-trial","trial_index":51,"time_elapsed":382477,"internal_node_id":"0.0-50.0-0.0","task_version":"screening-mturk","missing":false,"accuracy":1},{"contexts":["red","green","blue"],"outcomes":[0,0,1],"key":39,"choice":2,"rt":1804.8499999858905,"outcome":1,"trial":45,"correct":2,"trial_type":"three-arm-trial","trial_index":52,"time_elapsed":385485,"internal_node_id":"0.0-51.0-0.0","task_version":"screening-mturk","missing":false,"accuracy":1},{"contexts":["red","green","blue"],"outcomes":[0,1,0],"key":39,"choice":2,"rt":108.83499999181367,"outcome":0,"trial":46,"correct":1,"trial_type":"three-arm-trial","trial_index":53,"time_elapsed":386797,"internal_node_id":"0.0-52.0-0.0","task_version":"screening-mturk","missing":false,"accuracy":0},{"contexts":["red","green","blue"],"outcomes":[0,1,0],"key":38,"choice":1,"rt":1237.970000016503,"outcome":1,"trial":47,"correct":1,"trial_type":"three-arm-trial","trial_index":54,"time_elapsed":389237,"internal_node_id":"0.0-53.0-0.0","task_version":"screening-mturk","missing":false,"accuracy":1},{"contexts":["red","green","blue"],"outcomes":[0,1,0],"key":38,"choice":1,"rt":325.4399999859743,"outcome":1,"trial":48,"correct":1,"trial_type":"three-arm-trial","trial_index":55,"time_elapsed":390765,"internal_node_id":"0.0-54.0-0.0","task_version":"screening-mturk","missing":false,"accuracy":1},{"contexts":["red","green","blue"],"outcomes":[1,1,0],"key":38,"choice":1,"rt":972.7949999796692,"outcome":1,"trial":49,"correct":1,"trial_type":"three-arm-trial","trial_index":56,"time_elapsed":392941,"internal_node_id":"0.0-55.0-0.0","task_version":"screening-mturk","missing":false,"accuracy":1},{"contexts":["red","green","blue"],"outcomes":[0,1,0],"key":38,"choice":1,"rt":85.53499999106862,"outcome":1,"trial":50,"correct":1,"trial_type":"three-arm-trial","trial_index":57,"time_elapsed":394228,"internal_node_id":"0.0-56.0-0.0","task_version":"screening-mturk","missing":false,"accuracy":1},{"contexts":["red","green","blue"],"outcomes":[0,1,0],"key":38,"choice":1,"rt":182.19500000122935,"outcome":1,"trial":51,"correct":1,"trial_type":"three-arm-trial","trial_index":58,"time_elapsed":395613,"internal_node_id":"0.0-57.0-0.0","task_version":"screening-mturk","missing":false,"accuracy":1},{"contexts":["red","green","blue"],"outcomes":[0,0,0],"key":38,"choice":1,"rt":21.505000011529773,"outcome":0,"trial":52,"correct":1,"trial_type":"three-arm-trial","trial_index":59,"time_elapsed":396836,"internal_node_id":"0.0-58.0-0.0","task_version":"screening-mturk","missing":false,"accuracy":1},{"contexts":["red","green","blue"],"outcomes":[0,1,1],"key":37,"choice":0,"rt":134.2749999894295,"outcome":0,"trial":53,"correct":1,"trial_type":"three-arm-trial","trial_index":60,"time_elapsed":398172,"internal_node_id":"0.0-59.0-0.0","task_version":"screening-mturk","missing":false,"accuracy":0},{"contexts":["red","green","blue"],"outcomes":[0,1,0],"key":39,"choice":2,"rt":13.774999999441206,"outcome":0,"trial":54,"correct":1,"trial_type":"three-arm-trial","trial_index":61,"time_elapsed":399388,"internal_node_id":"0.0-60.0-0.0","task_version":"screening-mturk","missing":false,"accuracy":0},{"contexts":["red","green","blue"],"outcomes":[0,1,0],"key":38,"choice":1,"rt":102.43500000797212,"outcome":1,"trial":55,"correct":1,"trial_type":"three-arm-trial","trial_index":62,"time_elapsed":400692,"internal_node_id":"0.0-61.0-0.0","task_version":"screening-mturk","missing":false,"accuracy":1},{"contexts":["red","green","blue"],"outcomes":[1,0,0],"key":38,"choice":1,"rt":13.64999997895211,"outcome":0,"trial":56,"correct":1,"trial_type":"three-arm-trial","trial_index":63,"time_elapsed":401908,"internal_node_id":"0.0-62.0-0.0","task_version":"screening-mturk","missing":false,"accuracy":1},{"contexts":["red","green","blue"],"outcomes":[1,1,0],"key":38,"choice":1,"rt":134.52999998116866,"outcome":1,"trial":57,"correct":1,"trial_type":"three-arm-trial","trial_index":64,"time_elapsed":403245,"internal_node_id":"0.0-63.0-0.0","task_version":"screening-mturk","missing":false,"accuracy":1},{"contexts":["red","green","blue"],"outcomes":[1,1,1],"key":38,"choice":1,"rt":165.51500000059605,"outcome":1,"trial":58,"correct":1,"trial_type":"three-arm-trial","trial_index":65,"time_elapsed":404612,"internal_node_id":"0.0-64.0-0.0","task_version":"screening-mturk","missing":false,"accuracy":1},{"contexts":["red","green","blue"],"outcomes":[0,1,0],"key":38,"choice":1,"rt":142.46500001172535,"outcome":1,"trial":59,"correct":1,"trial_type":"three-arm-trial","trial_index":66,"time_elapsed":405956,"internal_node_id":"0.0-65.0-0.0","task_version":"screening-mturk","missing":false,"accuracy":1},{"contexts":["red","green","blue"],"outcomes":[1,1,0],"key":38,"choice":1,"rt":190.08500000927597,"outcome":1,"trial":60,"correct":1,"trial_type":"three-arm-trial","trial_index":67,"time_elapsed":407349,"internal_node_id":"0.0-66.0-0.0","task_version":"screening-mturk","missing":false,"accuracy":1},{"contexts":["red","green","blue"],"outcomes":[1,0,0],"key":38,"choice":1,"rt":189.29999999818392,"outcome":0,"trial":61,"correct":2,"trial_type":"three-arm-trial","trial_index":68,"time_elapsed":408741,"internal_node_id":"0.0-67.0-0.0","task_version":"screening-mturk","missing":false,"accuracy":0},{"contexts":["red","green","blue"],"outcomes":[0,0,0],"key":38,"choice":1,"rt":12.13000001735054,"outcome":0,"trial":62,"correct":2,"trial_type":"three-arm-trial","trial_index":69,"time_elapsed":409957,"internal_node_id":"0.0-68.0-0.0","task_version":"screening-mturk","missing":false,"accuracy":0},{"contexts":["red","green","blue"],"outcomes":[0,0,1],"key":38,"choice":1,"rt":149.2349999898579,"outcome":0,"trial":63,"correct":2,"trial_type":"three-arm-trial","trial_index":70,"time_elapsed":411309,"internal_node_id":"0.0-69.0-0.0","task_version":"screening-mturk","missing":false,"accuracy":0},{"contexts":["red","green","blue"],"outcomes":[0,0,1],"key":38,"choice":1,"rt":180.87999999988824,"outcome":0,"trial":64,"correct":2,"trial_type":"three-arm-trial","trial_index":71,"time_elapsed":412692,"internal_node_id":"0.0-70.0-0.0","task_version":"screening-mturk","missing":false,"accuracy":0},{"contexts":["red","green","blue"],"outcomes":[0,1,1],"key":38,"choice":1,"rt":182.0000000006985,"outcome":1,"trial":65,"correct":2,"trial_type":"three-arm-trial","trial_index":72,"time_elapsed":414077,"internal_node_id":"0.0-71.0-0.0","task_version":"screening-mturk","missing":false,"accuracy":0},{"contexts":["red","green","blue"],"outcomes":[0,0,1],"key":38,"choice":1,"rt":164.31499997270294,"outcome":0,"trial":66,"correct":2,"trial_type":"three-arm-trial","trial_index":73,"time_elapsed":415444,"internal_node_id":"0.0-72.0-0.0","task_version":"screening-mturk","missing":false,"accuracy":0},{"contexts":["red","green","blue"],"outcomes":[1,0,1],"key":38,"choice":1,"rt":236.10999999800697,"outcome":0,"trial":67,"correct":2,"trial_type":"three-arm-trial","trial_index":74,"time_elapsed":416885,"internal_node_id":"0.0-73.0-0.0","task_version":"screening-mturk","missing":false,"accuracy":0},{"contexts":["red","green","blue"],"outcomes":[0,0,1],"key":38,"choice":1,"rt":20.324999990407377,"outcome":0,"trial":68,"correct":2,"trial_type":"three-arm-trial","trial_index":75,"time_elapsed":418108,"internal_node_id":"0.0-74.0-0.0","task_version":"screening-mturk","missing":false,"accuracy":0},{"contexts":["red","green","blue"],"outcomes":[0,0,0],"key":38,"choice":1,"rt":53.67000002297573,"outcome":0,"trial":69,"correct":2,"trial_type":"three-arm-trial","trial_index":76,"time_elapsed":419365,"internal_node_id":"0.0-75.0-0.0","task_version":"screening-mturk","missing":false,"accuracy":0},{"contexts":["red","green","blue"],"outcomes":[0,0,0],"key":38,"choice":1,"rt":1228.4100000106264,"outcome":0,"trial":70,"correct":2,"trial_type":"three-arm-trial","trial_index":77,"time_elapsed":421796,"internal_node_id":"0.0-76.0-0.0","task_version":"screening-mturk","missing":false,"accuracy":0},{"contexts":["red","green","blue"],"outcomes":[0,0,1],"key":38,"choice":1,"rt":2837.230000004638,"outcome":0,"trial":71,"correct":2,"trial_type":"three-arm-trial","trial_index":78,"time_elapsed":425836,"internal_node_id":"0.0-77.0-0.0","task_version":"screening-mturk","missing":false,"accuracy":0},{"contexts":["red","green","blue"],"outcomes":[0,1,1],"key":38,"choice":1,"rt":21.29500001319684,"outcome":1,"trial":72,"correct":2,"trial_type":"three-arm-trial","trial_index":79,"time_elapsed":427060,"internal_node_id":"0.0-78.0-0.0","task_version":"screening-mturk","missing":false,"accuracy":0},{"contexts":["red","green","blue"],"outcomes":[0,0,1],"key":38,"choice":1,"rt":77.68000001669861,"outcome":0,"trial":73,"correct":2,"trial_type":"three-arm-trial","trial_index":80,"time_elapsed":428339,"internal_node_id":"0.0-79.0-0.0","task_version":"screening-mturk","missing":false,"accuracy":0},{"contexts":["red","green","blue"],"outcomes":[1,1,0],"key":38,"choice":1,"rt":190.4649999924004,"outcome":1,"trial":74,"correct":2,"trial_type":"three-arm-trial","trial_index":81,"time_elapsed":429732,"internal_node_id":"0.0-80.0-0.0","task_version":"screening-mturk","missing":false,"accuracy":0},{"contexts":["red","green","blue"],"outcomes":[1,0,1],"key":38,"choice":1,"rt":189.6499999857042,"outcome":0,"trial":75,"correct":2,"trial_type":"three-arm-trial","trial_index":82,"time_elapsed":431125,"internal_node_id":"0.0-81.0-0.0","task_version":"screening-mturk","missing":false,"accuracy":0},{"contexts":["red","green","blue"],"outcomes":[0,0,1],"key":38,"choice":1,"rt":1996.580000006361,"outcome":0,"trial":76,"correct":0,"trial_type":"three-arm-trial","trial_index":83,"time_elapsed":434324,"internal_node_id":"0.0-82.0-0.0","task_version":"screening-mturk","missing":false,"accuracy":0},{"contexts":["red","green","blue"],"outcomes":[0,0,0],"key":38,"choice":1,"rt":1070.254999998724,"outcome":0,"trial":77,"correct":0,"trial_type":"three-arm-trial","trial_index":84,"time_elapsed":436597,"internal_node_id":"0.0-83.0-0.0","task_version":"screening-mturk","missing":false,"accuracy":0},{"contexts":["red","green","blue"],"outcomes":[0,0,0],"key":38,"choice":1,"rt":12.820000003557652,"outcome":0,"trial":78,"correct":0,"trial_type":"three-arm-trial","trial_index":85,"time_elapsed":437811,"internal_node_id":"0.0-84.0-0.0","task_version":"screening-mturk","missing":false,"accuracy":0},{"contexts":["red","green","blue"],"outcomes":[0,0,0],"key":37,"choice":0,"rt":310.5349999968894,"outcome":0,"trial":79,"correct":0,"trial_type":"three-arm-trial","trial_index":86,"time_elapsed":439324,"internal_node_id":"0.0-85.0-0.0","task_version":"screening-mturk","missing":false,"accuracy":1},{"contexts":["red","green","blue"],"outcomes":[1,0,1],"key":39,"choice":2,"rt":3060.8899999933783,"outcome":1,"trial":80,"correct":0,"trial_type":"three-arm-trial","trial_index":87,"time_elapsed":443588,"internal_node_id":"0.0-86.0-0.0","task_version":"screening-mturk","missing":false,"accuracy":0},{"contexts":["red","green","blue"],"outcomes":[1,0,0],"key":39,"choice":2,"rt":46.06500000227243,"outcome":0,"trial":81,"correct":0,"trial_type":"three-arm-trial","trial_index":88,"time_elapsed":444837,"internal_node_id":"0.0-87.0-0.0","task_version":"screening-mturk","missing":false,"accuracy":0},{"contexts":["red","green","blue"],"outcomes":[1,0,0],"key":39,"choice":2,"rt":3332.3249999957625,"outcome":0,"trial":82,"correct":0,"trial_type":"three-arm-trial","trial_index":89,"time_elapsed":449372,"internal_node_id":"0.0-88.0-0.0","task_version":"screening-mturk","missing":false,"accuracy":0},{"contexts":["red","green","blue"],"outcomes":[1,1,0],"key":37,"choice":0,"rt":1189.2750000115484,"outcome":1,"trial":83,"correct":0,"trial_type":"three-arm-trial","trial_index":90,"time_elapsed":451763,"internal_node_id":"0.0-89.0-0.0","task_version":"screening-mturk","missing":false,"accuracy":1},{"contexts":["red","green","blue"],"outcomes":[1,0,1],"key":37,"choice":0,"rt":942.4700000090525,"outcome":1,"trial":84,"correct":0,"trial_type":"three-arm-trial","trial_index":91,"time_elapsed":453908,"internal_node_id":"0.0-90.0-0.0","task_version":"screening-mturk","missing":false,"accuracy":1},{"contexts":["red","green","blue"],"outcomes":[1,0,0],"key":37,"choice":0,"rt":2189.474999991944,"outcome":1,"trial":85,"correct":0,"trial_type":"three-arm-trial","trial_index":92,"time_elapsed":457299,"internal_node_id":"0.0-91.0-0.0","task_version":"screening-mturk","missing":false,"accuracy":1},{"contexts":["red","green","blue"],"outcomes":[0,0,0],"key":37,"choice":0,"rt":293.9550000010058,"outcome":0,"trial":86,"correct":0,"trial_type":"three-arm-trial","trial_index":93,"time_elapsed":458796,"internal_node_id":"0.0-92.0-0.0","task_version":"screening-mturk","missing":false,"accuracy":1},{"contexts":["red","green","blue"],"outcomes":[1,0,1],"key":37,"choice":0,"rt":1926.0599999979604,"outcome":1,"trial":87,"correct":0,"trial_type":"three-arm-trial","trial_index":94,"time_elapsed":461925,"internal_node_id":"0.0-93.0-0.0","task_version":"screening-mturk","missing":false,"accuracy":1},{"contexts":["red","green","blue"],"outcomes":[0,0,0],"key":37,"choice":0,"rt":484.6450000186451,"outcome":0,"trial":88,"correct":0,"trial_type":"three-arm-trial","trial_index":95,"time_elapsed":463611,"internal_node_id":"0.0-94.0-0.0","task_version":"screening-mturk","missing":false,"accuracy":1},{"contexts":["red","green","blue"],"outcomes":[1,0,0],"key":38,"choice":1,"rt":254.2949999915436,"outcome":0,"trial":89,"correct":0,"trial_type":"three-arm-trial","trial_index":96,"time_elapsed":465068,"internal_node_id":"0.0-95.0-0.0","task_version":"screening-mturk","missing":false,"accuracy":0},{"contexts":["red","green","blue"],"outcomes":[0,0,0],"key":39,"choice":2,"rt":37.63999999500811,"outcome":0,"trial":90,"correct":0,"trial_type":"three-arm-trial","trial_index":97,"time_elapsed":466309,"internal_node_id":"0.0-96.0-0.0","task_version":"screening-mturk","missing":false,"accuracy":0},{"rt":13592.169999988982,"responses":{"age":"40","gender-categorical":"Male","gender-free-response":"","ethnicity":"Not Hispanic or Latino","race":["White"],"language":"Yes","fluency":"Very well","prolific":"Yes","prolific-this-study":"No"},"survey":"demographics","trial_type":"survey-demo","trial_index":98,"time_elapsed":479905,"internal_node_id":"0.0-97.0","task_version":"screening-mturk","interactions":"[{\"event\":\"blur\",\"trial\":3,\"time\":198737},{\"event\":\"focus\",\"trial\":3,\"time\":238801}]"}]