[{"responses":{"Q07":"1","Q03":"0","Q05":"0","Q08":"0","Q02":"0","Q04":"0","Q06":"0","Q01":"1"},"rt":20021.074999996927,"survey":"gad7","trial_type":"survey-template","trial_index":0,"time_elapsed":20027,"internal_node_id":"0.0-0.0","task_version":"screening-mturk"},{"responses":{"Q14":"2","Q09":"3","Q05":"3","Q06":"3","Q01":"3","Q03":"3","Q04":"3","Q12":"3","Q13":"3","Q15":"3","Q08":"3","Q11":"3","Q10":"3","Q07":"3","Q02":"3"},"rt":46202.83000000927,"survey":"shaps","trial_type":"survey-template","trial_index":1,"time_elapsed":66233,"internal_node_id":"0.0-1.0","task_version":"screening-mturk"},{"responses":{"Q06":"2","Q10":"2","Q02":"2","Q09":"2","Q07":"3","Q11":"3","Q13":"3","Q01":"3","Q08":"3","Q12":"3","Q05":"3","Q04":"3","Q03":"2"},"rt":41850.46999999031,"survey":"bisbas","trial_type":"survey-template","trial_index":2,"time_elapsed":108085,"internal_node_id":"0.0-2.0","task_version":"screening-mturk"},{"responses":{"Q14":"0","Q05":"1","Q03":"0","Q06":"0","Q04":"1","Q01":"0","Q02":"1","Q13":"0","Q11":"0","Q09":"0","Q15":"0","Q08":"0","Q10":"0","Q12":"0","Q07":"0"},"rt":82085.77499999956,"survey":"7up7down","trial_type":"survey-template","trial_index":3,"time_elapsed":190174,"internal_node_id":"0.0-3.0","task_version":"screening-mturk"},{"responses":{"Q01":"2","Q03":"2","Q02":"2"},"rt":9281.619999994291,"survey":"pswq","trial_type":"survey-template","trial_index":4,"time_elapsed":199457,"internal_node_id":"0.0-4.0","task_version":"screening-mturk"},{"view_history":"[{\"page_index\":0,\"viewing_time\":4988.840000005439},{\"page_index\":1,\"viewing_time\":11888.189999997849},{\"page_index\":2,\"viewing_time\":7910.64999999071},{\"page_index\":3,\"viewing_time\":9733.115000010002},{\"page_index\":4,\"viewing_time\":6470.569999990403},{\"page_index\":5,\"viewing_time\":2734.1299999970943},{\"page_index\":6,\"viewing_time\":4008.2750000001397},{\"page_index\":7,\"viewing_time\":3359.3700000055833}]","rt":51093.779999995604,"trial_type":"instructions","trial_index":5,"time_elapsed":250552,"internal_node_id":"0.0-5.0-0.0","task_version":"screening-mturk"},{"responses":["True","True","True","False","True"],"num_errors":1,"rt":16579.9149999948,"trial_type":"three-arm-comprehension","trial_index":6,"time_elapsed":267134,"internal_node_id":"0.0-5.0-1.0","task_version":"screening-mturk"},{"view_history":"[{\"page_index\":0,\"viewing_time\":2731.0250000009546},{\"page_index\":1,\"viewing_time\":4492.279999991297},{\"page_index\":2,\"viewing_time\":2654.6000000089407},{\"page_index\":3,\"viewing_time\":2187.3649999906775},{\"page_index\":4,\"viewing_time\":3750.0700000091456},{\"page_index\":5,\"viewing_time\":5475.554999997257},{\"page_index\":6,\"viewing_time\":2715.3050000051735},{\"page_index\":7,\"viewing_time\":2874.359999987064}]","rt":26880.72000000102,"trial_type":"instructions","trial_index":7,"time_elapsed":294017,"internal_node_id":"0.0-5.1-0.1","task_version":"screening-mturk"},{"responses":["True","True","True","False","True"],"num_errors":1,"rt":24926.129999992554,"trial_type":"three-arm-comprehension","trial_index":8,"time_elapsed":318945,"internal_node_id":"0.0-5.1-1.1","task_version":"screening-mturk"},{"view_history":"[{\"page_index\":0,\"viewing_time\":2087.599999998929},{\"page_index\":1,\"viewing_time\":954.4500000047265},{\"page_index\":2,\"viewing_time\":454.43499999237247},{\"page_index\":3,\"viewing_time\":2078.6900000093738},{\"page_index\":4,\"viewing_time\":5198.214999996708},{\"page_index\":5,\"viewing_time\":2544.93000000366},{\"page_index\":6,\"viewing_time\":1343.1449999916367},{\"page_index\":7,\"viewing_time\":3600.785000002361}]","rt":18262.40500000131,"trial_type":"instructions","trial_index":9,"time_elapsed":337209,"internal_node_id":"0.0-5.2-0.2","task_version":"screening-mturk"},{"responses":["True","True","False","False","True"],"num_errors":0,"rt":28754.60500000918,"trial_type":"three-arm-comprehension","trial_index":10,"time_elapsed":365965,"internal_node_id":"0.0-5.2-1.2","task_version":"screening-mturk"},{"view_history":"[{\"page_index\":0,\"viewing_time\":1820.319999998901}]","rt":1820.4450000048382,"trial_type":"instructions","trial_index":11,"time_elapsed":367787,"internal_node_id":"0.0-6.0","task_version":"screening-mturk"},{"contexts":["blue","green","red"],"outcomes":[1,0,0],"key":null,"rt":null,"trial":1,"correct":0,"trial_type":"three-arm-trial","trial_index":12,"time_elapsed":382790,"internal_node_id":"0.0-7.0-0.0","task_version":"screening-mturk","missing":true},{"contexts":["blue","green","red"],"outcomes":[1,0,0],"key":39,"choice":2,"rt":1597.1100000024308,"outcome":0,"trial":1,"correct":0,"trial_type":"three-arm-trial","trial_index":13,"time_elapsed":385590,"internal_node_id":"0.0-7.1-0.1","task_version":"screening-mturk","missing":false,"accuracy":0},{"contexts":["blue","green","red"],"outcomes":[1,0,1],"key":37,"choice":0,"rt":516.8900000135181,"outcome":1,"trial":2,"correct":0,"trial_type":"three-arm-trial","trial_index":14,"time_elapsed":387309,"internal_node_id":"0.0-8.0-0.0","task_version":"screening-mturk","missing":false,"accuracy":1},{"contexts":["blue","green","red"],"outcomes":[1,0,0],"key":37,"choice":0,"rt":806.6200000030221,"outcome":1,"trial":3,"correct":0,"trial_type":"three-arm-trial","trial_index":15,"time_elapsed":389317,"internal_node_id":"0.0-9.0-0.0","task_version":"screening-mturk","missing":false,"accuracy":1},{"contexts":["blue","green","red"],"outcomes":[1,0,1],"key":37,"choice":0,"rt":342.4700000032317,"outcome":1,"trial":4,"correct":0,"trial_type":"three-arm-trial","trial_index":16,"time_elapsed":390861,"internal_node_id":"0.0-10.0-0.0","task_version":"screening-mturk","missing":false,"accuracy":1},{"contexts":["blue","green","red"],"outcomes":[0,0,0],"key":37,"choice":0,"rt":389.52499999140855,"outcome":0,"trial":5,"correct":0,"trial_type":"three-arm-trial","trial_index":17,"time_elapsed":392453,"internal_node_id":"0.0-11.0-0.0","task_version":"screening-mturk","missing":false,"accuracy":1},{"contexts":["blue","green","red"],"outcomes":[1,1,0],"key":38,"choice":1,"rt":493.58500000380445,"outcome":1,"trial":6,"correct":0,"trial_type":"three-arm-trial","trial_index":18,"time_elapsed":394149,"internal_node_id":"0.0-12.0-0.0","task_version":"screening-mturk","missing":false,"accuracy":0},{"contexts":["blue","green","red"],"outcomes":[1,0,1],"key":38,"choice":1,"rt":413.6949999956414,"outcome":0,"trial":7,"correct":0,"trial_type":"three-arm-trial","trial_index":19,"time_elapsed":395765,"internal_node_id":"0.0-13.0-0.0","task_version":"screening-mturk","missing":false,"accuracy":0},{"contexts":["blue","green","red"],"outcomes":[1,0,1],"key":37,"choice":0,"rt":1189.6149999956833,"outcome":1,"trial":8,"correct":0,"trial_type":"three-arm-trial","trial_index":20,"time_elapsed":398157,"internal_node_id":"0.0-14.0-0.0","task_version":"screening-mturk","missing":false,"accuracy":1},{"contexts":["blue","green","red"],"outcomes":[1,1,0],"key":37,"choice":0,"rt":397.13499999197666,"outcome":1,"trial":9,"correct":0,"trial_type":"three-arm-trial","trial_index":21,"time_elapsed":399756,"internal_node_id":"0.0-15.0-0.0","task_version":"screening-mturk","missing":false,"accuracy":1},{"contexts":["blue","green","red"],"outcomes":[0,1,0],"key":37,"choice":0,"rt":614.7349999955622,"outcome":0,"trial":10,"correct":0,"trial_type":"three-arm-trial","trial_index":22,"time_elapsed":401574,"internal_node_id":"0.0-16.0-0.0","task_version":"screening-mturk","missing":false,"accuracy":1},{"contexts":["blue","green","red"],"outcomes":[1,0,0],"key":37,"choice":0,"rt":292.5099999993108,"outcome":1,"trial":11,"correct":0,"trial_type":"three-arm-trial","trial_index":23,"time_elapsed":403069,"internal_node_id":"0.0-17.0-0.0","task_version":"screening-mturk","missing":false,"accuracy":1},{"contexts":["blue","green","red"],"outcomes":[1,0,1],"key":37,"choice":0,"rt":366.264999989653,"outcome":1,"trial":12,"correct":0,"trial_type":"three-arm-trial","trial_index":24,"time_elapsed":404637,"internal_node_id":"0.0-18.0-0.0","task_version":"screening-mturk","missing":false,"accuracy":1},{"contexts":["blue","green","red"],"outcomes":[1,0,0],"key":37,"choice":0,"rt":397.4049999960698,"outcome":1,"trial":13,"correct":0,"trial_type":"three-arm-trial","trial_index":25,"time_elapsed":406236,"internal_node_id":"0.0-19.0-0.0","task_version":"screening-mturk","missing":false,"accuracy":1},{"contexts":["blue","green","red"],"outcomes":[1,0,1],"key":37,"choice":0,"rt":550.7300000026589,"outcome":1,"trial":14,"correct":0,"trial_type":"three-arm-trial","trial_index":26,"time_elapsed":407989,"internal_node_id":"0.0-20.0-0.0","task_version":"screening-mturk","missing":false,"accuracy":1},{"contexts":["blue","green","red"],"outcomes":[1,1,0],"key":37,"choice":0,"rt":534.2700000037439,"outcome":1,"trial":15,"correct":0,"trial_type":"three-arm-trial","trial_index":27,"time_elapsed":409725,"internal_node_id":"0.0-21.0-0.0","task_version":"screening-mturk","missing":false,"accuracy":1},{"contexts":["blue","green","red"],"outcomes":[0,0,1],"key":37,"choice":0,"rt":510.00500000372995,"outcome":0,"trial":16,"correct":2,"trial_type":"three-arm-trial","trial_index":28,"time_elapsed":411437,"internal_node_id":"0.0-22.0-0.0","task_version":"screening-mturk","missing":false,"accuracy":0},{"contexts":["blue","green","red"],"outcomes":[1,0,0],"key":37,"choice":0,"rt":414.18000000703614,"outcome":1,"trial":17,"correct":2,"trial_type":"three-arm-trial","trial_index":29,"time_elapsed":413054,"internal_node_id":"0.0-23.0-0.0","task_version":"screening-mturk","missing":false,"accuracy":0},{"contexts":["blue","green","red"],"outcomes":[0,0,1],"key":37,"choice":0,"rt":356.7449999973178,"outcome":0,"trial":18,"correct":2,"trial_type":"three-arm-trial","trial_index":30,"time_elapsed":414613,"internal_node_id":"0.0-24.0-0.0","task_version":"screening-mturk","missing":false,"accuracy":0},{"contexts":["blue","green","red"],"outcomes":[0,0,1],"key":38,"choice":1,"rt":518.2350000104634,"outcome":0,"trial":19,"correct":2,"trial_type":"three-arm-trial","trial_index":31,"time_elapsed":416334,"internal_node_id":"0.0-25.0-0.0","task_version":"screening-mturk","missing":false,"accuracy":0},{"contexts":["blue","green","red"],"outcomes":[0,0,1],"key":38,"choice":1,"rt":749.3749999994179,"outcome":0,"trial":20,"correct":2,"trial_type":"three-arm-trial","trial_index":32,"time_elapsed":418285,"internal_node_id":"0.0-26.0-0.0","task_version":"screening-mturk","missing":false,"accuracy":0},{"contexts":["blue","green","red"],"outcomes":[0,1,0],"key":39,"choice":2,"rt":213.30499999749009,"outcome":0,"trial":21,"correct":2,"trial_type":"three-arm-trial","trial_index":33,"time_elapsed":419700,"internal_node_id":"0.0-27.0-0.0","task_version":"screening-mturk","missing":false,"accuracy":1},{"contexts":["blue","green","red"],"outcomes":[0,0,1],"key":39,"choice":2,"rt":406.5100000007078,"outcome":1,"trial":22,"correct":2,"trial_type":"three-arm-trial","trial_index":34,"time_elapsed":421309,"internal_node_id":"0.0-28.0-0.0","task_version":"screening-mturk","missing":false,"accuracy":1},{"contexts":["blue","green","red"],"outcomes":[0,0,1],"key":39,"choice":2,"rt":422.3700000002282,"outcome":1,"trial":23,"correct":2,"trial_type":"three-arm-trial","trial_index":35,"time_elapsed":422934,"internal_node_id":"0.0-29.0-0.0","task_version":"screening-mturk","missing":false,"accuracy":1},{"contexts":["blue","green","red"],"outcomes":[0,0,0],"key":39,"choice":2,"rt":420.750000004773,"outcome":0,"trial":24,"correct":2,"trial_type":"three-arm-trial","trial_index":36,"time_elapsed":424558,"internal_node_id":"0.0-30.0-0.0","task_version":"screening-mturk","missing":false,"accuracy":1},{"contexts":["blue","green","red"],"outcomes":[0,0,1],"key":39,"choice":2,"rt":677.0999999862397,"outcome":1,"trial":25,"correct":2,"trial_type":"three-arm-trial","trial_index":37,"time_elapsed":426437,"internal_node_id":"0.0-31.0-0.0","task_version":"screening-mturk","missing":false,"accuracy":1},{"contexts":["blue","green","red"],"outcomes":[0,0,1],"key":39,"choice":2,"rt":598.1100000062725,"outcome":1,"trial":26,"correct":2,"trial_type":"three-arm-trial","trial_index":38,"time_elapsed":428237,"internal_node_id":"0.0-32.0-0.0","task_version":"screening-mturk","missing":false,"accuracy":1},{"contexts":["blue","green","red"],"outcomes":[0,1,1],"key":39,"choice":2,"rt":429.99499999859836,"outcome":1,"trial":27,"correct":2,"trial_type":"three-arm-trial","trial_index":39,"time_elapsed":429869,"internal_node_id":"0.0-33.0-0.0","task_version":"screening-mturk","missing":false,"accuracy":1},{"contexts":["blue","green","red"],"outcomes":[0,0,1],"key":39,"choice":2,"rt":413.379999998142,"outcome":1,"trial":28,"correct":2,"trial_type":"three-arm-trial","trial_index":40,"time_elapsed":431485,"internal_node_id":"0.0-34.0-0.0","task_version":"screening-mturk","missing":false,"accuracy":1},{"contexts":["blue","green","red"],"outcomes":[0,1,0],"key":39,"choice":2,"rt":389.6600000007311,"outcome":0,"trial":29,"correct":2,"trial_type":"three-arm-trial","trial_index":41,"time_elapsed":433076,"internal_node_id":"0.0-35.0-0.0","task_version":"screening-mturk","missing":false,"accuracy":1},{"contexts":["blue","green","red"],"outcomes":[0,0,1],"key":37,"choice":0,"rt":263.13500000105705,"outcome":0,"trial":30,"correct":2,"trial_type":"three-arm-trial","trial_index":42,"time_elapsed":434541,"internal_node_id":"0.0-36.0-0.0","task_version":"screening-mturk","missing":false,"accuracy":0},{"contexts":["blue","green","red"],"outcomes":[0,1,0],"key":37,"choice":0,"rt":397.2650000068825,"outcome":0,"trial":31,"correct":1,"trial_type":"three-arm-trial","trial_index":43,"time_elapsed":436141,"internal_node_id":"0.0-37.0-0.0","task_version":"screening-mturk","missing":false,"accuracy":0},{"contexts":["blue","green","red"],"outcomes":[1,0,0],"key":38,"choice":1,"rt":230.56500000529923,"outcome":0,"trial":32,"correct":1,"trial_type":"three-arm-trial","trial_index":44,"time_elapsed":437572,"internal_node_id":"0.0-38.0-0.0","task_version":"screening-mturk","missing":false,"accuracy":1},{"contexts":["blue","green","red"],"outcomes":[0,1,1],"key":38,"choice":1,"rt":734.8950000014156,"outcome":1,"trial":33,"correct":1,"trial_type":"three-arm-trial","trial_index":45,"time_elapsed":439509,"internal_node_id":"0.0-39.0-0.0","task_version":"screening-mturk","missing":false,"accuracy":1},{"contexts":["blue","green","red"],"outcomes":[0,1,0],"key":38,"choice":1,"rt":429.47499999718275,"outcome":1,"trial":34,"correct":1,"trial_type":"three-arm-trial","trial_index":46,"time_elapsed":441140,"internal_node_id":"0.0-40.0-0.0","task_version":"screening-mturk","missing":false,"accuracy":1},{"contexts":["blue","green","red"],"outcomes":[0,0,0],"key":38,"choice":1,"rt":350.7899999967776,"outcome":0,"trial":35,"correct":1,"trial_type":"three-arm-trial","trial_index":47,"time_elapsed":442693,"internal_node_id":"0.0-41.0-0.0","task_version":"screening-mturk","missing":false,"accuracy":1},{"contexts":["blue","green","red"],"outcomes":[0,1,0],"key":38,"choice":1,"rt":621.4849999960279,"outcome":1,"trial":36,"correct":1,"trial_type":"three-arm-trial","trial_index":48,"time_elapsed":444517,"internal_node_id":"0.0-42.0-0.0","task_version":"screening-mturk","missing":false,"accuracy":1},{"contexts":["blue","green","red"],"outcomes":[0,1,1],"key":38,"choice":1,"rt":477.1400000026915,"outcome":1,"trial":37,"correct":1,"trial_type":"three-arm-trial","trial_index":49,"time_elapsed":446197,"internal_node_id":"0.0-43.0-0.0","task_version":"screening-mturk","missing":false,"accuracy":1},{"contexts":["blue","green","red"],"outcomes":[0,0,0],"key":38,"choice":1,"rt":357.3349999933271,"outcome":0,"trial":38,"correct":1,"trial_type":"three-arm-trial","trial_index":50,"time_elapsed":447756,"internal_node_id":"0.0-44.0-0.0","task_version":"screening-mturk","missing":false,"accuracy":1},{"contexts":["blue","green","red"],"outcomes":[0,1,1],"key":39,"choice":2,"rt":574.4399999966845,"outcome":1,"trial":39,"correct":1,"trial_type":"three-arm-trial","trial_index":51,"time_elapsed":449533,"internal_node_id":"0.0-45.0-0.0","task_version":"screening-mturk","missing":false,"accuracy":0},{"contexts":["blue","green","red"],"outcomes":[0,1,0],"key":39,"choice":2,"rt":406.1599999986356,"outcome":0,"trial":40,"correct":1,"trial_type":"three-arm-trial","trial_index":52,"time_elapsed":451141,"internal_node_id":"0.0-46.0-0.0","task_version":"screening-mturk","missing":false,"accuracy":0},{"contexts":["blue","green","red"],"outcomes":[0,1,1],"key":39,"choice":2,"rt":325.4600000072969,"outcome":1,"trial":41,"correct":1,"trial_type":"three-arm-trial","trial_index":53,"time_elapsed":452670,"internal_node_id":"0.0-47.0-0.0","task_version":"screening-mturk","missing":false,"accuracy":0},{"contexts":["blue","green","red"],"outcomes":[1,1,1],"key":39,"choice":2,"rt":381.4649999985704,"outcome":1,"trial":42,"correct":1,"trial_type":"three-arm-trial","trial_index":54,"time_elapsed":454253,"internal_node_id":"0.0-48.0-0.0","task_version":"screening-mturk","missing":false,"accuracy":0},{"contexts":["blue","green","red"],"outcomes":[1,1,0],"key":39,"choice":2,"rt":629.6749999892199,"outcome":0,"trial":43,"correct":1,"trial_type":"three-arm-trial","trial_index":55,"time_elapsed":456085,"internal_node_id":"0.0-49.0-0.0","task_version":"screening-mturk","missing":false,"accuracy":0},{"contexts":["blue","green","red"],"outcomes":[0,1,0],"key":37,"choice":0,"rt":270.4200000007404,"outcome":0,"trial":44,"correct":1,"trial_type":"three-arm-trial","trial_index":56,"time_elapsed":457557,"internal_node_id":"0.0-50.0-0.0","task_version":"screening-mturk","missing":false,"accuracy":0},{"contexts":["blue","green","red"],"outcomes":[0,0,0],"key":37,"choice":0,"rt":261.65499999478925,"outcome":0,"trial":45,"correct":1,"trial_type":"three-arm-trial","trial_index":57,"time_elapsed":459021,"internal_node_id":"0.0-51.0-0.0","task_version":"screening-mturk","missing":false,"accuracy":0},{"contexts":["blue","green","red"],"outcomes":[0,1,1],"key":39,"choice":2,"rt":117.93999999645166,"outcome":1,"trial":46,"correct":2,"trial_type":"three-arm-trial","trial_index":58,"time_elapsed":460342,"internal_node_id":"0.0-52.0-0.0","task_version":"screening-mturk","missing":false,"accuracy":1},{"contexts":["blue","green","red"],"outcomes":[0,0,1],"key":39,"choice":2,"rt":332.33999999356456,"outcome":1,"trial":47,"correct":2,"trial_type":"three-arm-trial","trial_index":59,"time_elapsed":461877,"internal_node_id":"0.0-53.0-0.0","task_version":"screening-mturk","missing":false,"accuracy":1},{"contexts":["blue","green","red"],"outcomes":[0,0,1],"key":39,"choice":2,"rt":469.83000000182074,"outcome":1,"trial":48,"correct":2,"trial_type":"three-arm-trial","trial_index":60,"time_elapsed":463549,"internal_node_id":"0.0-54.0-0.0","task_version":"screening-mturk","missing":false,"accuracy":1},{"contexts":["blue","green","red"],"outcomes":[0,1,1],"key":39,"choice":2,"rt":326.1599999968894,"outcome":1,"trial":49,"correct":2,"trial_type":"three-arm-trial","trial_index":61,"time_elapsed":465077,"internal_node_id":"0.0-55.0-0.0","task_version":"screening-mturk","missing":false,"accuracy":1},{"contexts":["blue","green","red"],"outcomes":[0,0,1],"key":39,"choice":2,"rt":269.91000000271015,"outcome":1,"trial":50,"correct":2,"trial_type":"three-arm-trial","trial_index":62,"time_elapsed":466549,"internal_node_id":"0.0-56.0-0.0","task_version":"screening-mturk","missing":false,"accuracy":1},{"contexts":["blue","green","red"],"outcomes":[0,1,1],"key":39,"choice":2,"rt":341.8600000004517,"outcome":1,"trial":51,"correct":2,"trial_type":"three-arm-trial","trial_index":63,"time_elapsed":468093,"internal_node_id":"0.0-57.0-0.0","task_version":"screening-mturk","missing":false,"accuracy":1},{"contexts":["blue","green","red"],"outcomes":[0,0,1],"key":39,"choice":2,"rt":318.1100000074366,"outcome":1,"trial":52,"correct":2,"trial_type":"three-arm-trial","trial_index":64,"time_elapsed":469612,"internal_node_id":"0.0-58.0-0.0","task_version":"screening-mturk","missing":false,"accuracy":1},{"contexts":["blue","green","red"],"outcomes":[0,1,1],"key":39,"choice":2,"rt":310.53000000247266,"outcome":1,"trial":53,"correct":2,"trial_type":"three-arm-trial","trial_index":65,"time_elapsed":471125,"internal_node_id":"0.0-59.0-0.0","task_version":"screening-mturk","missing":false,"accuracy":1},{"contexts":["blue","green","red"],"outcomes":[0,0,1],"key":39,"choice":2,"rt":365.7450000027893,"outcome":1,"trial":54,"correct":2,"trial_type":"three-arm-trial","trial_index":66,"time_elapsed":472693,"internal_node_id":"0.0-60.0-0.0","task_version":"screening-mturk","missing":false,"accuracy":1},{"contexts":["blue","green","red"],"outcomes":[0,0,1],"key":39,"choice":2,"rt":365.94000000332016,"outcome":1,"trial":55,"correct":2,"trial_type":"three-arm-trial","trial_index":67,"time_elapsed":474261,"internal_node_id":"0.0-61.0-0.0","task_version":"screening-mturk","missing":false,"accuracy":1},{"contexts":["blue","green","red"],"outcomes":[0,0,0],"key":39,"choice":2,"rt":332.9150000063237,"outcome":0,"trial":56,"correct":2,"trial_type":"three-arm-trial","trial_index":68,"time_elapsed":475798,"internal_node_id":"0.0-62.0-0.0","task_version":"screening-mturk","missing":false,"accuracy":1},{"contexts":["blue","green","red"],"outcomes":[0,1,1],"key":39,"choice":2,"rt":1165.7299999933457,"outcome":1,"trial":57,"correct":2,"trial_type":"three-arm-trial","trial_index":69,"time_elapsed":478166,"internal_node_id":"0.0-63.0-0.0","task_version":"screening-mturk","missing":false,"accuracy":1},{"contexts":["blue","green","red"],"outcomes":[0,0,0],"key":39,"choice":2,"rt":461.4949999959208,"outcome":0,"trial":58,"correct":2,"trial_type":"three-arm-trial","trial_index":70,"time_elapsed":479830,"internal_node_id":"0.0-64.0-0.0","task_version":"screening-mturk","missing":false,"accuracy":1},{"contexts":["blue","green","red"],"outcomes":[0,1,1],"key":39,"choice":2,"rt":373.13999999605585,"outcome":1,"trial":59,"correct":2,"trial_type":"three-arm-trial","trial_index":71,"time_elapsed":481405,"internal_node_id":"0.0-65.0-0.0","task_version":"screening-mturk","missing":false,"accuracy":1},{"contexts":["blue","green","red"],"outcomes":[0,0,1],"key":39,"choice":2,"rt":389.32000000204425,"outcome":1,"trial":60,"correct":2,"trial_type":"three-arm-trial","trial_index":72,"time_elapsed":482997,"internal_node_id":"0.0-66.0-0.0","task_version":"screening-mturk","missing":false,"accuracy":1},{"contexts":["blue","green","red"],"outcomes":[0,1,0],"key":39,"choice":2,"rt":326.09499999671243,"outcome":0,"trial":61,"correct":0,"trial_type":"three-arm-trial","trial_index":73,"time_elapsed":484524,"internal_node_id":"0.0-67.0-0.0","task_version":"screening-mturk","missing":false,"accuracy":0},{"contexts":["blue","green","red"],"outcomes":[1,0,0],"key":39,"choice":2,"rt":190.775000010035,"outcome":0,"trial":62,"correct":0,"trial_type":"three-arm-trial","trial_index":74,"time_elapsed":485917,"internal_node_id":"0.0-68.0-0.0","task_version":"screening-mturk","missing":false,"accuracy":0},{"contexts":["blue","green","red"],"outcomes":[1,0,0],"key":39,"choice":2,"rt":702.210000003106,"outcome":0,"trial":63,"correct":0,"trial_type":"three-arm-trial","trial_index":75,"time_elapsed":487821,"internal_node_id":"0.0-69.0-0.0","task_version":"screening-mturk","missing":false,"accuracy":0},{"contexts":["blue","green","red"],"outcomes":[1,0,0],"key":38,"choice":1,"rt":158.11000000394415,"outcome":0,"trial":64,"correct":0,"trial_type":"three-arm-trial","trial_index":76,"time_elapsed":489181,"internal_node_id":"0.0-70.0-0.0","task_version":"screening-mturk","missing":false,"accuracy":0},{"contexts":["blue","green","red"],"outcomes":[1,0,1],"key":38,"choice":1,"rt":334.41499999025837,"outcome":0,"trial":65,"correct":0,"trial_type":"three-arm-trial","trial_index":77,"time_elapsed":490718,"internal_node_id":"0.0-71.0-0.0","task_version":"screening-mturk","missing":false,"accuracy":0},{"contexts":["blue","green","red"],"outcomes":[1,0,0],"key":37,"choice":0,"rt":237.21500000101514,"outcome":1,"trial":66,"correct":0,"trial_type":"three-arm-trial","trial_index":78,"time_elapsed":492158,"internal_node_id":"0.0-72.0-0.0","task_version":"screening-mturk","missing":false,"accuracy":1},{"contexts":["blue","green","red"],"outcomes":[1,0,1],"key":37,"choice":0,"rt":333.4949999989476,"outcome":1,"trial":67,"correct":0,"trial_type":"three-arm-trial","trial_index":79,"time_elapsed":493693,"internal_node_id":"0.0-73.0-0.0","task_version":"screening-mturk","missing":false,"accuracy":1},{"contexts":["blue","green","red"],"outcomes":[0,1,1],"key":37,"choice":0,"rt":373.5599999927217,"outcome":0,"trial":68,"correct":0,"trial_type":"three-arm-trial","trial_index":80,"time_elapsed":495269,"internal_node_id":"0.0-74.0-0.0","task_version":"screening-mturk","missing":false,"accuracy":1},{"contexts":["blue","green","red"],"outcomes":[1,0,0],"key":37,"choice":0,"rt":349.96000000683125,"outcome":1,"trial":69,"correct":0,"trial_type":"three-arm-trial","trial_index":81,"time_elapsed":496820,"internal_node_id":"0.0-75.0-0.0","task_version":"screening-mturk","missing":false,"accuracy":1},{"contexts":["blue","green","red"],"outcomes":[0,0,0],"key":37,"choice":0,"rt":310.5749999958789,"outcome":0,"trial":70,"correct":0,"trial_type":"three-arm-trial","trial_index":82,"time_elapsed":498333,"internal_node_id":"0.0-76.0-0.0","task_version":"screening-mturk","missing":false,"accuracy":1},{"contexts":["blue","green","red"],"outcomes":[1,0,0],"key":38,"choice":1,"rt":341.6750000033062,"outcome":0,"trial":71,"correct":0,"trial_type":"three-arm-trial","trial_index":83,"time_elapsed":499878,"internal_node_id":"0.0-77.0-0.0","task_version":"screening-mturk","missing":false,"accuracy":0},{"contexts":["blue","green","red"],"outcomes":[1,0,0],"key":38,"choice":1,"rt":787.2300000017276,"outcome":0,"trial":72,"correct":0,"trial_type":"three-arm-trial","trial_index":84,"time_elapsed":501869,"internal_node_id":"0.0-78.0-0.0","task_version":"screening-mturk","missing":false,"accuracy":0},{"contexts":["blue","green","red"],"outcomes":[1,0,0],"key":39,"choice":2,"rt":165.59000000415836,"outcome":0,"trial":73,"correct":0,"trial_type":"three-arm-trial","trial_index":85,"time_elapsed":503238,"internal_node_id":"0.0-79.0-0.0","task_version":"screening-mturk","missing":false,"accuracy":0},{"contexts":["blue","green","red"],"outcomes":[1,0,1],"key":37,"choice":0,"rt":324.7550000087358,"outcome":1,"trial":74,"correct":0,"trial_type":"three-arm-trial","trial_index":86,"time_elapsed":504764,"internal_node_id":"0.0-80.0-0.0","task_version":"screening-mturk","missing":false,"accuracy":1},{"contexts":["blue","green","red"],"outcomes":[0,0,0],"key":37,"choice":0,"rt":318.93500000296626,"outcome":0,"trial":75,"correct":0,"trial_type":"three-arm-trial","trial_index":87,"time_elapsed":506285,"internal_node_id":"0.0-81.0-0.0","task_version":"screening-mturk","missing":false,"accuracy":1},{"contexts":["blue","green","red"],"outcomes":[0,0,1],"key":37,"choice":0,"rt":237.1899999998277,"outcome":0,"trial":76,"correct":2,"trial_type":"three-arm-trial","trial_index":88,"time_elapsed":507726,"internal_node_id":"0.0-82.0-0.0","task_version":"screening-mturk","missing":false,"accuracy":0},{"contexts":["blue","green","red"],"outcomes":[0,0,1],"key":38,"choice":1,"rt":283.55500000179745,"outcome":0,"trial":77,"correct":2,"trial_type":"three-arm-trial","trial_index":89,"time_elapsed":509214,"internal_node_id":"0.0-83.0-0.0","task_version":"screening-mturk","missing":false,"accuracy":0},{"contexts":["blue","green","red"],"outcomes":[0,0,0],"key":38,"choice":1,"rt":701.4800000033574,"outcome":0,"trial":78,"correct":2,"trial_type":"three-arm-trial","trial_index":90,"time_elapsed":511117,"internal_node_id":"0.0-84.0-0.0","task_version":"screening-mturk","missing":false,"accuracy":0},{"contexts":["blue","green","red"],"outcomes":[0,0,1],"key":38,"choice":1,"rt":270.00000000407454,"outcome":0,"trial":79,"correct":2,"trial_type":"three-arm-trial","trial_index":91,"time_elapsed":512590,"internal_node_id":"0.0-85.0-0.0","task_version":"screening-mturk","missing":false,"accuracy":0},{"contexts":["blue","green","red"],"outcomes":[0,1,1],"key":39,"choice":2,"rt":453.6050000024261,"outcome":1,"trial":80,"correct":2,"trial_type":"three-arm-trial","trial_index":92,"time_elapsed":514245,"internal_node_id":"0.0-86.0-0.0","task_version":"screening-mturk","missing":false,"accuracy":1},{"contexts":["blue","green","red"],"outcomes":[0,1,1],"key":39,"choice":2,"rt":413.6500000022352,"outcome":1,"trial":81,"correct":2,"trial_type":"three-arm-trial","trial_index":93,"time_elapsed":515861,"internal_node_id":"0.0-87.0-0.0","task_version":"screening-mturk","missing":false,"accuracy":1},{"contexts":["blue","green","red"],"outcomes":[0,0,0],"key":39,"choice":2,"rt":558.0049999989569,"outcome":0,"trial":82,"correct":2,"trial_type":"three-arm-trial","trial_index":94,"time_elapsed":517621,"internal_node_id":"0.0-88.0-0.0","task_version":"screening-mturk","missing":false,"accuracy":1},{"contexts":["blue","green","red"],"outcomes":[0,0,1],"key":39,"choice":2,"rt":270.265000013751,"outcome":1,"trial":83,"correct":2,"trial_type":"three-arm-trial","trial_index":95,"time_elapsed":519093,"internal_node_id":"0.0-89.0-0.0","task_version":"screening-mturk","missing":false,"accuracy":1},{"contexts":["blue","green","red"],"outcomes":[1,0,1],"key":39,"choice":2,"rt":357.9650000028778,"outcome":1,"trial":84,"correct":2,"trial_type":"three-arm-trial","trial_index":96,"time_elapsed":520653,"internal_node_id":"0.0-90.0-0.0","task_version":"screening-mturk","missing":false,"accuracy":1},{"contexts":["blue","green","red"],"outcomes":[1,0,0],"key":39,"choice":2,"rt":382.11500000033993,"outcome":0,"trial":85,"correct":2,"trial_type":"three-arm-trial","trial_index":97,"time_elapsed":522237,"internal_node_id":"0.0-91.0-0.0","task_version":"screening-mturk","missing":false,"accuracy":1},{"contexts":["blue","green","red"],"outcomes":[0,0,1],"key":39,"choice":2,"rt":214.1550000087591,"outcome":1,"trial":86,"correct":2,"trial_type":"three-arm-trial","trial_index":98,"time_elapsed":523655,"internal_node_id":"0.0-92.0-0.0","task_version":"screening-mturk","missing":false,"accuracy":1},{"contexts":["blue","green","red"],"outcomes":[1,0,1],"key":39,"choice":2,"rt":308.58499999158084,"outcome":1,"trial":87,"correct":2,"trial_type":"three-arm-trial","trial_index":99,"time_elapsed":525166,"internal_node_id":"0.0-93.0-0.0","task_version":"screening-mturk","missing":false,"accuracy":1},{"contexts":["blue","green","red"],"outcomes":[1,0,1],"key":39,"choice":2,"rt":380.92999999935273,"outcome":1,"trial":88,"correct":2,"trial_type":"three-arm-trial","trial_index":100,"time_elapsed":526749,"internal_node_id":"0.0-94.0-0.0","task_version":"screening-mturk","missing":false,"accuracy":1},{"contexts":["blue","green","red"],"outcomes":[0,0,1],"key":39,"choice":2,"rt":176.52500000258442,"outcome":1,"trial":89,"correct":2,"trial_type":"three-arm-trial","trial_index":101,"time_elapsed":528128,"internal_node_id":"0.0-95.0-0.0","task_version":"screening-mturk","missing":false,"accuracy":1},{"contexts":["blue","green","red"],"outcomes":[0,0,1],"key":39,"choice":2,"rt":131.26500000362284,"outcome":1,"trial":90,"correct":2,"trial_type":"three-arm-trial","trial_index":102,"time_elapsed":529462,"internal_node_id":"0.0-96.0-0.0","task_version":"screening-mturk","missing":false,"accuracy":1},{"rt":18335.76999999059,"responses":{"age":"69","gender-categorical":"Female","gender-free-response":"","ethnicity":"Not Hispanic or Latino","race":["White"],"language":"Yes","fluency":"Very well","prolific":"Yes","prolific-this-study":"No"},"survey":"demographics","trial_type":"survey-demo","trial_index":103,"time_elapsed":547800,"internal_node_id":"0.0-97.0","task_version":"screening-mturk","interactions":"[]"}]