[{"responses":{"Q03":"1","Q01":"1","Q02":"1"},"rt":17618.190000008326,"survey":"pswq","trial_type":"survey-template","trial_index":0,"time_elapsed":17670,"internal_node_id":"0.0-0.0","task_version":"screening-mturk"},{"responses":{"Q03":"0","Q01":"0","Q06":"0","Q02":"0","Q04":"0","Q05":"0","Q08":"0","Q07":"0"},"rt":23871.699999988778,"survey":"gad7","trial_type":"survey-template","trial_index":1,"time_elapsed":41549,"internal_node_id":"0.0-1.0","task_version":"screening-mturk"},{"responses":{"Q10":"0","Q08":"1","Q07":"0","Q12":"0","Q15":"0","Q02":"0","Q03":"1","Q09":"0","Q11":"0","Q06":"1","Q05":"1","Q04":"0","Q13":"0","Q14":"0","Q01":"0"},"rt":167887.74499998544,"survey":"7up7down","trial_type":"survey-template","trial_index":2,"time_elapsed":209445,"internal_node_id":"0.0-2.0","task_version":"screening-mturk"},{"responses":{"Q07":"3","Q13":"2","Q03":"3","Q06":"1","Q10":"3","Q11":"3","Q05":"3","Q15":"0","Q12":"1","Q14":"2","Q01":"3","Q04":"3","Q02":"3","Q08":"3","Q09":"3"},"rt":94287.20500000054,"survey":"shaps","trial_type":"survey-template","trial_index":3,"time_elapsed":303742,"internal_node_id":"0.0-3.0","task_version":"screening-mturk"},{"responses":{"Q08":"3","Q10":"3","Q07":"3","Q04":"3","Q03":"2","Q09":"3","Q13":"3","Q02":"3","Q11":"3","Q12":"3","Q06":"3","Q05":"3","Q01":"3"},"rt":93718.59500001301,"survey":"bisbas","trial_type":"survey-template","trial_index":4,"time_elapsed":397467,"internal_node_id":"0.0-4.0","task_version":"screening-mturk"},{"view_history":"[{\"page_index\":0,\"viewing_time\":10752.609999995911},{\"page_index\":1,\"viewing_time\":8239.300000015646},{\"page_index\":2,\"viewing_time\":14001.699999993434},{\"page_index\":3,\"viewing_time\":6800.649999990128},{\"page_index\":4,\"viewing_time\":9442.550000007031},{\"page_index\":5,\"viewing_time\":4697.5600000005215},{\"page_index\":6,\"viewing_time\":5987.404999992577},{\"page_index\":7,\"viewing_time\":3799.0850000060163}]","rt":63722.39000000991,"trial_type":"instructions","trial_index":5,"time_elapsed":461194,"internal_node_id":"0.0-5.0-0.0","task_version":"screening-mturk"},{"responses":["True","True","True","False","True"],"num_errors":1,"rt":31038.744999998016,"trial_type":"three-arm-comprehension","trial_index":6,"time_elapsed":492239,"internal_node_id":"0.0-5.0-1.0","task_version":"screening-mturk"},{"view_history":"[{\"page_index\":0,\"viewing_time\":7496.945000020787},{\"page_index\":1,\"viewing_time\":3891.849999985425},{\"page_index\":2,\"viewing_time\":2554.3199999956414},{\"page_index\":3,\"viewing_time\":1486.2250000005588},{\"page_index\":4,\"viewing_time\":3316.8550000118557},{\"page_index\":5,\"viewing_time\":2586.169999995036},{\"page_index\":6,\"viewing_time\":1992.180000001099},{\"page_index\":7,\"viewing_time\":1947.5399999937508}]","rt":25272.635000001173,"trial_type":"instructions","trial_index":7,"time_elapsed":517519,"internal_node_id":"0.0-5.1-0.1","task_version":"screening-mturk"},{"responses":["True","True","False","False","True"],"num_errors":0,"rt":25809.600000007777,"trial_type":"three-arm-comprehension","trial_index":8,"time_elapsed":543333,"internal_node_id":"0.0-5.1-1.1","task_version":"screening-mturk"},{"view_history":"[{\"page_index\":0,\"viewing_time\":3082.4000000138767}]","rt":3083.165000018198,"trial_type":"instructions","trial_index":9,"time_elapsed":546422,"internal_node_id":"0.0-6.0","task_version":"screening-mturk"},{"contexts":["red","green","blue"],"outcomes":[0,0,1],"key":37,"choice":0,"rt":5916.200000006938,"outcome":0,"trial":1,"correct":2,"trial_type":"three-arm-trial","trial_index":10,"time_elapsed":553544,"internal_node_id":"0.0-7.0-0.0","task_version":"screening-mturk","missing":false,"accuracy":0},{"contexts":["red","green","blue"],"outcomes":[0,0,0],"key":39,"choice":2,"rt":1833.634999988135,"outcome":0,"trial":2,"correct":2,"trial_type":"three-arm-trial","trial_index":11,"time_elapsed":556584,"internal_node_id":"0.0-8.0-0.0","task_version":"screening-mturk","missing":false,"accuracy":1},{"contexts":["red","green","blue"],"outcomes":[0,0,1],"key":38,"choice":1,"rt":661.4249999984168,"outcome":0,"trial":3,"correct":2,"trial_type":"three-arm-trial","trial_index":12,"time_elapsed":558452,"internal_node_id":"0.0-9.0-0.0","task_version":"screening-mturk","missing":false,"accuracy":0},{"contexts":["red","green","blue"],"outcomes":[0,0,1],"key":39,"choice":2,"rt":661.2000000022817,"outcome":1,"trial":4,"correct":2,"trial_type":"three-arm-trial","trial_index":13,"time_elapsed":560341,"internal_node_id":"0.0-10.0-0.0","task_version":"screening-mturk","missing":false,"accuracy":1},{"contexts":["red","green","blue"],"outcomes":[0,0,0],"key":39,"choice":2,"rt":1086.2849999975879,"outcome":0,"trial":5,"correct":2,"trial_type":"three-arm-trial","trial_index":14,"time_elapsed":562632,"internal_node_id":"0.0-11.0-0.0","task_version":"screening-mturk","missing":false,"accuracy":1},{"contexts":["red","green","blue"],"outcomes":[0,0,1],"key":38,"choice":1,"rt":368.4699999867007,"outcome":0,"trial":6,"correct":2,"trial_type":"three-arm-trial","trial_index":15,"time_elapsed":564207,"internal_node_id":"0.0-12.0-0.0","task_version":"screening-mturk","missing":false,"accuracy":0},{"contexts":["red","green","blue"],"outcomes":[0,0,1],"key":39,"choice":2,"rt":869.7999999858439,"outcome":1,"trial":7,"correct":2,"trial_type":"three-arm-trial","trial_index":16,"time_elapsed":566282,"internal_node_id":"0.0-13.0-0.0","task_version":"screening-mturk","missing":false,"accuracy":1},{"contexts":["red","green","blue"],"outcomes":[0,1,1],"key":39,"choice":2,"rt":1206.4249999821186,"outcome":1,"trial":8,"correct":2,"trial_type":"three-arm-trial","trial_index":17,"time_elapsed":568694,"internal_node_id":"0.0-14.0-0.0","task_version":"screening-mturk","missing":false,"accuracy":1},{"contexts":["red","green","blue"],"outcomes":[0,0,1],"key":39,"choice":2,"rt":426.1499999847729,"outcome":1,"trial":9,"correct":2,"trial_type":"three-arm-trial","trial_index":18,"time_elapsed":570326,"internal_node_id":"0.0-15.0-0.0","task_version":"screening-mturk","missing":false,"accuracy":1},{"contexts":["red","green","blue"],"outcomes":[0,1,1],"key":39,"choice":2,"rt":342.88500002003275,"outcome":1,"trial":10,"correct":2,"trial_type":"three-arm-trial","trial_index":19,"time_elapsed":571880,"internal_node_id":"0.0-16.0-0.0","task_version":"screening-mturk","missing":false,"accuracy":1},{"contexts":["red","green","blue"],"outcomes":[0,0,0],"key":39,"choice":2,"rt":374.9649999954272,"outcome":0,"trial":11,"correct":2,"trial_type":"three-arm-trial","trial_index":20,"time_elapsed":573460,"internal_node_id":"0.0-17.0-0.0","task_version":"screening-mturk","missing":false,"accuracy":1},{"contexts":["red","green","blue"],"outcomes":[0,0,1],"key":37,"choice":0,"rt":276.6399999964051,"outcome":0,"trial":12,"correct":2,"trial_type":"three-arm-trial","trial_index":21,"time_elapsed":574941,"internal_node_id":"0.0-18.0-0.0","task_version":"screening-mturk","missing":false,"accuracy":0},{"contexts":["red","green","blue"],"outcomes":[0,0,1],"key":39,"choice":2,"rt":272.5300000165589,"outcome":1,"trial":13,"correct":2,"trial_type":"three-arm-trial","trial_index":22,"time_elapsed":576423,"internal_node_id":"0.0-19.0-0.0","task_version":"screening-mturk","missing":false,"accuracy":1},{"contexts":["red","green","blue"],"outcomes":[0,0,1],"key":39,"choice":2,"rt":280.1399999880232,"outcome":1,"trial":14,"correct":2,"trial_type":"three-arm-trial","trial_index":23,"time_elapsed":577908,"internal_node_id":"0.0-20.0-0.0","task_version":"screening-mturk","missing":false,"accuracy":1},{"contexts":["red","green","blue"],"outcomes":[1,0,0],"key":39,"choice":2,"rt":300.62999998335727,"outcome":0,"trial":15,"correct":2,"trial_type":"three-arm-trial","trial_index":24,"time_elapsed":579414,"internal_node_id":"0.0-21.0-0.0","task_version":"screening-mturk","missing":false,"accuracy":1},{"contexts":["red","green","blue"],"outcomes":[1,1,0],"key":38,"choice":1,"rt":336.07000001939014,"outcome":1,"trial":16,"correct":0,"trial_type":"three-arm-trial","trial_index":25,"time_elapsed":580956,"internal_node_id":"0.0-22.0-0.0","task_version":"screening-mturk","missing":false,"accuracy":0},{"contexts":["red","green","blue"],"outcomes":[1,0,0],"key":38,"choice":1,"rt":279.68999999575317,"outcome":0,"trial":17,"correct":0,"trial_type":"three-arm-trial","trial_index":26,"time_elapsed":582442,"internal_node_id":"0.0-23.0-0.0","task_version":"screening-mturk","missing":false,"accuracy":0},{"contexts":["red","green","blue"],"outcomes":[1,0,0],"key":39,"choice":2,"rt":264.04000000911765,"outcome":0,"trial":18,"correct":0,"trial_type":"three-arm-trial","trial_index":27,"time_elapsed":583911,"internal_node_id":"0.0-24.0-0.0","task_version":"screening-mturk","missing":false,"accuracy":0},{"contexts":["red","green","blue"],"outcomes":[1,0,0],"key":38,"choice":1,"rt":666.4749999763444,"outcome":0,"trial":19,"correct":0,"trial_type":"three-arm-trial","trial_index":28,"time_elapsed":585788,"internal_node_id":"0.0-25.0-0.0","task_version":"screening-mturk","missing":false,"accuracy":0},{"contexts":["red","green","blue"],"outcomes":[0,0,0],"key":39,"choice":2,"rt":516.1849999858532,"outcome":0,"trial":20,"correct":0,"trial_type":"three-arm-trial","trial_index":29,"time_elapsed":587510,"internal_node_id":"0.0-26.0-0.0","task_version":"screening-mturk","missing":false,"accuracy":0},{"contexts":["red","green","blue"],"outcomes":[0,1,0],"key":37,"choice":0,"rt":293.0449999985285,"outcome":0,"trial":21,"correct":0,"trial_type":"three-arm-trial","trial_index":30,"time_elapsed":589007,"internal_node_id":"0.0-27.0-0.0","task_version":"screening-mturk","missing":false,"accuracy":1},{"contexts":["red","green","blue"],"outcomes":[1,1,0],"key":38,"choice":1,"rt":327.2399999841582,"outcome":1,"trial":22,"correct":0,"trial_type":"three-arm-trial","trial_index":31,"time_elapsed":590539,"internal_node_id":"0.0-28.0-0.0","task_version":"screening-mturk","missing":false,"accuracy":0},{"contexts":["red","green","blue"],"outcomes":[1,1,0],"key":38,"choice":1,"rt":338.44000002136454,"outcome":1,"trial":23,"correct":0,"trial_type":"three-arm-trial","trial_index":32,"time_elapsed":592087,"internal_node_id":"0.0-29.0-0.0","task_version":"screening-mturk","missing":false,"accuracy":0},{"contexts":["red","green","blue"],"outcomes":[1,0,1],"key":38,"choice":1,"rt":315.4000000213273,"outcome":0,"trial":24,"correct":0,"trial_type":"three-arm-trial","trial_index":33,"time_elapsed":593608,"internal_node_id":"0.0-30.0-0.0","task_version":"screening-mturk","missing":false,"accuracy":0},{"contexts":["red","green","blue"],"outcomes":[1,0,0],"key":37,"choice":0,"rt":294.66000001411885,"outcome":1,"trial":25,"correct":0,"trial_type":"three-arm-trial","trial_index":34,"time_elapsed":595108,"internal_node_id":"0.0-31.0-0.0","task_version":"screening-mturk","missing":false,"accuracy":1},{"contexts":["red","green","blue"],"outcomes":[1,1,0],"key":37,"choice":0,"rt":326.8300000054296,"outcome":1,"trial":26,"correct":0,"trial_type":"three-arm-trial","trial_index":35,"time_elapsed":596640,"internal_node_id":"0.0-32.0-0.0","task_version":"screening-mturk","missing":false,"accuracy":1},{"contexts":["red","green","blue"],"outcomes":[0,1,0],"key":37,"choice":0,"rt":295.5799999763258,"outcome":0,"trial":27,"correct":0,"trial_type":"three-arm-trial","trial_index":36,"time_elapsed":598141,"internal_node_id":"0.0-33.0-0.0","task_version":"screening-mturk","missing":false,"accuracy":1},{"contexts":["red","green","blue"],"outcomes":[1,0,0],"key":39,"choice":2,"rt":310.75000000419095,"outcome":0,"trial":28,"correct":0,"trial_type":"three-arm-trial","trial_index":37,"time_elapsed":599656,"internal_node_id":"0.0-34.0-0.0","task_version":"screening-mturk","missing":false,"accuracy":0},{"contexts":["red","green","blue"],"outcomes":[1,1,0],"key":37,"choice":0,"rt":681.7000000155531,"outcome":1,"trial":29,"correct":0,"trial_type":"three-arm-trial","trial_index":38,"time_elapsed":601543,"internal_node_id":"0.0-35.0-0.0","task_version":"screening-mturk","missing":false,"accuracy":1},{"contexts":["red","green","blue"],"outcomes":[1,1,0],"key":37,"choice":0,"rt":231.79499999969266,"outcome":1,"trial":30,"correct":0,"trial_type":"three-arm-trial","trial_index":39,"time_elapsed":602980,"internal_node_id":"0.0-36.0-0.0","task_version":"screening-mturk","missing":false,"accuracy":1},{"contexts":["red","green","blue"],"outcomes":[0,1,1],"key":38,"choice":1,"rt":821.2850000127219,"outcome":1,"trial":31,"correct":2,"trial_type":"three-arm-trial","trial_index":40,"time_elapsed":605008,"internal_node_id":"0.0-37.0-0.0","task_version":"screening-mturk","missing":false,"accuracy":0},{"contexts":["red","green","blue"],"outcomes":[0,0,1],"key":37,"choice":0,"rt":283.28000000328757,"outcome":0,"trial":32,"correct":2,"trial_type":"three-arm-trial","trial_index":41,"time_elapsed":606504,"internal_node_id":"0.0-38.0-0.0","task_version":"screening-mturk","missing":false,"accuracy":0},{"contexts":["red","green","blue"],"outcomes":[0,0,1],"key":39,"choice":2,"rt":363.26500002178364,"outcome":1,"trial":33,"correct":2,"trial_type":"three-arm-trial","trial_index":42,"time_elapsed":608073,"internal_node_id":"0.0-39.0-0.0","task_version":"screening-mturk","missing":false,"accuracy":1},{"contexts":["red","green","blue"],"outcomes":[0,0,0],"key":39,"choice":2,"rt":336.52499999152496,"outcome":0,"trial":34,"correct":2,"trial_type":"three-arm-trial","trial_index":43,"time_elapsed":609619,"internal_node_id":"0.0-40.0-0.0","task_version":"screening-mturk","missing":false,"accuracy":1},{"contexts":["red","green","blue"],"outcomes":[0,0,0],"key":38,"choice":1,"rt":206.2850000220351,"outcome":0,"trial":35,"correct":2,"trial_type":"three-arm-trial","trial_index":44,"time_elapsed":611032,"internal_node_id":"0.0-41.0-0.0","task_version":"screening-mturk","missing":false,"accuracy":0},{"contexts":["red","green","blue"],"outcomes":[0,0,1],"key":37,"choice":0,"rt":247.89999998756684,"outcome":0,"trial":36,"correct":2,"trial_type":"three-arm-trial","trial_index":45,"time_elapsed":612486,"internal_node_id":"0.0-42.0-0.0","task_version":"screening-mturk","missing":false,"accuracy":0},{"contexts":["red","green","blue"],"outcomes":[0,0,1],"key":37,"choice":0,"rt":111.85000001569279,"outcome":0,"trial":37,"correct":2,"trial_type":"three-arm-trial","trial_index":46,"time_elapsed":613804,"internal_node_id":"0.0-43.0-0.0","task_version":"screening-mturk","missing":false,"accuracy":0},{"contexts":["red","green","blue"],"outcomes":[0,0,1],"key":39,"choice":2,"rt":246.68000001111068,"outcome":1,"trial":38,"correct":2,"trial_type":"three-arm-trial","trial_index":47,"time_elapsed":615256,"internal_node_id":"0.0-44.0-0.0","task_version":"screening-mturk","missing":false,"accuracy":1},{"contexts":["red","green","blue"],"outcomes":[0,0,1],"key":39,"choice":2,"rt":130.1450000028126,"outcome":1,"trial":39,"correct":2,"trial_type":"three-arm-trial","trial_index":48,"time_elapsed":616592,"internal_node_id":"0.0-45.0-0.0","task_version":"screening-mturk","missing":false,"accuracy":1},{"contexts":["red","green","blue"],"outcomes":[1,0,1],"key":39,"choice":2,"rt":357.8000000270549,"outcome":1,"trial":40,"correct":2,"trial_type":"three-arm-trial","trial_index":49,"time_elapsed":618155,"internal_node_id":"0.0-46.0-0.0","task_version":"screening-mturk","missing":false,"accuracy":1},{"contexts":["red","green","blue"],"outcomes":[0,0,0],"key":39,"choice":2,"rt":547.8850000072271,"outcome":0,"trial":41,"correct":2,"trial_type":"three-arm-trial","trial_index":50,"time_elapsed":619908,"internal_node_id":"0.0-47.0-0.0","task_version":"screening-mturk","missing":false,"accuracy":1},{"contexts":["red","green","blue"],"outcomes":[0,1,1],"key":38,"choice":1,"rt":208.9550000091549,"outcome":1,"trial":42,"correct":2,"trial_type":"three-arm-trial","trial_index":51,"time_elapsed":621321,"internal_node_id":"0.0-48.0-0.0","task_version":"screening-mturk","missing":false,"accuracy":0},{"contexts":["red","green","blue"],"outcomes":[0,1,0],"key":38,"choice":1,"rt":795.9399999817833,"outcome":1,"trial":43,"correct":2,"trial_type":"three-arm-trial","trial_index":52,"time_elapsed":623321,"internal_node_id":"0.0-49.0-0.0","task_version":"screening-mturk","missing":false,"accuracy":0},{"contexts":["red","green","blue"],"outcomes":[0,0,1],"key":38,"choice":1,"rt":277.7150000038091,"outcome":0,"trial":44,"correct":2,"trial_type":"three-arm-trial","trial_index":53,"time_elapsed":624805,"internal_node_id":"0.0-50.0-0.0","task_version":"screening-mturk","missing":false,"accuracy":0},{"contexts":["red","green","blue"],"outcomes":[0,0,1],"key":39,"choice":2,"rt":369.36000001151115,"outcome":1,"trial":45,"correct":2,"trial_type":"three-arm-trial","trial_index":54,"time_elapsed":626387,"internal_node_id":"0.0-51.0-0.0","task_version":"screening-mturk","missing":false,"accuracy":1},{"contexts":["red","green","blue"],"outcomes":[1,0,0],"key":39,"choice":2,"rt":344.7300000116229,"outcome":0,"trial":46,"correct":0,"trial_type":"three-arm-trial","trial_index":55,"time_elapsed":627936,"internal_node_id":"0.0-52.0-0.0","task_version":"screening-mturk","missing":false,"accuracy":0},{"contexts":["red","green","blue"],"outcomes":[1,0,0],"key":37,"choice":0,"rt":180.92499999329448,"outcome":1,"trial":47,"correct":0,"trial_type":"three-arm-trial","trial_index":56,"time_elapsed":629322,"internal_node_id":"0.0-53.0-0.0","task_version":"screening-mturk","missing":false,"accuracy":1},{"contexts":["red","green","blue"],"outcomes":[1,0,0],"key":37,"choice":0,"rt":419.60999998264015,"outcome":1,"trial":48,"correct":0,"trial_type":"three-arm-trial","trial_index":57,"time_elapsed":630951,"internal_node_id":"0.0-54.0-0.0","task_version":"screening-mturk","missing":false,"accuracy":1},{"contexts":["red","green","blue"],"outcomes":[1,0,0],"key":37,"choice":0,"rt":284.5300000044517,"outcome":1,"trial":49,"correct":0,"trial_type":"three-arm-trial","trial_index":58,"time_elapsed":632441,"internal_node_id":"0.0-55.0-0.0","task_version":"screening-mturk","missing":false,"accuracy":1},{"contexts":["red","green","blue"],"outcomes":[1,0,0],"key":37,"choice":0,"rt":324.01499999105,"outcome":1,"trial":50,"correct":0,"trial_type":"three-arm-trial","trial_index":59,"time_elapsed":633970,"internal_node_id":"0.0-56.0-0.0","task_version":"screening-mturk","missing":false,"accuracy":1},{"contexts":["red","green","blue"],"outcomes":[1,0,0],"key":37,"choice":0,"rt":327.6600000099279,"outcome":1,"trial":51,"correct":0,"trial_type":"three-arm-trial","trial_index":60,"time_elapsed":635503,"internal_node_id":"0.0-57.0-0.0","task_version":"screening-mturk","missing":false,"accuracy":1},{"contexts":["red","green","blue"],"outcomes":[0,0,0],"key":37,"choice":0,"rt":328.24499998241663,"outcome":0,"trial":52,"correct":0,"trial_type":"three-arm-trial","trial_index":61,"time_elapsed":637036,"internal_node_id":"0.0-58.0-0.0","task_version":"screening-mturk","missing":false,"accuracy":1},{"contexts":["red","green","blue"],"outcomes":[1,0,0],"key":38,"choice":1,"rt":238.19500001263805,"outcome":0,"trial":53,"correct":0,"trial_type":"three-arm-trial","trial_index":62,"time_elapsed":638481,"internal_node_id":"0.0-59.0-0.0","task_version":"screening-mturk","missing":false,"accuracy":0},{"contexts":["red","green","blue"],"outcomes":[1,1,1],"key":37,"choice":0,"rt":421.23999999603257,"outcome":1,"trial":54,"correct":0,"trial_type":"three-arm-trial","trial_index":63,"time_elapsed":640108,"internal_node_id":"0.0-60.0-0.0","task_version":"screening-mturk","missing":false,"accuracy":1},{"contexts":["red","green","blue"],"outcomes":[1,0,0],"key":37,"choice":0,"rt":306.30500000552274,"outcome":1,"trial":55,"correct":0,"trial_type":"three-arm-trial","trial_index":64,"time_elapsed":641620,"internal_node_id":"0.0-61.0-0.0","task_version":"screening-mturk","missing":false,"accuracy":1},{"contexts":["red","green","blue"],"outcomes":[0,0,0],"key":37,"choice":0,"rt":348.18000000086613,"outcome":0,"trial":56,"correct":0,"trial_type":"three-arm-trial","trial_index":65,"time_elapsed":643172,"internal_node_id":"0.0-62.0-0.0","task_version":"screening-mturk","missing":false,"accuracy":1},{"contexts":["red","green","blue"],"outcomes":[1,0,0],"key":39,"choice":2,"rt":219.55999999772757,"outcome":0,"trial":57,"correct":0,"trial_type":"three-arm-trial","trial_index":66,"time_elapsed":644600,"internal_node_id":"0.0-63.0-0.0","task_version":"screening-mturk","missing":false,"accuracy":0},{"contexts":["red","green","blue"],"outcomes":[0,0,0],"key":38,"choice":1,"rt":282.3099999804981,"outcome":0,"trial":58,"correct":0,"trial_type":"three-arm-trial","trial_index":67,"time_elapsed":646088,"internal_node_id":"0.0-64.0-0.0","task_version":"screening-mturk","missing":false,"accuracy":0},{"contexts":["red","green","blue"],"outcomes":[1,0,0],"key":39,"choice":2,"rt":413.79500000039116,"outcome":0,"trial":59,"correct":0,"trial_type":"three-arm-trial","trial_index":68,"time_elapsed":647706,"internal_node_id":"0.0-65.0-0.0","task_version":"screening-mturk","missing":false,"accuracy":0},{"contexts":["red","green","blue"],"outcomes":[1,0,0],"key":37,"choice":0,"rt":44.03499999898486,"outcome":1,"trial":60,"correct":0,"trial_type":"three-arm-trial","trial_index":69,"time_elapsed":648956,"internal_node_id":"0.0-66.0-0.0","task_version":"screening-mturk","missing":false,"accuracy":1},{"contexts":["red","green","blue"],"outcomes":[1,0,1],"key":37,"choice":0,"rt":292.0400000002701,"outcome":1,"trial":61,"correct":2,"trial_type":"three-arm-trial","trial_index":70,"time_elapsed":650453,"internal_node_id":"0.0-67.0-0.0","task_version":"screening-mturk","missing":false,"accuracy":0},{"contexts":["red","green","blue"],"outcomes":[0,0,1],"key":37,"choice":0,"rt":88.25000000069849,"outcome":0,"trial":62,"correct":2,"trial_type":"three-arm-trial","trial_index":71,"time_elapsed":651755,"internal_node_id":"0.0-68.0-0.0","task_version":"screening-mturk","missing":false,"accuracy":0},{"contexts":["red","green","blue"],"outcomes":[0,1,1],"key":38,"choice":1,"rt":151.84000000590459,"outcome":1,"trial":63,"correct":2,"trial_type":"three-arm-trial","trial_index":72,"time_elapsed":653114,"internal_node_id":"0.0-69.0-0.0","task_version":"screening-mturk","missing":false,"accuracy":0},{"contexts":["red","green","blue"],"outcomes":[0,0,0],"key":38,"choice":1,"rt":307.89500000537373,"outcome":0,"trial":64,"correct":2,"trial_type":"three-arm-trial","trial_index":73,"time_elapsed":654630,"internal_node_id":"0.0-70.0-0.0","task_version":"screening-mturk","missing":false,"accuracy":0},{"contexts":["red","green","blue"],"outcomes":[0,1,0],"key":39,"choice":2,"rt":201.2399999948684,"outcome":0,"trial":65,"correct":2,"trial_type":"three-arm-trial","trial_index":74,"time_elapsed":656037,"internal_node_id":"0.0-71.0-0.0","task_version":"screening-mturk","missing":false,"accuracy":1},{"contexts":["red","green","blue"],"outcomes":[0,0,1],"key":37,"choice":0,"rt":63.36999998893589,"outcome":0,"trial":66,"correct":2,"trial_type":"three-arm-trial","trial_index":75,"time_elapsed":657306,"internal_node_id":"0.0-72.0-0.0","task_version":"screening-mturk","missing":false,"accuracy":0},{"contexts":["red","green","blue"],"outcomes":[0,0,1],"key":39,"choice":2,"rt":133.94999998854473,"outcome":1,"trial":67,"correct":2,"trial_type":"three-arm-trial","trial_index":76,"time_elapsed":658649,"internal_node_id":"0.0-73.0-0.0","task_version":"screening-mturk","missing":false,"accuracy":1},{"contexts":["red","green","blue"],"outcomes":[0,0,1],"key":39,"choice":2,"rt":248.85999999241903,"outcome":1,"trial":68,"correct":2,"trial_type":"three-arm-trial","trial_index":77,"time_elapsed":660104,"internal_node_id":"0.0-74.0-0.0","task_version":"screening-mturk","missing":false,"accuracy":1},{"contexts":["red","green","blue"],"outcomes":[0,0,1],"key":39,"choice":2,"rt":232.25999998976476,"outcome":1,"trial":69,"correct":2,"trial_type":"three-arm-trial","trial_index":78,"time_elapsed":661541,"internal_node_id":"0.0-75.0-0.0","task_version":"screening-mturk","missing":false,"accuracy":1},{"contexts":["red","green","blue"],"outcomes":[1,1,1],"key":39,"choice":2,"rt":203.86499998858199,"outcome":1,"trial":70,"correct":2,"trial_type":"three-arm-trial","trial_index":79,"time_elapsed":662951,"internal_node_id":"0.0-76.0-0.0","task_version":"screening-mturk","missing":false,"accuracy":1},{"contexts":["red","green","blue"],"outcomes":[0,0,1],"key":39,"choice":2,"rt":310.2599999983795,"outcome":1,"trial":71,"correct":2,"trial_type":"three-arm-trial","trial_index":80,"time_elapsed":664469,"internal_node_id":"0.0-77.0-0.0","task_version":"screening-mturk","missing":false,"accuracy":1},{"contexts":["red","green","blue"],"outcomes":[0,1,1],"key":39,"choice":2,"rt":285.6200000096578,"outcome":1,"trial":72,"correct":2,"trial_type":"three-arm-trial","trial_index":81,"time_elapsed":665960,"internal_node_id":"0.0-78.0-0.0","task_version":"screening-mturk","missing":false,"accuracy":1},{"contexts":["red","green","blue"],"outcomes":[0,0,1],"key":39,"choice":2,"rt":228.0050000117626,"outcome":1,"trial":73,"correct":2,"trial_type":"three-arm-trial","trial_index":82,"time_elapsed":667393,"internal_node_id":"0.0-79.0-0.0","task_version":"screening-mturk","missing":false,"accuracy":1},{"contexts":["red","green","blue"],"outcomes":[0,1,1],"key":39,"choice":2,"rt":241.54000001726672,"outcome":1,"trial":74,"correct":2,"trial_type":"three-arm-trial","trial_index":83,"time_elapsed":668843,"internal_node_id":"0.0-80.0-0.0","task_version":"screening-mturk","missing":false,"accuracy":1},{"contexts":["red","green","blue"],"outcomes":[1,0,1],"key":39,"choice":2,"rt":145.63499999349006,"outcome":1,"trial":75,"correct":2,"trial_type":"three-arm-trial","trial_index":84,"time_elapsed":670200,"internal_node_id":"0.0-81.0-0.0","task_version":"screening-mturk","missing":false,"accuracy":1},{"contexts":["red","green","blue"],"outcomes":[1,0,0],"key":39,"choice":2,"rt":118.59500000718981,"outcome":0,"trial":76,"correct":0,"trial_type":"three-arm-trial","trial_index":85,"time_elapsed":671525,"internal_node_id":"0.0-82.0-0.0","task_version":"screening-mturk","missing":false,"accuracy":0},{"contexts":["red","green","blue"],"outcomes":[1,1,0],"key":37,"choice":0,"rt":125.80499998875894,"outcome":1,"trial":77,"correct":0,"trial_type":"three-arm-trial","trial_index":86,"time_elapsed":672858,"internal_node_id":"0.0-83.0-0.0","task_version":"screening-mturk","missing":false,"accuracy":1},{"contexts":["red","green","blue"],"outcomes":[1,0,0],"key":37,"choice":0,"rt":152.64000001479872,"outcome":1,"trial":78,"correct":0,"trial_type":"three-arm-trial","trial_index":87,"time_elapsed":674218,"internal_node_id":"0.0-84.0-0.0","task_version":"screening-mturk","missing":false,"accuracy":1},{"contexts":["red","green","blue"],"outcomes":[0,0,0],"key":37,"choice":0,"rt":271.3149999908637,"outcome":0,"trial":79,"correct":0,"trial_type":"three-arm-trial","trial_index":88,"time_elapsed":675697,"internal_node_id":"0.0-85.0-0.0","task_version":"screening-mturk","missing":false,"accuracy":1},{"contexts":["red","green","blue"],"outcomes":[1,0,1],"key":38,"choice":1,"rt":189.5549999899231,"outcome":0,"trial":80,"correct":0,"trial_type":"three-arm-trial","trial_index":89,"time_elapsed":677096,"internal_node_id":"0.0-86.0-0.0","task_version":"screening-mturk","missing":false,"accuracy":0},{"contexts":["red","green","blue"],"outcomes":[1,0,1],"key":39,"choice":2,"rt":791.1700000113342,"outcome":1,"trial":81,"correct":0,"trial_type":"three-arm-trial","trial_index":90,"time_elapsed":679092,"internal_node_id":"0.0-87.0-0.0","task_version":"screening-mturk","missing":false,"accuracy":0},{"contexts":["red","green","blue"],"outcomes":[1,0,1],"key":39,"choice":2,"rt":170.24000000674278,"outcome":1,"trial":82,"correct":0,"trial_type":"three-arm-trial","trial_index":91,"time_elapsed":680468,"internal_node_id":"0.0-88.0-0.0","task_version":"screening-mturk","missing":false,"accuracy":0},{"contexts":["red","green","blue"],"outcomes":[1,0,0],"key":39,"choice":2,"rt":321.6699999757111,"outcome":0,"trial":83,"correct":0,"trial_type":"three-arm-trial","trial_index":92,"time_elapsed":681998,"internal_node_id":"0.0-89.0-0.0","task_version":"screening-mturk","missing":false,"accuracy":0},{"contexts":["red","green","blue"],"outcomes":[1,0,0],"key":38,"choice":1,"rt":248.89499999699183,"outcome":0,"trial":84,"correct":0,"trial_type":"three-arm-trial","trial_index":93,"time_elapsed":683454,"internal_node_id":"0.0-90.0-0.0","task_version":"screening-mturk","missing":false,"accuracy":0},{"contexts":["red","green","blue"],"outcomes":[1,1,0],"key":39,"choice":2,"rt":246.14499998278916,"outcome":0,"trial":85,"correct":0,"trial_type":"three-arm-trial","trial_index":94,"time_elapsed":684906,"internal_node_id":"0.0-91.0-0.0","task_version":"screening-mturk","missing":false,"accuracy":0},{"contexts":["red","green","blue"],"outcomes":[1,0,0],"key":37,"choice":0,"rt":539.3350000085775,"outcome":1,"trial":86,"correct":0,"trial_type":"three-arm-trial","trial_index":95,"time_elapsed":686658,"internal_node_id":"0.0-92.0-0.0","task_version":"screening-mturk","missing":false,"accuracy":1},{"contexts":["red","green","blue"],"outcomes":[1,0,0],"key":37,"choice":0,"rt":342.1049999888055,"outcome":1,"trial":87,"correct":0,"trial_type":"three-arm-trial","trial_index":96,"time_elapsed":688217,"internal_node_id":"0.0-93.0-0.0","task_version":"screening-mturk","missing":false,"accuracy":1},{"contexts":["red","green","blue"],"outcomes":[1,0,0],"key":37,"choice":0,"rt":652.7200000127777,"outcome":1,"trial":88,"correct":0,"trial_type":"three-arm-trial","trial_index":97,"time_elapsed":690079,"internal_node_id":"0.0-94.0-0.0","task_version":"screening-mturk","missing":false,"accuracy":1},{"contexts":["red","green","blue"],"outcomes":[1,0,0],"key":37,"choice":0,"rt":617.7849999803584,"outcome":1,"trial":89,"correct":0,"trial_type":"three-arm-trial","trial_index":98,"time_elapsed":691903,"internal_node_id":"0.0-95.0-0.0","task_version":"screening-mturk","missing":false,"accuracy":1},{"contexts":["red","green","blue"],"outcomes":[1,0,0],"key":37,"choice":0,"rt":312.2549999970943,"outcome":1,"trial":90,"correct":0,"trial_type":"three-arm-trial","trial_index":99,"time_elapsed":693420,"internal_node_id":"0.0-96.0-0.0","task_version":"screening-mturk","missing":false,"accuracy":1},{"rt":32497.314999985974,"responses":{"age":"40","gender-categorical":"Female","gender-free-response":"","ethnicity":"Not Hispanic or Latino","race":["White"],"language":"Yes","fluency":"Very well","prolific":"No","prolific-this-study":"No"},"survey":"demographics","trial_type":"survey-demo","trial_index":100,"time_elapsed":725946,"internal_node_id":"0.0-97.0","task_version":"screening-mturk","interactions":"[]"}]