[{"responses":{"Q10":"1","Q05":"2","Q04":"3","Q01":"0","Q09":"3","Q08":"2","Q13":"3","Q07":"0","Q03":"3","Q02":"0","Q12":"3","Q11":"2","Q06":"3"},"rt":15831.000000005588,"survey":"bisbas","trial_type":"survey-template","trial_index":0,"time_elapsed":15863,"internal_node_id":"0.0-0.0","task_version":"screening-mturk"},{"responses":{"Q14":"1","Q02":"3","Q09":"2","Q13":"1","Q08":"3","Q04":"2","Q01":"3","Q07":"2","Q15":"2","Q12":"1","Q03":"2","Q06":"3","Q05":"1","Q10":"3","Q11":"2"},"rt":13132.999999914318,"survey":"7up7down","trial_type":"survey-template","trial_index":1,"time_elapsed":29010,"internal_node_id":"0.0-1.0","task_version":"screening-mturk"},{"responses":{"Q08":"0","Q09":"2","Q05":"3","Q06":"2","Q10":"1","Q03":"3","Q11":"1","Q14":"2","Q13":"1","Q02":"0","Q07":"1","Q12":"2","Q04":"1","Q01":"3","Q15":"3"},"rt":18216.0000000149,"survey":"shaps","trial_type":"survey-template","trial_index":2,"time_elapsed":47239,"internal_node_id":"0.0-2.0","task_version":"screening-mturk"},{"responses":{"Q03":"4","Q02":"2","Q01":"3"},"rt":6375.999999931082,"survey":"pswq","trial_type":"survey-template","trial_index":3,"time_elapsed":53623,"internal_node_id":"0.0-3.0","task_version":"screening-mturk"},{"responses":{"Q04":"1","Q06":"2","Q05":"1","Q03":"1","Q08":"1","Q07":"2","Q01":"3","Q02":"2"},"rt":15703.999999910593,"survey":"gad7","trial_type":"survey-template","trial_index":4,"time_elapsed":69335,"internal_node_id":"0.0-4.0","task_version":"screening-mturk"},{"view_history":"[{\"page_index\":0,\"viewing_time\":2370.99999981001},{\"page_index\":1,\"viewing_time\":169.0000002272427},{\"page_index\":2,\"viewing_time\":175.99999997764826},{\"page_index\":3,\"viewing_time\":135.00000000931323},{\"page_index\":4,\"viewing_time\":1159.999999916181},{\"page_index\":5,\"viewing_time\":689.9999999441206},{\"page_index\":6,\"viewing_time\":310.00000005587935},{\"page_index\":7,\"viewing_time\":179.99999993480742}]","rt":5192.999999970198,"trial_type":"instructions","trial_index":5,"time_elapsed":74531,"internal_node_id":"0.0-5.0-0.0","task_version":"screening-mturk"},{"responses":["True","True","False","False","True"],"num_errors":0,"rt":5305.99999986589,"trial_type":"three-arm-comprehension","trial_index":6,"time_elapsed":79845,"internal_node_id":"0.0-5.0-1.0","task_version":"screening-mturk"},{"view_history":"[{\"page_index\":0,\"viewing_time\":6891.000000061467}]","rt":6891.999999992549,"trial_type":"instructions","trial_index":7,"time_elapsed":86751,"internal_node_id":"0.0-6.0","task_version":"screening-mturk"},{"contexts":["blue","green","red"],"outcomes":[0,0,1],"key":null,"rt":null,"trial":1,"correct":2,"trial_type":"three-arm-trial","trial_index":8,"time_elapsed":101761,"internal_node_id":"0.0-7.0-0.0","task_version":"screening-mturk","missing":true},{"contexts":["blue","green","red"],"outcomes":[0,0,1],"key":null,"rt":null,"trial":1,"correct":2,"trial_type":"three-arm-trial","trial_index":9,"time_elapsed":116791,"internal_node_id":"0.0-7.1-0.1","task_version":"screening-mturk","missing":true},{"contexts":["blue","green","red"],"outcomes":[0,0,1],"key":null,"rt":null,"trial":1,"correct":2,"trial_type":"three-arm-trial","trial_index":10,"time_elapsed":131798,"internal_node_id":"0.0-7.2-0.2","task_version":"screening-mturk","missing":true},{"contexts":["blue","green","red"],"outcomes":[0,0,1],"key":null,"rt":null,"trial":1,"correct":2,"trial_type":"three-arm-trial","trial_index":11,"time_elapsed":146810,"internal_node_id":"0.0-7.3-0.3","task_version":"screening-mturk","missing":true},{"contexts":["blue","green","red"],"outcomes":[0,0,1],"key":null,"rt":null,"trial":1,"correct":2,"trial_type":"three-arm-trial","trial_index":12,"time_elapsed":161814,"internal_node_id":"0.0-7.4-0.4","task_version":"screening-mturk","missing":true},{"contexts":["blue","green","red"],"outcomes":[0,0,1],"key":null,"rt":null,"trial":1,"correct":2,"trial_type":"three-arm-trial","trial_index":13,"time_elapsed":176822,"internal_node_id":"0.0-7.5-0.5","task_version":"screening-mturk","missing":true},{"contexts":["blue","green","red"],"outcomes":[0,0,1],"key":null,"rt":null,"trial":1,"correct":2,"trial_type":"three-arm-trial","trial_index":14,"time_elapsed":191830,"internal_node_id":"0.0-7.6-0.6","task_version":"screening-mturk","missing":true},{"contexts":["blue","green","red"],"outcomes":[0,0,1],"key":39,"choice":2,"rt":2380.9999998193234,"outcome":1,"trial":1,"correct":2,"trial_type":"three-arm-trial","trial_index":15,"time_elapsed":195416,"internal_node_id":"0.0-7.7-0.7","task_version":"screening-mturk","missing":false,"accuracy":1},{"contexts":["blue","green","red"],"outcomes":[1,0,0],"key":39,"choice":2,"rt":553.0000000726432,"outcome":0,"trial":2,"correct":2,"trial_type":"three-arm-trial","trial_index":16,"time_elapsed":197176,"internal_node_id":"0.0-8.0-0.0","task_version":"screening-mturk","missing":false,"accuracy":1},{"contexts":["blue","green","red"],"outcomes":[0,0,1],"key":37,"choice":0,"rt":195.00000006519258,"outcome":0,"trial":3,"correct":2,"trial_type":"three-arm-trial","trial_index":17,"time_elapsed":198580,"internal_node_id":"0.0-9.0-0.0","task_version":"screening-mturk","missing":false,"accuracy":0},{"contexts":["blue","green","red"],"outcomes":[0,1,0],"key":39,"choice":2,"rt":1336.0000001266599,"outcome":0,"trial":4,"correct":2,"trial_type":"three-arm-trial","trial_index":18,"time_elapsed":201125,"internal_node_id":"0.0-10.0-0.0","task_version":"screening-mturk","missing":false,"accuracy":1},{"contexts":["blue","green","red"],"outcomes":[0,0,1],"key":37,"choice":0,"rt":8.999999845400453,"outcome":0,"trial":5,"correct":2,"trial_type":"three-arm-trial","trial_index":19,"time_elapsed":202338,"internal_node_id":"0.0-11.0-0.0","task_version":"screening-mturk","missing":false,"accuracy":0},{"contexts":["blue","green","red"],"outcomes":[0,0,1],"key":37,"choice":0,"rt":31.999999890103936,"outcome":0,"trial":6,"correct":2,"trial_type":"three-arm-trial","trial_index":20,"time_elapsed":203577,"internal_node_id":"0.0-12.0-0.0","task_version":"screening-mturk","missing":false,"accuracy":0},{"contexts":["blue","green","red"],"outcomes":[0,0,1],"key":39,"choice":2,"rt":4.999999888241291,"outcome":1,"trial":7,"correct":2,"trial_type":"three-arm-trial","trial_index":21,"time_elapsed":204789,"internal_node_id":"0.0-13.0-0.0","task_version":"screening-mturk","missing":false,"accuracy":1},{"contexts":["blue","green","red"],"outcomes":[0,1,1],"key":38,"choice":1,"rt":0.9999999310821295,"outcome":1,"trial":8,"correct":2,"trial_type":"three-arm-trial","trial_index":22,"time_elapsed":205995,"internal_node_id":"0.0-14.0-0.0","task_version":"screening-mturk","missing":false,"accuracy":0},{"contexts":["blue","green","red"],"outcomes":[0,0,0],"key":39,"choice":2,"rt":434.9999998230487,"outcome":0,"trial":9,"correct":2,"trial_type":"three-arm-trial","trial_index":23,"time_elapsed":207634,"internal_node_id":"0.0-15.0-0.0","task_version":"screening-mturk","missing":false,"accuracy":1},{"contexts":["blue","green","red"],"outcomes":[1,0,1],"key":38,"choice":1,"rt":154.00000009685755,"outcome":0,"trial":10,"correct":2,"trial_type":"three-arm-trial","trial_index":24,"time_elapsed":208996,"internal_node_id":"0.0-16.0-0.0","task_version":"screening-mturk","missing":false,"accuracy":0},{"contexts":["blue","green","red"],"outcomes":[0,0,1],"key":37,"choice":0,"rt":834.000000031665,"outcome":0,"trial":11,"correct":2,"trial_type":"three-arm-trial","trial_index":25,"time_elapsed":211036,"internal_node_id":"0.0-17.0-0.0","task_version":"screening-mturk","missing":false,"accuracy":0},{"contexts":["blue","green","red"],"outcomes":[0,0,0],"key":39,"choice":2,"rt":94.99999997206032,"outcome":0,"trial":12,"correct":2,"trial_type":"three-arm-trial","trial_index":26,"time_elapsed":212336,"internal_node_id":"0.0-18.0-0.0","task_version":"screening-mturk","missing":false,"accuracy":1},{"contexts":["blue","green","red"],"outcomes":[0,0,1],"key":38,"choice":1,"rt":223.99999992921948,"outcome":0,"trial":13,"correct":2,"trial_type":"three-arm-trial","trial_index":27,"time_elapsed":213764,"internal_node_id":"0.0-19.0-0.0","task_version":"screening-mturk","missing":false,"accuracy":0},{"contexts":["blue","green","red"],"outcomes":[0,0,1],"key":38,"choice":1,"rt":227.99999988637865,"outcome":0,"trial":14,"correct":2,"trial_type":"three-arm-trial","trial_index":28,"time_elapsed":215198,"internal_node_id":"0.0-20.0-0.0","task_version":"screening-mturk","missing":false,"accuracy":0},{"contexts":["blue","green","red"],"outcomes":[0,0,1],"key":39,"choice":2,"rt":131.00000005215406,"outcome":1,"trial":15,"correct":2,"trial_type":"three-arm-trial","trial_index":29,"time_elapsed":216537,"internal_node_id":"0.0-21.0-0.0","task_version":"screening-mturk","missing":false,"accuracy":1},{"contexts":["blue","green","red"],"outcomes":[1,1,0],"key":37,"choice":0,"rt":1111.9999999646097,"outcome":1,"trial":16,"correct":0,"trial_type":"three-arm-trial","trial_index":30,"time_elapsed":218855,"internal_node_id":"0.0-22.0-0.0","task_version":"screening-mturk","missing":false,"accuracy":1},{"contexts":["blue","green","red"],"outcomes":[1,1,0],"key":39,"choice":2,"rt":362.9999998956919,"outcome":0,"trial":17,"correct":0,"trial_type":"three-arm-trial","trial_index":31,"time_elapsed":220424,"internal_node_id":"0.0-23.0-0.0","task_version":"screening-mturk","missing":false,"accuracy":0},{"contexts":["blue","green","red"],"outcomes":[1,0,0],"key":38,"choice":1,"rt":175.99999997764826,"outcome":0,"trial":18,"correct":0,"trial_type":"three-arm-trial","trial_index":32,"time_elapsed":221804,"internal_node_id":"0.0-24.0-0.0","task_version":"screening-mturk","missing":false,"accuracy":0},{"contexts":["blue","green","red"],"outcomes":[1,0,0],"key":39,"choice":2,"rt":927.000000141561,"outcome":0,"trial":19,"correct":0,"trial_type":"three-arm-trial","trial_index":33,"time_elapsed":223939,"internal_node_id":"0.0-25.0-0.0","task_version":"screening-mturk","missing":false,"accuracy":0},{"contexts":["blue","green","red"],"outcomes":[1,0,1],"key":37,"choice":0,"rt":1000,"outcome":1,"trial":20,"correct":0,"trial_type":"three-arm-trial","trial_index":34,"time_elapsed":226151,"internal_node_id":"0.0-26.0-0.0","task_version":"screening-mturk","missing":false,"accuracy":1},{"contexts":["blue","green","red"],"outcomes":[1,0,0],"key":39,"choice":2,"rt":1158.0000000540167,"outcome":0,"trial":21,"correct":0,"trial_type":"three-arm-trial","trial_index":35,"time_elapsed":228515,"internal_node_id":"0.0-27.0-0.0","task_version":"screening-mturk","missing":false,"accuracy":0},{"contexts":["blue","green","red"],"outcomes":[0,0,0],"key":38,"choice":1,"rt":368.0000000167638,"outcome":0,"trial":22,"correct":0,"trial_type":"three-arm-trial","trial_index":36,"time_elapsed":230089,"internal_node_id":"0.0-28.0-0.0","task_version":"screening-mturk","missing":false,"accuracy":0},{"contexts":["blue","green","red"],"outcomes":[1,0,0],"key":39,"choice":2,"rt":80.0000000745058,"outcome":0,"trial":23,"correct":0,"trial_type":"three-arm-trial","trial_index":37,"time_elapsed":231376,"internal_node_id":"0.0-29.0-0.0","task_version":"screening-mturk","missing":false,"accuracy":0},{"contexts":["blue","green","red"],"outcomes":[0,0,0],"key":37,"choice":0,"rt":2253.999999957159,"outcome":0,"trial":24,"correct":0,"trial_type":"three-arm-trial","trial_index":38,"time_elapsed":234837,"internal_node_id":"0.0-30.0-0.0","task_version":"screening-mturk","missing":false,"accuracy":1},{"contexts":["blue","green","red"],"outcomes":[1,1,0],"key":37,"choice":0,"rt":185.99999998696148,"outcome":1,"trial":25,"correct":0,"trial_type":"three-arm-trial","trial_index":39,"time_elapsed":236227,"internal_node_id":"0.0-31.0-0.0","task_version":"screening-mturk","missing":false,"accuracy":1},{"contexts":["blue","green","red"],"outcomes":[1,0,0],"key":39,"choice":2,"rt":299.000000115484,"outcome":0,"trial":26,"correct":0,"trial_type":"three-arm-trial","trial_index":40,"time_elapsed":237729,"internal_node_id":"0.0-32.0-0.0","task_version":"screening-mturk","missing":false,"accuracy":0},{"contexts":["blue","green","red"],"outcomes":[1,0,1],"key":39,"choice":2,"rt":401.0000000707805,"outcome":1,"trial":27,"correct":0,"trial_type":"three-arm-trial","trial_index":41,"time_elapsed":239342,"internal_node_id":"0.0-33.0-0.0","task_version":"screening-mturk","missing":false,"accuracy":0},{"contexts":["blue","green","red"],"outcomes":[0,1,0],"key":38,"choice":1,"rt":20.00000001862645,"outcome":1,"trial":28,"correct":0,"trial_type":"three-arm-trial","trial_index":42,"time_elapsed":240572,"internal_node_id":"0.0-34.0-0.0","task_version":"screening-mturk","missing":false,"accuracy":0},{"contexts":["blue","green","red"],"outcomes":[1,0,0],"key":37,"choice":0,"rt":165.99999996833503,"outcome":1,"trial":29,"correct":0,"trial_type":"three-arm-trial","trial_index":43,"time_elapsed":241945,"internal_node_id":"0.0-35.0-0.0","task_version":"screening-mturk","missing":false,"accuracy":1},{"contexts":["blue","green","red"],"outcomes":[1,0,0],"key":39,"choice":2,"rt":255.00000012107193,"outcome":0,"trial":30,"correct":0,"trial_type":"three-arm-trial","trial_index":44,"time_elapsed":243405,"internal_node_id":"0.0-36.0-0.0","task_version":"screening-mturk","missing":false,"accuracy":0},{"contexts":["blue","green","red"],"outcomes":[1,1,1],"key":37,"choice":0,"rt":1060.0000000558794,"outcome":1,"trial":31,"correct":2,"trial_type":"three-arm-trial","trial_index":45,"time_elapsed":245670,"internal_node_id":"0.0-37.0-0.0","task_version":"screening-mturk","missing":false,"accuracy":0},{"contexts":["blue","green","red"],"outcomes":[0,0,1],"key":39,"choice":2,"rt":1050.0000000465661,"outcome":1,"trial":32,"correct":2,"trial_type":"three-arm-trial","trial_index":46,"time_elapsed":247925,"internal_node_id":"0.0-38.0-0.0","task_version":"screening-mturk","missing":false,"accuracy":1},{"contexts":["blue","green","red"],"outcomes":[0,1,1],"key":38,"choice":1,"rt":555.0000001676381,"outcome":1,"trial":33,"correct":2,"trial_type":"three-arm-trial","trial_index":47,"time_elapsed":249689,"internal_node_id":"0.0-39.0-0.0","task_version":"screening-mturk","missing":false,"accuracy":0},{"contexts":["blue","green","red"],"outcomes":[0,0,1],"key":39,"choice":2,"rt":765.9999998286366,"outcome":1,"trial":34,"correct":2,"trial_type":"three-arm-trial","trial_index":48,"time_elapsed":251664,"internal_node_id":"0.0-40.0-0.0","task_version":"screening-mturk","missing":false,"accuracy":1},{"contexts":["blue","green","red"],"outcomes":[0,1,1],"key":37,"choice":0,"rt":837.000000057742,"outcome":0,"trial":35,"correct":2,"trial_type":"three-arm-trial","trial_index":49,"time_elapsed":253722,"internal_node_id":"0.0-41.0-0.0","task_version":"screening-mturk","missing":false,"accuracy":0},{"contexts":["blue","green","red"],"outcomes":[0,0,1],"key":38,"choice":1,"rt":1356.9999998435378,"outcome":0,"trial":36,"correct":2,"trial_type":"three-arm-trial","trial_index":50,"time_elapsed":256285,"internal_node_id":"0.0-42.0-0.0","task_version":"screening-mturk","missing":false,"accuracy":0},{"contexts":["blue","green","red"],"outcomes":[0,0,1],"key":37,"choice":0,"rt":75.999999884516,"outcome":0,"trial":37,"correct":2,"trial_type":"three-arm-trial","trial_index":51,"time_elapsed":257590,"internal_node_id":"0.0-43.0-0.0","task_version":"screening-mturk","missing":false,"accuracy":0},{"contexts":["blue","green","red"],"outcomes":[0,0,1],"key":38,"choice":1,"rt":4314.0000000130385,"outcome":0,"trial":38,"correct":2,"trial_type":"three-arm-trial","trial_index":52,"time_elapsed":263145,"internal_node_id":"0.0-44.0-0.0","task_version":"screening-mturk","missing":false,"accuracy":0},{"contexts":["blue","green","red"],"outcomes":[0,1,1],"key":37,"choice":0,"rt":1184.0000001247972,"outcome":0,"trial":39,"correct":2,"trial_type":"three-arm-trial","trial_index":53,"time_elapsed":265534,"internal_node_id":"0.0-45.0-0.0","task_version":"screening-mturk","missing":false,"accuracy":0},{"contexts":["blue","green","red"],"outcomes":[0,0,1],"key":38,"choice":1,"rt":56.00000009872019,"outcome":0,"trial":40,"correct":2,"trial_type":"three-arm-trial","trial_index":54,"time_elapsed":266795,"internal_node_id":"0.0-46.0-0.0","task_version":"screening-mturk","missing":false,"accuracy":0},{"contexts":["blue","green","red"],"outcomes":[0,0,1],"key":37,"choice":0,"rt":108.99999993853271,"outcome":0,"trial":41,"correct":2,"trial_type":"three-arm-trial","trial_index":55,"time_elapsed":268110,"internal_node_id":"0.0-47.0-0.0","task_version":"screening-mturk","missing":false,"accuracy":0},{"contexts":["blue","green","red"],"outcomes":[0,1,1],"key":39,"choice":2,"rt":185.99999998696148,"outcome":1,"trial":42,"correct":2,"trial_type":"three-arm-trial","trial_index":56,"time_elapsed":269505,"internal_node_id":"0.0-48.0-0.0","task_version":"screening-mturk","missing":false,"accuracy":1},{"contexts":["blue","green","red"],"outcomes":[0,0,1],"key":37,"choice":0,"rt":27.000000001862645,"outcome":0,"trial":43,"correct":2,"trial_type":"three-arm-trial","trial_index":57,"time_elapsed":270737,"internal_node_id":"0.0-49.0-0.0","task_version":"screening-mturk","missing":false,"accuracy":0},{"contexts":["blue","green","red"],"outcomes":[0,0,1],"key":38,"choice":1,"rt":94.0000000409782,"outcome":0,"trial":44,"correct":2,"trial_type":"three-arm-trial","trial_index":58,"time_elapsed":272035,"internal_node_id":"0.0-50.0-0.0","task_version":"screening-mturk","missing":false,"accuracy":0},{"contexts":["blue","green","red"],"outcomes":[0,1,1],"key":37,"choice":0,"rt":215.00000008381903,"outcome":0,"trial":45,"correct":2,"trial_type":"three-arm-trial","trial_index":59,"time_elapsed":273457,"internal_node_id":"0.0-51.0-0.0","task_version":"screening-mturk","missing":false,"accuracy":0},{"contexts":["blue","green","red"],"outcomes":[1,1,0],"key":38,"choice":1,"rt":213.00000022165477,"outcome":1,"trial":46,"correct":1,"trial_type":"three-arm-trial","trial_index":60,"time_elapsed":274874,"internal_node_id":"0.0-52.0-0.0","task_version":"screening-mturk","missing":false,"accuracy":1},{"contexts":["blue","green","red"],"outcomes":[0,1,0],"key":39,"choice":2,"rt":46.00000008940697,"outcome":0,"trial":47,"correct":1,"trial_type":"three-arm-trial","trial_index":61,"time_elapsed":276125,"internal_node_id":"0.0-53.0-0.0","task_version":"screening-mturk","missing":false,"accuracy":0},{"contexts":["blue","green","red"],"outcomes":[0,1,0],"key":37,"choice":0,"rt":1056.0000000987202,"outcome":0,"trial":48,"correct":1,"trial_type":"three-arm-trial","trial_index":62,"time_elapsed":278385,"internal_node_id":"0.0-54.0-0.0","task_version":"screening-mturk","missing":false,"accuracy":0},{"contexts":["blue","green","red"],"outcomes":[0,1,0],"key":38,"choice":1,"rt":1974.9999998603016,"outcome":1,"trial":49,"correct":1,"trial_type":"three-arm-trial","trial_index":63,"time_elapsed":281568,"internal_node_id":"0.0-55.0-0.0","task_version":"screening-mturk","missing":false,"accuracy":1},{"contexts":["blue","green","red"],"outcomes":[0,0,0],"key":37,"choice":0,"rt":2458.9999997988343,"outcome":0,"trial":50,"correct":1,"trial_type":"three-arm-trial","trial_index":64,"time_elapsed":285235,"internal_node_id":"0.0-56.0-0.0","task_version":"screening-mturk","missing":false,"accuracy":0},{"contexts":["blue","green","red"],"outcomes":[0,1,0],"key":39,"choice":2,"rt":2082.999999867752,"outcome":0,"trial":51,"correct":1,"trial_type":"three-arm-trial","trial_index":65,"time_elapsed":288527,"internal_node_id":"0.0-57.0-0.0","task_version":"screening-mturk","missing":false,"accuracy":0},{"contexts":["blue","green","red"],"outcomes":[0,0,0],"key":38,"choice":1,"rt":2432.0000000298023,"outcome":0,"trial":52,"correct":1,"trial_type":"three-arm-trial","trial_index":66,"time_elapsed":292163,"internal_node_id":"0.0-58.0-0.0","task_version":"screening-mturk","missing":false,"accuracy":1},{"contexts":["blue","green","red"],"outcomes":[0,1,0],"key":39,"choice":2,"rt":2673.000000184402,"outcome":0,"trial":53,"correct":1,"trial_type":"three-arm-trial","trial_index":67,"time_elapsed":296040,"internal_node_id":"0.0-59.0-0.0","task_version":"screening-mturk","missing":false,"accuracy":0},{"contexts":["blue","green","red"],"outcomes":[0,1,1],"key":38,"choice":1,"rt":259.0000000782311,"outcome":1,"trial":54,"correct":1,"trial_type":"three-arm-trial","trial_index":68,"time_elapsed":297505,"internal_node_id":"0.0-60.0-0.0","task_version":"screening-mturk","missing":false,"accuracy":1},{"contexts":["blue","green","red"],"outcomes":[1,0,0],"key":39,"choice":2,"rt":3020.0000000186265,"outcome":0,"trial":55,"correct":1,"trial_type":"three-arm-trial","trial_index":69,"time_elapsed":301736,"internal_node_id":"0.0-61.0-0.0","task_version":"screening-mturk","missing":false,"accuracy":0},{"contexts":["blue","green","red"],"outcomes":[0,1,1],"key":37,"choice":0,"rt":102.99999988637865,"outcome":0,"trial":56,"correct":1,"trial_type":"three-arm-trial","trial_index":70,"time_elapsed":303046,"internal_node_id":"0.0-62.0-0.0","task_version":"screening-mturk","missing":false,"accuracy":0},{"contexts":["blue","green","red"],"outcomes":[0,0,1],"key":38,"choice":1,"rt":50.99999997764826,"outcome":0,"trial":57,"correct":1,"trial_type":"three-arm-trial","trial_index":71,"time_elapsed":304303,"internal_node_id":"0.0-63.0-0.0","task_version":"screening-mturk","missing":false,"accuracy":1},{"contexts":["blue","green","red"],"outcomes":[0,1,0],"key":37,"choice":0,"rt":37.00000001117587,"outcome":0,"trial":58,"correct":1,"trial_type":"three-arm-trial","trial_index":72,"time_elapsed":305545,"internal_node_id":"0.0-64.0-0.0","task_version":"screening-mturk","missing":false,"accuracy":0},{"contexts":["blue","green","red"],"outcomes":[0,1,0],"key":37,"choice":0,"rt":23.999999975785613,"outcome":0,"trial":59,"correct":1,"trial_type":"three-arm-trial","trial_index":73,"time_elapsed":306776,"internal_node_id":"0.0-65.0-0.0","task_version":"screening-mturk","missing":false,"accuracy":0},{"contexts":["blue","green","red"],"outcomes":[0,0,0],"key":38,"choice":1,"rt":36.00000008009374,"outcome":0,"trial":60,"correct":1,"trial_type":"three-arm-trial","trial_index":74,"time_elapsed":308020,"internal_node_id":"0.0-66.0-0.0","task_version":"screening-mturk","missing":false,"accuracy":1},{"contexts":["blue","green","red"],"outcomes":[1,0,0],"key":37,"choice":0,"rt":100.00000009313226,"outcome":1,"trial":61,"correct":0,"trial_type":"three-arm-trial","trial_index":75,"time_elapsed":309324,"internal_node_id":"0.0-67.0-0.0","task_version":"screening-mturk","missing":false,"accuracy":1},{"contexts":["blue","green","red"],"outcomes":[1,1,0],"key":39,"choice":2,"rt":58.99999989196658,"outcome":0,"trial":62,"correct":0,"trial_type":"three-arm-trial","trial_index":76,"time_elapsed":310590,"internal_node_id":"0.0-68.0-0.0","task_version":"screening-mturk","missing":false,"accuracy":0},{"contexts":["blue","green","red"],"outcomes":[1,0,0],"key":39,"choice":2,"rt":125,"outcome":0,"trial":63,"correct":0,"trial_type":"three-arm-trial","trial_index":77,"time_elapsed":311920,"internal_node_id":"0.0-69.0-0.0","task_version":"screening-mturk","missing":false,"accuracy":0},{"contexts":["blue","green","red"],"outcomes":[1,0,0],"key":39,"choice":2,"rt":125.99999993108213,"outcome":0,"trial":64,"correct":0,"trial_type":"three-arm-trial","trial_index":78,"time_elapsed":313251,"internal_node_id":"0.0-70.0-0.0","task_version":"screening-mturk","missing":false,"accuracy":0},{"contexts":["blue","green","red"],"outcomes":[1,0,1],"key":38,"choice":1,"rt":70.99999999627471,"outcome":0,"trial":65,"correct":0,"trial_type":"three-arm-trial","trial_index":79,"time_elapsed":314527,"internal_node_id":"0.0-71.0-0.0","task_version":"screening-mturk","missing":false,"accuracy":0},{"contexts":["blue","green","red"],"outcomes":[1,0,0],"key":39,"choice":2,"rt":1474.9999998603016,"outcome":0,"trial":66,"correct":0,"trial_type":"three-arm-trial","trial_index":80,"time_elapsed":317208,"internal_node_id":"0.0-72.0-0.0","task_version":"screening-mturk","missing":false,"accuracy":0},{"contexts":["blue","green","red"],"outcomes":[1,0,0],"key":37,"choice":0,"rt":1800.0000000465661,"outcome":1,"trial":67,"correct":0,"trial_type":"three-arm-trial","trial_index":81,"time_elapsed":320212,"internal_node_id":"0.0-73.0-0.0","task_version":"screening-mturk","missing":false,"accuracy":1},{"contexts":["blue","green","red"],"outcomes":[1,1,0],"key":39,"choice":2,"rt":1645.9999999497086,"outcome":0,"trial":68,"correct":0,"trial_type":"three-arm-trial","trial_index":82,"time_elapsed":323065,"internal_node_id":"0.0-74.0-0.0","task_version":"screening-mturk","missing":false,"accuracy":0},{"contexts":["blue","green","red"],"outcomes":[1,1,0],"key":37,"choice":0,"rt":212.99999998882413,"outcome":1,"trial":69,"correct":0,"trial_type":"three-arm-trial","trial_index":83,"time_elapsed":324484,"internal_node_id":"0.0-75.0-0.0","task_version":"screening-mturk","missing":false,"accuracy":1},{"contexts":["blue","green","red"],"outcomes":[1,0,0],"key":38,"choice":1,"rt":175.00000004656613,"outcome":0,"trial":70,"correct":0,"trial_type":"three-arm-trial","trial_index":84,"time_elapsed":325878,"internal_node_id":"0.0-76.0-0.0","task_version":"screening-mturk","missing":false,"accuracy":0},{"contexts":["blue","green","red"],"outcomes":[1,0,1],"key":39,"choice":2,"rt":77.00000004842877,"outcome":1,"trial":71,"correct":0,"trial_type":"three-arm-trial","trial_index":85,"time_elapsed":327159,"internal_node_id":"0.0-77.0-0.0","task_version":"screening-mturk","missing":false,"accuracy":0},{"contexts":["blue","green","red"],"outcomes":[1,0,0],"key":38,"choice":1,"rt":130.99999981932342,"outcome":0,"trial":72,"correct":0,"trial_type":"three-arm-trial","trial_index":86,"time_elapsed":328508,"internal_node_id":"0.0-78.0-0.0","task_version":"screening-mturk","missing":false,"accuracy":0},{"contexts":["blue","green","red"],"outcomes":[1,0,0],"key":37,"choice":0,"rt":141.0000000614673,"outcome":1,"trial":73,"correct":0,"trial_type":"three-arm-trial","trial_index":87,"time_elapsed":329901,"internal_node_id":"0.0-79.0-0.0","task_version":"screening-mturk","missing":false,"accuracy":1},{"contexts":["blue","green","red"],"outcomes":[1,0,0],"key":38,"choice":1,"rt":44.999999925494194,"outcome":0,"trial":74,"correct":0,"trial_type":"three-arm-trial","trial_index":88,"time_elapsed":331163,"internal_node_id":"0.0-80.0-0.0","task_version":"screening-mturk","missing":false,"accuracy":0},{"contexts":["blue","green","red"],"outcomes":[0,0,1],"key":37,"choice":0,"rt":388.9999999664724,"outcome":0,"trial":75,"correct":0,"trial_type":"three-arm-trial","trial_index":89,"time_elapsed":332759,"internal_node_id":"0.0-81.0-0.0","task_version":"screening-mturk","missing":false,"accuracy":1},{"contexts":["blue","green","red"],"outcomes":[0,0,0],"key":38,"choice":1,"rt":129.9999998882413,"outcome":0,"trial":76,"correct":2,"trial_type":"three-arm-trial","trial_index":90,"time_elapsed":334094,"internal_node_id":"0.0-82.0-0.0","task_version":"screening-mturk","missing":false,"accuracy":0},{"contexts":["blue","green","red"],"outcomes":[0,0,1],"key":37,"choice":0,"rt":18.99999985471368,"outcome":0,"trial":77,"correct":2,"trial_type":"three-arm-trial","trial_index":91,"time_elapsed":335323,"internal_node_id":"0.0-83.0-0.0","task_version":"screening-mturk","missing":false,"accuracy":0},{"contexts":["blue","green","red"],"outcomes":[1,0,0],"key":39,"choice":2,"rt":54.99999993480742,"outcome":0,"trial":78,"correct":2,"trial_type":"three-arm-trial","trial_index":92,"time_elapsed":336582,"internal_node_id":"0.0-84.0-0.0","task_version":"screening-mturk","missing":false,"accuracy":1},{"contexts":["blue","green","red"],"outcomes":[0,0,1],"key":37,"choice":0,"rt":197.99999985843897,"outcome":0,"trial":79,"correct":2,"trial_type":"three-arm-trial","trial_index":93,"time_elapsed":337987,"internal_node_id":"0.0-85.0-0.0","task_version":"screening-mturk","missing":false,"accuracy":0},{"contexts":["blue","green","red"],"outcomes":[0,0,0],"key":39,"choice":2,"rt":161.00000008009374,"outcome":0,"trial":80,"correct":2,"trial_type":"three-arm-trial","trial_index":94,"time_elapsed":339360,"internal_node_id":"0.0-86.0-0.0","task_version":"screening-mturk","missing":false,"accuracy":1},{"contexts":["blue","green","red"],"outcomes":[0,0,1],"key":38,"choice":1,"rt":233.00000000745058,"outcome":0,"trial":81,"correct":2,"trial_type":"three-arm-trial","trial_index":95,"time_elapsed":340800,"internal_node_id":"0.0-87.0-0.0","task_version":"screening-mturk","missing":false,"accuracy":0},{"contexts":["blue","green","red"],"outcomes":[0,0,1],"key":39,"choice":2,"rt":327.9999999795109,"outcome":1,"trial":82,"correct":2,"trial_type":"three-arm-trial","trial_index":96,"time_elapsed":342339,"internal_node_id":"0.0-88.0-0.0","task_version":"screening-mturk","missing":false,"accuracy":1},{"contexts":["blue","green","red"],"outcomes":[1,0,0],"key":39,"choice":2,"rt":118.0000000167638,"outcome":0,"trial":83,"correct":2,"trial_type":"three-arm-trial","trial_index":97,"time_elapsed":343666,"internal_node_id":"0.0-89.0-0.0","task_version":"screening-mturk","missing":false,"accuracy":1},{"contexts":["blue","green","red"],"outcomes":[0,0,1],"key":39,"choice":2,"rt":111.00000003352761,"outcome":1,"trial":84,"correct":2,"trial_type":"three-arm-trial","trial_index":98,"time_elapsed":344983,"internal_node_id":"0.0-90.0-0.0","task_version":"screening-mturk","missing":false,"accuracy":1},{"contexts":["blue","green","red"],"outcomes":[0,1,1],"key":38,"choice":1,"rt":141.99999999254942,"outcome":1,"trial":85,"correct":2,"trial_type":"three-arm-trial","trial_index":99,"time_elapsed":346330,"internal_node_id":"0.0-91.0-0.0","task_version":"screening-mturk","missing":false,"accuracy":0},{"contexts":["blue","green","red"],"outcomes":[1,0,1],"key":37,"choice":0,"rt":253.00000002607703,"outcome":1,"trial":86,"correct":2,"trial_type":"three-arm-trial","trial_index":100,"time_elapsed":347789,"internal_node_id":"0.0-92.0-0.0","task_version":"screening-mturk","missing":false,"accuracy":0},{"contexts":["blue","green","red"],"outcomes":[0,0,1],"key":39,"choice":2,"rt":258.00000014714897,"outcome":1,"trial":87,"correct":2,"trial_type":"three-arm-trial","trial_index":101,"time_elapsed":349251,"internal_node_id":"0.0-93.0-0.0","task_version":"screening-mturk","missing":false,"accuracy":1},{"contexts":["blue","green","red"],"outcomes":[0,0,1],"key":38,"choice":1,"rt":196.99999992735684,"outcome":0,"trial":88,"correct":2,"trial_type":"three-arm-trial","trial_index":102,"time_elapsed":350655,"internal_node_id":"0.0-94.0-0.0","task_version":"screening-mturk","missing":false,"accuracy":0},{"contexts":["blue","green","red"],"outcomes":[0,1,1],"key":37,"choice":0,"rt":222.00000006705523,"outcome":0,"trial":89,"correct":2,"trial_type":"three-arm-trial","trial_index":103,"time_elapsed":352085,"internal_node_id":"0.0-95.0-0.0","task_version":"screening-mturk","missing":false,"accuracy":0},{"contexts":["blue","green","red"],"outcomes":[0,0,1],"key":39,"choice":2,"rt":226.0000000242144,"outcome":1,"trial":90,"correct":2,"trial_type":"three-arm-trial","trial_index":104,"time_elapsed":353526,"internal_node_id":"0.0-96.0-0.0","task_version":"screening-mturk","missing":false,"accuracy":1},{"rt":23351.999999955297,"responses":{"age":"60","gender-categorical":"Male","gender-free-response":"","ethnicity":"Hispanic or Latino","race":["White"],"language":"Yes","fluency":"Well","prolific":"Yes","prolific-this-study":"Yes"},"survey":"demographics","trial_type":"survey-demo","trial_index":105,"time_elapsed":376888,"internal_node_id":"0.0-97.0","task_version":"screening-mturk","interactions":"[]"}]