[{"responses":{"Q07":"2","Q04":"3","Q03":"2","Q05":"3","Q06":"2","Q08":"3","Q02":"2","Q01":"3"},"rt":42973.99999998743,"survey":"gad7","trial_type":"survey-template","trial_index":0,"time_elapsed":43028,"internal_node_id":"0.0-0.0","task_version":"screening-mturk"},{"responses":{"Q13":"3","Q08":"2","Q11":"3","Q04":"2","Q07":"2","Q09":"3","Q12":"2","Q03":"2","Q02":"2","Q05":"3","Q01":"2","Q10":"3","Q06":"2"},"rt":44386.99999998789,"survey":"bisbas","trial_type":"survey-template","trial_index":1,"time_elapsed":87431,"internal_node_id":"0.0-1.0","task_version":"screening-mturk"},{"responses":{"Q03":"4","Q01":"3","Q02":"4"},"rt":14638.999999966472,"survey":"pswq","trial_type":"survey-template","trial_index":2,"time_elapsed":102079,"internal_node_id":"0.0-2.0","task_version":"screening-mturk"},{"responses":{"Q01":"2","Q04":"3","Q07":"2","Q13":"3","Q03":"2","Q09":"3","Q05":"2","Q06":"2","Q02":"3","Q11":"2","Q10":"3","Q15":"2","Q14":"2","Q08":"3","Q12":"2"},"rt":37141.99999999255,"survey":"shaps","trial_type":"survey-template","trial_index":3,"time_elapsed":139235,"internal_node_id":"0.0-3.0","task_version":"screening-mturk"},{"responses":{"Q10":"3","Q12":"2","Q09":"3","Q02":"2","Q01":"3","Q07":"2","Q06":"2","Q08":"3","Q11":"2","Q04":"3","Q05":"2","Q14":"3","Q15":"2","Q13":"3","Q03":"2"},"rt":36983.00000000745,"survey":"7up7down","trial_type":"survey-template","trial_index":4,"time_elapsed":176229,"internal_node_id":"0.0-4.0","task_version":"screening-mturk"},{"view_history":"[{\"page_index\":0,\"viewing_time\":15947.999999974854},{\"page_index\":1,\"viewing_time\":26646.000000007916},{\"page_index\":2,\"viewing_time\":14282.999999995809},{\"page_index\":3,\"viewing_time\":591.0000000149012},{\"page_index\":2,\"viewing_time\":1378.000000026077},{\"page_index\":1,\"viewing_time\":1219.9999999720603},{\"page_index\":2,\"viewing_time\":685.9999999869615},{\"page_index\":3,\"viewing_time\":15839.000000036322},{\"page_index\":4,\"viewing_time\":13289.999999979045},{\"page_index\":5,\"viewing_time\":13233.99999999674},{\"page_index\":6,\"viewing_time\":20234.99999998603},{\"page_index\":7,\"viewing_time\":23773.000000044703}]","rt":147124.0000000107,"trial_type":"instructions","trial_index":5,"time_elapsed":323357,"internal_node_id":"0.0-5.0-0.0","task_version":"screening-mturk"},{"responses":["True","True","False","True","True"],"num_errors":1,"rt":39250.99999998929,"trial_type":"three-arm-comprehension","trial_index":6,"time_elapsed":362619,"internal_node_id":"0.0-5.0-1.0","task_version":"screening-mturk"},{"view_history":"[{\"page_index\":0,\"viewing_time\":6300.999999977648},{\"page_index\":1,\"viewing_time\":15265.00000001397},{\"page_index\":2,\"viewing_time\":1309.9999999976717},{\"page_index\":3,\"viewing_time\":1964.0000000363216},{\"page_index\":4,\"viewing_time\":40.99999996833503},{\"page_index\":5,\"viewing_time\":1903.9999999804422},{\"page_index\":6,\"viewing_time\":1471.0000000195578},{\"page_index\":7,\"viewing_time\":847.9999999981374}]","rt":29104.999999981374,"trial_type":"instructions","trial_index":7,"time_elapsed":391735,"internal_node_id":"0.0-5.1-0.1","task_version":"screening-mturk"},{"responses":["True","True","True","False","True"],"num_errors":1,"rt":112504.00000001537,"trial_type":"three-arm-comprehension","trial_index":8,"time_elapsed":504246,"internal_node_id":"0.0-5.1-1.1","task_version":"screening-mturk"},{"view_history":"[{\"page_index\":0,\"viewing_time\":9811.00000004517},{\"page_index\":1,\"viewing_time\":12570.999999996275},{\"page_index\":2,\"viewing_time\":19421.99999996228},{\"page_index\":3,\"viewing_time\":6295.0000000419095},{\"page_index\":4,\"viewing_time\":4657.999999995809},{\"page_index\":5,\"viewing_time\":5229.999999981374},{\"page_index\":6,\"viewing_time\":9060.999999986961},{\"page_index\":7,\"viewing_time\":6041.000000026543}]","rt":73091.0000000149,"trial_type":"instructions","trial_index":9,"time_elapsed":577343,"internal_node_id":"0.0-5.2-0.2","task_version":"screening-mturk"},{"responses":["True","False","True","False","True"],"num_errors":2,"rt":23535.000000032596,"trial_type":"three-arm-comprehension","trial_index":10,"time_elapsed":600887,"internal_node_id":"0.0-5.2-1.2","task_version":"screening-mturk"},{"view_history":"[{\"page_index\":0,\"viewing_time\":5350.000000034925},{\"page_index\":1,\"viewing_time\":307.99999996088445},{\"page_index\":2,\"viewing_time\":320.9999999962747},{\"page_index\":3,\"viewing_time\":2179.0000000037253},{\"page_index\":2,\"viewing_time\":7987.000000022817},{\"page_index\":3,\"viewing_time\":2816.999999980908},{\"page_index\":4,\"viewing_time\":8212.999999988824},{\"page_index\":5,\"viewing_time\":1547.000000020489},{\"page_index\":4,\"viewing_time\":5052.000000025146},{\"page_index\":5,\"viewing_time\":14447.999999974854},{\"page_index\":6,\"viewing_time\":1717.000000004191},{\"page_index\":7,\"viewing_time\":1906.0000000172295}]","rt":51847.00000000885,"trial_type":"instructions","trial_index":11,"time_elapsed":652739,"internal_node_id":"0.0-5.3-0.3","task_version":"screening-mturk"},{"responses":["True","True","True","True","True"],"num_errors":2,"rt":14673.999999999069,"trial_type":"three-arm-comprehension","trial_index":12,"time_elapsed":667421,"internal_node_id":"0.0-5.3-1.3","task_version":"screening-mturk"},{"view_history":"[{\"page_index\":0,\"viewing_time\":2870.999999984633},{\"page_index\":1,\"viewing_time\":256.9999999832362},{\"page_index\":2,\"viewing_time\":279.0000000386499},{\"page_index\":3,\"viewing_time\":301.99999996693805},{\"page_index\":4,\"viewing_time\":255.9999999939464},{\"page_index\":5,\"viewing_time\":723.9999999874271},{\"page_index\":6,\"viewing_time\":1302.0000000251457},{\"page_index\":7,\"viewing_time\":2286.000000021886}]","rt":8277.999999991152,"trial_type":"instructions","trial_index":13,"time_elapsed":675705,"internal_node_id":"0.0-5.4-0.4","task_version":"screening-mturk"},{"responses":["True","True","False","True","True"],"num_errors":1,"rt":17157.99999999581,"trial_type":"three-arm-comprehension","trial_index":14,"time_elapsed":692871,"internal_node_id":"0.0-5.4-1.4","task_version":"screening-mturk"},{"view_history":"[{\"page_index\":0,\"viewing_time\":42766.00000000326},{\"page_index\":1,\"viewing_time\":16304.000000003725},{\"page_index\":2,\"viewing_time\":3497.0000000321306},{\"page_index\":3,\"viewing_time\":7865.999999979977},{\"page_index\":4,\"viewing_time\":10538.000000000466},{\"page_index\":5,\"viewing_time\":5634.000000020023},{\"page_index\":6,\"viewing_time\":3520.9999999497086},{\"page_index\":7,\"viewing_time\":1797.000000020489}]","rt":91923.99999999907,"trial_type":"instructions","trial_index":15,"time_elapsed":784800,"internal_node_id":"0.0-5.5-0.5","task_version":"screening-mturk"},{"responses":["True","True","True","False","True"],"num_errors":1,"rt":37766.99999999255,"trial_type":"three-arm-comprehension","trial_index":16,"time_elapsed":822576,"internal_node_id":"0.0-5.5-1.5","task_version":"screening-mturk"},{"view_history":"[{\"page_index\":0,\"viewing_time\":21812.99999996554},{\"page_index\":1,\"viewing_time\":633.0000000307336},{\"page_index\":2,\"viewing_time\":685.9999999869615},{\"page_index\":3,\"viewing_time\":773.9999999757856},{\"page_index\":4,\"viewing_time\":1504.0000000153668},{\"page_index\":5,\"viewing_time\":943.0000000284053},{\"page_index\":6,\"viewing_time\":975.9999999660067},{\"page_index\":7,\"viewing_time\":939.0000000130385}]","rt":28268.99999997113,"trial_type":"instructions","trial_index":17,"time_elapsed":850854,"internal_node_id":"0.0-5.6-0.6","task_version":"screening-mturk"},{"responses":["True","True","False","True","True"],"num_errors":1,"rt":18626.99999997858,"trial_type":"three-arm-comprehension","trial_index":18,"time_elapsed":869489,"internal_node_id":"0.0-5.6-1.6","task_version":"screening-mturk"},{"view_history":"[{\"page_index\":0,\"viewing_time\":3084.000000031665},{\"page_index\":1,\"viewing_time\":487.99999995389953},{\"page_index\":2,\"viewing_time\":1559.9999999976717},{\"page_index\":1,\"viewing_time\":226.0000000242144},{\"page_index\":0,\"viewing_time\":3047.000000020489},{\"page_index\":1,\"viewing_time\":23815.00000000233},{\"page_index\":2,\"viewing_time\":668.9999999944121},{\"page_index\":3,\"viewing_time\":670.9999999729916},{\"page_index\":4,\"viewing_time\":1029.00000003865},{\"page_index\":5,\"viewing_time\":942.9999999701977},{\"page_index\":6,\"viewing_time\":1065.0000000023283},{\"page_index\":7,\"viewing_time\":1614.9999999906868}]","rt":38212.999999988824,"trial_type":"instructions","trial_index":19,"time_elapsed":907708,"internal_node_id":"0.0-5.7-0.7","task_version":"screening-mturk"},{"responses":["False","False","False","False","False"],"num_errors":3,"rt":9602.000000013504,"trial_type":"three-arm-comprehension","trial_index":20,"time_elapsed":917320,"internal_node_id":"0.0-5.7-1.7","task_version":"screening-mturk"},{"view_history":"[{\"page_index\":0,\"viewing_time\":1860.0000000442378},{\"page_index\":1,\"viewing_time\":244.0000000060536},{\"page_index\":2,\"viewing_time\":259.99999995110556},{\"page_index\":3,\"viewing_time\":704.0000000270084},{\"page_index\":4,\"viewing_time\":728.000000002794},{\"page_index\":5,\"viewing_time\":904.999999969732},{\"page_index\":6,\"viewing_time\":980.0000000395812},{\"page_index\":7,\"viewing_time\":1393.999999971129}]","rt":7077.000000048429,"trial_type":"instructions","trial_index":21,"time_elapsed":924405,"internal_node_id":"0.0-5.8-0.8","task_version":"screening-mturk"},{"responses":["True","True","False","False","True"],"num_errors":0,"rt":12693.000000028405,"trial_type":"three-arm-comprehension","trial_index":22,"time_elapsed":937104,"internal_node_id":"0.0-5.8-1.8","task_version":"screening-mturk"},{"view_history":"[{\"page_index\":0,\"viewing_time\":12453.000000037719}]","rt":12454.000000027008,"trial_type":"instructions","trial_index":23,"time_elapsed":949564,"internal_node_id":"0.0-6.0","task_version":"screening-mturk"},{"contexts":["red","blue","green"],"outcomes":[1,0,0],"key":null,"rt":null,"trial":1,"correct":0,"trial_type":"three-arm-trial","trial_index":24,"time_elapsed":964589,"internal_node_id":"0.0-7.0-0.0","task_version":"screening-mturk","missing":true},{"contexts":["red","blue","green"],"outcomes":[1,0,0],"key":null,"rt":null,"trial":1,"correct":0,"trial_type":"three-arm-trial","trial_index":25,"time_elapsed":979599,"internal_node_id":"0.0-7.1-0.1","task_version":"screening-mturk","missing":true},{"contexts":["red","blue","green"],"outcomes":[1,0,0],"key":null,"rt":null,"trial":1,"correct":0,"trial_type":"three-arm-trial","trial_index":26,"time_elapsed":995226,"internal_node_id":"0.0-7.2-0.2","task_version":"screening-mturk","missing":true},{"contexts":["red","blue","green"],"outcomes":[1,0,0],"key":null,"rt":null,"trial":1,"correct":0,"trial_type":"three-arm-trial","trial_index":27,"time_elapsed":1010240,"internal_node_id":"0.0-7.3-0.3","task_version":"screening-mturk","missing":true},{"contexts":["red","blue","green"],"outcomes":[1,0,0],"key":null,"rt":null,"trial":1,"correct":0,"trial_type":"three-arm-trial","trial_index":28,"time_elapsed":1025245,"internal_node_id":"0.0-7.4-0.4","task_version":"screening-mturk","missing":true},{"contexts":["red","blue","green"],"outcomes":[1,0,0],"key":38,"choice":1,"rt":1710.999999952037,"outcome":0,"trial":1,"correct":0,"trial_type":"three-arm-trial","trial_index":29,"time_elapsed":1028186,"internal_node_id":"0.0-7.5-0.5","task_version":"screening-mturk","missing":false,"accuracy":0},{"contexts":["red","blue","green"],"outcomes":[0,0,0],"key":39,"choice":2,"rt":332.9999999841675,"outcome":0,"trial":2,"correct":0,"trial_type":"three-arm-trial","trial_index":30,"time_elapsed":1029738,"internal_node_id":"0.0-8.0-0.0","task_version":"screening-mturk","missing":false,"accuracy":0},{"contexts":["red","blue","green"],"outcomes":[1,1,0],"key":37,"choice":0,"rt":1292.0000000158325,"outcome":1,"trial":3,"correct":0,"trial_type":"three-arm-trial","trial_index":31,"time_elapsed":1032303,"internal_node_id":"0.0-9.0-0.0","task_version":"screening-mturk","missing":false,"accuracy":1},{"contexts":["red","blue","green"],"outcomes":[1,1,0],"key":37,"choice":0,"rt":2241.9999999692664,"outcome":1,"trial":4,"correct":0,"trial_type":"three-arm-trial","trial_index":32,"time_elapsed":1035766,"internal_node_id":"0.0-10.0-0.0","task_version":"screening-mturk","missing":false,"accuracy":1},{"contexts":["red","blue","green"],"outcomes":[1,0,0],"key":37,"choice":0,"rt":2415.999999968335,"outcome":1,"trial":5,"correct":0,"trial_type":"three-arm-trial","trial_index":33,"time_elapsed":1039400,"internal_node_id":"0.0-11.0-0.0","task_version":"screening-mturk","missing":false,"accuracy":1},{"contexts":["red","blue","green"],"outcomes":[0,1,1],"key":37,"choice":0,"rt":1185.9999999869615,"outcome":0,"trial":6,"correct":0,"trial_type":"three-arm-trial","trial_index":34,"time_elapsed":1041803,"internal_node_id":"0.0-12.0-0.0","task_version":"screening-mturk","missing":false,"accuracy":1},{"contexts":["red","blue","green"],"outcomes":[1,1,0],"key":39,"choice":2,"rt":285.9999999636784,"outcome":0,"trial":7,"correct":0,"trial_type":"three-arm-trial","trial_index":35,"time_elapsed":1043299,"internal_node_id":"0.0-13.0-0.0","task_version":"screening-mturk","missing":false,"accuracy":0},{"contexts":["red","blue","green"],"outcomes":[1,0,0],"key":38,"choice":1,"rt":1033.9999999850988,"outcome":0,"trial":8,"correct":0,"trial_type":"three-arm-trial","trial_index":36,"time_elapsed":1045589,"internal_node_id":"0.0-14.0-0.0","task_version":"screening-mturk","missing":false,"accuracy":0},{"contexts":["red","blue","green"],"outcomes":[1,0,0],"key":37,"choice":0,"rt":367.000000027474,"outcome":1,"trial":9,"correct":0,"trial_type":"three-arm-trial","trial_index":37,"time_elapsed":1047174,"internal_node_id":"0.0-15.0-0.0","task_version":"screening-mturk","missing":false,"accuracy":1},{"contexts":["red","blue","green"],"outcomes":[0,1,1],"key":37,"choice":0,"rt":277.00000000186265,"outcome":0,"trial":10,"correct":0,"trial_type":"three-arm-trial","trial_index":38,"time_elapsed":1048677,"internal_node_id":"0.0-16.0-0.0","task_version":"screening-mturk","missing":false,"accuracy":1},{"contexts":["red","blue","green"],"outcomes":[1,0,0],"key":39,"choice":2,"rt":646.0000000079162,"outcome":0,"trial":11,"correct":0,"trial_type":"three-arm-trial","trial_index":39,"time_elapsed":1050528,"internal_node_id":"0.0-17.0-0.0","task_version":"screening-mturk","missing":false,"accuracy":0},{"contexts":["red","blue","green"],"outcomes":[1,1,0],"key":38,"choice":1,"rt":804.9999999930151,"outcome":1,"trial":12,"correct":0,"trial_type":"three-arm-trial","trial_index":40,"time_elapsed":1052585,"internal_node_id":"0.0-18.0-0.0","task_version":"screening-mturk","missing":false,"accuracy":0},{"contexts":["red","blue","green"],"outcomes":[1,0,1],"key":38,"choice":1,"rt":117.00000002747402,"outcome":0,"trial":13,"correct":0,"trial_type":"three-arm-trial","trial_index":41,"time_elapsed":1053909,"internal_node_id":"0.0-19.0-0.0","task_version":"screening-mturk","missing":false,"accuracy":0},{"contexts":["red","blue","green"],"outcomes":[1,1,0],"key":37,"choice":0,"rt":210.00000002095476,"outcome":1,"trial":14,"correct":0,"trial_type":"three-arm-trial","trial_index":42,"time_elapsed":1055339,"internal_node_id":"0.0-20.0-0.0","task_version":"screening-mturk","missing":false,"accuracy":1},{"contexts":["red","blue","green"],"outcomes":[1,0,0],"key":37,"choice":0,"rt":673.9999999990687,"outcome":1,"trial":15,"correct":0,"trial_type":"three-arm-trial","trial_index":43,"time_elapsed":1057223,"internal_node_id":"0.0-21.0-0.0","task_version":"screening-mturk","missing":false,"accuracy":1},{"contexts":["red","blue","green"],"outcomes":[0,0,1],"key":37,"choice":0,"rt":819.9999999487773,"outcome":0,"trial":16,"correct":2,"trial_type":"three-arm-trial","trial_index":44,"time_elapsed":1059295,"internal_node_id":"0.0-22.0-0.0","task_version":"screening-mturk","missing":false,"accuracy":0},{"contexts":["red","blue","green"],"outcomes":[0,0,1],"key":39,"choice":2,"rt":196.9999999855645,"outcome":1,"trial":17,"correct":2,"trial_type":"three-arm-trial","trial_index":45,"time_elapsed":1060699,"internal_node_id":"0.0-23.0-0.0","task_version":"screening-mturk","missing":false,"accuracy":1},{"contexts":["red","blue","green"],"outcomes":[0,0,0],"key":38,"choice":1,"rt":161.00000002188608,"outcome":0,"trial":18,"correct":2,"trial_type":"three-arm-trial","trial_index":46,"time_elapsed":1062063,"internal_node_id":"0.0-24.0-0.0","task_version":"screening-mturk","missing":false,"accuracy":0},{"contexts":["red","blue","green"],"outcomes":[0,0,1],"key":37,"choice":0,"rt":54.00000000372529,"outcome":0,"trial":19,"correct":2,"trial_type":"three-arm-trial","trial_index":47,"time_elapsed":1063343,"internal_node_id":"0.0-25.0-0.0","task_version":"screening-mturk","missing":false,"accuracy":0},{"contexts":["red","blue","green"],"outcomes":[0,0,1],"key":38,"choice":1,"rt":700.0000000116415,"outcome":0,"trial":20,"correct":2,"trial_type":"three-arm-trial","trial_index":48,"time_elapsed":1065271,"internal_node_id":"0.0-26.0-0.0","task_version":"screening-mturk","missing":false,"accuracy":0},{"contexts":["red","blue","green"],"outcomes":[0,0,1],"key":39,"choice":2,"rt":151.00000001257285,"outcome":1,"trial":21,"correct":2,"trial_type":"three-arm-trial","trial_index":49,"time_elapsed":1066679,"internal_node_id":"0.0-27.0-0.0","task_version":"screening-mturk","missing":false,"accuracy":1},{"contexts":["red","blue","green"],"outcomes":[0,0,1],"key":39,"choice":2,"rt":285.0000000325963,"outcome":1,"trial":22,"correct":2,"trial_type":"three-arm-trial","trial_index":50,"time_elapsed":1068177,"internal_node_id":"0.0-28.0-0.0","task_version":"screening-mturk","missing":false,"accuracy":1},{"contexts":["red","blue","green"],"outcomes":[0,0,1],"key":39,"choice":2,"rt":227.00000001350418,"outcome":1,"trial":23,"correct":2,"trial_type":"three-arm-trial","trial_index":51,"time_elapsed":1069615,"internal_node_id":"0.0-29.0-0.0","task_version":"screening-mturk","missing":false,"accuracy":1},{"contexts":["red","blue","green"],"outcomes":[1,0,1],"key":39,"choice":2,"rt":147.99999998649582,"outcome":1,"trial":24,"correct":2,"trial_type":"three-arm-trial","trial_index":52,"time_elapsed":1070968,"internal_node_id":"0.0-30.0-0.0","task_version":"screening-mturk","missing":false,"accuracy":1},{"contexts":["red","blue","green"],"outcomes":[0,0,1],"key":39,"choice":2,"rt":59.999999997671694,"outcome":1,"trial":25,"correct":2,"trial_type":"three-arm-trial","trial_index":53,"time_elapsed":1072239,"internal_node_id":"0.0-31.0-0.0","task_version":"screening-mturk","missing":false,"accuracy":1},{"contexts":["red","blue","green"],"outcomes":[0,0,0],"key":39,"choice":2,"rt":175.99999997764826,"outcome":0,"trial":26,"correct":2,"trial_type":"three-arm-trial","trial_index":54,"time_elapsed":1073621,"internal_node_id":"0.0-32.0-0.0","task_version":"screening-mturk","missing":false,"accuracy":1},{"contexts":["red","blue","green"],"outcomes":[1,1,1],"key":38,"choice":1,"rt":151.00000001257285,"outcome":1,"trial":27,"correct":2,"trial_type":"three-arm-trial","trial_index":55,"time_elapsed":1074999,"internal_node_id":"0.0-33.0-0.0","task_version":"screening-mturk","missing":false,"accuracy":0},{"contexts":["red","blue","green"],"outcomes":[0,0,1],"key":38,"choice":1,"rt":120.99999998463318,"outcome":0,"trial":28,"correct":2,"trial_type":"three-arm-trial","trial_index":56,"time_elapsed":1076334,"internal_node_id":"0.0-34.0-0.0","task_version":"screening-mturk","missing":false,"accuracy":0},{"contexts":["red","blue","green"],"outcomes":[0,1,1],"key":37,"choice":0,"rt":62.000000034458935,"outcome":0,"trial":29,"correct":2,"trial_type":"three-arm-trial","trial_index":57,"time_elapsed":1077629,"internal_node_id":"0.0-35.0-0.0","task_version":"screening-mturk","missing":false,"accuracy":0},{"contexts":["red","blue","green"],"outcomes":[0,0,1],"key":39,"choice":2,"rt":180.99999998230487,"outcome":1,"trial":30,"correct":2,"trial_type":"three-arm-trial","trial_index":58,"time_elapsed":1079026,"internal_node_id":"0.0-36.0-0.0","task_version":"screening-mturk","missing":false,"accuracy":1},{"contexts":["red","blue","green"],"outcomes":[1,1,0],"key":38,"choice":1,"rt":157.00000000651926,"outcome":1,"trial":31,"correct":1,"trial_type":"three-arm-trial","trial_index":59,"time_elapsed":1080391,"internal_node_id":"0.0-37.0-0.0","task_version":"screening-mturk","missing":false,"accuracy":1},{"contexts":["red","blue","green"],"outcomes":[0,1,0],"key":37,"choice":0,"rt":2730.9999999706633,"outcome":0,"trial":32,"correct":1,"trial_type":"three-arm-trial","trial_index":60,"time_elapsed":1084350,"internal_node_id":"0.0-38.0-0.0","task_version":"screening-mturk","missing":false,"accuracy":0},{"contexts":["red","blue","green"],"outcomes":[0,0,0],"key":39,"choice":2,"rt":301.0000000358559,"outcome":0,"trial":33,"correct":1,"trial_type":"three-arm-trial","trial_index":61,"time_elapsed":1085856,"internal_node_id":"0.0-39.0-0.0","task_version":"screening-mturk","missing":false,"accuracy":0},{"contexts":["red","blue","green"],"outcomes":[1,0,0],"key":38,"choice":1,"rt":850.0000000349246,"outcome":0,"trial":34,"correct":1,"trial_type":"three-arm-trial","trial_index":62,"time_elapsed":1087929,"internal_node_id":"0.0-40.0-0.0","task_version":"screening-mturk","missing":false,"accuracy":1},{"contexts":["red","blue","green"],"outcomes":[0,0,0],"key":37,"choice":0,"rt":96.9999999506399,"outcome":0,"trial":35,"correct":1,"trial_type":"three-arm-trial","trial_index":63,"time_elapsed":1089231,"internal_node_id":"0.0-41.0-0.0","task_version":"screening-mturk","missing":false,"accuracy":0},{"contexts":["red","blue","green"],"outcomes":[0,1,1],"key":39,"choice":2,"rt":452.0000000484288,"outcome":1,"trial":36,"correct":1,"trial_type":"three-arm-trial","trial_index":64,"time_elapsed":1090912,"internal_node_id":"0.0-42.0-0.0","task_version":"screening-mturk","missing":false,"accuracy":0},{"contexts":["red","blue","green"],"outcomes":[1,1,0],"key":39,"choice":2,"rt":114.00000000139698,"outcome":0,"trial":37,"correct":1,"trial_type":"three-arm-trial","trial_index":65,"time_elapsed":1092244,"internal_node_id":"0.0-43.0-0.0","task_version":"screening-mturk","missing":false,"accuracy":0},{"contexts":["red","blue","green"],"outcomes":[0,1,0],"key":38,"choice":1,"rt":378.99999995715916,"outcome":1,"trial":38,"correct":1,"trial_type":"three-arm-trial","trial_index":66,"time_elapsed":1093833,"internal_node_id":"0.0-44.0-0.0","task_version":"screening-mturk","missing":false,"accuracy":1},{"contexts":["red","blue","green"],"outcomes":[0,1,0],"key":38,"choice":1,"rt":65.0000000023283,"outcome":1,"trial":39,"correct":1,"trial_type":"three-arm-trial","trial_index":67,"time_elapsed":1095108,"internal_node_id":"0.0-45.0-0.0","task_version":"screening-mturk","missing":false,"accuracy":1},{"contexts":["red","blue","green"],"outcomes":[0,1,0],"key":38,"choice":1,"rt":92.00000000419095,"outcome":1,"trial":40,"correct":1,"trial_type":"three-arm-trial","trial_index":68,"time_elapsed":1096405,"internal_node_id":"0.0-46.0-0.0","task_version":"screening-mturk","missing":false,"accuracy":1},{"contexts":["red","blue","green"],"outcomes":[0,0,0],"key":38,"choice":1,"rt":86.00000001024455,"outcome":0,"trial":41,"correct":1,"trial_type":"three-arm-trial","trial_index":69,"time_elapsed":1097701,"internal_node_id":"0.0-47.0-0.0","task_version":"screening-mturk","missing":false,"accuracy":1},{"contexts":["red","blue","green"],"outcomes":[0,1,0],"key":39,"choice":2,"rt":1279.999999969732,"outcome":0,"trial":42,"correct":1,"trial_type":"three-arm-trial","trial_index":70,"time_elapsed":1100185,"internal_node_id":"0.0-48.0-0.0","task_version":"screening-mturk","missing":false,"accuracy":0},{"contexts":["red","blue","green"],"outcomes":[0,1,0],"key":37,"choice":0,"rt":92.00000000419095,"outcome":0,"trial":43,"correct":1,"trial_type":"three-arm-trial","trial_index":71,"time_elapsed":1101489,"internal_node_id":"0.0-49.0-0.0","task_version":"screening-mturk","missing":false,"accuracy":0},{"contexts":["red","blue","green"],"outcomes":[1,0,0],"key":39,"choice":2,"rt":116.99999996926636,"outcome":0,"trial":44,"correct":1,"trial_type":"three-arm-trial","trial_index":72,"time_elapsed":1102810,"internal_node_id":"0.0-50.0-0.0","task_version":"screening-mturk","missing":false,"accuracy":0},{"contexts":["red","blue","green"],"outcomes":[1,0,0],"key":39,"choice":2,"rt":86.00000001024455,"outcome":0,"trial":45,"correct":1,"trial_type":"three-arm-trial","trial_index":73,"time_elapsed":1104125,"internal_node_id":"0.0-51.0-0.0","task_version":"screening-mturk","missing":false,"accuracy":0},{"contexts":["red","blue","green"],"outcomes":[1,0,1],"key":37,"choice":0,"rt":151.00000001257285,"outcome":1,"trial":46,"correct":2,"trial_type":"three-arm-trial","trial_index":74,"time_elapsed":1105495,"internal_node_id":"0.0-52.0-0.0","task_version":"screening-mturk","missing":false,"accuracy":0},{"contexts":["red","blue","green"],"outcomes":[1,0,1],"key":37,"choice":0,"rt":79.99999995809048,"outcome":1,"trial":47,"correct":2,"trial_type":"three-arm-trial","trial_index":75,"time_elapsed":1106796,"internal_node_id":"0.0-53.0-0.0","task_version":"screening-mturk","missing":false,"accuracy":0},{"contexts":["red","blue","green"],"outcomes":[0,0,1],"key":37,"choice":0,"rt":131.9999999832362,"outcome":0,"trial":48,"correct":2,"trial_type":"three-arm-trial","trial_index":76,"time_elapsed":1108141,"internal_node_id":"0.0-54.0-0.0","task_version":"screening-mturk","missing":false,"accuracy":0},{"contexts":["red","blue","green"],"outcomes":[0,1,1],"key":39,"choice":2,"rt":282.99999999580905,"outcome":1,"trial":49,"correct":2,"trial_type":"three-arm-trial","trial_index":77,"time_elapsed":1109648,"internal_node_id":"0.0-55.0-0.0","task_version":"screening-mturk","missing":false,"accuracy":1},{"contexts":["red","blue","green"],"outcomes":[0,1,1],"key":39,"choice":2,"rt":60.999999986961484,"outcome":1,"trial":50,"correct":2,"trial_type":"three-arm-trial","trial_index":78,"time_elapsed":1110932,"internal_node_id":"0.0-56.0-0.0","task_version":"screening-mturk","missing":false,"accuracy":1},{"contexts":["red","blue","green"],"outcomes":[0,0,0],"key":39,"choice":2,"rt":190.9999999916181,"outcome":0,"trial":51,"correct":2,"trial_type":"three-arm-trial","trial_index":79,"time_elapsed":1112344,"internal_node_id":"0.0-57.0-0.0","task_version":"screening-mturk","missing":false,"accuracy":1},{"contexts":["red","blue","green"],"outcomes":[0,0,1],"key":37,"choice":0,"rt":233.00000000745058,"outcome":0,"trial":52,"correct":2,"trial_type":"three-arm-trial","trial_index":80,"time_elapsed":1113807,"internal_node_id":"0.0-58.0-0.0","task_version":"screening-mturk","missing":false,"accuracy":0},{"contexts":["red","blue","green"],"outcomes":[0,0,1],"key":39,"choice":2,"rt":804.9999999930151,"outcome":1,"trial":53,"correct":2,"trial_type":"three-arm-trial","trial_index":81,"time_elapsed":1115829,"internal_node_id":"0.0-59.0-0.0","task_version":"screening-mturk","missing":false,"accuracy":1},{"contexts":["red","blue","green"],"outcomes":[0,1,1],"key":39,"choice":2,"rt":65.0000000023283,"outcome":1,"trial":54,"correct":2,"trial_type":"three-arm-trial","trial_index":82,"time_elapsed":1117118,"internal_node_id":"0.0-60.0-0.0","task_version":"screening-mturk","missing":false,"accuracy":1},{"contexts":["red","blue","green"],"outcomes":[0,0,1],"key":39,"choice":2,"rt":92.99999999348074,"outcome":1,"trial":55,"correct":2,"trial_type":"three-arm-trial","trial_index":83,"time_elapsed":1118428,"internal_node_id":"0.0-61.0-0.0","task_version":"screening-mturk","missing":false,"accuracy":1},{"contexts":["red","blue","green"],"outcomes":[1,0,1],"key":39,"choice":2,"rt":63.000000023748726,"outcome":1,"trial":56,"correct":2,"trial_type":"three-arm-trial","trial_index":84,"time_elapsed":1119710,"internal_node_id":"0.0-62.0-0.0","task_version":"screening-mturk","missing":false,"accuracy":1},{"contexts":["red","blue","green"],"outcomes":[0,0,1],"key":39,"choice":2,"rt":69.00000001769513,"outcome":1,"trial":57,"correct":2,"trial_type":"three-arm-trial","trial_index":85,"time_elapsed":1120992,"internal_node_id":"0.0-63.0-0.0","task_version":"screening-mturk","missing":false,"accuracy":1},{"contexts":["red","blue","green"],"outcomes":[0,0,1],"key":39,"choice":2,"rt":125.99999998928979,"outcome":1,"trial":58,"correct":2,"trial_type":"three-arm-trial","trial_index":86,"time_elapsed":1122325,"internal_node_id":"0.0-64.0-0.0","task_version":"screening-mturk","missing":false,"accuracy":1},{"contexts":["red","blue","green"],"outcomes":[0,0,1],"key":39,"choice":2,"rt":9.000000020023435,"outcome":1,"trial":59,"correct":2,"trial_type":"three-arm-trial","trial_index":87,"time_elapsed":1123554,"internal_node_id":"0.0-65.0-0.0","task_version":"screening-mturk","missing":false,"accuracy":1},{"contexts":["red","blue","green"],"outcomes":[1,0,1],"key":39,"choice":2,"rt":97.99999999813735,"outcome":1,"trial":60,"correct":2,"trial_type":"three-arm-trial","trial_index":88,"time_elapsed":1124859,"internal_node_id":"0.0-66.0-0.0","task_version":"screening-mturk","missing":false,"accuracy":1},{"contexts":["red","blue","green"],"outcomes":[1,0,1],"key":39,"choice":2,"rt":153.0000000493601,"outcome":1,"trial":61,"correct":0,"trial_type":"three-arm-trial","trial_index":89,"time_elapsed":1126222,"internal_node_id":"0.0-67.0-0.0","task_version":"screening-mturk","missing":false,"accuracy":0},{"contexts":["red","blue","green"],"outcomes":[1,0,0],"key":39,"choice":2,"rt":173.99999999906868,"outcome":0,"trial":62,"correct":0,"trial_type":"three-arm-trial","trial_index":90,"time_elapsed":1127613,"internal_node_id":"0.0-68.0-0.0","task_version":"screening-mturk","missing":false,"accuracy":0},{"contexts":["red","blue","green"],"outcomes":[1,0,0],"key":38,"choice":1,"rt":2084.999999962747,"outcome":0,"trial":63,"correct":0,"trial_type":"three-arm-trial","trial_index":91,"time_elapsed":1130920,"internal_node_id":"0.0-69.0-0.0","task_version":"screening-mturk","missing":false,"accuracy":0},{"contexts":["red","blue","green"],"outcomes":[1,0,0],"key":37,"choice":0,"rt":169.99999998370185,"outcome":1,"trial":64,"correct":0,"trial_type":"three-arm-trial","trial_index":92,"time_elapsed":1132299,"internal_node_id":"0.0-70.0-0.0","task_version":"screening-mturk","missing":false,"accuracy":1},{"contexts":["red","blue","green"],"outcomes":[1,0,0],"key":39,"choice":2,"rt":92.99999999348074,"outcome":0,"trial":65,"correct":0,"trial_type":"three-arm-trial","trial_index":93,"time_elapsed":1133596,"internal_node_id":"0.0-71.0-0.0","task_version":"screening-mturk","missing":false,"accuracy":0},{"contexts":["red","blue","green"],"outcomes":[1,0,1],"key":37,"choice":0,"rt":517.9999999818392,"outcome":1,"trial":66,"correct":0,"trial_type":"three-arm-trial","trial_index":94,"time_elapsed":1135346,"internal_node_id":"0.0-72.0-0.0","task_version":"screening-mturk","missing":false,"accuracy":1},{"contexts":["red","blue","green"],"outcomes":[1,0,0],"key":38,"choice":1,"rt":123.00000002142042,"outcome":0,"trial":67,"correct":0,"trial_type":"three-arm-trial","trial_index":95,"time_elapsed":1136682,"internal_node_id":"0.0-73.0-0.0","task_version":"screening-mturk","missing":false,"accuracy":0},{"contexts":["red","blue","green"],"outcomes":[0,0,0],"key":39,"choice":2,"rt":239.99999999068677,"outcome":0,"trial":68,"correct":0,"trial_type":"three-arm-trial","trial_index":96,"time_elapsed":1138127,"internal_node_id":"0.0-74.0-0.0","task_version":"screening-mturk","missing":false,"accuracy":0},{"contexts":["red","blue","green"],"outcomes":[1,0,0],"key":37,"choice":0,"rt":320.0000000069849,"outcome":1,"trial":69,"correct":0,"trial_type":"three-arm-trial","trial_index":97,"time_elapsed":1139664,"internal_node_id":"0.0-75.0-0.0","task_version":"screening-mturk","missing":false,"accuracy":1},{"contexts":["red","blue","green"],"outcomes":[1,0,1],"key":37,"choice":0,"rt":124.00000001071021,"outcome":1,"trial":70,"correct":0,"trial_type":"three-arm-trial","trial_index":98,"time_elapsed":1140999,"internal_node_id":"0.0-76.0-0.0","task_version":"screening-mturk","missing":false,"accuracy":1},{"contexts":["red","blue","green"],"outcomes":[1,0,1],"key":37,"choice":0,"rt":103.00000000279397,"outcome":1,"trial":71,"correct":0,"trial_type":"three-arm-trial","trial_index":99,"time_elapsed":1142309,"internal_node_id":"0.0-77.0-0.0","task_version":"screening-mturk","missing":false,"accuracy":1},{"contexts":["red","blue","green"],"outcomes":[1,0,0],"key":37,"choice":0,"rt":81.00000000558794,"outcome":1,"trial":72,"correct":0,"trial_type":"three-arm-trial","trial_index":100,"time_elapsed":1143596,"internal_node_id":"0.0-78.0-0.0","task_version":"screening-mturk","missing":false,"accuracy":1},{"contexts":["red","blue","green"],"outcomes":[1,0,1],"key":37,"choice":0,"rt":114.99999999068677,"outcome":1,"trial":73,"correct":0,"trial_type":"three-arm-trial","trial_index":101,"time_elapsed":1144925,"internal_node_id":"0.0-79.0-0.0","task_version":"screening-mturk","missing":false,"accuracy":1},{"contexts":["red","blue","green"],"outcomes":[1,0,1],"key":37,"choice":0,"rt":6.999999983236194,"outcome":1,"trial":74,"correct":0,"trial_type":"three-arm-trial","trial_index":102,"time_elapsed":1146140,"internal_node_id":"0.0-80.0-0.0","task_version":"screening-mturk","missing":false,"accuracy":1},{"contexts":["red","blue","green"],"outcomes":[1,0,0],"key":37,"choice":0,"rt":43.999999994412065,"outcome":1,"trial":75,"correct":0,"trial_type":"three-arm-trial","trial_index":103,"time_elapsed":1147396,"internal_node_id":"0.0-81.0-0.0","task_version":"screening-mturk","missing":false,"accuracy":1},{"contexts":["red","blue","green"],"outcomes":[1,0,1],"key":37,"choice":0,"rt":96.9999999506399,"outcome":1,"trial":76,"correct":2,"trial_type":"three-arm-trial","trial_index":104,"time_elapsed":1148700,"internal_node_id":"0.0-82.0-0.0","task_version":"screening-mturk","missing":false,"accuracy":0},{"contexts":["red","blue","green"],"outcomes":[0,0,0],"key":37,"choice":0,"rt":102.00000001350418,"outcome":0,"trial":77,"correct":2,"trial_type":"three-arm-trial","trial_index":105,"time_elapsed":1150013,"internal_node_id":"0.0-83.0-0.0","task_version":"screening-mturk","missing":false,"accuracy":0},{"contexts":["red","blue","green"],"outcomes":[0,0,1],"key":39,"choice":2,"rt":169.99999998370185,"outcome":1,"trial":78,"correct":2,"trial_type":"three-arm-trial","trial_index":106,"time_elapsed":1151393,"internal_node_id":"0.0-84.0-0.0","task_version":"screening-mturk","missing":false,"accuracy":1},{"contexts":["red","blue","green"],"outcomes":[0,0,1],"key":39,"choice":2,"rt":155.00000002793968,"outcome":1,"trial":79,"correct":2,"trial_type":"three-arm-trial","trial_index":107,"time_elapsed":1152764,"internal_node_id":"0.0-85.0-0.0","task_version":"screening-mturk","missing":false,"accuracy":1},{"contexts":["red","blue","green"],"outcomes":[0,0,1],"key":39,"choice":2,"rt":118.0000000167638,"outcome":1,"trial":80,"correct":2,"trial_type":"three-arm-trial","trial_index":108,"time_elapsed":1154099,"internal_node_id":"0.0-86.0-0.0","task_version":"screening-mturk","missing":false,"accuracy":1},{"contexts":["red","blue","green"],"outcomes":[0,0,1],"key":39,"choice":2,"rt":210.00000002095476,"outcome":1,"trial":81,"correct":2,"trial_type":"three-arm-trial","trial_index":109,"time_elapsed":1155516,"internal_node_id":"0.0-87.0-0.0","task_version":"screening-mturk","missing":false,"accuracy":1},{"contexts":["red","blue","green"],"outcomes":[0,0,1],"key":39,"choice":2,"rt":65.0000000023283,"outcome":1,"trial":82,"correct":2,"trial_type":"three-arm-trial","trial_index":110,"time_elapsed":1156799,"internal_node_id":"0.0-88.0-0.0","task_version":"screening-mturk","missing":false,"accuracy":1},{"contexts":["red","blue","green"],"outcomes":[0,0,0],"key":39,"choice":2,"rt":166.0000000265427,"outcome":0,"trial":83,"correct":2,"trial_type":"three-arm-trial","trial_index":111,"time_elapsed":1158173,"internal_node_id":"0.0-89.0-0.0","task_version":"screening-mturk","missing":false,"accuracy":1},{"contexts":["red","blue","green"],"outcomes":[0,0,1],"key":38,"choice":1,"rt":442.00000003911555,"outcome":0,"trial":84,"correct":2,"trial_type":"three-arm-trial","trial_index":112,"time_elapsed":1159835,"internal_node_id":"0.0-90.0-0.0","task_version":"screening-mturk","missing":false,"accuracy":0},{"contexts":["red","blue","green"],"outcomes":[1,0,1],"key":39,"choice":2,"rt":280.0000000279397,"outcome":1,"trial":85,"correct":2,"trial_type":"three-arm-trial","trial_index":113,"time_elapsed":1161341,"internal_node_id":"0.0-91.0-0.0","task_version":"screening-mturk","missing":false,"accuracy":1},{"contexts":["red","blue","green"],"outcomes":[0,0,1],"key":39,"choice":2,"rt":55.00000005122274,"outcome":1,"trial":86,"correct":2,"trial_type":"three-arm-trial","trial_index":114,"time_elapsed":1162609,"internal_node_id":"0.0-92.0-0.0","task_version":"screening-mturk","missing":false,"accuracy":1},{"contexts":["red","blue","green"],"outcomes":[0,0,1],"key":39,"choice":2,"rt":163.99999998975545,"outcome":1,"trial":87,"correct":2,"trial_type":"three-arm-trial","trial_index":115,"time_elapsed":1163991,"internal_node_id":"0.0-93.0-0.0","task_version":"screening-mturk","missing":false,"accuracy":1},{"contexts":["red","blue","green"],"outcomes":[0,0,1],"key":39,"choice":2,"rt":146.00000000791624,"outcome":1,"trial":88,"correct":2,"trial_type":"three-arm-trial","trial_index":116,"time_elapsed":1165342,"internal_node_id":"0.0-94.0-0.0","task_version":"screening-mturk","missing":false,"accuracy":1},{"contexts":["red","blue","green"],"outcomes":[0,1,1],"key":38,"choice":1,"rt":2607.999999949243,"outcome":1,"trial":89,"correct":2,"trial_type":"three-arm-trial","trial_index":117,"time_elapsed":1169155,"internal_node_id":"0.0-95.0-0.0","task_version":"screening-mturk","missing":false,"accuracy":0},{"contexts":["red","blue","green"],"outcomes":[0,0,1],"key":38,"choice":1,"rt":146.99999999720603,"outcome":0,"trial":90,"correct":2,"trial_type":"three-arm-trial","trial_index":118,"time_elapsed":1170515,"internal_node_id":"0.0-96.0-0.0","task_version":"screening-mturk","missing":false,"accuracy":0},{"rt":63988.00000001211,"responses":{"age":"30","gender-categorical":"Male","gender-free-response":"","ethnicity":"Not Hispanic or Latino","race":["Black or African American"],"language":"Yes","fluency":"Very well","prolific":"Yes","prolific-this-study":"Yes"},"survey":"demographics","trial_type":"survey-demo","trial_index":119,"time_elapsed":1234519,"internal_node_id":"0.0-97.0","task_version":"screening-mturk","interactions":"[{\"event\":\"blur\",\"trial\":15,\"time\":699967},{\"event\":\"focus\",\"trial\":15,\"time\":724427},{\"event\":\"blur\",\"trial\":15,\"time\":734019},{\"event\":\"focus\",\"trial\":15,\"time\":734415}]"}]