[{"responses":{"Q13":"2","Q10":"2","Q15":"2","Q11":"2","Q02":"3","Q05":"3","Q06":"3","Q12":"3","Q08":"3","Q07":"3","Q01":"2","Q03":"3","Q09":"2","Q14":"2","Q04":"3"},"rt":98103.57499984093,"survey":"shaps","trial_type":"survey-template","trial_index":0,"time_elapsed":98121,"internal_node_id":"0.0-0.0","task_version":"screening-mturk"},{"responses":{"Q03":"2","Q01":"1","Q02":"1"},"rt":30973.8499999512,"survey":"pswq","trial_type":"survey-template","trial_index":1,"time_elapsed":129103,"internal_node_id":"0.0-1.0","task_version":"screening-mturk"},{"responses":{"Q07":"1","Q02":"1","Q05":"1","Q04":"2","Q01":"1","Q08":"0","Q06":"1","Q03":"2"},"rt":48404.04499997385,"survey":"gad7","trial_type":"survey-template","trial_index":2,"time_elapsed":177515,"internal_node_id":"0.0-2.0","task_version":"screening-mturk"},{"responses":{"Q04":"1","Q13":"3","Q10":"2","Q12":"1","Q06":"2","Q11":"2","Q07":"2","Q08":"3","Q01":"2","Q02":"3","Q09":"3","Q03":"2","Q05":"2"},"rt":73407.43000013754,"survey":"bisbas","trial_type":"survey-template","trial_index":3,"time_elapsed":250930,"internal_node_id":"0.0-3.0","task_version":"screening-mturk"},{"responses":{"Q13":"2","Q02":"1","Q10":"1","Q07":"3","Q06":"2","Q11":"1","Q15":"0","Q09":"1","Q03":"0","Q12":"1","Q01":"1","Q05":"2","Q04":"3","Q08":"2","Q14":"2"},"rt":92561.20999995619,"survey":"7up7down","trial_type":"survey-template","trial_index":4,"time_elapsed":343499,"internal_node_id":"0.0-4.0","task_version":"screening-mturk"},{"view_history":"[{\"page_index\":0,\"viewing_time\":18791.005000006407},{\"page_index\":1,\"viewing_time\":43747.639999957755},{\"page_index\":2,\"viewing_time\":23206.65999990888},{\"page_index\":3,\"viewing_time\":34587.63000019826},{\"page_index\":4,\"viewing_time\":87853.59499999322},{\"page_index\":5,\"viewing_time\":12950.100000016391},{\"page_index\":6,\"viewing_time\":16037.404999835417},{\"page_index\":7,\"viewing_time\":12599.44500005804}]","rt":249774.42499995232,"trial_type":"instructions","trial_index":5,"time_elapsed":593293,"internal_node_id":"0.0-5.0-0.0","task_version":"screening-mturk"},{"responses":["True","True","False","False","True"],"num_errors":0,"rt":60544.86000002362,"trial_type":"three-arm-comprehension","trial_index":6,"time_elapsed":653845,"internal_node_id":"0.0-5.0-1.0","task_version":"screening-mturk"},{"view_history":"[{\"page_index\":0,\"viewing_time\":9242.25000012666}]","rt":9242.57000000216,"trial_type":"instructions","trial_index":7,"time_elapsed":663091,"internal_node_id":"0.0-6.0","task_version":"screening-mturk"},{"contexts":["red","green","blue"],"outcomes":[0,0,1],"key":null,"rt":null,"trial":1,"correct":2,"trial_type":"three-arm-trial","trial_index":8,"time_elapsed":678103,"internal_node_id":"0.0-7.0-0.0","task_version":"screening-mturk","missing":true},{"contexts":["red","green","blue"],"outcomes":[0,0,1],"key":37,"choice":0,"rt":1351.0500001721084,"outcome":0,"trial":1,"correct":2,"trial_type":"three-arm-trial","trial_index":9,"time_elapsed":680660,"internal_node_id":"0.0-7.1-0.1","task_version":"screening-mturk","missing":false,"accuracy":0},{"contexts":["red","green","blue"],"outcomes":[0,1,1],"key":39,"choice":2,"rt":863.2200001738966,"outcome":1,"trial":2,"correct":2,"trial_type":"three-arm-trial","trial_index":10,"time_elapsed":682726,"internal_node_id":"0.0-8.0-0.0","task_version":"screening-mturk","missing":false,"accuracy":1},{"contexts":["red","green","blue"],"outcomes":[1,1,1],"key":39,"choice":2,"rt":1887.404999928549,"outcome":1,"trial":3,"correct":2,"trial_type":"three-arm-trial","trial_index":11,"time_elapsed":685816,"internal_node_id":"0.0-9.0-0.0","task_version":"screening-mturk","missing":false,"accuracy":1},{"contexts":["red","green","blue"],"outcomes":[0,0,1],"key":38,"choice":1,"rt":956.9049999117851,"outcome":0,"trial":4,"correct":2,"trial_type":"three-arm-trial","trial_index":12,"time_elapsed":687976,"internal_node_id":"0.0-10.0-0.0","task_version":"screening-mturk","missing":false,"accuracy":0},{"contexts":["red","green","blue"],"outcomes":[0,0,1],"key":39,"choice":2,"rt":2737.459999974817,"outcome":1,"trial":5,"correct":2,"trial_type":"three-arm-trial","trial_index":13,"time_elapsed":691916,"internal_node_id":"0.0-11.0-0.0","task_version":"screening-mturk","missing":false,"accuracy":1},{"contexts":["red","green","blue"],"outcomes":[0,0,1],"key":39,"choice":2,"rt":735.480000032112,"outcome":1,"trial":6,"correct":2,"trial_type":"three-arm-trial","trial_index":14,"time_elapsed":693856,"internal_node_id":"0.0-12.0-0.0","task_version":"screening-mturk","missing":false,"accuracy":1},{"contexts":["red","green","blue"],"outcomes":[0,0,0],"key":39,"choice":2,"rt":1955.4950001183897,"outcome":0,"trial":7,"correct":2,"trial_type":"three-arm-trial","trial_index":15,"time_elapsed":697014,"internal_node_id":"0.0-13.0-0.0","task_version":"screening-mturk","missing":false,"accuracy":1},{"contexts":["red","green","blue"],"outcomes":[0,0,1],"key":37,"choice":0,"rt":4714.940000092611,"outcome":0,"trial":8,"correct":2,"trial_type":"three-arm-trial","trial_index":16,"time_elapsed":702935,"internal_node_id":"0.0-14.0-0.0","task_version":"screening-mturk","missing":false,"accuracy":0},{"contexts":["red","green","blue"],"outcomes":[1,0,1],"key":38,"choice":1,"rt":2176.115000154823,"outcome":0,"trial":9,"correct":2,"trial_type":"three-arm-trial","trial_index":17,"time_elapsed":706315,"internal_node_id":"0.0-15.0-0.0","task_version":"screening-mturk","missing":false,"accuracy":0},{"contexts":["red","green","blue"],"outcomes":[0,0,1],"key":39,"choice":2,"rt":1466.2200000602752,"outcome":1,"trial":10,"correct":2,"trial_type":"three-arm-trial","trial_index":18,"time_elapsed":708984,"internal_node_id":"0.0-16.0-0.0","task_version":"screening-mturk","missing":false,"accuracy":1},{"contexts":["red","green","blue"],"outcomes":[0,1,0],"key":39,"choice":2,"rt":792.3650001175702,"outcome":0,"trial":11,"correct":2,"trial_type":"three-arm-trial","trial_index":19,"time_elapsed":710978,"internal_node_id":"0.0-17.0-0.0","task_version":"screening-mturk","missing":false,"accuracy":1},{"contexts":["red","green","blue"],"outcomes":[0,0,1],"key":37,"choice":0,"rt":232.29499999433756,"outcome":0,"trial":12,"correct":2,"trial_type":"three-arm-trial","trial_index":20,"time_elapsed":712413,"internal_node_id":"0.0-18.0-0.0","task_version":"screening-mturk","missing":false,"accuracy":0},{"contexts":["red","green","blue"],"outcomes":[1,0,1],"key":39,"choice":2,"rt":557.2150000371039,"outcome":1,"trial":13,"correct":2,"trial_type":"three-arm-trial","trial_index":21,"time_elapsed":714172,"internal_node_id":"0.0-19.0-0.0","task_version":"screening-mturk","missing":false,"accuracy":1},{"contexts":["red","green","blue"],"outcomes":[0,0,1],"key":38,"choice":1,"rt":777.8000000398606,"outcome":0,"trial":14,"correct":2,"trial_type":"three-arm-trial","trial_index":22,"time_elapsed":716153,"internal_node_id":"0.0-20.0-0.0","task_version":"screening-mturk","missing":false,"accuracy":0},{"contexts":["red","green","blue"],"outcomes":[0,0,1],"key":39,"choice":2,"rt":52.48000007122755,"outcome":1,"trial":15,"correct":2,"trial_type":"three-arm-trial","trial_index":23,"time_elapsed":717409,"internal_node_id":"0.0-21.0-0.0","task_version":"screening-mturk","missing":false,"accuracy":1},{"contexts":["red","green","blue"],"outcomes":[1,0,0],"key":39,"choice":2,"rt":601.784999947995,"outcome":0,"trial":16,"correct":0,"trial_type":"three-arm-trial","trial_index":24,"time_elapsed":719214,"internal_node_id":"0.0-22.0-0.0","task_version":"screening-mturk","missing":false,"accuracy":0},{"contexts":["red","green","blue"],"outcomes":[1,0,0],"key":37,"choice":0,"rt":1026.7350000794977,"outcome":1,"trial":17,"correct":0,"trial_type":"three-arm-trial","trial_index":25,"time_elapsed":721444,"internal_node_id":"0.0-23.0-0.0","task_version":"screening-mturk","missing":false,"accuracy":1},{"contexts":["red","green","blue"],"outcomes":[1,1,0],"key":39,"choice":2,"rt":1042.020000051707,"outcome":0,"trial":18,"correct":0,"trial_type":"three-arm-trial","trial_index":26,"time_elapsed":723690,"internal_node_id":"0.0-24.0-0.0","task_version":"screening-mturk","missing":false,"accuracy":0},{"contexts":["red","green","blue"],"outcomes":[1,1,1],"key":37,"choice":0,"rt":19.655000185593963,"outcome":1,"trial":19,"correct":0,"trial_type":"three-arm-trial","trial_index":27,"time_elapsed":724912,"internal_node_id":"0.0-25.0-0.0","task_version":"screening-mturk","missing":false,"accuracy":1},{"contexts":["red","green","blue"],"outcomes":[1,0,0],"key":38,"choice":1,"rt":862.9199999850243,"outcome":0,"trial":20,"correct":0,"trial_type":"three-arm-trial","trial_index":28,"time_elapsed":726977,"internal_node_id":"0.0-26.0-0.0","task_version":"screening-mturk","missing":false,"accuracy":0},{"contexts":["red","green","blue"],"outcomes":[1,0,0],"key":37,"choice":0,"rt":1357.6699998229742,"outcome":1,"trial":21,"correct":0,"trial_type":"three-arm-trial","trial_index":29,"time_elapsed":729537,"internal_node_id":"0.0-27.0-0.0","task_version":"screening-mturk","missing":false,"accuracy":1},{"contexts":["red","green","blue"],"outcomes":[1,0,0],"key":39,"choice":2,"rt":1202.0799999590963,"outcome":0,"trial":22,"correct":0,"trial_type":"three-arm-trial","trial_index":30,"time_elapsed":731947,"internal_node_id":"0.0-28.0-0.0","task_version":"screening-mturk","missing":false,"accuracy":0},{"contexts":["red","green","blue"],"outcomes":[1,0,0],"key":37,"choice":0,"rt":976.6900001559407,"outcome":1,"trial":23,"correct":0,"trial_type":"three-arm-trial","trial_index":31,"time_elapsed":734126,"internal_node_id":"0.0-29.0-0.0","task_version":"screening-mturk","missing":false,"accuracy":1},{"contexts":["red","green","blue"],"outcomes":[1,0,1],"key":37,"choice":0,"rt":707.7049999497831,"outcome":1,"trial":24,"correct":0,"trial_type":"three-arm-trial","trial_index":32,"time_elapsed":736037,"internal_node_id":"0.0-30.0-0.0","task_version":"screening-mturk","missing":false,"accuracy":1},{"contexts":["red","green","blue"],"outcomes":[1,0,0],"key":37,"choice":0,"rt":766.6000002063811,"outcome":1,"trial":25,"correct":0,"trial_type":"three-arm-trial","trial_index":33,"time_elapsed":738006,"internal_node_id":"0.0-31.0-0.0","task_version":"screening-mturk","missing":false,"accuracy":1},{"contexts":["red","green","blue"],"outcomes":[0,0,1],"key":37,"choice":0,"rt":647.8500000666827,"outcome":0,"trial":26,"correct":0,"trial_type":"three-arm-trial","trial_index":34,"time_elapsed":739857,"internal_node_id":"0.0-32.0-0.0","task_version":"screening-mturk","missing":false,"accuracy":1},{"contexts":["red","green","blue"],"outcomes":[1,0,0],"key":39,"choice":2,"rt":766.0900000482798,"outcome":0,"trial":27,"correct":0,"trial_type":"three-arm-trial","trial_index":35,"time_elapsed":741826,"internal_node_id":"0.0-33.0-0.0","task_version":"screening-mturk","missing":false,"accuracy":0},{"contexts":["red","green","blue"],"outcomes":[1,0,0],"key":39,"choice":2,"rt":2026.869999943301,"outcome":0,"trial":28,"correct":0,"trial_type":"three-arm-trial","trial_index":36,"time_elapsed":745056,"internal_node_id":"0.0-34.0-0.0","task_version":"screening-mturk","missing":false,"accuracy":0},{"contexts":["red","green","blue"],"outcomes":[1,1,1],"key":38,"choice":1,"rt":797.139999922365,"outcome":1,"trial":29,"correct":0,"trial_type":"three-arm-trial","trial_index":37,"time_elapsed":747056,"internal_node_id":"0.0-35.0-0.0","task_version":"screening-mturk","missing":false,"accuracy":0},{"contexts":["red","green","blue"],"outcomes":[1,1,0],"key":38,"choice":1,"rt":696.849999949336,"outcome":1,"trial":30,"correct":0,"trial_type":"three-arm-trial","trial_index":38,"time_elapsed":748955,"internal_node_id":"0.0-36.0-0.0","task_version":"screening-mturk","missing":false,"accuracy":0},{"contexts":["red","green","blue"],"outcomes":[0,0,1],"key":38,"choice":1,"rt":718.2200001552701,"outcome":0,"trial":31,"correct":2,"trial_type":"three-arm-trial","trial_index":39,"time_elapsed":750876,"internal_node_id":"0.0-37.0-0.0","task_version":"screening-mturk","missing":false,"accuracy":0},{"contexts":["red","green","blue"],"outcomes":[0,0,1],"key":37,"choice":0,"rt":856.1050000134856,"outcome":0,"trial":32,"correct":2,"trial_type":"three-arm-trial","trial_index":40,"time_elapsed":752934,"internal_node_id":"0.0-38.0-0.0","task_version":"screening-mturk","missing":false,"accuracy":0},{"contexts":["red","green","blue"],"outcomes":[0,0,1],"key":39,"choice":2,"rt":2127.5400000158697,"outcome":1,"trial":33,"correct":2,"trial_type":"three-arm-trial","trial_index":41,"time_elapsed":756265,"internal_node_id":"0.0-39.0-0.0","task_version":"screening-mturk","missing":false,"accuracy":1},{"contexts":["red","green","blue"],"outcomes":[0,0,1],"key":39,"choice":2,"rt":677.129999967292,"outcome":1,"trial":34,"correct":2,"trial_type":"three-arm-trial","trial_index":42,"time_elapsed":758144,"internal_node_id":"0.0-40.0-0.0","task_version":"screening-mturk","missing":false,"accuracy":1},{"contexts":["red","green","blue"],"outcomes":[1,1,1],"key":39,"choice":2,"rt":875.264999922365,"outcome":1,"trial":35,"correct":2,"trial_type":"three-arm-trial","trial_index":43,"time_elapsed":760222,"internal_node_id":"0.0-41.0-0.0","task_version":"screening-mturk","missing":false,"accuracy":1},{"contexts":["red","green","blue"],"outcomes":[0,1,1],"key":38,"choice":1,"rt":4524.230000097305,"outcome":1,"trial":36,"correct":2,"trial_type":"three-arm-trial","trial_index":44,"time_elapsed":765950,"internal_node_id":"0.0-42.0-0.0","task_version":"screening-mturk","missing":false,"accuracy":0},{"contexts":["red","green","blue"],"outcomes":[0,0,1],"key":38,"choice":1,"rt":2721.4500000700355,"outcome":0,"trial":37,"correct":2,"trial_type":"three-arm-trial","trial_index":45,"time_elapsed":769876,"internal_node_id":"0.0-43.0-0.0","task_version":"screening-mturk","missing":false,"accuracy":0},{"contexts":["red","green","blue"],"outcomes":[1,0,1],"key":38,"choice":1,"rt":3359.690000070259,"outcome":0,"trial":38,"correct":2,"trial_type":"three-arm-trial","trial_index":46,"time_elapsed":774441,"internal_node_id":"0.0-44.0-0.0","task_version":"screening-mturk","missing":false,"accuracy":0},{"contexts":["red","green","blue"],"outcomes":[0,0,0],"key":39,"choice":2,"rt":1460.054999915883,"outcome":0,"trial":39,"correct":2,"trial_type":"three-arm-trial","trial_index":47,"time_elapsed":777104,"internal_node_id":"0.0-45.0-0.0","task_version":"screening-mturk","missing":false,"accuracy":1},{"contexts":["red","green","blue"],"outcomes":[1,0,1],"key":39,"choice":2,"rt":716.3350000046194,"outcome":1,"trial":40,"correct":2,"trial_type":"three-arm-trial","trial_index":48,"time_elapsed":779025,"internal_node_id":"0.0-46.0-0.0","task_version":"screening-mturk","missing":false,"accuracy":1},{"contexts":["red","green","blue"],"outcomes":[1,0,1],"key":37,"choice":0,"rt":2545.7100002095103,"outcome":1,"trial":41,"correct":2,"trial_type":"three-arm-trial","trial_index":49,"time_elapsed":782772,"internal_node_id":"0.0-47.0-0.0","task_version":"screening-mturk","missing":false,"accuracy":0},{"contexts":["red","green","blue"],"outcomes":[0,0,1],"key":37,"choice":0,"rt":2788.0550001282245,"outcome":0,"trial":42,"correct":2,"trial_type":"three-arm-trial","trial_index":50,"time_elapsed":786764,"internal_node_id":"0.0-48.0-0.0","task_version":"screening-mturk","missing":false,"accuracy":0},{"contexts":["red","green","blue"],"outcomes":[0,0,0],"key":39,"choice":2,"rt":9334.885000018403,"outcome":0,"trial":43,"correct":2,"trial_type":"three-arm-trial","trial_index":51,"time_elapsed":797306,"internal_node_id":"0.0-49.0-0.0","task_version":"screening-mturk","missing":false,"accuracy":1},{"contexts":["red","green","blue"],"outcomes":[0,0,1],"key":38,"choice":1,"rt":2416.939999908209,"outcome":0,"trial":44,"correct":2,"trial_type":"three-arm-trial","trial_index":52,"time_elapsed":800926,"internal_node_id":"0.0-50.0-0.0","task_version":"screening-mturk","missing":false,"accuracy":0},{"contexts":["red","green","blue"],"outcomes":[0,0,1],"key":37,"choice":0,"rt":2126.850000116974,"outcome":0,"trial":45,"correct":2,"trial_type":"three-arm-trial","trial_index":53,"time_elapsed":804260,"internal_node_id":"0.0-51.0-0.0","task_version":"screening-mturk","missing":false,"accuracy":0},{"contexts":["red","green","blue"],"outcomes":[1,0,1],"key":39,"choice":2,"rt":2172.7849999442697,"outcome":1,"trial":46,"correct":0,"trial_type":"three-arm-trial","trial_index":54,"time_elapsed":807637,"internal_node_id":"0.0-52.0-0.0","task_version":"screening-mturk","missing":false,"accuracy":0},{"contexts":["red","green","blue"],"outcomes":[1,0,0],"key":39,"choice":2,"rt":856.0800000559539,"outcome":0,"trial":47,"correct":0,"trial_type":"three-arm-trial","trial_index":55,"time_elapsed":809695,"internal_node_id":"0.0-53.0-0.0","task_version":"screening-mturk","missing":false,"accuracy":0},{"contexts":["red","green","blue"],"outcomes":[1,1,0],"key":38,"choice":1,"rt":508.705000160262,"outcome":1,"trial":48,"correct":0,"trial_type":"three-arm-trial","trial_index":56,"time_elapsed":811407,"internal_node_id":"0.0-54.0-0.0","task_version":"screening-mturk","missing":false,"accuracy":0},{"contexts":["red","green","blue"],"outcomes":[1,1,1],"key":38,"choice":1,"rt":1935.7750001363456,"outcome":1,"trial":49,"correct":0,"trial_type":"three-arm-trial","trial_index":57,"time_elapsed":814544,"internal_node_id":"0.0-55.0-0.0","task_version":"screening-mturk","missing":false,"accuracy":0},{"contexts":["red","green","blue"],"outcomes":[1,0,0],"key":38,"choice":1,"rt":1800.1449999865144,"outcome":0,"trial":50,"correct":0,"trial_type":"three-arm-trial","trial_index":58,"time_elapsed":817547,"internal_node_id":"0.0-56.0-0.0","task_version":"screening-mturk","missing":false,"accuracy":0},{"contexts":["red","green","blue"],"outcomes":[1,0,0],"key":37,"choice":0,"rt":964.0850001014769,"outcome":1,"trial":51,"correct":0,"trial_type":"three-arm-trial","trial_index":59,"time_elapsed":819715,"internal_node_id":"0.0-57.0-0.0","task_version":"screening-mturk","missing":false,"accuracy":1},{"contexts":["red","green","blue"],"outcomes":[1,0,0],"key":37,"choice":0,"rt":1046.7749999370426,"outcome":1,"trial":52,"correct":0,"trial_type":"three-arm-trial","trial_index":60,"time_elapsed":821965,"internal_node_id":"0.0-58.0-0.0","task_version":"screening-mturk","missing":false,"accuracy":1},{"contexts":["red","green","blue"],"outcomes":[1,0,0],"key":37,"choice":0,"rt":699.009999865666,"outcome":1,"trial":53,"correct":0,"trial_type":"three-arm-trial","trial_index":61,"time_elapsed":823937,"internal_node_id":"0.0-59.0-0.0","task_version":"screening-mturk","missing":false,"accuracy":1},{"contexts":["red","green","blue"],"outcomes":[1,0,0],"key":39,"choice":2,"rt":1626.0899999178946,"outcome":0,"trial":54,"correct":0,"trial_type":"three-arm-trial","trial_index":62,"time_elapsed":826766,"internal_node_id":"0.0-60.0-0.0","task_version":"screening-mturk","missing":false,"accuracy":0},{"contexts":["red","green","blue"],"outcomes":[1,0,0],"key":38,"choice":1,"rt":224.0500000771135,"outcome":0,"trial":55,"correct":0,"trial_type":"three-arm-trial","trial_index":63,"time_elapsed":828197,"internal_node_id":"0.0-61.0-0.0","task_version":"screening-mturk","missing":false,"accuracy":0},{"contexts":["red","green","blue"],"outcomes":[1,0,0],"key":37,"choice":0,"rt":1467.6949998829514,"outcome":1,"trial":56,"correct":0,"trial_type":"three-arm-trial","trial_index":64,"time_elapsed":830867,"internal_node_id":"0.0-62.0-0.0","task_version":"screening-mturk","missing":false,"accuracy":1},{"contexts":["red","green","blue"],"outcomes":[0,0,0],"key":37,"choice":0,"rt":614.1549998428673,"outcome":0,"trial":57,"correct":0,"trial_type":"three-arm-trial","trial_index":65,"time_elapsed":832687,"internal_node_id":"0.0-63.0-0.0","task_version":"screening-mturk","missing":false,"accuracy":1},{"contexts":["red","green","blue"],"outcomes":[1,0,0],"key":39,"choice":2,"rt":853.5649999976158,"outcome":0,"trial":58,"correct":0,"trial_type":"three-arm-trial","trial_index":66,"time_elapsed":834743,"internal_node_id":"0.0-64.0-0.0","task_version":"screening-mturk","missing":false,"accuracy":0},{"contexts":["red","green","blue"],"outcomes":[1,0,0],"key":38,"choice":1,"rt":67.92999990284443,"outcome":0,"trial":59,"correct":0,"trial_type":"three-arm-trial","trial_index":67,"time_elapsed":836014,"internal_node_id":"0.0-65.0-0.0","task_version":"screening-mturk","missing":false,"accuracy":0},{"contexts":["red","green","blue"],"outcomes":[1,0,0],"key":39,"choice":2,"rt":1156.7550001200289,"outcome":0,"trial":60,"correct":0,"trial_type":"three-arm-trial","trial_index":68,"time_elapsed":838373,"internal_node_id":"0.0-66.0-0.0","task_version":"screening-mturk","missing":false,"accuracy":0},{"contexts":["red","green","blue"],"outcomes":[1,1,1],"key":37,"choice":0,"rt":886.4149998407811,"outcome":1,"trial":61,"correct":1,"trial_type":"three-arm-trial","trial_index":69,"time_elapsed":840463,"internal_node_id":"0.0-67.0-0.0","task_version":"screening-mturk","missing":false,"accuracy":0},{"contexts":["red","green","blue"],"outcomes":[0,1,0],"key":37,"choice":0,"rt":592.3450000118464,"outcome":0,"trial":62,"correct":1,"trial_type":"three-arm-trial","trial_index":70,"time_elapsed":842257,"internal_node_id":"0.0-68.0-0.0","task_version":"screening-mturk","missing":false,"accuracy":0},{"contexts":["red","green","blue"],"outcomes":[0,1,1],"key":39,"choice":2,"rt":53.115000016987324,"outcome":1,"trial":63,"correct":1,"trial_type":"three-arm-trial","trial_index":71,"time_elapsed":843513,"internal_node_id":"0.0-69.0-0.0","task_version":"screening-mturk","missing":false,"accuracy":0},{"contexts":["red","green","blue"],"outcomes":[1,1,0],"key":39,"choice":2,"rt":697.7849998511374,"outcome":0,"trial":64,"correct":1,"trial_type":"three-arm-trial","trial_index":72,"time_elapsed":845414,"internal_node_id":"0.0-70.0-0.0","task_version":"screening-mturk","missing":false,"accuracy":0},{"contexts":["red","green","blue"],"outcomes":[0,1,1],"key":38,"choice":1,"rt":126.03499996475875,"outcome":1,"trial":65,"correct":1,"trial_type":"three-arm-trial","trial_index":73,"time_elapsed":846745,"internal_node_id":"0.0-71.0-0.0","task_version":"screening-mturk","missing":false,"accuracy":1},{"contexts":["red","green","blue"],"outcomes":[1,1,0],"key":38,"choice":1,"rt":874.3600000161678,"outcome":1,"trial":66,"correct":1,"trial_type":"three-arm-trial","trial_index":74,"time_elapsed":848822,"internal_node_id":"0.0-72.0-0.0","task_version":"screening-mturk","missing":false,"accuracy":1},{"contexts":["red","green","blue"],"outcomes":[0,1,0],"key":38,"choice":1,"rt":709.6150000579655,"outcome":1,"trial":67,"correct":1,"trial_type":"three-arm-trial","trial_index":75,"time_elapsed":850734,"internal_node_id":"0.0-73.0-0.0","task_version":"screening-mturk","missing":false,"accuracy":1},{"contexts":["red","green","blue"],"outcomes":[0,1,0],"key":38,"choice":1,"rt":797.9150000028312,"outcome":1,"trial":68,"correct":1,"trial_type":"three-arm-trial","trial_index":76,"time_elapsed":852735,"internal_node_id":"0.0-74.0-0.0","task_version":"screening-mturk","missing":false,"accuracy":1},{"contexts":["red","green","blue"],"outcomes":[0,1,1],"key":38,"choice":1,"rt":628.9649999234825,"outcome":1,"trial":69,"correct":1,"trial_type":"three-arm-trial","trial_index":77,"time_elapsed":854573,"internal_node_id":"0.0-75.0-0.0","task_version":"screening-mturk","missing":false,"accuracy":1},{"contexts":["red","green","blue"],"outcomes":[0,1,0],"key":38,"choice":1,"rt":695.7699998747557,"outcome":1,"trial":70,"correct":1,"trial_type":"three-arm-trial","trial_index":78,"time_elapsed":856476,"internal_node_id":"0.0-76.0-0.0","task_version":"screening-mturk","missing":false,"accuracy":1},{"contexts":["red","green","blue"],"outcomes":[0,0,0],"key":38,"choice":1,"rt":827.6600001845509,"outcome":0,"trial":71,"correct":1,"trial_type":"three-arm-trial","trial_index":79,"time_elapsed":858505,"internal_node_id":"0.0-77.0-0.0","task_version":"screening-mturk","missing":false,"accuracy":1},{"contexts":["red","green","blue"],"outcomes":[0,1,0],"key":39,"choice":2,"rt":1978.1149998307228,"outcome":0,"trial":72,"correct":1,"trial_type":"three-arm-trial","trial_index":80,"time_elapsed":861686,"internal_node_id":"0.0-78.0-0.0","task_version":"screening-mturk","missing":false,"accuracy":0},{"contexts":["red","green","blue"],"outcomes":[0,1,0],"key":38,"choice":1,"rt":1127.4299998767674,"outcome":1,"trial":73,"correct":1,"trial_type":"three-arm-trial","trial_index":81,"time_elapsed":864016,"internal_node_id":"0.0-79.0-0.0","task_version":"screening-mturk","missing":false,"accuracy":1},{"contexts":["red","green","blue"],"outcomes":[0,1,0],"key":38,"choice":1,"rt":636.6850000340492,"outcome":1,"trial":74,"correct":1,"trial_type":"three-arm-trial","trial_index":82,"time_elapsed":865856,"internal_node_id":"0.0-80.0-0.0","task_version":"screening-mturk","missing":false,"accuracy":1},{"contexts":["red","green","blue"],"outcomes":[0,1,0],"key":38,"choice":1,"rt":676.6049999278039,"outcome":1,"trial":75,"correct":1,"trial_type":"three-arm-trial","trial_index":83,"time_elapsed":867736,"internal_node_id":"0.0-81.0-0.0","task_version":"screening-mturk","missing":false,"accuracy":1},{"contexts":["red","green","blue"],"outcomes":[1,0,0],"key":38,"choice":1,"rt":685.994999948889,"outcome":0,"trial":76,"correct":0,"trial_type":"three-arm-trial","trial_index":84,"time_elapsed":869625,"internal_node_id":"0.0-82.0-0.0","task_version":"screening-mturk","missing":false,"accuracy":0},{"contexts":["red","green","blue"],"outcomes":[0,0,0],"key":37,"choice":0,"rt":958.4099999628961,"outcome":0,"trial":77,"correct":0,"trial_type":"three-arm-trial","trial_index":85,"time_elapsed":871786,"internal_node_id":"0.0-83.0-0.0","task_version":"screening-mturk","missing":false,"accuracy":1},{"contexts":["red","green","blue"],"outcomes":[1,0,0],"key":38,"choice":1,"rt":496.2200000882149,"outcome":0,"trial":78,"correct":0,"trial_type":"three-arm-trial","trial_index":86,"time_elapsed":873485,"internal_node_id":"0.0-84.0-0.0","task_version":"screening-mturk","missing":false,"accuracy":0},{"contexts":["red","green","blue"],"outcomes":[0,0,0],"key":39,"choice":2,"rt":21.835000021383166,"outcome":0,"trial":79,"correct":0,"trial_type":"three-arm-trial","trial_index":87,"time_elapsed":874711,"internal_node_id":"0.0-85.0-0.0","task_version":"screening-mturk","missing":false,"accuracy":0},{"contexts":["red","green","blue"],"outcomes":[1,0,1],"key":37,"choice":0,"rt":1550.74999993667,"outcome":1,"trial":80,"correct":0,"trial_type":"three-arm-trial","trial_index":88,"time_elapsed":877465,"internal_node_id":"0.0-86.0-0.0","task_version":"screening-mturk","missing":false,"accuracy":1},{"contexts":["red","green","blue"],"outcomes":[1,0,0],"key":37,"choice":0,"rt":576.8750000279397,"outcome":1,"trial":81,"correct":0,"trial_type":"three-arm-trial","trial_index":89,"time_elapsed":879244,"internal_node_id":"0.0-87.0-0.0","task_version":"screening-mturk","missing":false,"accuracy":1},{"contexts":["red","green","blue"],"outcomes":[1,1,1],"key":37,"choice":0,"rt":617.7649998571724,"outcome":1,"trial":82,"correct":0,"trial_type":"three-arm-trial","trial_index":90,"time_elapsed":881065,"internal_node_id":"0.0-88.0-0.0","task_version":"screening-mturk","missing":false,"accuracy":1},{"contexts":["red","green","blue"],"outcomes":[1,0,1],"key":37,"choice":0,"rt":706.6650001797825,"outcome":1,"trial":83,"correct":0,"trial_type":"three-arm-trial","trial_index":91,"time_elapsed":882975,"internal_node_id":"0.0-89.0-0.0","task_version":"screening-mturk","missing":false,"accuracy":1},{"contexts":["red","green","blue"],"outcomes":[1,0,1],"key":37,"choice":0,"rt":766.6949999984354,"outcome":1,"trial":84,"correct":0,"trial_type":"three-arm-trial","trial_index":92,"time_elapsed":884945,"internal_node_id":"0.0-90.0-0.0","task_version":"screening-mturk","missing":false,"accuracy":1},{"contexts":["red","green","blue"],"outcomes":[1,1,0],"key":37,"choice":0,"rt":660.704999929294,"outcome":1,"trial":85,"correct":0,"trial_type":"three-arm-trial","trial_index":93,"time_elapsed":886808,"internal_node_id":"0.0-91.0-0.0","task_version":"screening-mturk","missing":false,"accuracy":1},{"contexts":["red","green","blue"],"outcomes":[0,0,0],"key":37,"choice":0,"rt":1032.789999851957,"outcome":0,"trial":86,"correct":0,"trial_type":"three-arm-trial","trial_index":94,"time_elapsed":889043,"internal_node_id":"0.0-92.0-0.0","task_version":"screening-mturk","missing":false,"accuracy":1},{"contexts":["red","green","blue"],"outcomes":[1,0,0],"key":39,"choice":2,"rt":1601.0049998294562,"outcome":0,"trial":87,"correct":0,"trial_type":"three-arm-trial","trial_index":95,"time_elapsed":891847,"internal_node_id":"0.0-93.0-0.0","task_version":"screening-mturk","missing":false,"accuracy":0},{"contexts":["red","green","blue"],"outcomes":[1,0,0],"key":38,"choice":1,"rt":574.4900000281632,"outcome":0,"trial":88,"correct":0,"trial_type":"three-arm-trial","trial_index":96,"time_elapsed":893624,"internal_node_id":"0.0-94.0-0.0","task_version":"screening-mturk","missing":false,"accuracy":0},{"contexts":["red","green","blue"],"outcomes":[1,0,0],"key":37,"choice":0,"rt":141.76000002771616,"outcome":1,"trial":89,"correct":0,"trial_type":"three-arm-trial","trial_index":97,"time_elapsed":894968,"internal_node_id":"0.0-95.0-0.0","task_version":"screening-mturk","missing":false,"accuracy":1},{"contexts":["red","green","blue"],"outcomes":[1,0,0],"key":37,"choice":0,"rt":928.3000000286847,"outcome":1,"trial":90,"correct":0,"trial_type":"three-arm-trial","trial_index":98,"time_elapsed":897100,"internal_node_id":"0.0-96.0-0.0","task_version":"screening-mturk","missing":false,"accuracy":1},{"rt":77721.72499983571,"responses":{"age":"50","gender-categorical":"Female","gender-free-response":"","ethnicity":"Not Hispanic or Latino","race":["White"],"language":"Yes","fluency":"Very well","prolific":"Yes","prolific-this-study":"No"},"survey":"demographics","trial_type":"survey-demo","trial_index":99,"time_elapsed":974830,"internal_node_id":"0.0-97.0","task_version":"screening-mturk","interactions":"[{\"event\":\"blur\",\"trial\":99,\"time\":946184},{\"event\":\"focus\",\"trial\":99,\"time\":959237}]"}]