[{"responses":{"Q01":"1","Q02":"1","Q03":"1"},"rt":21619.395000001532,"survey":"pswq","trial_type":"survey-template","trial_index":0,"time_elapsed":21646,"internal_node_id":"0.0-0.0","task_version":"screening-mturk"},{"responses":{"Q13":"2","Q03":"2","Q09":"2","Q14":"2","Q04":"2","Q06":"2","Q05":"2","Q11":"2","Q08":"2","Q10":"2","Q12":"2","Q07":"2","Q15":"3","Q02":"2","Q01":"2"},"rt":207367.7800000005,"survey":"shaps","trial_type":"survey-template","trial_index":1,"time_elapsed":229032,"internal_node_id":"0.0-1.0","task_version":"screening-mturk"},{"responses":{"Q09":"0","Q15":"0","Q02":"0","Q13":"0","Q08":"1","Q05":"0","Q07":"1","Q10":"0","Q01":"0","Q14":"0","Q06":"0","Q03":"0","Q11":"0","Q04":"0","Q12":"0"},"rt":159148.7349999952,"survey":"7up7down","trial_type":"survey-template","trial_index":2,"time_elapsed":388200,"internal_node_id":"0.0-2.0","task_version":"screening-mturk"},{"responses":{"Q11":"2","Q12":"2","Q08":"2","Q02":"1","Q03":"2","Q07":"2","Q06":"2","Q09":"2","Q10":"2","Q05":"2","Q01":"2","Q13":"3","Q04":"2"},"rt":135870.80000000424,"survey":"bisbas","trial_type":"survey-template","trial_index":3,"time_elapsed":524089,"internal_node_id":"0.0-3.0","task_version":"screening-mturk"},{"responses":{"Q08":"0","Q02":"0","Q05":"0","Q01":"0","Q04":"0","Q06":"0","Q07":"0","Q03":"0"},"rt":59503.88499999826,"survey":"gad7","trial_type":"survey-template","trial_index":4,"time_elapsed":583613,"internal_node_id":"0.0-4.0","task_version":"screening-mturk"},{"view_history":"[{\"page_index\":0,\"viewing_time\":23001.425000009476},{\"page_index\":1,\"viewing_time\":49151.129999998375},{\"page_index\":2,\"viewing_time\":90743.87500000012},{\"page_index\":3,\"viewing_time\":2712.069999994128},{\"page_index\":4,\"viewing_time\":2567.9850000014994},{\"page_index\":5,\"viewing_time\":1608.0950000032317},{\"page_index\":6,\"viewing_time\":2239.5200000028126},{\"page_index\":7,\"viewing_time\":4056.394999992335}]","rt":176082.56500000425,"trial_type":"instructions","trial_index":5,"time_elapsed":759708,"internal_node_id":"0.0-5.0-0.0","task_version":"screening-mturk"},{"responses":["True","True","False","False","True"],"num_errors":0,"rt":16627.290000003995,"trial_type":"three-arm-comprehension","trial_index":6,"time_elapsed":776342,"internal_node_id":"0.0-5.0-1.0","task_version":"screening-mturk"},{"view_history":"[{\"page_index\":0,\"viewing_time\":1944.1249999945285}]","rt":1944.5849999901839,"trial_type":"instructions","trial_index":7,"time_elapsed":778306,"internal_node_id":"0.0-6.0","task_version":"screening-mturk"},{"contexts":["blue","red","green"],"outcomes":[0,1,0],"key":null,"rt":null,"trial":1,"correct":1,"trial_type":"three-arm-trial","trial_index":8,"time_elapsed":793314,"internal_node_id":"0.0-7.0-0.0","task_version":"screening-mturk","missing":true},{"contexts":["blue","red","green"],"outcomes":[0,1,0],"key":39,"choice":2,"rt":3437.3349999950733,"outcome":0,"trial":1,"correct":1,"trial_type":"three-arm-trial","trial_index":9,"time_elapsed":797955,"internal_node_id":"0.0-7.1-0.1","task_version":"screening-mturk","missing":false,"accuracy":0},{"contexts":["blue","red","green"],"outcomes":[0,1,0],"key":37,"choice":0,"rt":31.365000002551824,"outcome":0,"trial":2,"correct":1,"trial_type":"three-arm-trial","trial_index":10,"time_elapsed":799202,"internal_node_id":"0.0-8.0-0.0","task_version":"screening-mturk","missing":false,"accuracy":0},{"contexts":["blue","red","green"],"outcomes":[0,1,0],"key":39,"choice":2,"rt":111.99000000488013,"outcome":0,"trial":3,"correct":1,"trial_type":"three-arm-trial","trial_index":11,"time_elapsed":800531,"internal_node_id":"0.0-9.0-0.0","task_version":"screening-mturk","missing":false,"accuracy":0},{"contexts":["blue","red","green"],"outcomes":[1,1,1],"key":38,"choice":1,"rt":1.6199999954551458,"outcome":1,"trial":4,"correct":1,"trial_type":"three-arm-trial","trial_index":12,"time_elapsed":801752,"internal_node_id":"0.0-10.0-0.0","task_version":"screening-mturk","missing":false,"accuracy":1},{"contexts":["blue","red","green"],"outcomes":[0,1,0],"key":38,"choice":1,"rt":3186.074999990524,"outcome":1,"trial":5,"correct":1,"trial_type":"three-arm-trial","trial_index":13,"time_elapsed":806155,"internal_node_id":"0.0-11.0-0.0","task_version":"screening-mturk","missing":false,"accuracy":1},{"contexts":["blue","red","green"],"outcomes":[1,1,0],"key":39,"choice":2,"rt":1.6299999988405034,"outcome":0,"trial":6,"correct":1,"trial_type":"three-arm-trial","trial_index":14,"time_elapsed":807373,"internal_node_id":"0.0-12.0-0.0","task_version":"screening-mturk","missing":false,"accuracy":0},{"contexts":["blue","red","green"],"outcomes":[1,1,0],"key":38,"choice":1,"rt":1.624999989871867,"outcome":1,"trial":7,"correct":1,"trial_type":"three-arm-trial","trial_index":15,"time_elapsed":808593,"internal_node_id":"0.0-13.0-0.0","task_version":"screening-mturk","missing":false,"accuracy":1},{"contexts":["blue","red","green"],"outcomes":[0,1,0],"key":37,"choice":0,"rt":41.08999999880325,"outcome":0,"trial":8,"correct":1,"trial_type":"three-arm-trial","trial_index":16,"time_elapsed":809852,"internal_node_id":"0.0-14.0-0.0","task_version":"screening-mturk","missing":false,"accuracy":0},{"contexts":["blue","red","green"],"outcomes":[0,1,0],"key":37,"choice":0,"rt":63.655000005383044,"outcome":0,"trial":9,"correct":1,"trial_type":"three-arm-trial","trial_index":17,"time_elapsed":811132,"internal_node_id":"0.0-15.0-0.0","task_version":"screening-mturk","missing":false,"accuracy":0},{"contexts":["blue","red","green"],"outcomes":[0,1,0],"key":38,"choice":1,"rt":1.7099999968195334,"outcome":1,"trial":10,"correct":1,"trial_type":"three-arm-trial","trial_index":18,"time_elapsed":812353,"internal_node_id":"0.0-16.0-0.0","task_version":"screening-mturk","missing":false,"accuracy":1},{"contexts":["blue","red","green"],"outcomes":[0,1,0],"key":37,"choice":0,"rt":185.80999999539927,"outcome":0,"trial":11,"correct":1,"trial_type":"three-arm-trial","trial_index":19,"time_elapsed":813754,"internal_node_id":"0.0-17.0-0.0","task_version":"screening-mturk","missing":false,"accuracy":0},{"contexts":["blue","red","green"],"outcomes":[0,0,0],"key":39,"choice":2,"rt":1039.875000002212,"outcome":0,"trial":12,"correct":1,"trial_type":"three-arm-trial","trial_index":20,"time_elapsed":816014,"internal_node_id":"0.0-18.0-0.0","task_version":"screening-mturk","missing":false,"accuracy":0},{"contexts":["blue","red","green"],"outcomes":[1,1,1],"key":37,"choice":0,"rt":81.47000000462867,"outcome":1,"trial":13,"correct":1,"trial_type":"three-arm-trial","trial_index":21,"time_elapsed":817315,"internal_node_id":"0.0-19.0-0.0","task_version":"screening-mturk","missing":false,"accuracy":0},{"contexts":["blue","red","green"],"outcomes":[0,1,0],"key":37,"choice":0,"rt":19.91000000271015,"outcome":0,"trial":14,"correct":1,"trial_type":"three-arm-trial","trial_index":22,"time_elapsed":818557,"internal_node_id":"0.0-20.0-0.0","task_version":"screening-mturk","missing":false,"accuracy":0},{"contexts":["blue","red","green"],"outcomes":[1,1,0],"key":37,"choice":0,"rt":78.21999999578111,"outcome":1,"trial":15,"correct":1,"trial_type":"three-arm-trial","trial_index":23,"time_elapsed":819851,"internal_node_id":"0.0-21.0-0.0","task_version":"screening-mturk","missing":false,"accuracy":0},{"contexts":["blue","red","green"],"outcomes":[0,0,1],"key":38,"choice":1,"rt":131.71000000147615,"outcome":0,"trial":16,"correct":2,"trial_type":"three-arm-trial","trial_index":24,"time_elapsed":821202,"internal_node_id":"0.0-22.0-0.0","task_version":"screening-mturk","missing":false,"accuracy":0},{"contexts":["blue","red","green"],"outcomes":[0,0,1],"key":38,"choice":1,"rt":2.3050000017974526,"outcome":0,"trial":17,"correct":2,"trial_type":"three-arm-trial","trial_index":25,"time_elapsed":822419,"internal_node_id":"0.0-23.0-0.0","task_version":"screening-mturk","missing":false,"accuracy":0},{"contexts":["blue","red","green"],"outcomes":[0,0,1],"key":37,"choice":0,"rt":146.07499999692664,"outcome":0,"trial":18,"correct":2,"trial_type":"three-arm-trial","trial_index":26,"time_elapsed":823782,"internal_node_id":"0.0-24.0-0.0","task_version":"screening-mturk","missing":false,"accuracy":0},{"contexts":["blue","red","green"],"outcomes":[0,0,1],"key":37,"choice":0,"rt":1.4899999951012433,"outcome":0,"trial":19,"correct":2,"trial_type":"three-arm-trial","trial_index":27,"time_elapsed":825002,"internal_node_id":"0.0-25.0-0.0","task_version":"screening-mturk","missing":false,"accuracy":0},{"contexts":["blue","red","green"],"outcomes":[0,0,0],"key":37,"choice":0,"rt":43.70500000368338,"outcome":0,"trial":20,"correct":2,"trial_type":"three-arm-trial","trial_index":28,"time_elapsed":826263,"internal_node_id":"0.0-26.0-0.0","task_version":"screening-mturk","missing":false,"accuracy":0},{"contexts":["blue","red","green"],"outcomes":[0,1,1],"key":39,"choice":2,"rt":47.18499998853076,"outcome":1,"trial":21,"correct":2,"trial_type":"three-arm-trial","trial_index":29,"time_elapsed":827523,"internal_node_id":"0.0-27.0-0.0","task_version":"screening-mturk","missing":false,"accuracy":1},{"contexts":["blue","red","green"],"outcomes":[1,1,0],"key":37,"choice":0,"rt":177.4650000006659,"outcome":1,"trial":22,"correct":2,"trial_type":"three-arm-trial","trial_index":30,"time_elapsed":828917,"internal_node_id":"0.0-28.0-0.0","task_version":"screening-mturk","missing":false,"accuracy":0},{"contexts":["blue","red","green"],"outcomes":[0,1,0],"key":37,"choice":0,"rt":37.33999999531079,"outcome":0,"trial":23,"correct":2,"trial_type":"three-arm-trial","trial_index":31,"time_elapsed":830171,"internal_node_id":"0.0-29.0-0.0","task_version":"screening-mturk","missing":false,"accuracy":0},{"contexts":["blue","red","green"],"outcomes":[1,0,1],"key":37,"choice":0,"rt":74.9799999903189,"outcome":1,"trial":24,"correct":2,"trial_type":"three-arm-trial","trial_index":32,"time_elapsed":831460,"internal_node_id":"0.0-30.0-0.0","task_version":"screening-mturk","missing":false,"accuracy":0},{"contexts":["blue","red","green"],"outcomes":[0,1,0],"key":38,"choice":1,"rt":243.38499999430496,"outcome":1,"trial":25,"correct":2,"trial_type":"three-arm-trial","trial_index":33,"time_elapsed":832923,"internal_node_id":"0.0-31.0-0.0","task_version":"screening-mturk","missing":false,"accuracy":0},{"contexts":["blue","red","green"],"outcomes":[0,0,1],"key":38,"choice":1,"rt":17.070000001695007,"outcome":0,"trial":26,"correct":2,"trial_type":"three-arm-trial","trial_index":34,"time_elapsed":834157,"internal_node_id":"0.0-32.0-0.0","task_version":"screening-mturk","missing":false,"accuracy":0},{"contexts":["blue","red","green"],"outcomes":[0,0,1],"key":37,"choice":0,"rt":17.070000001695007,"outcome":0,"trial":27,"correct":2,"trial_type":"three-arm-trial","trial_index":35,"time_elapsed":835397,"internal_node_id":"0.0-33.0-0.0","task_version":"screening-mturk","missing":false,"accuracy":0},{"contexts":["blue","red","green"],"outcomes":[0,0,1],"key":38,"choice":1,"rt":48.97000000346452,"outcome":0,"trial":28,"correct":2,"trial_type":"three-arm-trial","trial_index":36,"time_elapsed":836660,"internal_node_id":"0.0-34.0-0.0","task_version":"screening-mturk","missing":false,"accuracy":0},{"contexts":["blue","red","green"],"outcomes":[0,0,1],"key":39,"choice":2,"rt":248.93499999598134,"outcome":1,"trial":29,"correct":2,"trial_type":"three-arm-trial","trial_index":37,"time_elapsed":838123,"internal_node_id":"0.0-35.0-0.0","task_version":"screening-mturk","missing":false,"accuracy":1},{"contexts":["blue","red","green"],"outcomes":[0,0,1],"key":38,"choice":1,"rt":120.41999999200925,"outcome":0,"trial":30,"correct":2,"trial_type":"three-arm-trial","trial_index":38,"time_elapsed":839459,"internal_node_id":"0.0-36.0-0.0","task_version":"screening-mturk","missing":false,"accuracy":0},{"contexts":["blue","red","green"],"outcomes":[1,0,0],"key":39,"choice":2,"rt":41.444999995292164,"outcome":0,"trial":31,"correct":0,"trial_type":"three-arm-trial","trial_index":39,"time_elapsed":840715,"internal_node_id":"0.0-37.0-0.0","task_version":"screening-mturk","missing":false,"accuracy":0},{"contexts":["blue","red","green"],"outcomes":[1,0,0],"key":39,"choice":2,"rt":1.6450000111944973,"outcome":0,"trial":32,"correct":0,"trial_type":"three-arm-trial","trial_index":40,"time_elapsed":841935,"internal_node_id":"0.0-38.0-0.0","task_version":"screening-mturk","missing":false,"accuracy":0},{"contexts":["blue","red","green"],"outcomes":[1,0,1],"key":37,"choice":0,"rt":17.295000012381934,"outcome":1,"trial":33,"correct":0,"trial_type":"three-arm-trial","trial_index":41,"time_elapsed":843170,"internal_node_id":"0.0-39.0-0.0","task_version":"screening-mturk","missing":false,"accuracy":1},{"contexts":["blue","red","green"],"outcomes":[1,0,0],"key":39,"choice":2,"rt":138.74000000942033,"outcome":0,"trial":34,"correct":0,"trial_type":"three-arm-trial","trial_index":42,"time_elapsed":844531,"internal_node_id":"0.0-40.0-0.0","task_version":"screening-mturk","missing":false,"accuracy":0},{"contexts":["blue","red","green"],"outcomes":[0,1,0],"key":37,"choice":0,"rt":1.4349999983096495,"outcome":0,"trial":35,"correct":0,"trial_type":"three-arm-trial","trial_index":43,"time_elapsed":845754,"internal_node_id":"0.0-41.0-0.0","task_version":"screening-mturk","missing":false,"accuracy":1},{"contexts":["blue","red","green"],"outcomes":[1,0,1],"key":38,"choice":1,"rt":1.4599999994970858,"outcome":0,"trial":36,"correct":0,"trial_type":"three-arm-trial","trial_index":44,"time_elapsed":846973,"internal_node_id":"0.0-42.0-0.0","task_version":"screening-mturk","missing":false,"accuracy":0},{"contexts":["blue","red","green"],"outcomes":[1,0,0],"key":39,"choice":2,"rt":214.11000000080094,"outcome":0,"trial":37,"correct":0,"trial_type":"three-arm-trial","trial_index":45,"time_elapsed":848402,"internal_node_id":"0.0-43.0-0.0","task_version":"screening-mturk","missing":false,"accuracy":0},{"contexts":["blue","red","green"],"outcomes":[1,0,0],"key":37,"choice":0,"rt":32.82000000763219,"outcome":1,"trial":38,"correct":0,"trial_type":"three-arm-trial","trial_index":46,"time_elapsed":849651,"internal_node_id":"0.0-44.0-0.0","task_version":"screening-mturk","missing":false,"accuracy":1},{"contexts":["blue","red","green"],"outcomes":[1,1,0],"key":38,"choice":1,"rt":32.55999999237247,"outcome":1,"trial":39,"correct":0,"trial_type":"three-arm-trial","trial_index":47,"time_elapsed":850899,"internal_node_id":"0.0-45.0-0.0","task_version":"screening-mturk","missing":false,"accuracy":0},{"contexts":["blue","red","green"],"outcomes":[1,0,0],"key":38,"choice":1,"rt":159.5999999990454,"outcome":0,"trial":40,"correct":0,"trial_type":"three-arm-trial","trial_index":48,"time_elapsed":852275,"internal_node_id":"0.0-46.0-0.0","task_version":"screening-mturk","missing":false,"accuracy":0},{"contexts":["blue","red","green"],"outcomes":[0,0,0],"key":37,"choice":0,"rt":79.98500000394415,"outcome":0,"trial":41,"correct":0,"trial_type":"three-arm-trial","trial_index":49,"time_elapsed":853571,"internal_node_id":"0.0-47.0-0.0","task_version":"screening-mturk","missing":false,"accuracy":1},{"contexts":["blue","red","green"],"outcomes":[1,0,1],"key":38,"choice":1,"rt":142.46500001172535,"outcome":0,"trial":42,"correct":0,"trial_type":"three-arm-trial","trial_index":50,"time_elapsed":854932,"internal_node_id":"0.0-48.0-0.0","task_version":"screening-mturk","missing":false,"accuracy":0},{"contexts":["blue","red","green"],"outcomes":[1,1,0],"key":38,"choice":1,"rt":154.45999999064952,"outcome":1,"trial":43,"correct":0,"trial_type":"three-arm-trial","trial_index":51,"time_elapsed":856307,"internal_node_id":"0.0-49.0-0.0","task_version":"screening-mturk","missing":false,"accuracy":0},{"contexts":["blue","red","green"],"outcomes":[1,1,0],"key":38,"choice":1,"rt":136.52500000898726,"outcome":1,"trial":44,"correct":0,"trial_type":"three-arm-trial","trial_index":52,"time_elapsed":857660,"internal_node_id":"0.0-50.0-0.0","task_version":"screening-mturk","missing":false,"accuracy":0},{"contexts":["blue","red","green"],"outcomes":[1,0,1],"key":38,"choice":1,"rt":169.7100000019418,"outcome":0,"trial":45,"correct":0,"trial_type":"three-arm-trial","trial_index":53,"time_elapsed":859051,"internal_node_id":"0.0-51.0-0.0","task_version":"screening-mturk","missing":false,"accuracy":0},{"contexts":["blue","red","green"],"outcomes":[0,0,1],"key":38,"choice":1,"rt":198.45500000519678,"outcome":0,"trial":46,"correct":2,"trial_type":"three-arm-trial","trial_index":54,"time_elapsed":860467,"internal_node_id":"0.0-52.0-0.0","task_version":"screening-mturk","missing":false,"accuracy":0},{"contexts":["blue","red","green"],"outcomes":[0,1,1],"key":38,"choice":1,"rt":141.25000000058208,"outcome":1,"trial":47,"correct":2,"trial_type":"three-arm-trial","trial_index":55,"time_elapsed":861831,"internal_node_id":"0.0-53.0-0.0","task_version":"screening-mturk","missing":false,"accuracy":0},{"contexts":["blue","red","green"],"outcomes":[0,0,1],"key":38,"choice":1,"rt":16.860000003362074,"outcome":0,"trial":48,"correct":2,"trial_type":"three-arm-trial","trial_index":56,"time_elapsed":863068,"internal_node_id":"0.0-54.0-0.0","task_version":"screening-mturk","missing":false,"accuracy":0},{"contexts":["blue","red","green"],"outcomes":[0,1,1],"key":38,"choice":1,"rt":39.61999999592081,"outcome":1,"trial":49,"correct":2,"trial_type":"three-arm-trial","trial_index":57,"time_elapsed":864323,"internal_node_id":"0.0-55.0-0.0","task_version":"screening-mturk","missing":false,"accuracy":0},{"contexts":["blue","red","green"],"outcomes":[0,0,1],"key":38,"choice":1,"rt":118.39499999769032,"outcome":0,"trial":50,"correct":2,"trial_type":"three-arm-trial","trial_index":58,"time_elapsed":865660,"internal_node_id":"0.0-56.0-0.0","task_version":"screening-mturk","missing":false,"accuracy":0},{"contexts":["blue","red","green"],"outcomes":[0,0,1],"key":38,"choice":1,"rt":225.44500000367407,"outcome":0,"trial":51,"correct":2,"trial_type":"three-arm-trial","trial_index":59,"time_elapsed":867100,"internal_node_id":"0.0-57.0-0.0","task_version":"screening-mturk","missing":false,"accuracy":0},{"contexts":["blue","red","green"],"outcomes":[0,0,0],"key":38,"choice":1,"rt":92.01999999640975,"outcome":0,"trial":52,"correct":2,"trial_type":"three-arm-trial","trial_index":60,"time_elapsed":868411,"internal_node_id":"0.0-58.0-0.0","task_version":"screening-mturk","missing":false,"accuracy":0},{"contexts":["blue","red","green"],"outcomes":[0,0,1],"key":38,"choice":1,"rt":18.019999988609925,"outcome":0,"trial":53,"correct":2,"trial_type":"three-arm-trial","trial_index":61,"time_elapsed":869645,"internal_node_id":"0.0-59.0-0.0","task_version":"screening-mturk","missing":false,"accuracy":0},{"contexts":["blue","red","green"],"outcomes":[1,1,0],"key":37,"choice":0,"rt":16.334999992977828,"outcome":1,"trial":54,"correct":2,"trial_type":"three-arm-trial","trial_index":62,"time_elapsed":870876,"internal_node_id":"0.0-60.0-0.0","task_version":"screening-mturk","missing":false,"accuracy":0},{"contexts":["blue","red","green"],"outcomes":[0,0,1],"key":39,"choice":2,"rt":247.5350000022445,"outcome":1,"trial":55,"correct":2,"trial_type":"three-arm-trial","trial_index":63,"time_elapsed":872339,"internal_node_id":"0.0-61.0-0.0","task_version":"screening-mturk","missing":false,"accuracy":1},{"contexts":["blue","red","green"],"outcomes":[0,1,1],"key":38,"choice":1,"rt":42.38499999337364,"outcome":1,"trial":56,"correct":2,"trial_type":"three-arm-trial","trial_index":64,"time_elapsed":873597,"internal_node_id":"0.0-62.0-0.0","task_version":"screening-mturk","missing":false,"accuracy":0},{"contexts":["blue","red","green"],"outcomes":[0,0,1],"key":37,"choice":0,"rt":25.590000004740432,"outcome":0,"trial":57,"correct":2,"trial_type":"three-arm-trial","trial_index":65,"time_elapsed":874835,"internal_node_id":"0.0-63.0-0.0","task_version":"screening-mturk","missing":false,"accuracy":0},{"contexts":["blue","red","green"],"outcomes":[0,0,1],"key":38,"choice":1,"rt":17.65500000328757,"outcome":0,"trial":58,"correct":2,"trial_type":"three-arm-trial","trial_index":66,"time_elapsed":876071,"internal_node_id":"0.0-64.0-0.0","task_version":"screening-mturk","missing":false,"accuracy":0},{"contexts":["blue","red","green"],"outcomes":[1,1,0],"key":37,"choice":0,"rt":41.51000001002103,"outcome":1,"trial":59,"correct":2,"trial_type":"three-arm-trial","trial_index":67,"time_elapsed":877331,"internal_node_id":"0.0-65.0-0.0","task_version":"screening-mturk","missing":false,"accuracy":0},{"contexts":["blue","red","green"],"outcomes":[0,1,1],"key":37,"choice":0,"rt":18.33500000066124,"outcome":0,"trial":60,"correct":2,"trial_type":"three-arm-trial","trial_index":68,"time_elapsed":878569,"internal_node_id":"0.0-66.0-0.0","task_version":"screening-mturk","missing":false,"accuracy":0},{"contexts":["blue","red","green"],"outcomes":[0,1,0],"key":38,"choice":1,"rt":43.4149999928195,"outcome":1,"trial":61,"correct":1,"trial_type":"three-arm-trial","trial_index":69,"time_elapsed":879835,"internal_node_id":"0.0-67.0-0.0","task_version":"screening-mturk","missing":false,"accuracy":1},{"contexts":["blue","red","green"],"outcomes":[0,1,0],"key":37,"choice":0,"rt":53.394999995362014,"outcome":0,"trial":62,"correct":1,"trial_type":"three-arm-trial","trial_index":70,"time_elapsed":881107,"internal_node_id":"0.0-68.0-0.0","task_version":"screening-mturk","missing":false,"accuracy":0},{"contexts":["blue","red","green"],"outcomes":[0,1,1],"key":37,"choice":0,"rt":143.63000000594184,"outcome":0,"trial":63,"correct":1,"trial_type":"three-arm-trial","trial_index":71,"time_elapsed":882467,"internal_node_id":"0.0-69.0-0.0","task_version":"screening-mturk","missing":false,"accuracy":0},{"contexts":["blue","red","green"],"outcomes":[0,1,0],"key":37,"choice":0,"rt":3.1599999929312617,"outcome":0,"trial":64,"correct":1,"trial_type":"three-arm-trial","trial_index":72,"time_elapsed":883693,"internal_node_id":"0.0-70.0-0.0","task_version":"screening-mturk","missing":false,"accuracy":0},{"contexts":["blue","red","green"],"outcomes":[0,1,0],"key":38,"choice":1,"rt":363.53499999677297,"outcome":1,"trial":65,"correct":1,"trial_type":"three-arm-trial","trial_index":73,"time_elapsed":885271,"internal_node_id":"0.0-71.0-0.0","task_version":"screening-mturk","missing":false,"accuracy":1},{"contexts":["blue","red","green"],"outcomes":[0,1,0],"key":38,"choice":1,"rt":98.59000000869855,"outcome":1,"trial":66,"correct":1,"trial_type":"three-arm-trial","trial_index":74,"time_elapsed":886604,"internal_node_id":"0.0-72.0-0.0","task_version":"screening-mturk","missing":false,"accuracy":1},{"contexts":["blue","red","green"],"outcomes":[1,1,1],"key":38,"choice":1,"rt":186.79999999585561,"outcome":1,"trial":67,"correct":1,"trial_type":"three-arm-trial","trial_index":75,"time_elapsed":888012,"internal_node_id":"0.0-73.0-0.0","task_version":"screening-mturk","missing":false,"accuracy":1},{"contexts":["blue","red","green"],"outcomes":[0,1,0],"key":37,"choice":0,"rt":1.5150000108405948,"outcome":0,"trial":68,"correct":1,"trial_type":"three-arm-trial","trial_index":76,"time_elapsed":889232,"internal_node_id":"0.0-74.0-0.0","task_version":"screening-mturk","missing":false,"accuracy":0},{"contexts":["blue","red","green"],"outcomes":[0,1,1],"key":38,"choice":1,"rt":134.69000000623055,"outcome":1,"trial":69,"correct":1,"trial_type":"three-arm-trial","trial_index":77,"time_elapsed":890587,"internal_node_id":"0.0-75.0-0.0","task_version":"screening-mturk","missing":false,"accuracy":1},{"contexts":["blue","red","green"],"outcomes":[0,0,0],"key":38,"choice":1,"rt":17.29499999783002,"outcome":0,"trial":70,"correct":1,"trial_type":"three-arm-trial","trial_index":78,"time_elapsed":891821,"internal_node_id":"0.0-76.0-0.0","task_version":"screening-mturk","missing":false,"accuracy":1},{"contexts":["blue","red","green"],"outcomes":[0,1,0],"key":38,"choice":1,"rt":342.5600000045961,"outcome":1,"trial":71,"correct":1,"trial_type":"three-arm-trial","trial_index":79,"time_elapsed":893382,"internal_node_id":"0.0-77.0-0.0","task_version":"screening-mturk","missing":false,"accuracy":1},{"contexts":["blue","red","green"],"outcomes":[0,0,0],"key":37,"choice":0,"rt":33.530000000610016,"outcome":0,"trial":72,"correct":1,"trial_type":"three-arm-trial","trial_index":80,"time_elapsed":894635,"internal_node_id":"0.0-78.0-0.0","task_version":"screening-mturk","missing":false,"accuracy":0},{"contexts":["blue","red","green"],"outcomes":[1,1,0],"key":38,"choice":1,"rt":17.28000000002794,"outcome":1,"trial":73,"correct":1,"trial_type":"three-arm-trial","trial_index":81,"time_elapsed":895872,"internal_node_id":"0.0-79.0-0.0","task_version":"screening-mturk","missing":false,"accuracy":1},{"contexts":["blue","red","green"],"outcomes":[1,1,0],"key":37,"choice":0,"rt":34.16500000457745,"outcome":1,"trial":74,"correct":1,"trial_type":"three-arm-trial","trial_index":82,"time_elapsed":897125,"internal_node_id":"0.0-80.0-0.0","task_version":"screening-mturk","missing":false,"accuracy":0},{"contexts":["blue","red","green"],"outcomes":[1,1,1],"key":38,"choice":1,"rt":229.67500000959262,"outcome":1,"trial":75,"correct":1,"trial_type":"three-arm-trial","trial_index":83,"time_elapsed":898571,"internal_node_id":"0.0-81.0-0.0","task_version":"screening-mturk","missing":false,"accuracy":1},{"contexts":["blue","red","green"],"outcomes":[0,1,1],"key":38,"choice":1,"rt":17.15499999409076,"outcome":1,"trial":76,"correct":2,"trial_type":"three-arm-trial","trial_index":84,"time_elapsed":899806,"internal_node_id":"0.0-82.0-0.0","task_version":"screening-mturk","missing":false,"accuracy":0},{"contexts":["blue","red","green"],"outcomes":[0,0,1],"key":39,"choice":2,"rt":157.51999999338295,"outcome":1,"trial":77,"correct":2,"trial_type":"three-arm-trial","trial_index":85,"time_elapsed":901179,"internal_node_id":"0.0-83.0-0.0","task_version":"screening-mturk","missing":false,"accuracy":1},{"contexts":["blue","red","green"],"outcomes":[0,0,1],"key":39,"choice":2,"rt":18.230000001494773,"outcome":1,"trial":78,"correct":2,"trial_type":"three-arm-trial","trial_index":86,"time_elapsed":902422,"internal_node_id":"0.0-84.0-0.0","task_version":"screening-mturk","missing":false,"accuracy":1},{"contexts":["blue","red","green"],"outcomes":[0,0,0],"key":39,"choice":2,"rt":147.5850000133505,"outcome":0,"trial":79,"correct":2,"trial_type":"three-arm-trial","trial_index":87,"time_elapsed":903787,"internal_node_id":"0.0-85.0-0.0","task_version":"screening-mturk","missing":false,"accuracy":1},{"contexts":["blue","red","green"],"outcomes":[0,0,1],"key":37,"choice":0,"rt":72.56499999493826,"outcome":0,"trial":80,"correct":2,"trial_type":"three-arm-trial","trial_index":88,"time_elapsed":905081,"internal_node_id":"0.0-86.0-0.0","task_version":"screening-mturk","missing":false,"accuracy":0},{"contexts":["blue","red","green"],"outcomes":[0,0,1],"key":38,"choice":1,"rt":81.57500000379514,"outcome":0,"trial":81,"correct":2,"trial_type":"three-arm-trial","trial_index":89,"time_elapsed":906383,"internal_node_id":"0.0-87.0-0.0","task_version":"screening-mturk","missing":false,"accuracy":0},{"contexts":["blue","red","green"],"outcomes":[1,0,0],"key":38,"choice":1,"rt":18.215000003692694,"outcome":0,"trial":82,"correct":2,"trial_type":"three-arm-trial","trial_index":90,"time_elapsed":907621,"internal_node_id":"0.0-88.0-0.0","task_version":"screening-mturk","missing":false,"accuracy":0},{"contexts":["blue","red","green"],"outcomes":[0,0,1],"key":38,"choice":1,"rt":156.48000000510365,"outcome":0,"trial":83,"correct":2,"trial_type":"three-arm-trial","trial_index":91,"time_elapsed":908995,"internal_node_id":"0.0-89.0-0.0","task_version":"screening-mturk","missing":false,"accuracy":0},{"contexts":["blue","red","green"],"outcomes":[0,0,0],"key":39,"choice":2,"rt":81.32500000647269,"outcome":0,"trial":84,"correct":2,"trial_type":"three-arm-trial","trial_index":92,"time_elapsed":910291,"internal_node_id":"0.0-90.0-0.0","task_version":"screening-mturk","missing":false,"accuracy":1},{"contexts":["blue","red","green"],"outcomes":[0,0,1],"key":38,"choice":1,"rt":216.6249999863794,"outcome":0,"trial":85,"correct":2,"trial_type":"three-arm-trial","trial_index":93,"time_elapsed":911723,"internal_node_id":"0.0-91.0-0.0","task_version":"screening-mturk","missing":false,"accuracy":0},{"contexts":["blue","red","green"],"outcomes":[0,1,1],"key":37,"choice":0,"rt":29.775000002700835,"outcome":0,"trial":86,"correct":2,"trial_type":"three-arm-trial","trial_index":94,"time_elapsed":912968,"internal_node_id":"0.0-92.0-0.0","task_version":"screening-mturk","missing":false,"accuracy":0},{"contexts":["blue","red","green"],"outcomes":[0,0,1],"key":39,"choice":2,"rt":81.66999999957625,"outcome":1,"trial":87,"correct":2,"trial_type":"three-arm-trial","trial_index":95,"time_elapsed":914267,"internal_node_id":"0.0-93.0-0.0","task_version":"screening-mturk","missing":false,"accuracy":1},{"contexts":["blue","red","green"],"outcomes":[0,1,1],"key":38,"choice":1,"rt":215.1400000002468,"outcome":1,"trial":88,"correct":2,"trial_type":"three-arm-trial","trial_index":96,"time_elapsed":915698,"internal_node_id":"0.0-94.0-0.0","task_version":"screening-mturk","missing":false,"accuracy":0},{"contexts":["blue","red","green"],"outcomes":[0,0,1],"key":39,"choice":2,"rt":37.74499999417458,"outcome":1,"trial":89,"correct":2,"trial_type":"three-arm-trial","trial_index":97,"time_elapsed":916948,"internal_node_id":"0.0-95.0-0.0","task_version":"screening-mturk","missing":false,"accuracy":1},{"contexts":["blue","red","green"],"outcomes":[0,1,0],"key":37,"choice":0,"rt":64.58999999449588,"outcome":0,"trial":90,"correct":2,"trial_type":"three-arm-trial","trial_index":98,"time_elapsed":918231,"internal_node_id":"0.0-96.0-0.0","task_version":"screening-mturk","missing":false,"accuracy":0},{"rt":17608.25499999919,"responses":{"age":"50","gender-categorical":"Male","gender-free-response":"","ethnicity":"Not Hispanic or Latino","race":["White"],"language":"Yes","fluency":"Very well","prolific":"No","prolific-this-study":"No"},"survey":"demographics","trial_type":"survey-demo","trial_index":99,"time_elapsed":935866,"internal_node_id":"0.0-97.0","task_version":"screening-mturk","interactions":"[{\"event\":\"blur\",\"trial\":4,\"time\":559309},{\"event\":\"focus\",\"trial\":4,\"time\":570302}]"}]