[{"responses":{"Q01":"3","Q05":"3","Q10":"2","Q06":"3","Q09":"2","Q12":"2","Q02":"2","Q13":"3","Q08":"3","Q11":"2","Q03":"3","Q07":"3","Q04":"2"},"rt":190592.61999998125,"survey":"bisbas","trial_type":"survey-template","trial_index":0,"time_elapsed":190618,"internal_node_id":"0.0-0.0","task_version":"screening-mturk"},{"responses":{"Q03":"0","Q02":"1","Q01":"1"},"rt":17605.86000001058,"survey":"pswq","trial_type":"survey-template","trial_index":1,"time_elapsed":208229,"internal_node_id":"0.0-1.0","task_version":"screening-mturk"},{"responses":{"Q05":"2","Q04":"2","Q02":"0","Q07":"0","Q08":"0","Q03":"0","Q01":"0","Q06":"0"},"rt":27301.47500001476,"survey":"gad7","trial_type":"survey-template","trial_index":2,"time_elapsed":235536,"internal_node_id":"0.0-2.0","task_version":"screening-mturk"},{"responses":{"Q14":"2","Q06":"1","Q02":"2","Q12":"2","Q01":"2","Q09":"1","Q11":"0","Q13":"0","Q15":"2","Q03":"1","Q07":"1","Q10":"2","Q08":"1","Q04":"1","Q05":"2"},"rt":78058.03500002366,"survey":"7up7down","trial_type":"survey-template","trial_index":3,"time_elapsed":313601,"internal_node_id":"0.0-3.0","task_version":"screening-mturk"},{"responses":{"Q07":"3","Q04":"3","Q02":"3","Q15":"3","Q05":"2","Q08":"2","Q13":"3","Q01":"3","Q06":"3","Q11":"3","Q09":"3","Q12":"3","Q03":"3","Q14":"3","Q10":"3"},"rt":32349.034999992,"survey":"shaps","trial_type":"survey-template","trial_index":4,"time_elapsed":345955,"internal_node_id":"0.0-4.0","task_version":"screening-mturk"},{"view_history":"[{\"page_index\":0,\"viewing_time\":9611.61500000162},{\"page_index\":1,\"viewing_time\":19734.905000019353},{\"page_index\":2,\"viewing_time\":64315.245000005234},{\"page_index\":3,\"viewing_time\":13130.394999985583},{\"page_index\":4,\"viewing_time\":2527.3900000029244},{\"page_index\":3,\"viewing_time\":2529.4299999950454},{\"page_index\":4,\"viewing_time\":26186.14500001422},{\"page_index\":5,\"viewing_time\":9226.974999997765},{\"page_index\":6,\"viewing_time\":4125.509999983478},{\"page_index\":7,\"viewing_time\":6500.765000004321}]","rt":157889.76000002003,"trial_type":"instructions","trial_index":5,"time_elapsed":503852,"internal_node_id":"0.0-5.0-0.0","task_version":"screening-mturk"},{"responses":["True","True","True","True","True"],"num_errors":2,"rt":30205.790000007255,"trial_type":"three-arm-comprehension","trial_index":6,"time_elapsed":534063,"internal_node_id":"0.0-5.0-1.0","task_version":"screening-mturk"},{"view_history":"[{\"page_index\":0,\"viewing_time\":4631.72500001383},{\"page_index\":1,\"viewing_time\":7149.069999984931},{\"page_index\":2,\"viewing_time\":1481.404999998631},{\"page_index\":3,\"viewing_time\":924.830000003567},{\"page_index\":4,\"viewing_time\":955.1400000054855},{\"page_index\":5,\"viewing_time\":848.2549999898765},{\"page_index\":6,\"viewing_time\":878.450000018347},{\"page_index\":7,\"viewing_time\":921.0349999775644}]","rt":17790.540000016335,"trial_type":"instructions","trial_index":7,"time_elapsed":551859,"internal_node_id":"0.0-5.1-0.1","task_version":"screening-mturk"},{"responses":["True","False","True","False","True"],"num_errors":2,"rt":20551.210000005085,"trial_type":"three-arm-comprehension","trial_index":8,"time_elapsed":572414,"internal_node_id":"0.0-5.1-1.1","task_version":"screening-mturk"},{"view_history":"[{\"page_index\":0,\"viewing_time\":16954.209999996237},{\"page_index\":1,\"viewing_time\":7811.664999986533},{\"page_index\":2,\"viewing_time\":8217.150000011316},{\"page_index\":3,\"viewing_time\":3018.275000009453},{\"page_index\":4,\"viewing_time\":69192.11499998346},{\"page_index\":5,\"viewing_time\":5598.450000019511},{\"page_index\":6,\"viewing_time\":4638.859999977285},{\"page_index\":7,\"viewing_time\":4209.865000011632}]","rt":119641.31000000634,"trial_type":"instructions","trial_index":9,"time_elapsed":692060,"internal_node_id":"0.0-5.2-0.2","task_version":"screening-mturk"},{"responses":["True","True","True","False","False"],"num_errors":2,"rt":66884.9400000181,"trial_type":"three-arm-comprehension","trial_index":10,"time_elapsed":758950,"internal_node_id":"0.0-5.2-1.2","task_version":"screening-mturk"},{"view_history":"[{\"page_index\":0,\"viewing_time\":2250.3950000100303},{\"page_index\":1,\"viewing_time\":728.3499999903142},{\"page_index\":2,\"viewing_time\":236.0800000024028},{\"page_index\":3,\"viewing_time\":246.63999999756925},{\"page_index\":4,\"viewing_time\":102.4150000012014},{\"page_index\":5,\"viewing_time\":184.41499999607913},{\"page_index\":6,\"viewing_time\":396.05999999912456},{\"page_index\":7,\"viewing_time\":234.01500002364628}]","rt":4380.470000003697,"trial_type":"instructions","trial_index":11,"time_elapsed":763335,"internal_node_id":"0.0-5.3-0.3","task_version":"screening-mturk"},{"responses":["True","True","True","True","False"],"num_errors":3,"rt":11106.404999998631,"trial_type":"three-arm-comprehension","trial_index":12,"time_elapsed":774445,"internal_node_id":"0.0-5.3-1.3","task_version":"screening-mturk"},{"view_history":"[{\"page_index\":0,\"viewing_time\":1833.424999989802},{\"page_index\":1,\"viewing_time\":193.31999999121763},{\"page_index\":2,\"viewing_time\":219.6700000204146},{\"page_index\":3,\"viewing_time\":205.69499998237006},{\"page_index\":4,\"viewing_time\":163.85499999159947},{\"page_index\":5,\"viewing_time\":277.6700000104029},{\"page_index\":6,\"viewing_time\":133.8300000061281},{\"page_index\":7,\"viewing_time\":802.7249999868218}]","rt":3830.7849999982864,"trial_type":"instructions","trial_index":13,"time_elapsed":778280,"internal_node_id":"0.0-5.4-0.4","task_version":"screening-mturk"},{"responses":["True","True","True","False","True"],"num_errors":1,"rt":11228.76999998698,"trial_type":"three-arm-comprehension","trial_index":14,"time_elapsed":789513,"internal_node_id":"0.0-5.4-1.4","task_version":"screening-mturk"},{"view_history":"[{\"page_index\":0,\"viewing_time\":1994.555000012042},{\"page_index\":1,\"viewing_time\":198.85999997495674},{\"page_index\":2,\"viewing_time\":227.27500001201406},{\"page_index\":3,\"viewing_time\":260.98500000080094},{\"page_index\":4,\"viewing_time\":157.26499998709187},{\"page_index\":5,\"viewing_time\":207.02500001061708},{\"page_index\":6,\"viewing_time\":334.9900000030175},{\"page_index\":7,\"viewing_time\":299.6299999940675}]","rt":3681.1999999918044,"trial_type":"instructions","trial_index":15,"time_elapsed":793197,"internal_node_id":"0.0-5.5-0.5","task_version":"screening-mturk"},{"responses":["True","True","False","False","True"],"num_errors":0,"rt":9433.420000015758,"trial_type":"three-arm-comprehension","trial_index":16,"time_elapsed":802639,"internal_node_id":"0.0-5.5-1.5","task_version":"screening-mturk"},{"view_history":"[{\"page_index\":0,\"viewing_time\":4273.734999995213}]","rt":4274.439999979222,"trial_type":"instructions","trial_index":17,"time_elapsed":806918,"internal_node_id":"0.0-6.0","task_version":"screening-mturk"},{"contexts":["green","red","blue"],"outcomes":[1,0,0],"key":37,"choice":0,"rt":8125.814999977592,"outcome":1,"trial":1,"correct":0,"trial_type":"three-arm-trial","trial_index":18,"time_elapsed":816319,"internal_node_id":"0.0-7.0-0.0","task_version":"screening-mturk","missing":false,"accuracy":1},{"contexts":["green","red","blue"],"outcomes":[1,0,0],"key":39,"choice":2,"rt":1375.7199999818113,"outcome":0,"trial":2,"correct":0,"trial_type":"three-arm-trial","trial_index":19,"time_elapsed":818916,"internal_node_id":"0.0-8.0-0.0","task_version":"screening-mturk","missing":false,"accuracy":0},{"contexts":["green","red","blue"],"outcomes":[1,0,1],"key":38,"choice":1,"rt":3039.8800000257324,"outcome":0,"trial":3,"correct":0,"trial_type":"three-arm-trial","trial_index":20,"time_elapsed":823167,"internal_node_id":"0.0-9.0-0.0","task_version":"screening-mturk","missing":false,"accuracy":0},{"contexts":["green","red","blue"],"outcomes":[1,0,0],"key":37,"choice":0,"rt":1524.890000000596,"outcome":1,"trial":4,"correct":0,"trial_type":"three-arm-trial","trial_index":21,"time_elapsed":825914,"internal_node_id":"0.0-10.0-0.0","task_version":"screening-mturk","missing":false,"accuracy":1},{"contexts":["green","red","blue"],"outcomes":[1,0,0],"key":37,"choice":0,"rt":2352.119999995921,"outcome":1,"trial":5,"correct":0,"trial_type":"three-arm-trial","trial_index":22,"time_elapsed":829473,"internal_node_id":"0.0-11.0-0.0","task_version":"screening-mturk","missing":false,"accuracy":1},{"contexts":["green","red","blue"],"outcomes":[1,0,0],"key":37,"choice":0,"rt":1137.5149999803398,"outcome":1,"trial":6,"correct":0,"trial_type":"three-arm-trial","trial_index":23,"time_elapsed":831823,"internal_node_id":"0.0-12.0-0.0","task_version":"screening-mturk","missing":false,"accuracy":1},{"contexts":["green","red","blue"],"outcomes":[1,0,0],"key":37,"choice":0,"rt":973.4999999927823,"outcome":1,"trial":7,"correct":0,"trial_type":"three-arm-trial","trial_index":24,"time_elapsed":834104,"internal_node_id":"0.0-13.0-0.0","task_version":"screening-mturk","missing":false,"accuracy":1},{"contexts":["green","red","blue"],"outcomes":[1,0,1],"key":37,"choice":0,"rt":1058.1050000037067,"outcome":1,"trial":8,"correct":0,"trial_type":"three-arm-trial","trial_index":25,"time_elapsed":836388,"internal_node_id":"0.0-14.0-0.0","task_version":"screening-mturk","missing":false,"accuracy":1},{"contexts":["green","red","blue"],"outcomes":[1,0,0],"key":37,"choice":0,"rt":1469.1099999763537,"outcome":1,"trial":9,"correct":0,"trial_type":"three-arm-trial","trial_index":26,"time_elapsed":839081,"internal_node_id":"0.0-15.0-0.0","task_version":"screening-mturk","missing":false,"accuracy":1},{"contexts":["green","red","blue"],"outcomes":[0,0,0],"key":37,"choice":0,"rt":868.1800000194926,"outcome":0,"trial":10,"correct":0,"trial_type":"three-arm-trial","trial_index":27,"time_elapsed":841203,"internal_node_id":"0.0-16.0-0.0","task_version":"screening-mturk","missing":false,"accuracy":1},{"contexts":["green","red","blue"],"outcomes":[1,0,0],"key":39,"choice":2,"rt":1273.829999990994,"outcome":0,"trial":11,"correct":0,"trial_type":"three-arm-trial","trial_index":28,"time_elapsed":843690,"internal_node_id":"0.0-17.0-0.0","task_version":"screening-mturk","missing":false,"accuracy":0},{"contexts":["green","red","blue"],"outcomes":[1,1,1],"key":38,"choice":1,"rt":506.09999999869615,"outcome":1,"trial":12,"correct":0,"trial_type":"three-arm-trial","trial_index":29,"time_elapsed":845418,"internal_node_id":"0.0-18.0-0.0","task_version":"screening-mturk","missing":false,"accuracy":0},{"contexts":["green","red","blue"],"outcomes":[1,1,1],"key":38,"choice":1,"rt":1003.9649999816902,"outcome":1,"trial":13,"correct":0,"trial_type":"three-arm-trial","trial_index":30,"time_elapsed":847632,"internal_node_id":"0.0-19.0-0.0","task_version":"screening-mturk","missing":false,"accuracy":0},{"contexts":["green","red","blue"],"outcomes":[1,0,0],"key":38,"choice":1,"rt":784.799999993993,"outcome":0,"trial":14,"correct":0,"trial_type":"three-arm-trial","trial_index":31,"time_elapsed":849635,"internal_node_id":"0.0-20.0-0.0","task_version":"screening-mturk","missing":false,"accuracy":0},{"contexts":["green","red","blue"],"outcomes":[1,0,0],"key":37,"choice":0,"rt":1407.774999999674,"outcome":1,"trial":15,"correct":0,"trial_type":"three-arm-trial","trial_index":32,"time_elapsed":852256,"internal_node_id":"0.0-21.0-0.0","task_version":"screening-mturk","missing":false,"accuracy":1},{"contexts":["green","red","blue"],"outcomes":[1,1,0],"key":37,"choice":0,"rt":976.8000000040047,"outcome":1,"trial":16,"correct":1,"trial_type":"three-arm-trial","trial_index":33,"time_elapsed":854442,"internal_node_id":"0.0-22.0-0.0","task_version":"screening-mturk","missing":false,"accuracy":0},{"contexts":["green","red","blue"],"outcomes":[1,1,0],"key":37,"choice":0,"rt":1123.3350000111386,"outcome":1,"trial":17,"correct":1,"trial_type":"three-arm-trial","trial_index":34,"time_elapsed":856791,"internal_node_id":"0.0-23.0-0.0","task_version":"screening-mturk","missing":false,"accuracy":0},{"contexts":["green","red","blue"],"outcomes":[0,0,0],"key":37,"choice":0,"rt":1132.419999979902,"outcome":0,"trial":18,"correct":1,"trial_type":"three-arm-trial","trial_index":35,"time_elapsed":859136,"internal_node_id":"0.0-24.0-0.0","task_version":"screening-mturk","missing":false,"accuracy":0},{"contexts":["green","red","blue"],"outcomes":[0,1,0],"key":39,"choice":2,"rt":816.1149999941699,"outcome":0,"trial":19,"correct":1,"trial_type":"three-arm-trial","trial_index":36,"time_elapsed":861165,"internal_node_id":"0.0-25.0-0.0","task_version":"screening-mturk","missing":false,"accuracy":0},{"contexts":["green","red","blue"],"outcomes":[0,1,0],"key":38,"choice":1,"rt":773.7450000131503,"outcome":1,"trial":20,"correct":1,"trial_type":"three-arm-trial","trial_index":37,"time_elapsed":863144,"internal_node_id":"0.0-26.0-0.0","task_version":"screening-mturk","missing":false,"accuracy":1},{"contexts":["green","red","blue"],"outcomes":[0,1,1],"key":38,"choice":1,"rt":959.35499999905,"outcome":1,"trial":21,"correct":1,"trial_type":"three-arm-trial","trial_index":38,"time_elapsed":865321,"internal_node_id":"0.0-27.0-0.0","task_version":"screening-mturk","missing":false,"accuracy":1},{"contexts":["green","red","blue"],"outcomes":[1,1,0],"key":38,"choice":1,"rt":1220.6000000005588,"outcome":1,"trial":22,"correct":1,"trial_type":"three-arm-trial","trial_index":39,"time_elapsed":867758,"internal_node_id":"0.0-28.0-0.0","task_version":"screening-mturk","missing":false,"accuracy":1},{"contexts":["green","red","blue"],"outcomes":[0,0,0],"key":38,"choice":1,"rt":1525.5100000067614,"outcome":0,"trial":23,"correct":1,"trial_type":"three-arm-trial","trial_index":40,"time_elapsed":870487,"internal_node_id":"0.0-29.0-0.0","task_version":"screening-mturk","missing":false,"accuracy":1},{"contexts":["green","red","blue"],"outcomes":[0,1,0],"key":37,"choice":0,"rt":1854.684999998426,"outcome":0,"trial":24,"correct":1,"trial_type":"three-arm-trial","trial_index":41,"time_elapsed":873578,"internal_node_id":"0.0-30.0-0.0","task_version":"screening-mturk","missing":false,"accuracy":0},{"contexts":["green","red","blue"],"outcomes":[0,1,1],"key":39,"choice":2,"rt":990.5949999811128,"outcome":1,"trial":25,"correct":1,"trial_type":"three-arm-trial","trial_index":42,"time_elapsed":875785,"internal_node_id":"0.0-31.0-0.0","task_version":"screening-mturk","missing":false,"accuracy":0},{"contexts":["green","red","blue"],"outcomes":[0,0,0],"key":39,"choice":2,"rt":2167.840000009164,"outcome":0,"trial":26,"correct":1,"trial_type":"three-arm-trial","trial_index":43,"time_elapsed":879160,"internal_node_id":"0.0-32.0-0.0","task_version":"screening-mturk","missing":false,"accuracy":0},{"contexts":["green","red","blue"],"outcomes":[0,1,0],"key":38,"choice":1,"rt":1609.440000000177,"outcome":1,"trial":27,"correct":1,"trial_type":"three-arm-trial","trial_index":44,"time_elapsed":881977,"internal_node_id":"0.0-33.0-0.0","task_version":"screening-mturk","missing":false,"accuracy":1},{"contexts":["green","red","blue"],"outcomes":[0,1,0],"key":38,"choice":1,"rt":1188.3300000044983,"outcome":1,"trial":28,"correct":1,"trial_type":"three-arm-trial","trial_index":45,"time_elapsed":884381,"internal_node_id":"0.0-34.0-0.0","task_version":"screening-mturk","missing":false,"accuracy":1},{"contexts":["green","red","blue"],"outcomes":[1,1,0],"key":38,"choice":1,"rt":1156.3849999802187,"outcome":1,"trial":29,"correct":1,"trial_type":"three-arm-trial","trial_index":46,"time_elapsed":886759,"internal_node_id":"0.0-35.0-0.0","task_version":"screening-mturk","missing":false,"accuracy":1},{"contexts":["green","red","blue"],"outcomes":[0,0,0],"key":38,"choice":1,"rt":1061.2299999920651,"outcome":0,"trial":30,"correct":1,"trial_type":"three-arm-trial","trial_index":47,"time_elapsed":889050,"internal_node_id":"0.0-36.0-0.0","task_version":"screening-mturk","missing":false,"accuracy":1},{"contexts":["green","red","blue"],"outcomes":[0,0,1],"key":37,"choice":0,"rt":1292.2850000031758,"outcome":0,"trial":31,"correct":2,"trial_type":"three-arm-trial","trial_index":48,"time_elapsed":891589,"internal_node_id":"0.0-37.0-0.0","task_version":"screening-mturk","missing":false,"accuracy":0},{"contexts":["green","red","blue"],"outcomes":[0,0,1],"key":39,"choice":2,"rt":1543.8049999938812,"outcome":1,"trial":32,"correct":2,"trial_type":"three-arm-trial","trial_index":49,"time_elapsed":894350,"internal_node_id":"0.0-38.0-0.0","task_version":"screening-mturk","missing":false,"accuracy":1},{"contexts":["green","red","blue"],"outcomes":[0,0,1],"key":39,"choice":2,"rt":1817.3749999841675,"outcome":1,"trial":33,"correct":2,"trial_type":"three-arm-trial","trial_index":50,"time_elapsed":897381,"internal_node_id":"0.0-39.0-0.0","task_version":"screening-mturk","missing":false,"accuracy":1},{"contexts":["green","red","blue"],"outcomes":[0,1,1],"key":39,"choice":2,"rt":2224.1050000011455,"outcome":1,"trial":34,"correct":2,"trial_type":"three-arm-trial","trial_index":51,"time_elapsed":900816,"internal_node_id":"0.0-40.0-0.0","task_version":"screening-mturk","missing":false,"accuracy":1},{"contexts":["green","red","blue"],"outcomes":[1,0,0],"key":38,"choice":1,"rt":1233.7299999780953,"outcome":0,"trial":35,"correct":2,"trial_type":"three-arm-trial","trial_index":52,"time_elapsed":903293,"internal_node_id":"0.0-41.0-0.0","task_version":"screening-mturk","missing":false,"accuracy":0},{"contexts":["green","red","blue"],"outcomes":[0,0,1],"key":39,"choice":2,"rt":132.2049999726005,"outcome":1,"trial":36,"correct":2,"trial_type":"three-arm-trial","trial_index":53,"time_elapsed":904628,"internal_node_id":"0.0-42.0-0.0","task_version":"screening-mturk","missing":false,"accuracy":1},{"contexts":["green","red","blue"],"outcomes":[0,0,0],"key":39,"choice":2,"rt":882.45000000461,"outcome":0,"trial":37,"correct":2,"trial_type":"three-arm-trial","trial_index":54,"time_elapsed":906727,"internal_node_id":"0.0-43.0-0.0","task_version":"screening-mturk","missing":false,"accuracy":1},{"contexts":["green","red","blue"],"outcomes":[0,0,1],"key":39,"choice":2,"rt":1871.5099999972153,"outcome":1,"trial":38,"correct":2,"trial_type":"three-arm-trial","trial_index":55,"time_elapsed":909807,"internal_node_id":"0.0-44.0-0.0","task_version":"screening-mturk","missing":false,"accuracy":1},{"contexts":["green","red","blue"],"outcomes":[1,0,1],"key":39,"choice":2,"rt":1394.7950000001583,"outcome":1,"trial":39,"correct":2,"trial_type":"three-arm-trial","trial_index":56,"time_elapsed":912409,"internal_node_id":"0.0-45.0-0.0","task_version":"screening-mturk","missing":false,"accuracy":1},{"contexts":["green","red","blue"],"outcomes":[0,0,1],"key":39,"choice":2,"rt":843.1400000117719,"outcome":1,"trial":40,"correct":2,"trial_type":"three-arm-trial","trial_index":57,"time_elapsed":914471,"internal_node_id":"0.0-46.0-0.0","task_version":"screening-mturk","missing":false,"accuracy":1},{"contexts":["green","red","blue"],"outcomes":[1,0,1],"key":39,"choice":2,"rt":1474.5199999888428,"outcome":1,"trial":41,"correct":2,"trial_type":"three-arm-trial","trial_index":58,"time_elapsed":917168,"internal_node_id":"0.0-47.0-0.0","task_version":"screening-mturk","missing":false,"accuracy":1},{"contexts":["green","red","blue"],"outcomes":[0,0,1],"key":39,"choice":2,"rt":1315.7999999821186,"outcome":1,"trial":42,"correct":2,"trial_type":"three-arm-trial","trial_index":59,"time_elapsed":919703,"internal_node_id":"0.0-48.0-0.0","task_version":"screening-mturk","missing":false,"accuracy":1},{"contexts":["green","red","blue"],"outcomes":[1,0,1],"key":39,"choice":2,"rt":807.1899999922607,"outcome":1,"trial":43,"correct":2,"trial_type":"three-arm-trial","trial_index":60,"time_elapsed":921732,"internal_node_id":"0.0-49.0-0.0","task_version":"screening-mturk","missing":false,"accuracy":1},{"contexts":["green","red","blue"],"outcomes":[1,1,1],"key":39,"choice":2,"rt":935.5650000215974,"outcome":1,"trial":44,"correct":2,"trial_type":"three-arm-trial","trial_index":61,"time_elapsed":923883,"internal_node_id":"0.0-50.0-0.0","task_version":"screening-mturk","missing":false,"accuracy":1},{"contexts":["green","red","blue"],"outcomes":[0,0,1],"key":39,"choice":2,"rt":1218.764999997802,"outcome":1,"trial":45,"correct":2,"trial_type":"three-arm-trial","trial_index":62,"time_elapsed":926318,"internal_node_id":"0.0-51.0-0.0","task_version":"screening-mturk","missing":false,"accuracy":1},{"contexts":["green","red","blue"],"outcomes":[0,1,0],"key":39,"choice":2,"rt":1156.8499999993946,"outcome":0,"trial":46,"correct":1,"trial_type":"three-arm-trial","trial_index":63,"time_elapsed":928695,"internal_node_id":"0.0-52.0-0.0","task_version":"screening-mturk","missing":false,"accuracy":0},{"contexts":["green","red","blue"],"outcomes":[0,0,0],"key":37,"choice":0,"rt":1213.065000018105,"outcome":0,"trial":47,"correct":1,"trial_type":"three-arm-trial","trial_index":64,"time_elapsed":931121,"internal_node_id":"0.0-53.0-0.0","task_version":"screening-mturk","missing":false,"accuracy":0},{"contexts":["green","red","blue"],"outcomes":[0,1,1],"key":38,"choice":1,"rt":983.8000000163447,"outcome":1,"trial":48,"correct":1,"trial_type":"three-arm-trial","trial_index":65,"time_elapsed":933323,"internal_node_id":"0.0-54.0-0.0","task_version":"screening-mturk","missing":false,"accuracy":1},{"contexts":["green","red","blue"],"outcomes":[0,1,0],"key":38,"choice":1,"rt":1084.5400000107475,"outcome":1,"trial":49,"correct":1,"trial_type":"three-arm-trial","trial_index":66,"time_elapsed":935627,"internal_node_id":"0.0-55.0-0.0","task_version":"screening-mturk","missing":false,"accuracy":1},{"contexts":["green","red","blue"],"outcomes":[0,1,0],"key":38,"choice":1,"rt":1008.4299999871291,"outcome":1,"trial":50,"correct":1,"trial_type":"three-arm-trial","trial_index":67,"time_elapsed":937853,"internal_node_id":"0.0-56.0-0.0","task_version":"screening-mturk","missing":false,"accuracy":1},{"contexts":["green","red","blue"],"outcomes":[0,1,0],"key":38,"choice":1,"rt":1757.0899999991525,"outcome":1,"trial":51,"correct":1,"trial_type":"three-arm-trial","trial_index":68,"time_elapsed":940816,"internal_node_id":"0.0-57.0-0.0","task_version":"screening-mturk","missing":false,"accuracy":1},{"contexts":["green","red","blue"],"outcomes":[0,0,0],"key":38,"choice":1,"rt":847.9700000025332,"outcome":0,"trial":52,"correct":1,"trial_type":"three-arm-trial","trial_index":69,"time_elapsed":942886,"internal_node_id":"0.0-58.0-0.0","task_version":"screening-mturk","missing":false,"accuracy":1},{"contexts":["green","red","blue"],"outcomes":[0,1,1],"key":38,"choice":1,"rt":257.0699999923818,"outcome":1,"trial":53,"correct":1,"trial_type":"three-arm-trial","trial_index":70,"time_elapsed":944352,"internal_node_id":"0.0-59.0-0.0","task_version":"screening-mturk","missing":false,"accuracy":1},{"contexts":["green","red","blue"],"outcomes":[1,1,0],"key":37,"choice":0,"rt":284.88500000094064,"outcome":1,"trial":54,"correct":1,"trial_type":"three-arm-trial","trial_index":71,"time_elapsed":945927,"internal_node_id":"0.0-60.0-0.0","task_version":"screening-mturk","missing":false,"accuracy":0},{"contexts":["green","red","blue"],"outcomes":[1,0,0],"key":37,"choice":0,"rt":1400.2050000126474,"outcome":1,"trial":55,"correct":1,"trial_type":"three-arm-trial","trial_index":72,"time_elapsed":948545,"internal_node_id":"0.0-61.0-0.0","task_version":"screening-mturk","missing":false,"accuracy":0},{"contexts":["green","red","blue"],"outcomes":[0,1,0],"key":37,"choice":0,"rt":1909.444999997504,"outcome":0,"trial":56,"correct":1,"trial_type":"three-arm-trial","trial_index":73,"time_elapsed":951658,"internal_node_id":"0.0-62.0-0.0","task_version":"screening-mturk","missing":false,"accuracy":0},{"contexts":["green","red","blue"],"outcomes":[0,1,0],"key":39,"choice":2,"rt":1229.5450000092387,"outcome":0,"trial":57,"correct":1,"trial_type":"three-arm-trial","trial_index":74,"time_elapsed":954139,"internal_node_id":"0.0-63.0-0.0","task_version":"screening-mturk","missing":false,"accuracy":0},{"contexts":["green","red","blue"],"outcomes":[0,1,0],"key":38,"choice":1,"rt":1056.0100000002421,"outcome":1,"trial":58,"correct":1,"trial_type":"three-arm-trial","trial_index":75,"time_elapsed":956423,"internal_node_id":"0.0-64.0-0.0","task_version":"screening-mturk","missing":false,"accuracy":1},{"contexts":["green","red","blue"],"outcomes":[0,1,0],"key":38,"choice":1,"rt":2310.6900000129826,"outcome":1,"trial":59,"correct":1,"trial_type":"three-arm-trial","trial_index":76,"time_elapsed":959945,"internal_node_id":"0.0-65.0-0.0","task_version":"screening-mturk","missing":false,"accuracy":1},{"contexts":["green","red","blue"],"outcomes":[0,0,0],"key":38,"choice":1,"rt":285.9149999858346,"outcome":0,"trial":60,"correct":1,"trial_type":"three-arm-trial","trial_index":77,"time_elapsed":961446,"internal_node_id":"0.0-66.0-0.0","task_version":"screening-mturk","missing":false,"accuracy":1},{"contexts":["green","red","blue"],"outcomes":[0,0,0],"key":37,"choice":0,"rt":1060.2700000163168,"outcome":0,"trial":61,"correct":0,"trial_type":"three-arm-trial","trial_index":78,"time_elapsed":963722,"internal_node_id":"0.0-67.0-0.0","task_version":"screening-mturk","missing":false,"accuracy":1},{"contexts":["green","red","blue"],"outcomes":[0,0,1],"key":39,"choice":2,"rt":920.2149999910034,"outcome":1,"trial":62,"correct":0,"trial_type":"three-arm-trial","trial_index":79,"time_elapsed":965851,"internal_node_id":"0.0-68.0-0.0","task_version":"screening-mturk","missing":false,"accuracy":0},{"contexts":["green","red","blue"],"outcomes":[1,0,0],"key":39,"choice":2,"rt":881.3450000016019,"outcome":0,"trial":63,"correct":0,"trial_type":"three-arm-trial","trial_index":80,"time_elapsed":967944,"internal_node_id":"0.0-69.0-0.0","task_version":"screening-mturk","missing":false,"accuracy":0},{"contexts":["green","red","blue"],"outcomes":[1,0,1],"key":38,"choice":1,"rt":813.5849999962375,"outcome":0,"trial":64,"correct":0,"trial_type":"three-arm-trial","trial_index":81,"time_elapsed":969973,"internal_node_id":"0.0-70.0-0.0","task_version":"screening-mturk","missing":false,"accuracy":0},{"contexts":["green","red","blue"],"outcomes":[1,0,1],"key":37,"choice":0,"rt":915.9900000086054,"outcome":1,"trial":65,"correct":0,"trial_type":"three-arm-trial","trial_index":82,"time_elapsed":972101,"internal_node_id":"0.0-71.0-0.0","task_version":"screening-mturk","missing":false,"accuracy":1},{"contexts":["green","red","blue"],"outcomes":[1,0,1],"key":37,"choice":0,"rt":1600.1499999838416,"outcome":1,"trial":66,"correct":0,"trial_type":"three-arm-trial","trial_index":83,"time_elapsed":974918,"internal_node_id":"0.0-72.0-0.0","task_version":"screening-mturk","missing":false,"accuracy":1},{"contexts":["green","red","blue"],"outcomes":[1,0,0],"key":37,"choice":0,"rt":2348.8450000004377,"outcome":1,"trial":67,"correct":0,"trial_type":"three-arm-trial","trial_index":84,"time_elapsed":978481,"internal_node_id":"0.0-73.0-0.0","task_version":"screening-mturk","missing":false,"accuracy":1},{"contexts":["green","red","blue"],"outcomes":[1,0,0],"key":37,"choice":0,"rt":932.135000010021,"outcome":1,"trial":68,"correct":0,"trial_type":"three-arm-trial","trial_index":85,"time_elapsed":980643,"internal_node_id":"0.0-74.0-0.0","task_version":"screening-mturk","missing":false,"accuracy":1},{"contexts":["green","red","blue"],"outcomes":[1,0,0],"key":37,"choice":0,"rt":52.21500000334345,"outcome":1,"trial":69,"correct":0,"trial_type":"three-arm-trial","trial_index":86,"time_elapsed":981916,"internal_node_id":"0.0-75.0-0.0","task_version":"screening-mturk","missing":false,"accuracy":1},{"contexts":["green","red","blue"],"outcomes":[1,0,0],"key":37,"choice":0,"rt":867.5599999842234,"outcome":1,"trial":70,"correct":0,"trial_type":"three-arm-trial","trial_index":87,"time_elapsed":983988,"internal_node_id":"0.0-76.0-0.0","task_version":"screening-mturk","missing":false,"accuracy":1},{"contexts":["green","red","blue"],"outcomes":[0,1,0],"key":37,"choice":0,"rt":1686.6799999843352,"outcome":0,"trial":71,"correct":0,"trial_type":"three-arm-trial","trial_index":88,"time_elapsed":986918,"internal_node_id":"0.0-77.0-0.0","task_version":"screening-mturk","missing":false,"accuracy":1},{"contexts":["green","red","blue"],"outcomes":[1,0,0],"key":39,"choice":2,"rt":1086.7549999966286,"outcome":0,"trial":72,"correct":0,"trial_type":"three-arm-trial","trial_index":89,"time_elapsed":989225,"internal_node_id":"0.0-78.0-0.0","task_version":"screening-mturk","missing":false,"accuracy":0},{"contexts":["green","red","blue"],"outcomes":[0,0,1],"key":39,"choice":2,"rt":1192.7499999874271,"outcome":1,"trial":73,"correct":0,"trial_type":"three-arm-trial","trial_index":90,"time_elapsed":991637,"internal_node_id":"0.0-79.0-0.0","task_version":"screening-mturk","missing":false,"accuracy":0},{"contexts":["green","red","blue"],"outcomes":[1,0,1],"key":39,"choice":2,"rt":1940.629999997327,"outcome":1,"trial":74,"correct":0,"trial_type":"three-arm-trial","trial_index":91,"time_elapsed":994793,"internal_node_id":"0.0-80.0-0.0","task_version":"screening-mturk","missing":false,"accuracy":0},{"contexts":["green","red","blue"],"outcomes":[1,0,0],"key":39,"choice":2,"rt":1895.8149999962188,"outcome":0,"trial":75,"correct":0,"trial_type":"three-arm-trial","trial_index":92,"time_elapsed":997892,"internal_node_id":"0.0-81.0-0.0","task_version":"screening-mturk","missing":false,"accuracy":0},{"contexts":["green","red","blue"],"outcomes":[0,0,1],"key":39,"choice":2,"rt":270.52499999990687,"outcome":1,"trial":76,"correct":2,"trial_type":"three-arm-trial","trial_index":93,"time_elapsed":999377,"internal_node_id":"0.0-82.0-0.0","task_version":"screening-mturk","missing":false,"accuracy":1},{"contexts":["green","red","blue"],"outcomes":[0,0,1],"key":39,"choice":2,"rt":971.6850000259001,"outcome":1,"trial":77,"correct":2,"trial_type":"three-arm-trial","trial_index":94,"time_elapsed":1001636,"internal_node_id":"0.0-83.0-0.0","task_version":"screening-mturk","missing":false,"accuracy":1},{"contexts":["green","red","blue"],"outcomes":[0,0,0],"key":39,"choice":2,"rt":1093.285000009928,"outcome":0,"trial":78,"correct":2,"trial_type":"three-arm-trial","trial_index":95,"time_elapsed":1003981,"internal_node_id":"0.0-84.0-0.0","task_version":"screening-mturk","missing":false,"accuracy":1},{"contexts":["green","red","blue"],"outcomes":[1,1,1],"key":37,"choice":0,"rt":1158.5449999838602,"outcome":1,"trial":79,"correct":2,"trial_type":"three-arm-trial","trial_index":96,"time_elapsed":1006452,"internal_node_id":"0.0-85.0-0.0","task_version":"screening-mturk","missing":false,"accuracy":0},{"contexts":["green","red","blue"],"outcomes":[0,1,1],"key":37,"choice":0,"rt":1060.9600000025239,"outcome":0,"trial":80,"correct":2,"trial_type":"three-arm-trial","trial_index":97,"time_elapsed":1008719,"internal_node_id":"0.0-86.0-0.0","task_version":"screening-mturk","missing":false,"accuracy":0},{"contexts":["green","red","blue"],"outcomes":[0,1,1],"key":38,"choice":1,"rt":1036.2749999912921,"outcome":1,"trial":81,"correct":2,"trial_type":"three-arm-trial","trial_index":98,"time_elapsed":1010979,"internal_node_id":"0.0-87.0-0.0","task_version":"screening-mturk","missing":false,"accuracy":0},{"contexts":["green","red","blue"],"outcomes":[0,1,1],"key":38,"choice":1,"rt":847.7549999952316,"outcome":1,"trial":82,"correct":2,"trial_type":"three-arm-trial","trial_index":99,"time_elapsed":1013041,"internal_node_id":"0.0-88.0-0.0","task_version":"screening-mturk","missing":false,"accuracy":0},{"contexts":["green","red","blue"],"outcomes":[1,0,1],"key":38,"choice":1,"rt":903.6750000086613,"outcome":0,"trial":83,"correct":2,"trial_type":"three-arm-trial","trial_index":100,"time_elapsed":1015160,"internal_node_id":"0.0-89.0-0.0","task_version":"screening-mturk","missing":false,"accuracy":0},{"contexts":["green","red","blue"],"outcomes":[0,0,0],"key":37,"choice":0,"rt":781.4000000071246,"outcome":0,"trial":84,"correct":2,"trial_type":"three-arm-trial","trial_index":101,"time_elapsed":1017147,"internal_node_id":"0.0-90.0-0.0","task_version":"screening-mturk","missing":false,"accuracy":0},{"contexts":["green","red","blue"],"outcomes":[0,0,0],"key":39,"choice":2,"rt":649.2999999900348,"outcome":0,"trial":85,"correct":2,"trial_type":"three-arm-trial","trial_index":102,"time_elapsed":1019008,"internal_node_id":"0.0-91.0-0.0","task_version":"screening-mturk","missing":false,"accuracy":1},{"contexts":["green","red","blue"],"outcomes":[0,0,1],"key":38,"choice":1,"rt":785.7450000010431,"outcome":0,"trial":86,"correct":2,"trial_type":"three-arm-trial","trial_index":103,"time_elapsed":1021041,"internal_node_id":"0.0-92.0-0.0","task_version":"screening-mturk","missing":false,"accuracy":0},{"contexts":["green","red","blue"],"outcomes":[0,0,1],"key":37,"choice":0,"rt":1244.2200000223238,"outcome":0,"trial":87,"correct":2,"trial_type":"three-arm-trial","trial_index":104,"time_elapsed":1023519,"internal_node_id":"0.0-93.0-0.0","task_version":"screening-mturk","missing":false,"accuracy":0},{"contexts":["green","red","blue"],"outcomes":[1,0,1],"key":37,"choice":0,"rt":1302.430000010645,"outcome":1,"trial":88,"correct":2,"trial_type":"three-arm-trial","trial_index":105,"time_elapsed":1026042,"internal_node_id":"0.0-94.0-0.0","task_version":"screening-mturk","missing":false,"accuracy":0},{"contexts":["green","red","blue"],"outcomes":[0,0,1],"key":37,"choice":0,"rt":1338.6000000173226,"outcome":0,"trial":89,"correct":2,"trial_type":"three-arm-trial","trial_index":106,"time_elapsed":1028612,"internal_node_id":"0.0-95.0-0.0","task_version":"screening-mturk","missing":false,"accuracy":0},{"contexts":["green","red","blue"],"outcomes":[0,0,1],"key":38,"choice":1,"rt":1110.8600000152364,"outcome":0,"trial":90,"correct":2,"trial_type":"three-arm-trial","trial_index":107,"time_elapsed":1030945,"internal_node_id":"0.0-96.0-0.0","task_version":"screening-mturk","missing":false,"accuracy":0},{"rt":30561.585000017658,"responses":{"age":"25","gender-categorical":"Male","gender-free-response":"","ethnicity":"Not Hispanic or Latino","race":["White"],"language":"Yes","fluency":"Very well","prolific":"Yes","prolific-this-study":"No"},"survey":"demographics","trial_type":"survey-demo","trial_index":108,"time_elapsed":1061518,"internal_node_id":"0.0-97.0","task_version":"screening-mturk","interactions":"[{\"event\":\"blur\",\"trial\":0,\"time\":105143},{\"event\":\"focus\",\"trial\":0,\"time\":112281},{\"event\":\"blur\",\"trial\":0,\"time\":151462},{\"event\":\"focus\",\"trial\":0,\"time\":158031},{\"event\":\"blur\",\"trial\":5,\"time\":391327},{\"event\":\"focus\",\"trial\":5,\"time\":435567},{\"event\":\"blur\",\"trial\":9,\"time\":624105},{\"event\":\"focus\",\"trial\":9,\"time\":661420}]"}]