[{"responses":{"Q01":"2","Q02":"3","Q03":"2"},"rt":7640.790000001289,"survey":"pswq","trial_type":"survey-template","trial_index":0,"time_elapsed":7672,"internal_node_id":"0.0-0.0","task_version":"screening-mturk"},{"responses":{"Q15":"1","Q06":"2","Q14":"1","Q03":"3","Q08":"2","Q09":"1","Q04":"2","Q07":"1","Q05":"2","Q01":"1","Q13":"2","Q11":"3","Q10":"2","Q12":"1","Q02":"2"},"rt":35651.69500000047,"survey":"7up7down","trial_type":"survey-template","trial_index":1,"time_elapsed":43333,"internal_node_id":"0.0-1.0","task_version":"screening-mturk"},{"responses":{"Q01":"2","Q08":"1","Q05":"0","Q04":"1","Q07":"2","Q06":"3","Q03":"2","Q02":"1"},"rt":10723.630000000412,"survey":"gad7","trial_type":"survey-template","trial_index":2,"time_elapsed":54064,"internal_node_id":"0.0-2.0","task_version":"screening-mturk"},{"responses":{"Q10":"1","Q14":"2","Q05":"3","Q09":"2","Q04":"1","Q07":"2","Q12":"3","Q01":"2","Q11":"1","Q13":"2","Q08":"3","Q02":"2","Q15":"1","Q06":"2","Q03":"3"},"rt":36579.45000000109,"survey":"shaps","trial_type":"survey-template","trial_index":3,"time_elapsed":90649,"internal_node_id":"0.0-3.0","task_version":"screening-mturk"},{"responses":{"Q10":"1","Q07":"2","Q04":"3","Q11":"2","Q08":"1","Q05":"2","Q06":"1","Q01":"1","Q02":"2","Q13":"3","Q09":"2","Q03":"1","Q12":"2"},"rt":18483.195000000705,"survey":"bisbas","trial_type":"survey-template","trial_index":4,"time_elapsed":109138,"internal_node_id":"0.0-4.0","task_version":"screening-mturk"},{"view_history":"[{\"page_index\":0,\"viewing_time\":9672.330000001239},{\"page_index\":1,\"viewing_time\":1815.7350000001315},{\"page_index\":0,\"viewing_time\":1952.0850000008068},{\"page_index\":1,\"viewing_time\":53575.16499999838},{\"page_index\":2,\"viewing_time\":19502.86000000051},{\"page_index\":3,\"viewing_time\":17583.370000000286},{\"page_index\":4,\"viewing_time\":18015.929999997752},{\"page_index\":5,\"viewing_time\":10960.885000000417},{\"page_index\":6,\"viewing_time\":14206.34500000233},{\"page_index\":7,\"viewing_time\":8391.984999998385}]","rt":155677.80000000133,"trial_type":"instructions","trial_index":5,"time_elapsed":264821,"internal_node_id":"0.0-5.0-0.0","task_version":"screening-mturk"},{"responses":["True","True","True","False","True"],"num_errors":1,"rt":104659.84500000195,"trial_type":"three-arm-comprehension","trial_index":6,"time_elapsed":369488,"internal_node_id":"0.0-5.0-1.0","task_version":"screening-mturk"},{"view_history":"[{\"page_index\":0,\"viewing_time\":2703.7249999993946},{\"page_index\":1,\"viewing_time\":10015.824999998556},{\"page_index\":2,\"viewing_time\":7351.75000000163},{\"page_index\":3,\"viewing_time\":7872.329999998328},{\"page_index\":4,\"viewing_time\":7663.81000000186},{\"page_index\":5,\"viewing_time\":3391.250000000582},{\"page_index\":6,\"viewing_time\":1144.2349999997532},{\"page_index\":7,\"viewing_time\":1600.044999999227}]","rt":41743.334999999206,"trial_type":"instructions","trial_index":7,"time_elapsed":411242,"internal_node_id":"0.0-5.1-0.1","task_version":"screening-mturk"},{"responses":["True","True","True","True","True"],"num_errors":2,"rt":4990.444999999483,"trial_type":"three-arm-comprehension","trial_index":8,"time_elapsed":416236,"internal_node_id":"0.0-5.1-1.1","task_version":"screening-mturk"},{"view_history":"[{\"page_index\":0,\"viewing_time\":1386.5200000000186},{\"page_index\":1,\"viewing_time\":351.8599999988801},{\"page_index\":2,\"viewing_time\":208.06000000081258},{\"page_index\":3,\"viewing_time\":1535.8999999989173},{\"page_index\":2,\"viewing_time\":1928.025000001071},{\"page_index\":3,\"viewing_time\":4200.919999999343},{\"page_index\":4,\"viewing_time\":678.8249999990221},{\"page_index\":5,\"viewing_time\":224.70000000251457},{\"page_index\":6,\"viewing_time\":271.45000000018626},{\"page_index\":7,\"viewing_time\":536.0099999997765}]","rt":11322.909999998927,"trial_type":"instructions","trial_index":9,"time_elapsed":427563,"internal_node_id":"0.0-5.2-0.2","task_version":"screening-mturk"},{"responses":["True","True","False","True","True"],"num_errors":1,"rt":82235.74999999983,"trial_type":"three-arm-comprehension","trial_index":10,"time_elapsed":509804,"internal_node_id":"0.0-5.2-1.2","task_version":"screening-mturk"},{"view_history":"[{\"page_index\":0,\"viewing_time\":1497.640000001411},{\"page_index\":1,\"viewing_time\":26927.2099999981},{\"page_index\":2,\"viewing_time\":5032.425000001211},{\"page_index\":3,\"viewing_time\":2663.219999998575},{\"page_index\":4,\"viewing_time\":2823.8799999998882},{\"page_index\":5,\"viewing_time\":471.4700000004377},{\"page_index\":6,\"viewing_time\":304.1800000027288},{\"page_index\":7,\"viewing_time\":160.3049999976065}]","rt":39880.810000002384,"trial_type":"instructions","trial_index":11,"time_elapsed":549689,"internal_node_id":"0.0-5.3-0.3","task_version":"screening-mturk"},{"responses":["True","False","False","True","True"],"num_errors":2,"rt":13941.320000001695,"trial_type":"three-arm-comprehension","trial_index":12,"time_elapsed":563636,"internal_node_id":"0.0-5.3-1.3","task_version":"screening-mturk"},{"view_history":"[{\"page_index\":0,\"viewing_time\":1487.1500000008382},{\"page_index\":1,\"viewing_time\":512.4050000011921},{\"page_index\":2,\"viewing_time\":447.4100000007311},{\"page_index\":3,\"viewing_time\":480.1649999972433},{\"page_index\":4,\"viewing_time\":143.70500000216998},{\"page_index\":5,\"viewing_time\":202.39500000025146},{\"page_index\":6,\"viewing_time\":213.7750000002561},{\"page_index\":7,\"viewing_time\":184.18499999819323}]","rt":3671.665000001667,"trial_type":"instructions","trial_index":13,"time_elapsed":567314,"internal_node_id":"0.0-5.4-0.4","task_version":"screening-mturk"},{"responses":["True","False","False","True","True"],"num_errors":2,"rt":49524.68500000029,"trial_type":"three-arm-comprehension","trial_index":14,"time_elapsed":616842,"internal_node_id":"0.0-5.4-1.4","task_version":"screening-mturk"},{"view_history":"[{\"page_index\":0,\"viewing_time\":3041.209999999497},{\"page_index\":1,\"viewing_time\":10535.885000001057},{\"page_index\":2,\"viewing_time\":10055.575000002165},{\"page_index\":3,\"viewing_time\":1680.56499999878},{\"page_index\":4,\"viewing_time\":1135.275000000489},{\"page_index\":5,\"viewing_time\":186.86999999778345},{\"page_index\":6,\"viewing_time\":646.005000002333},{\"page_index\":7,\"viewing_time\":1415.1149999997579},{\"page_index\":6,\"viewing_time\":3064.6249999990687},{\"page_index\":7,\"viewing_time\":551.2899999994552}]","rt":32312.72000000172,"trial_type":"instructions","trial_index":15,"time_elapsed":649160,"internal_node_id":"0.0-5.5-0.5","task_version":"screening-mturk"},{"responses":["True","True","False","True","False"],"num_errors":2,"rt":37725.84999999881,"trial_type":"three-arm-comprehension","trial_index":16,"time_elapsed":686890,"internal_node_id":"0.0-5.5-1.5","task_version":"screening-mturk"},{"view_history":"[{\"page_index\":0,\"viewing_time\":1658.2449999987148},{\"page_index\":1,\"viewing_time\":175.63000000151806},{\"page_index\":2,\"viewing_time\":184.18999999994412},{\"page_index\":3,\"viewing_time\":208.02499999990687},{\"page_index\":4,\"viewing_time\":192.72500000079162},{\"page_index\":5,\"viewing_time\":199.0449999975972},{\"page_index\":6,\"viewing_time\":440.37500000197906},{\"page_index\":7,\"viewing_time\":471.7700000000186}]","rt":3530.3249999997206,"trial_type":"instructions","trial_index":17,"time_elapsed":690424,"internal_node_id":"0.0-5.6-0.6","task_version":"screening-mturk"},{"responses":["True","True","False","True","True"],"num_errors":1,"rt":18726.305000000168,"trial_type":"three-arm-comprehension","trial_index":18,"time_elapsed":709154,"internal_node_id":"0.0-5.6-1.6","task_version":"screening-mturk"},{"view_history":"[{\"page_index\":0,\"viewing_time\":1008.9100000004983},{\"page_index\":1,\"viewing_time\":696.925000000163},{\"page_index\":2,\"viewing_time\":551.0800000011222},{\"page_index\":3,\"viewing_time\":615.8900000009453},{\"page_index\":4,\"viewing_time\":576.2049999976298},{\"page_index\":5,\"viewing_time\":1431.7900000023656},{\"page_index\":6,\"viewing_time\":552.0199999990873},{\"page_index\":7,\"viewing_time\":4663.77999999898}]","rt":10096.925000001676,"trial_type":"instructions","trial_index":19,"time_elapsed":719256,"internal_node_id":"0.0-5.7-0.7","task_version":"screening-mturk"},{"responses":["True","True","True","False","False"],"num_errors":2,"rt":178018.49500000023,"trial_type":"three-arm-comprehension","trial_index":20,"time_elapsed":897280,"internal_node_id":"0.0-5.7-1.7","task_version":"screening-mturk"},{"view_history":"[{\"page_index\":0,\"viewing_time\":1296.2350000014994},{\"page_index\":1,\"viewing_time\":168.1350000000093},{\"page_index\":2,\"viewing_time\":175.5200000006007},{\"page_index\":3,\"viewing_time\":176.07499999937136},{\"page_index\":4,\"viewing_time\":464.690000000759},{\"page_index\":5,\"viewing_time\":424.0350000000326},{\"page_index\":6,\"viewing_time\":479.4149999979418},{\"page_index\":7,\"viewing_time\":536.1100000009174}]","rt":3720.7149999993853,"trial_type":"instructions","trial_index":21,"time_elapsed":901007,"internal_node_id":"0.0-5.8-0.8","task_version":"screening-mturk"},{"responses":["True","True","False","False","True"],"num_errors":0,"rt":17348.85999999824,"trial_type":"three-arm-comprehension","trial_index":22,"time_elapsed":918360,"internal_node_id":"0.0-5.8-1.8","task_version":"screening-mturk"},{"view_history":"[{\"page_index\":0,\"viewing_time\":77574.68999999773}]","rt":77576.10499999649,"trial_type":"instructions","trial_index":23,"time_elapsed":995945,"internal_node_id":"0.0-6.0","task_version":"screening-mturk"},{"contexts":["green","blue","red"],"outcomes":[0,0,1],"key":38,"choice":1,"rt":3319.664999999106,"outcome":0,"trial":1,"correct":1,"trial_type":"three-arm-trial","trial_index":24,"time_elapsed":1000473,"internal_node_id":"0.0-7.0-0.0","task_version":"screening-mturk","missing":false,"accuracy":1},{"contexts":["green","blue","red"],"outcomes":[0,1,0],"key":37,"choice":0,"rt":2199.909999999334,"outcome":0,"trial":2,"correct":1,"trial_type":"three-arm-trial","trial_index":25,"time_elapsed":1003879,"internal_node_id":"0.0-8.0-0.0","task_version":"screening-mturk","missing":false,"accuracy":0},{"contexts":["green","blue","red"],"outcomes":[0,1,0],"key":39,"choice":2,"rt":1441.7250000005588,"outcome":0,"trial":3,"correct":1,"trial_type":"three-arm-trial","trial_index":26,"time_elapsed":1006528,"internal_node_id":"0.0-9.0-0.0","task_version":"screening-mturk","missing":false,"accuracy":0},{"contexts":["green","blue","red"],"outcomes":[0,1,1],"key":37,"choice":0,"rt":2482.8949999974575,"outcome":0,"trial":4,"correct":1,"trial_type":"three-arm-trial","trial_index":27,"time_elapsed":1010216,"internal_node_id":"0.0-10.0-0.0","task_version":"screening-mturk","missing":false,"accuracy":0},{"contexts":["green","blue","red"],"outcomes":[0,1,0],"key":38,"choice":1,"rt":9361.639999999199,"outcome":1,"trial":5,"correct":1,"trial_type":"three-arm-trial","trial_index":28,"time_elapsed":1020783,"internal_node_id":"0.0-11.0-0.0","task_version":"screening-mturk","missing":false,"accuracy":1},{"contexts":["green","blue","red"],"outcomes":[0,1,0],"key":37,"choice":0,"rt":6946.2749999983935,"outcome":0,"trial":6,"correct":1,"trial_type":"three-arm-trial","trial_index":29,"time_elapsed":1028934,"internal_node_id":"0.0-12.0-0.0","task_version":"screening-mturk","missing":false,"accuracy":0},{"contexts":["green","blue","red"],"outcomes":[0,1,0],"key":38,"choice":1,"rt":187.58499999972992,"outcome":1,"trial":7,"correct":1,"trial_type":"three-arm-trial","trial_index":30,"time_elapsed":1030332,"internal_node_id":"0.0-13.0-0.0","task_version":"screening-mturk","missing":false,"accuracy":1},{"contexts":["green","blue","red"],"outcomes":[0,1,0],"key":38,"choice":1,"rt":949.7200000005541,"outcome":1,"trial":8,"correct":1,"trial_type":"three-arm-trial","trial_index":31,"time_elapsed":1032493,"internal_node_id":"0.0-14.0-0.0","task_version":"screening-mturk","missing":false,"accuracy":1},{"contexts":["green","blue","red"],"outcomes":[0,1,0],"key":38,"choice":1,"rt":124.44000000320375,"outcome":1,"trial":9,"correct":1,"trial_type":"three-arm-trial","trial_index":32,"time_elapsed":1033828,"internal_node_id":"0.0-15.0-0.0","task_version":"screening-mturk","missing":false,"accuracy":1},{"contexts":["green","blue","red"],"outcomes":[0,1,0],"key":38,"choice":1,"rt":8.330000000540167,"outcome":1,"trial":10,"correct":1,"trial_type":"three-arm-trial","trial_index":33,"time_elapsed":1035053,"internal_node_id":"0.0-16.0-0.0","task_version":"screening-mturk","missing":false,"accuracy":1},{"contexts":["green","blue","red"],"outcomes":[0,1,0],"key":38,"choice":1,"rt":124.63500000000931,"outcome":1,"trial":11,"correct":1,"trial_type":"three-arm-trial","trial_index":34,"time_elapsed":1036385,"internal_node_id":"0.0-17.0-0.0","task_version":"screening-mturk","missing":false,"accuracy":1},{"contexts":["green","blue","red"],"outcomes":[0,1,0],"key":39,"choice":2,"rt":53.53499999921769,"outcome":0,"trial":12,"correct":1,"trial_type":"three-arm-trial","trial_index":35,"time_elapsed":1037643,"internal_node_id":"0.0-18.0-0.0","task_version":"screening-mturk","missing":false,"accuracy":0},{"contexts":["green","blue","red"],"outcomes":[0,1,0],"key":37,"choice":0,"rt":46.17499999946449,"outcome":0,"trial":13,"correct":1,"trial_type":"three-arm-trial","trial_index":36,"time_elapsed":1038894,"internal_node_id":"0.0-19.0-0.0","task_version":"screening-mturk","missing":false,"accuracy":0},{"contexts":["green","blue","red"],"outcomes":[0,1,0],"key":38,"choice":1,"rt":41.79999999899883,"outcome":1,"trial":14,"correct":1,"trial_type":"three-arm-trial","trial_index":37,"time_elapsed":1040141,"internal_node_id":"0.0-20.0-0.0","task_version":"screening-mturk","missing":false,"accuracy":1},{"contexts":["green","blue","red"],"outcomes":[0,1,0],"key":38,"choice":1,"rt":11.124999997322448,"outcome":1,"trial":15,"correct":1,"trial_type":"three-arm-trial","trial_index":38,"time_elapsed":1041358,"internal_node_id":"0.0-21.0-0.0","task_version":"screening-mturk","missing":false,"accuracy":1},{"contexts":["green","blue","red"],"outcomes":[0,0,1],"key":38,"choice":1,"rt":73.44500000181142,"outcome":0,"trial":16,"correct":2,"trial_type":"three-arm-trial","trial_index":39,"time_elapsed":1042639,"internal_node_id":"0.0-22.0-0.0","task_version":"screening-mturk","missing":false,"accuracy":0},{"contexts":["green","blue","red"],"outcomes":[1,0,1],"key":37,"choice":0,"rt":21.605000001727603,"outcome":1,"trial":17,"correct":2,"trial_type":"three-arm-trial","trial_index":40,"time_elapsed":1043866,"internal_node_id":"0.0-23.0-0.0","task_version":"screening-mturk","missing":false,"accuracy":0},{"contexts":["green","blue","red"],"outcomes":[0,1,1],"key":37,"choice":0,"rt":580.9950000002282,"outcome":0,"trial":18,"correct":2,"trial_type":"three-arm-trial","trial_index":41,"time_elapsed":1045656,"internal_node_id":"0.0-24.0-0.0","task_version":"screening-mturk","missing":false,"accuracy":0},{"contexts":["green","blue","red"],"outcomes":[0,0,1],"key":39,"choice":2,"rt":75.21500000078231,"outcome":1,"trial":19,"correct":2,"trial_type":"three-arm-trial","trial_index":42,"time_elapsed":1046938,"internal_node_id":"0.0-25.0-0.0","task_version":"screening-mturk","missing":false,"accuracy":1},{"contexts":["green","blue","red"],"outcomes":[0,0,1],"key":38,"choice":1,"rt":31.38500000210479,"outcome":0,"trial":20,"correct":2,"trial_type":"three-arm-trial","trial_index":43,"time_elapsed":1048173,"internal_node_id":"0.0-26.0-0.0","task_version":"screening-mturk","missing":false,"accuracy":0},{"contexts":["green","blue","red"],"outcomes":[0,0,1],"key":37,"choice":0,"rt":60.28999999770895,"outcome":0,"trial":21,"correct":2,"trial_type":"three-arm-trial","trial_index":44,"time_elapsed":1049437,"internal_node_id":"0.0-27.0-0.0","task_version":"screening-mturk","missing":false,"accuracy":0},{"contexts":["green","blue","red"],"outcomes":[0,0,1],"key":39,"choice":2,"rt":43.2599999983795,"outcome":1,"trial":22,"correct":2,"trial_type":"three-arm-trial","trial_index":45,"time_elapsed":1050686,"internal_node_id":"0.0-28.0-0.0","task_version":"screening-mturk","missing":false,"accuracy":1},{"contexts":["green","blue","red"],"outcomes":[0,0,1],"key":38,"choice":1,"rt":91.26499999919906,"outcome":0,"trial":23,"correct":2,"trial_type":"three-arm-trial","trial_index":46,"time_elapsed":1051981,"internal_node_id":"0.0-29.0-0.0","task_version":"screening-mturk","missing":false,"accuracy":0},{"contexts":["green","blue","red"],"outcomes":[0,0,1],"key":39,"choice":2,"rt":210.3850000021048,"outcome":1,"trial":24,"correct":2,"trial_type":"three-arm-trial","trial_index":47,"time_elapsed":1053399,"internal_node_id":"0.0-30.0-0.0","task_version":"screening-mturk","missing":false,"accuracy":1},{"contexts":["green","blue","red"],"outcomes":[0,0,1],"key":39,"choice":2,"rt":217.7350000019651,"outcome":1,"trial":25,"correct":2,"trial_type":"three-arm-trial","trial_index":48,"time_elapsed":1054822,"internal_node_id":"0.0-31.0-0.0","task_version":"screening-mturk","missing":false,"accuracy":1},{"contexts":["green","blue","red"],"outcomes":[0,0,1],"key":39,"choice":2,"rt":1105.299999999348,"outcome":1,"trial":26,"correct":2,"trial_type":"three-arm-trial","trial_index":49,"time_elapsed":1057133,"internal_node_id":"0.0-32.0-0.0","task_version":"screening-mturk","missing":false,"accuracy":1},{"contexts":["green","blue","red"],"outcomes":[0,0,1],"key":39,"choice":2,"rt":1773.2150000010151,"outcome":1,"trial":27,"correct":2,"trial_type":"three-arm-trial","trial_index":50,"time_elapsed":1060110,"internal_node_id":"0.0-33.0-0.0","task_version":"screening-mturk","missing":false,"accuracy":1},{"contexts":["green","blue","red"],"outcomes":[0,0,1],"key":39,"choice":2,"rt":461.5449999982957,"outcome":1,"trial":28,"correct":2,"trial_type":"three-arm-trial","trial_index":51,"time_elapsed":1061775,"internal_node_id":"0.0-34.0-0.0","task_version":"screening-mturk","missing":false,"accuracy":1},{"contexts":["green","blue","red"],"outcomes":[1,1,0],"key":39,"choice":2,"rt":1337.1149999985937,"outcome":0,"trial":29,"correct":2,"trial_type":"three-arm-trial","trial_index":52,"time_elapsed":1064317,"internal_node_id":"0.0-35.0-0.0","task_version":"screening-mturk","missing":false,"accuracy":1},{"contexts":["green","blue","red"],"outcomes":[0,0,1],"key":37,"choice":0,"rt":251.91500000073574,"outcome":0,"trial":30,"correct":2,"trial_type":"three-arm-trial","trial_index":53,"time_elapsed":1065774,"internal_node_id":"0.0-36.0-0.0","task_version":"screening-mturk","missing":false,"accuracy":0},{"contexts":["green","blue","red"],"outcomes":[0,1,1],"key":38,"choice":1,"rt":258.2849999999162,"outcome":1,"trial":31,"correct":1,"trial_type":"three-arm-trial","trial_index":54,"time_elapsed":1067238,"internal_node_id":"0.0-37.0-0.0","task_version":"screening-mturk","missing":false,"accuracy":1},{"contexts":["green","blue","red"],"outcomes":[0,1,0],"key":39,"choice":2,"rt":1026.2849999999162,"outcome":0,"trial":32,"correct":1,"trial_type":"three-arm-trial","trial_index":55,"time_elapsed":1069469,"internal_node_id":"0.0-38.0-0.0","task_version":"screening-mturk","missing":false,"accuracy":0},{"contexts":["green","blue","red"],"outcomes":[0,1,0],"key":37,"choice":0,"rt":843.9449999970384,"outcome":0,"trial":33,"correct":1,"trial_type":"three-arm-trial","trial_index":56,"time_elapsed":1071518,"internal_node_id":"0.0-39.0-0.0","task_version":"screening-mturk","missing":false,"accuracy":0},{"contexts":["green","blue","red"],"outcomes":[0,1,0],"key":38,"choice":1,"rt":529.3300000010058,"outcome":1,"trial":34,"correct":1,"trial_type":"three-arm-trial","trial_index":57,"time_elapsed":1073256,"internal_node_id":"0.0-40.0-0.0","task_version":"screening-mturk","missing":false,"accuracy":1},{"contexts":["green","blue","red"],"outcomes":[0,1,0],"key":38,"choice":1,"rt":1244.8699999987148,"outcome":1,"trial":35,"correct":1,"trial_type":"three-arm-trial","trial_index":58,"time_elapsed":1075708,"internal_node_id":"0.0-41.0-0.0","task_version":"screening-mturk","missing":false,"accuracy":1},{"contexts":["green","blue","red"],"outcomes":[0,1,0],"key":null,"rt":null,"trial":36,"correct":1,"trial_type":"three-arm-trial","trial_index":59,"time_elapsed":1090714,"internal_node_id":"0.0-42.0-0.0","task_version":"screening-mturk","missing":true},{"contexts":["green","blue","red"],"outcomes":[0,1,0],"key":null,"rt":null,"trial":36,"correct":1,"trial_type":"three-arm-trial","trial_index":60,"time_elapsed":1105720,"internal_node_id":"0.0-42.1-0.1","task_version":"screening-mturk","missing":true},{"contexts":["green","blue","red"],"outcomes":[0,1,0],"key":null,"rt":null,"trial":36,"correct":1,"trial_type":"three-arm-trial","trial_index":61,"time_elapsed":1120725,"internal_node_id":"0.0-42.2-0.2","task_version":"screening-mturk","missing":true},{"contexts":["green","blue","red"],"outcomes":[0,1,0],"key":38,"choice":1,"rt":7892.055000000168,"outcome":1,"trial":36,"correct":1,"trial_type":"three-arm-trial","trial_index":62,"time_elapsed":1129821,"internal_node_id":"0.0-42.3-0.3","task_version":"screening-mturk","missing":false,"accuracy":1},{"contexts":["green","blue","red"],"outcomes":[0,1,1],"key":39,"choice":2,"rt":610.8949999979232,"outcome":1,"trial":37,"correct":1,"trial_type":"three-arm-trial","trial_index":63,"time_elapsed":1131638,"internal_node_id":"0.0-43.0-0.0","task_version":"screening-mturk","missing":false,"accuracy":0},{"contexts":["green","blue","red"],"outcomes":[0,1,0],"key":37,"choice":0,"rt":322.1500000001397,"outcome":0,"trial":38,"correct":1,"trial_type":"three-arm-trial","trial_index":64,"time_elapsed":1133172,"internal_node_id":"0.0-44.0-0.0","task_version":"screening-mturk","missing":false,"accuracy":0},{"contexts":["green","blue","red"],"outcomes":[0,1,0],"key":38,"choice":1,"rt":341.60500000137836,"outcome":1,"trial":39,"correct":1,"trial_type":"three-arm-trial","trial_index":65,"time_elapsed":1134733,"internal_node_id":"0.0-45.0-0.0","task_version":"screening-mturk","missing":false,"accuracy":1},{"contexts":["green","blue","red"],"outcomes":[1,0,1],"key":38,"choice":1,"rt":666.2150000010151,"outcome":0,"trial":40,"correct":1,"trial_type":"three-arm-trial","trial_index":66,"time_elapsed":1136605,"internal_node_id":"0.0-46.0-0.0","task_version":"screening-mturk","missing":false,"accuracy":1},{"contexts":["green","blue","red"],"outcomes":[1,1,0],"key":39,"choice":2,"rt":824.2349999998696,"outcome":0,"trial":41,"correct":1,"trial_type":"three-arm-trial","trial_index":67,"time_elapsed":1138636,"internal_node_id":"0.0-47.0-0.0","task_version":"screening-mturk","missing":false,"accuracy":0},{"contexts":["green","blue","red"],"outcomes":[0,0,0],"key":37,"choice":0,"rt":1019.589999999851,"outcome":0,"trial":42,"correct":1,"trial_type":"three-arm-trial","trial_index":68,"time_elapsed":1140861,"internal_node_id":"0.0-48.0-0.0","task_version":"screening-mturk","missing":false,"accuracy":0},{"contexts":["green","blue","red"],"outcomes":[0,1,0],"key":38,"choice":1,"rt":1254.6949999995995,"outcome":1,"trial":43,"correct":1,"trial_type":"three-arm-trial","trial_index":69,"time_elapsed":1143324,"internal_node_id":"0.0-49.0-0.0","task_version":"screening-mturk","missing":false,"accuracy":1},{"contexts":["green","blue","red"],"outcomes":[1,1,0],"key":39,"choice":2,"rt":1829.2850000034086,"outcome":0,"trial":44,"correct":1,"trial_type":"three-arm-trial","trial_index":70,"time_elapsed":1146359,"internal_node_id":"0.0-50.0-0.0","task_version":"screening-mturk","missing":false,"accuracy":0},{"contexts":["green","blue","red"],"outcomes":[0,0,1],"key":37,"choice":0,"rt":455.1549999995623,"outcome":0,"trial":45,"correct":1,"trial_type":"three-arm-trial","trial_index":71,"time_elapsed":1148022,"internal_node_id":"0.0-51.0-0.0","task_version":"screening-mturk","missing":false,"accuracy":0},{"contexts":["green","blue","red"],"outcomes":[0,0,0],"key":38,"choice":1,"rt":1088.6449999997858,"outcome":0,"trial":46,"correct":0,"trial_type":"three-arm-trial","trial_index":72,"time_elapsed":1150316,"internal_node_id":"0.0-52.0-0.0","task_version":"screening-mturk","missing":false,"accuracy":0},{"contexts":["green","blue","red"],"outcomes":[0,0,0],"key":39,"choice":2,"rt":989.2749999999069,"outcome":0,"trial":47,"correct":0,"trial_type":"three-arm-trial","trial_index":73,"time_elapsed":1152511,"internal_node_id":"0.0-53.0-0.0","task_version":"screening-mturk","missing":false,"accuracy":0},{"contexts":["green","blue","red"],"outcomes":[0,0,0],"key":37,"choice":0,"rt":160.61000000266358,"outcome":0,"trial":48,"correct":0,"trial_type":"three-arm-trial","trial_index":74,"time_elapsed":1153878,"internal_node_id":"0.0-54.0-0.0","task_version":"screening-mturk","missing":false,"accuracy":1},{"contexts":["green","blue","red"],"outcomes":[1,0,0],"key":38,"choice":1,"rt":569.3099999988917,"outcome":0,"trial":49,"correct":0,"trial_type":"three-arm-trial","trial_index":75,"time_elapsed":1155654,"internal_node_id":"0.0-55.0-0.0","task_version":"screening-mturk","missing":false,"accuracy":0},{"contexts":["green","blue","red"],"outcomes":[1,0,0],"key":39,"choice":2,"rt":416.47999999974854,"outcome":0,"trial":50,"correct":0,"trial_type":"three-arm-trial","trial_index":76,"time_elapsed":1157277,"internal_node_id":"0.0-56.0-0.0","task_version":"screening-mturk","missing":false,"accuracy":0},{"contexts":["green","blue","red"],"outcomes":[1,0,1],"key":38,"choice":1,"rt":1089.5600000002887,"outcome":0,"trial":51,"correct":0,"trial_type":"three-arm-trial","trial_index":77,"time_elapsed":1159572,"internal_node_id":"0.0-57.0-0.0","task_version":"screening-mturk","missing":false,"accuracy":0},{"contexts":["green","blue","red"],"outcomes":[1,0,0],"key":37,"choice":0,"rt":1011.4799999974202,"outcome":1,"trial":52,"correct":0,"trial_type":"three-arm-trial","trial_index":78,"time_elapsed":1161788,"internal_node_id":"0.0-58.0-0.0","task_version":"screening-mturk","missing":false,"accuracy":1},{"contexts":["green","blue","red"],"outcomes":[1,0,1],"key":37,"choice":0,"rt":763.3550000027753,"outcome":1,"trial":53,"correct":0,"trial_type":"three-arm-trial","trial_index":79,"time_elapsed":1163755,"internal_node_id":"0.0-59.0-0.0","task_version":"screening-mturk","missing":false,"accuracy":1},{"contexts":["green","blue","red"],"outcomes":[1,0,0],"key":37,"choice":0,"rt":421.9049999990966,"outcome":1,"trial":54,"correct":0,"trial_type":"three-arm-trial","trial_index":80,"time_elapsed":1165382,"internal_node_id":"0.0-60.0-0.0","task_version":"screening-mturk","missing":false,"accuracy":1},{"contexts":["green","blue","red"],"outcomes":[0,0,0],"key":null,"rt":null,"trial":55,"correct":0,"trial_type":"three-arm-trial","trial_index":81,"time_elapsed":1180391,"internal_node_id":"0.0-61.0-0.0","task_version":"screening-mturk","missing":true},{"contexts":["green","blue","red"],"outcomes":[0,0,0],"key":37,"choice":0,"rt":824.4000000013039,"outcome":0,"trial":55,"correct":0,"trial_type":"three-arm-trial","trial_index":82,"time_elapsed":1182439,"internal_node_id":"0.0-61.1-0.1","task_version":"screening-mturk","missing":false,"accuracy":1},{"contexts":["green","blue","red"],"outcomes":[1,0,0],"key":38,"choice":1,"rt":527.7999999998137,"outcome":0,"trial":56,"correct":0,"trial_type":"three-arm-trial","trial_index":83,"time_elapsed":1184185,"internal_node_id":"0.0-62.0-0.0","task_version":"screening-mturk","missing":false,"accuracy":0},{"contexts":["green","blue","red"],"outcomes":[1,0,1],"key":39,"choice":2,"rt":765.6999999999534,"outcome":1,"trial":57,"correct":0,"trial_type":"three-arm-trial","trial_index":84,"time_elapsed":1186158,"internal_node_id":"0.0-63.0-0.0","task_version":"screening-mturk","missing":false,"accuracy":0},{"contexts":["green","blue","red"],"outcomes":[0,0,0],"key":39,"choice":2,"rt":802.7949999994598,"outcome":0,"trial":58,"correct":0,"trial_type":"three-arm-trial","trial_index":85,"time_elapsed":1188167,"internal_node_id":"0.0-64.0-0.0","task_version":"screening-mturk","missing":false,"accuracy":0},{"contexts":["green","blue","red"],"outcomes":[0,0,0],"key":37,"choice":0,"rt":1458.1600000017788,"outcome":0,"trial":59,"correct":0,"trial_type":"three-arm-trial","trial_index":86,"time_elapsed":1190831,"internal_node_id":"0.0-65.0-0.0","task_version":"screening-mturk","missing":false,"accuracy":1},{"contexts":["green","blue","red"],"outcomes":[1,0,0],"key":38,"choice":1,"rt":808.5050000008196,"outcome":0,"trial":60,"correct":0,"trial_type":"three-arm-trial","trial_index":87,"time_elapsed":1192845,"internal_node_id":"0.0-66.0-0.0","task_version":"screening-mturk","missing":false,"accuracy":0},{"contexts":["green","blue","red"],"outcomes":[1,1,0],"key":39,"choice":2,"rt":403.14000000222586,"outcome":0,"trial":61,"correct":1,"trial_type":"three-arm-trial","trial_index":88,"time_elapsed":1194453,"internal_node_id":"0.0-67.0-0.0","task_version":"screening-mturk","missing":false,"accuracy":0},{"contexts":["green","blue","red"],"outcomes":[0,1,0],"key":38,"choice":1,"rt":1128.8700000005774,"outcome":1,"trial":62,"correct":1,"trial_type":"three-arm-trial","trial_index":89,"time_elapsed":1196793,"internal_node_id":"0.0-68.0-0.0","task_version":"screening-mturk","missing":false,"accuracy":1},{"contexts":["green","blue","red"],"outcomes":[0,1,0],"key":38,"choice":1,"rt":391.6900000004098,"outcome":1,"trial":63,"correct":1,"trial_type":"three-arm-trial","trial_index":90,"time_elapsed":1198393,"internal_node_id":"0.0-69.0-0.0","task_version":"screening-mturk","missing":false,"accuracy":1},{"contexts":["green","blue","red"],"outcomes":[1,1,0],"key":38,"choice":1,"rt":406.3349999997299,"outcome":1,"trial":64,"correct":1,"trial_type":"three-arm-trial","trial_index":91,"time_elapsed":1200005,"internal_node_id":"0.0-70.0-0.0","task_version":"screening-mturk","missing":false,"accuracy":1},{"contexts":["green","blue","red"],"outcomes":[1,0,0],"key":38,"choice":1,"rt":373.2300000009127,"outcome":0,"trial":65,"correct":1,"trial_type":"three-arm-trial","trial_index":92,"time_elapsed":1201584,"internal_node_id":"0.0-71.0-0.0","task_version":"screening-mturk","missing":false,"accuracy":1},{"contexts":["green","blue","red"],"outcomes":[0,1,0],"key":37,"choice":0,"rt":407.73500000080094,"outcome":0,"trial":66,"correct":1,"trial_type":"three-arm-trial","trial_index":93,"time_elapsed":1203200,"internal_node_id":"0.0-72.0-0.0","task_version":"screening-mturk","missing":false,"accuracy":0},{"contexts":["green","blue","red"],"outcomes":[0,1,0],"key":39,"choice":2,"rt":92.01000000024214,"outcome":0,"trial":67,"correct":1,"trial_type":"three-arm-trial","trial_index":94,"time_elapsed":1204500,"internal_node_id":"0.0-73.0-0.0","task_version":"screening-mturk","missing":false,"accuracy":0},{"contexts":["green","blue","red"],"outcomes":[0,0,0],"key":38,"choice":1,"rt":42.55000000190921,"outcome":0,"trial":68,"correct":1,"trial_type":"three-arm-trial","trial_index":95,"time_elapsed":1205747,"internal_node_id":"0.0-74.0-0.0","task_version":"screening-mturk","missing":false,"accuracy":1},{"contexts":["green","blue","red"],"outcomes":[0,1,0],"key":39,"choice":2,"rt":301.32500000018626,"outcome":0,"trial":69,"correct":1,"trial_type":"three-arm-trial","trial_index":96,"time_elapsed":1207255,"internal_node_id":"0.0-75.0-0.0","task_version":"screening-mturk","missing":false,"accuracy":0},{"contexts":["green","blue","red"],"outcomes":[0,1,1],"key":37,"choice":0,"rt":136.3450000025332,"outcome":0,"trial":70,"correct":1,"trial_type":"three-arm-trial","trial_index":97,"time_elapsed":1208598,"internal_node_id":"0.0-76.0-0.0","task_version":"screening-mturk","missing":false,"accuracy":0},{"contexts":["green","blue","red"],"outcomes":[0,1,0],"key":39,"choice":2,"rt":338.84499999834225,"outcome":0,"trial":71,"correct":1,"trial_type":"three-arm-trial","trial_index":98,"time_elapsed":1210142,"internal_node_id":"0.0-77.0-0.0","task_version":"screening-mturk","missing":false,"accuracy":0},{"contexts":["green","blue","red"],"outcomes":[0,1,0],"key":38,"choice":1,"rt":13.419999999227002,"outcome":1,"trial":72,"correct":1,"trial_type":"three-arm-trial","trial_index":99,"time_elapsed":1211366,"internal_node_id":"0.0-78.0-0.0","task_version":"screening-mturk","missing":false,"accuracy":1},{"contexts":["green","blue","red"],"outcomes":[1,1,0],"key":39,"choice":2,"rt":435.33499999833293,"outcome":0,"trial":73,"correct":1,"trial_type":"three-arm-trial","trial_index":100,"time_elapsed":1213014,"internal_node_id":"0.0-79.0-0.0","task_version":"screening-mturk","missing":false,"accuracy":0},{"contexts":["green","blue","red"],"outcomes":[0,1,0],"key":37,"choice":0,"rt":73.15999999991618,"outcome":0,"trial":74,"correct":1,"trial_type":"three-arm-trial","trial_index":101,"time_elapsed":1214313,"internal_node_id":"0.0-80.0-0.0","task_version":"screening-mturk","missing":false,"accuracy":0},{"contexts":["green","blue","red"],"outcomes":[0,0,0],"key":38,"choice":1,"rt":71.58499999786727,"outcome":0,"trial":75,"correct":1,"trial_type":"three-arm-trial","trial_index":102,"time_elapsed":1215590,"internal_node_id":"0.0-81.0-0.0","task_version":"screening-mturk","missing":false,"accuracy":1},{"contexts":["green","blue","red"],"outcomes":[1,0,0],"key":37,"choice":0,"rt":169.22499999776483,"outcome":1,"trial":76,"correct":0,"trial_type":"three-arm-trial","trial_index":103,"time_elapsed":1216965,"internal_node_id":"0.0-82.0-0.0","task_version":"screening-mturk","missing":false,"accuracy":1},{"contexts":["green","blue","red"],"outcomes":[1,0,0],"key":37,"choice":0,"rt":48.1550000004936,"outcome":1,"trial":77,"correct":0,"trial_type":"three-arm-trial","trial_index":104,"time_elapsed":1218219,"internal_node_id":"0.0-83.0-0.0","task_version":"screening-mturk","missing":false,"accuracy":1},{"contexts":["green","blue","red"],"outcomes":[1,0,0],"key":37,"choice":0,"rt":507.0500000002794,"outcome":1,"trial":78,"correct":0,"trial_type":"three-arm-trial","trial_index":105,"time_elapsed":1219933,"internal_node_id":"0.0-84.0-0.0","task_version":"screening-mturk","missing":false,"accuracy":1},{"contexts":["green","blue","red"],"outcomes":[1,0,1],"key":37,"choice":0,"rt":98.11499999696389,"outcome":1,"trial":79,"correct":0,"trial_type":"three-arm-trial","trial_index":106,"time_elapsed":1221236,"internal_node_id":"0.0-85.0-0.0","task_version":"screening-mturk","missing":false,"accuracy":1},{"contexts":["green","blue","red"],"outcomes":[1,0,0],"key":37,"choice":0,"rt":72.7500000030268,"outcome":1,"trial":80,"correct":0,"trial_type":"three-arm-trial","trial_index":107,"time_elapsed":1222514,"internal_node_id":"0.0-86.0-0.0","task_version":"screening-mturk","missing":false,"accuracy":1},{"contexts":["green","blue","red"],"outcomes":[1,0,0],"key":37,"choice":0,"rt":164.5650000027381,"outcome":1,"trial":81,"correct":0,"trial_type":"three-arm-trial","trial_index":108,"time_elapsed":1223894,"internal_node_id":"0.0-87.0-0.0","task_version":"screening-mturk","missing":false,"accuracy":1},{"contexts":["green","blue","red"],"outcomes":[1,0,0],"key":37,"choice":0,"rt":60.62999999988824,"outcome":1,"trial":82,"correct":0,"trial_type":"three-arm-trial","trial_index":109,"time_elapsed":1225186,"internal_node_id":"0.0-88.0-0.0","task_version":"screening-mturk","missing":false,"accuracy":1},{"contexts":["green","blue","red"],"outcomes":[1,0,0],"key":37,"choice":0,"rt":147.73499999870546,"outcome":1,"trial":83,"correct":0,"trial_type":"three-arm-trial","trial_index":110,"time_elapsed":1226546,"internal_node_id":"0.0-89.0-0.0","task_version":"screening-mturk","missing":false,"accuracy":1},{"contexts":["green","blue","red"],"outcomes":[0,0,0],"key":37,"choice":0,"rt":104.26000000000931,"outcome":0,"trial":84,"correct":0,"trial_type":"three-arm-trial","trial_index":111,"time_elapsed":1227861,"internal_node_id":"0.0-90.0-0.0","task_version":"screening-mturk","missing":false,"accuracy":1},{"contexts":["green","blue","red"],"outcomes":[1,1,0],"key":39,"choice":2,"rt":157.1449999974575,"outcome":0,"trial":85,"correct":0,"trial_type":"three-arm-trial","trial_index":112,"time_elapsed":1229227,"internal_node_id":"0.0-91.0-0.0","task_version":"screening-mturk","missing":false,"accuracy":0},{"contexts":["green","blue","red"],"outcomes":[0,0,0],"key":38,"choice":1,"rt":151.59499999927357,"outcome":0,"trial":86,"correct":0,"trial_type":"three-arm-trial","trial_index":113,"time_elapsed":1230582,"internal_node_id":"0.0-92.0-0.0","task_version":"screening-mturk","missing":false,"accuracy":0},{"contexts":["green","blue","red"],"outcomes":[1,0,0],"key":37,"choice":0,"rt":195.13999999966472,"outcome":1,"trial":87,"correct":0,"trial_type":"three-arm-trial","trial_index":114,"time_elapsed":1231982,"internal_node_id":"0.0-93.0-0.0","task_version":"screening-mturk","missing":false,"accuracy":1},{"contexts":["green","blue","red"],"outcomes":[1,0,1],"key":37,"choice":0,"rt":44.279999998165295,"outcome":1,"trial":88,"correct":0,"trial_type":"three-arm-trial","trial_index":115,"time_elapsed":1233232,"internal_node_id":"0.0-94.0-0.0","task_version":"screening-mturk","missing":false,"accuracy":1},{"contexts":["green","blue","red"],"outcomes":[0,0,1],"key":37,"choice":0,"rt":712.2549999984913,"outcome":0,"trial":89,"correct":0,"trial_type":"three-arm-trial","trial_index":116,"time_elapsed":1235155,"internal_node_id":"0.0-95.0-0.0","task_version":"screening-mturk","missing":false,"accuracy":1},{"contexts":["green","blue","red"],"outcomes":[1,0,0],"key":39,"choice":2,"rt":635.0649999985471,"outcome":0,"trial":90,"correct":0,"trial_type":"three-arm-trial","trial_index":117,"time_elapsed":1236999,"internal_node_id":"0.0-96.0-0.0","task_version":"screening-mturk","missing":false,"accuracy":0},{"rt":24545.28500000015,"responses":{"age":"40","gender-categorical":"Male","gender-free-response":"","ethnicity":"Unknown","race":["White"],"language":"Yes","fluency":"Very well","prolific":"Yes","prolific-this-study":"Yes"},"survey":"demographics","trial_type":"survey-demo","trial_index":118,"time_elapsed":1261555,"internal_node_id":"0.0-97.0","task_version":"screening-mturk","interactions":"[{\"event\":\"blur\",\"trial\":5,\"time\":126060},{\"event\":\"focus\",\"trial\":5,\"time\":127567},{\"event\":\"blur\",\"trial\":5,\"time\":127570},{\"event\":\"focus\",\"trial\":5,\"time\":127621},{\"event\":\"blur\",\"trial\":5,\"time\":127916},{\"event\":\"focus\",\"trial\":5,\"time\":130713},{\"event\":\"blur\",\"trial\":5,\"time\":130715},{\"event\":\"focus\",\"trial\":5,\"time\":130726},{\"event\":\"blur\",\"trial\":5,\"time\":130730},{\"event\":\"focus\",\"trial\":5,\"time\":131178},{\"event\":\"blur\",\"trial\":5,\"time\":133340},{\"event\":\"focus\",\"trial\":5,\"time\":167779},{\"event\":\"blur\",\"trial\":5,\"time\":168940},{\"event\":\"focus\",\"trial\":5,\"time\":174111},{\"event\":\"blur\",\"trial\":5,\"time\":181924},{\"event\":\"focus\",\"trial\":5,\"time\":183483},{\"event\":\"blur\",\"trial\":5,\"time\":183796},{\"event\":\"focus\",\"trial\":5,\"time\":185053},{\"event\":\"blur\",\"trial\":5,\"time\":185059},{\"event\":\"focus\",\"trial\":5,\"time\":185085},{\"event\":\"blur\",\"trial\":5,\"time\":185085},{\"event\":\"focus\",\"trial\":5,\"time\":189352},{\"event\":\"blur\",\"trial\":5,\"time\":205300},{\"event\":\"focus\",\"trial\":5,\"time\":206454},{\"event\":\"blur\",\"trial\":5,\"time\":206761},{\"event\":\"focus\",\"trial\":5,\"time\":207643},{\"event\":\"blur\",\"trial\":5,\"time\":207644},{\"event\":\"focus\",\"trial\":5,\"time\":207665},{\"event\":\"blur\",\"trial\":5,\"time\":207667},{\"event\":\"focus\",\"trial\":5,\"time\":212383},{\"event\":\"blur\",\"trial\":5,\"time\":216899},{\"event\":\"focus\",\"trial\":5,\"time\":217889},{\"event\":\"blur\",\"trial\":5,\"time\":218192},{\"event\":\"focus\",\"trial\":5,\"time\":219995},{\"event\":\"blur\",\"trial\":5,\"time\":219996},{\"event\":\"focus\",\"trial\":5,\"time\":220009},{\"event\":\"blur\",\"trial\":5,\"time\":220010},{\"event\":\"focus\",\"trial\":5,\"time\":230186},{\"event\":\"blur\",\"trial\":5,\"time\":232804},{\"event\":\"focus\",\"trial\":5,\"time\":234010},{\"event\":\"blur\",\"trial\":5,\"time\":234012},{\"event\":\"focus\",\"trial\":5,\"time\":234065},{\"event\":\"blur\",\"trial\":5,\"time\":234375},{\"event\":\"focus\",\"trial\":5,\"time\":235705},{\"event\":\"blur\",\"trial\":5,\"time\":235730},{\"event\":\"focus\",\"trial\":5,\"time\":235743},{\"event\":\"blur\",\"trial\":5,\"time\":235749},{\"event\":\"focus\",\"trial\":5,\"time\":241130},{\"event\":\"blur\",\"trial\":5,\"time\":244436},{\"event\":\"focus\",\"trial\":5,\"time\":245466},{\"event\":\"blur\",\"trial\":5,\"time\":245468},{\"event\":\"focus\",\"trial\":5,\"time\":245518},{\"event\":\"blur\",\"trial\":5,\"time\":245822},{\"event\":\"focus\",\"trial\":5,\"time\":246779},{\"event\":\"blur\",\"trial\":5,\"time\":246797},{\"event\":\"focus\",\"trial\":5,\"time\":246797},{\"event\":\"blur\",\"trial\":5,\"time\":246797},{\"event\":\"focus\",\"trial\":5,\"time\":255495},{\"event\":\"blur\",\"trial\":5,\"time\":257964},{\"event\":\"focus\",\"trial\":5,\"time\":261585},{\"event\":\"blur\",\"trial\":5,\"time\":261585},{\"event\":\"focus\",\"trial\":5,\"time\":261676},{\"event\":\"blur\",\"trial\":5,\"time\":261993},{\"event\":\"focus\",\"trial\":5,\"time\":263345},{\"event\":\"blur\",\"trial\":5,\"time\":263351},{\"event\":\"focus\",\"trial\":5,\"time\":263371},{\"event\":\"blur\",\"trial\":5,\"time\":263388},{\"event\":\"focus\",\"trial\":5,\"time\":263655},{\"event\":\"blur\",\"trial\":6,\"time\":272326},{\"event\":\"focus\",\"trial\":6,\"time\":285504},{\"event\":\"blur\",\"trial\":6,\"time\":292628},{\"event\":\"focus\",\"trial\":6,\"time\":302366},{\"event\":\"blur\",\"trial\":6,\"time\":307135},{\"event\":\"focus\",\"trial\":6,\"time\":324838},{\"event\":\"blur\",\"trial\":6,\"time\":331027},{\"event\":\"focus\",\"trial\":6,\"time\":353472},{\"event\":\"blur\",\"trial\":6,\"time\":358411},{\"event\":\"focus\",\"trial\":6,\"time\":367089},{\"event\":\"blur\",\"trial\":10,\"time\":442363},{\"event\":\"focus\",\"trial\":10,\"time\":457785},{\"event\":\"blur\",\"trial\":10,\"time\":466714},{\"event\":\"focus\",\"trial\":10,\"time\":500295},{\"event\":\"blur\",\"trial\":14,\"time\":575266},{\"event\":\"focus\",\"trial\":14,\"time\":592013},{\"event\":\"blur\",\"trial\":20,\"time\":723776},{\"event\":\"focus\",\"trial\":20,\"time\":725061},{\"event\":\"blur\",\"trial\":20,\"time\":725070},{\"event\":\"focus\",\"trial\":20,\"time\":725105},{\"event\":\"blur\",\"trial\":20,\"time\":725402},{\"event\":\"focus\",\"trial\":20,\"time\":727021},{\"event\":\"blur\",\"trial\":20,\"time\":727023},{\"event\":\"focus\",\"trial\":20,\"time\":727029},{\"event\":\"blur\",\"trial\":20,\"time\":727031},{\"event\":\"focus\",\"trial\":20,\"time\":892945},{\"event\":\"blur\",\"trial\":22,\"time\":902327},{\"event\":\"focus\",\"trial\":22,\"time\":911432},{\"event\":\"blur\",\"trial\":23,\"time\":919710},{\"event\":\"focus\",\"trial\":23,\"time\":985197},{\"event\":\"blur\",\"trial\":23,\"time\":985840},{\"event\":\"focus\",\"trial\":23,\"time\":987716}]"}]