[{"responses":{"Q13":"3","Q02":"2","Q07":"2","Q05":"2","Q08":"2","Q10":"2","Q09":"2","Q06":"3","Q04":"2","Q03":"1","Q01":"3","Q11":"2","Q12":"2"},"rt":56174.98000001069,"survey":"bisbas","trial_type":"survey-template","trial_index":0,"time_elapsed":56187,"internal_node_id":"0.0-0.0","task_version":"screening-mturk"},{"responses":{"Q04":"2","Q06":"1","Q05":"1","Q07":"1","Q02":"1","Q03":"1","Q08":"0","Q01":"1"},"rt":23015.4099999927,"survey":"gad7","trial_type":"survey-template","trial_index":1,"time_elapsed":79207,"internal_node_id":"0.0-1.0","task_version":"screening-mturk"},{"responses":{"Q05":"1","Q13":"0","Q10":"1","Q02":"1","Q15":"0","Q03":"0","Q09":"1","Q01":"0","Q14":"0","Q08":"1","Q04":"1","Q12":"1","Q06":"0","Q07":"1","Q11":"0"},"rt":219028.85999999125,"survey":"7up7down","trial_type":"survey-template","trial_index":2,"time_elapsed":298241,"internal_node_id":"0.0-2.0","task_version":"screening-mturk"},{"responses":{"Q04":"3","Q06":"2","Q11":"2","Q09":"3","Q01":"3","Q13":"3","Q08":"3","Q15":"3","Q14":"2","Q10":"2","Q07":"3","Q02":"3","Q03":"3","Q05":"3","Q12":"3"},"rt":124033.62000000197,"survey":"shaps","trial_type":"survey-template","trial_index":3,"time_elapsed":422280,"internal_node_id":"0.0-3.0","task_version":"screening-mturk"},{"responses":{"Q02":"2","Q03":"2","Q01":"3"},"rt":5857.87999999593,"survey":"pswq","trial_type":"survey-template","trial_index":4,"time_elapsed":428141,"internal_node_id":"0.0-4.0","task_version":"screening-mturk"},{"view_history":"[{\"page_index\":0,\"viewing_time\":4612.630000017816},{\"page_index\":1,\"viewing_time\":128271.87999998569},{\"page_index\":2,\"viewing_time\":2688.0349999992177},{\"page_index\":3,\"viewing_time\":1643.9400000090245},{\"page_index\":4,\"viewing_time\":566.8500000028871},{\"page_index\":5,\"viewing_time\":401.1250000039581},{\"page_index\":6,\"viewing_time\":319.98999998904765},{\"page_index\":7,\"viewing_time\":325.00499999150634}]","rt":138829.75000000442,"trial_type":"instructions","trial_index":5,"time_elapsed":566972,"internal_node_id":"0.0-5.0-0.0","task_version":"screening-mturk"},{"responses":["True","True","False","True","True"],"num_errors":1,"rt":12509.780000022147,"trial_type":"three-arm-comprehension","trial_index":6,"time_elapsed":579484,"internal_node_id":"0.0-5.0-1.0","task_version":"screening-mturk"},{"view_history":"[{\"page_index\":0,\"viewing_time\":1769.9100000027101},{\"page_index\":1,\"viewing_time\":4127.875000005588},{\"page_index\":2,\"viewing_time\":2800.2050000068266},{\"page_index\":3,\"viewing_time\":3647.884999983944},{\"page_index\":4,\"viewing_time\":6695.965000020806},{\"page_index\":5,\"viewing_time\":2968.489999999292},{\"page_index\":6,\"viewing_time\":3535.654999985127},{\"page_index\":7,\"viewing_time\":992.0449999917764}]","rt":26538.315000012517,"trial_type":"instructions","trial_index":7,"time_elapsed":606027,"internal_node_id":"0.0-5.1-0.1","task_version":"screening-mturk"},{"responses":["True","True","False","False","True"],"num_errors":0,"rt":15534.755000000587,"trial_type":"three-arm-comprehension","trial_index":8,"time_elapsed":621563,"internal_node_id":"0.0-5.1-1.1","task_version":"screening-mturk"},{"view_history":"[{\"page_index\":0,\"viewing_time\":1515.2250000101048}]","rt":1515.6549999956042,"trial_type":"instructions","trial_index":9,"time_elapsed":623083,"internal_node_id":"0.0-6.0","task_version":"screening-mturk"},{"contexts":["red","blue","green"],"outcomes":[0,0,0],"key":38,"choice":1,"rt":2019.464999990305,"outcome":0,"trial":1,"correct":1,"trial_type":"three-arm-trial","trial_index":10,"time_elapsed":626306,"internal_node_id":"0.0-7.0-0.0","task_version":"screening-mturk","missing":false,"accuracy":1},{"contexts":["red","blue","green"],"outcomes":[0,1,0],"key":39,"choice":2,"rt":487.34000002150424,"outcome":0,"trial":2,"correct":1,"trial_type":"three-arm-trial","trial_index":11,"time_elapsed":627997,"internal_node_id":"0.0-8.0-0.0","task_version":"screening-mturk","missing":false,"accuracy":0},{"contexts":["red","blue","green"],"outcomes":[0,1,0],"key":39,"choice":2,"rt":632.7300000120886,"outcome":0,"trial":3,"correct":1,"trial_type":"three-arm-trial","trial_index":12,"time_elapsed":629833,"internal_node_id":"0.0-9.0-0.0","task_version":"screening-mturk","missing":false,"accuracy":0},{"contexts":["red","blue","green"],"outcomes":[0,1,0],"key":37,"choice":0,"rt":397.70500001031905,"outcome":0,"trial":4,"correct":1,"trial_type":"three-arm-trial","trial_index":13,"time_elapsed":631435,"internal_node_id":"0.0-10.0-0.0","task_version":"screening-mturk","missing":false,"accuracy":0},{"contexts":["red","blue","green"],"outcomes":[0,1,0],"key":38,"choice":1,"rt":369.4499999983236,"outcome":1,"trial":5,"correct":1,"trial_type":"three-arm-trial","trial_index":14,"time_elapsed":633008,"internal_node_id":"0.0-11.0-0.0","task_version":"screening-mturk","missing":false,"accuracy":1},{"contexts":["red","blue","green"],"outcomes":[0,1,0],"key":38,"choice":1,"rt":260.5250000196975,"outcome":1,"trial":6,"correct":1,"trial_type":"three-arm-trial","trial_index":15,"time_elapsed":634472,"internal_node_id":"0.0-12.0-0.0","task_version":"screening-mturk","missing":false,"accuracy":1},{"contexts":["red","blue","green"],"outcomes":[0,1,0],"key":38,"choice":1,"rt":4.1649999911896884,"outcome":1,"trial":7,"correct":1,"trial_type":"three-arm-trial","trial_index":16,"time_elapsed":635680,"internal_node_id":"0.0-13.0-0.0","task_version":"screening-mturk","missing":false,"accuracy":1},{"contexts":["red","blue","green"],"outcomes":[1,1,0],"key":38,"choice":1,"rt":499.5150000031572,"outcome":1,"trial":8,"correct":1,"trial_type":"three-arm-trial","trial_index":17,"time_elapsed":637382,"internal_node_id":"0.0-14.0-0.0","task_version":"screening-mturk","missing":false,"accuracy":1},{"contexts":["red","blue","green"],"outcomes":[0,1,0],"key":38,"choice":1,"rt":126.30000000353903,"outcome":1,"trial":9,"correct":1,"trial_type":"three-arm-trial","trial_index":18,"time_elapsed":638712,"internal_node_id":"0.0-15.0-0.0","task_version":"screening-mturk","missing":false,"accuracy":1},{"contexts":["red","blue","green"],"outcomes":[0,1,0],"key":38,"choice":1,"rt":481.7249999905471,"outcome":1,"trial":10,"correct":1,"trial_type":"three-arm-trial","trial_index":19,"time_elapsed":640396,"internal_node_id":"0.0-16.0-0.0","task_version":"screening-mturk","missing":false,"accuracy":1},{"contexts":["red","blue","green"],"outcomes":[0,0,1],"key":38,"choice":1,"rt":278.8600000203587,"outcome":0,"trial":11,"correct":1,"trial_type":"three-arm-trial","trial_index":20,"time_elapsed":641878,"internal_node_id":"0.0-17.0-0.0","task_version":"screening-mturk","missing":false,"accuracy":1},{"contexts":["red","blue","green"],"outcomes":[0,1,0],"key":38,"choice":1,"rt":247.80000001192093,"outcome":1,"trial":12,"correct":1,"trial_type":"three-arm-trial","trial_index":21,"time_elapsed":643329,"internal_node_id":"0.0-18.0-0.0","task_version":"screening-mturk","missing":false,"accuracy":1},{"contexts":["red","blue","green"],"outcomes":[0,1,1],"key":38,"choice":1,"rt":3.9099999994505197,"outcome":1,"trial":13,"correct":1,"trial_type":"three-arm-trial","trial_index":22,"time_elapsed":644537,"internal_node_id":"0.0-19.0-0.0","task_version":"screening-mturk","missing":false,"accuracy":1},{"contexts":["red","blue","green"],"outcomes":[0,1,0],"key":38,"choice":1,"rt":256.9800000055693,"outcome":1,"trial":14,"correct":1,"trial_type":"three-arm-trial","trial_index":23,"time_elapsed":645997,"internal_node_id":"0.0-20.0-0.0","task_version":"screening-mturk","missing":false,"accuracy":1},{"contexts":["red","blue","green"],"outcomes":[1,1,0],"key":38,"choice":1,"rt":372.76999998721294,"outcome":1,"trial":15,"correct":1,"trial_type":"three-arm-trial","trial_index":24,"time_elapsed":647573,"internal_node_id":"0.0-21.0-0.0","task_version":"screening-mturk","missing":false,"accuracy":1},{"contexts":["red","blue","green"],"outcomes":[1,0,0],"key":38,"choice":1,"rt":245.82499999087304,"outcome":0,"trial":16,"correct":0,"trial_type":"three-arm-trial","trial_index":25,"time_elapsed":649023,"internal_node_id":"0.0-22.0-0.0","task_version":"screening-mturk","missing":false,"accuracy":0},{"contexts":["red","blue","green"],"outcomes":[1,0,1],"key":37,"choice":0,"rt":538.3250000013504,"outcome":1,"trial":17,"correct":0,"trial_type":"three-arm-trial","trial_index":26,"time_elapsed":650765,"internal_node_id":"0.0-23.0-0.0","task_version":"screening-mturk","missing":false,"accuracy":1},{"contexts":["red","blue","green"],"outcomes":[1,1,0],"key":38,"choice":1,"rt":307.67500001820736,"outcome":1,"trial":18,"correct":0,"trial_type":"three-arm-trial","trial_index":27,"time_elapsed":652276,"internal_node_id":"0.0-24.0-0.0","task_version":"screening-mturk","missing":false,"accuracy":0},{"contexts":["red","blue","green"],"outcomes":[1,0,1],"key":37,"choice":0,"rt":243.54500000481494,"outcome":1,"trial":19,"correct":0,"trial_type":"three-arm-trial","trial_index":28,"time_elapsed":653722,"internal_node_id":"0.0-25.0-0.0","task_version":"screening-mturk","missing":false,"accuracy":1},{"contexts":["red","blue","green"],"outcomes":[1,1,1],"key":38,"choice":1,"rt":61.92499998724088,"outcome":1,"trial":20,"correct":0,"trial_type":"three-arm-trial","trial_index":29,"time_elapsed":654987,"internal_node_id":"0.0-26.0-0.0","task_version":"screening-mturk","missing":false,"accuracy":0},{"contexts":["red","blue","green"],"outcomes":[0,0,0],"key":37,"choice":0,"rt":207.85499998601153,"outcome":0,"trial":21,"correct":0,"trial_type":"three-arm-trial","trial_index":30,"time_elapsed":656401,"internal_node_id":"0.0-27.0-0.0","task_version":"screening-mturk","missing":false,"accuracy":1},{"contexts":["red","blue","green"],"outcomes":[1,0,0],"key":38,"choice":1,"rt":167.14000000501983,"outcome":0,"trial":22,"correct":0,"trial_type":"three-arm-trial","trial_index":31,"time_elapsed":657771,"internal_node_id":"0.0-28.0-0.0","task_version":"screening-mturk","missing":false,"accuracy":0},{"contexts":["red","blue","green"],"outcomes":[1,0,0],"key":38,"choice":1,"rt":73.94999999087304,"outcome":0,"trial":23,"correct":0,"trial_type":"three-arm-trial","trial_index":32,"time_elapsed":659049,"internal_node_id":"0.0-29.0-0.0","task_version":"screening-mturk","missing":false,"accuracy":0},{"contexts":["red","blue","green"],"outcomes":[1,0,1],"key":38,"choice":1,"rt":345.02000000793487,"outcome":0,"trial":24,"correct":0,"trial_type":"three-arm-trial","trial_index":33,"time_elapsed":660597,"internal_node_id":"0.0-30.0-0.0","task_version":"screening-mturk","missing":false,"accuracy":0},{"contexts":["red","blue","green"],"outcomes":[1,0,0],"key":37,"choice":0,"rt":270.2599999902304,"outcome":1,"trial":25,"correct":0,"trial_type":"three-arm-trial","trial_index":34,"time_elapsed":662071,"internal_node_id":"0.0-31.0-0.0","task_version":"screening-mturk","missing":false,"accuracy":1},{"contexts":["red","blue","green"],"outcomes":[1,0,0],"key":37,"choice":0,"rt":195.98499999847263,"outcome":1,"trial":26,"correct":0,"trial_type":"three-arm-trial","trial_index":35,"time_elapsed":663470,"internal_node_id":"0.0-32.0-0.0","task_version":"screening-mturk","missing":false,"accuracy":1},{"contexts":["red","blue","green"],"outcomes":[0,0,0],"key":39,"choice":2,"rt":49.669999978505075,"outcome":0,"trial":27,"correct":0,"trial_type":"three-arm-trial","trial_index":36,"time_elapsed":664722,"internal_node_id":"0.0-33.0-0.0","task_version":"screening-mturk","missing":false,"accuracy":0},{"contexts":["red","blue","green"],"outcomes":[1,1,0],"key":37,"choice":0,"rt":217.0099999930244,"outcome":1,"trial":28,"correct":0,"trial_type":"three-arm-trial","trial_index":37,"time_elapsed":666142,"internal_node_id":"0.0-34.0-0.0","task_version":"screening-mturk","missing":false,"accuracy":1},{"contexts":["red","blue","green"],"outcomes":[0,1,0],"key":37,"choice":0,"rt":302.27499999455176,"outcome":0,"trial":29,"correct":0,"trial_type":"three-arm-trial","trial_index":38,"time_elapsed":667647,"internal_node_id":"0.0-35.0-0.0","task_version":"screening-mturk","missing":false,"accuracy":1},{"contexts":["red","blue","green"],"outcomes":[1,0,0],"key":37,"choice":0,"rt":158.48499999265186,"outcome":1,"trial":30,"correct":0,"trial_type":"three-arm-trial","trial_index":39,"time_elapsed":669009,"internal_node_id":"0.0-36.0-0.0","task_version":"screening-mturk","missing":false,"accuracy":1},{"contexts":["red","blue","green"],"outcomes":[0,0,1],"key":37,"choice":0,"rt":21.674999996321276,"outcome":0,"trial":31,"correct":2,"trial_type":"three-arm-trial","trial_index":40,"time_elapsed":670234,"internal_node_id":"0.0-37.0-0.0","task_version":"screening-mturk","missing":false,"accuracy":0},{"contexts":["red","blue","green"],"outcomes":[1,1,0],"key":38,"choice":1,"rt":321.02500001201406,"outcome":1,"trial":32,"correct":2,"trial_type":"three-arm-trial","trial_index":41,"time_elapsed":671759,"internal_node_id":"0.0-38.0-0.0","task_version":"screening-mturk","missing":false,"accuracy":0},{"contexts":["red","blue","green"],"outcomes":[0,1,1],"key":38,"choice":1,"rt":343.09000000939704,"outcome":1,"trial":33,"correct":2,"trial_type":"three-arm-trial","trial_index":42,"time_elapsed":673305,"internal_node_id":"0.0-39.0-0.0","task_version":"screening-mturk","missing":false,"accuracy":0},{"contexts":["red","blue","green"],"outcomes":[0,0,1],"key":38,"choice":1,"rt":160.77000001678243,"outcome":0,"trial":34,"correct":2,"trial_type":"three-arm-trial","trial_index":43,"time_elapsed":674669,"internal_node_id":"0.0-40.0-0.0","task_version":"screening-mturk","missing":false,"accuracy":0},{"contexts":["red","blue","green"],"outcomes":[0,1,1],"key":37,"choice":0,"rt":176.56999998143874,"outcome":0,"trial":35,"correct":2,"trial_type":"three-arm-trial","trial_index":44,"time_elapsed":676048,"internal_node_id":"0.0-41.0-0.0","task_version":"screening-mturk","missing":false,"accuracy":0},{"contexts":["red","blue","green"],"outcomes":[0,1,0],"key":38,"choice":1,"rt":313.51000000722706,"outcome":1,"trial":36,"correct":2,"trial_type":"three-arm-trial","trial_index":45,"time_elapsed":677564,"internal_node_id":"0.0-42.0-0.0","task_version":"screening-mturk","missing":false,"accuracy":0},{"contexts":["red","blue","green"],"outcomes":[0,1,1],"key":38,"choice":1,"rt":372.2649999835994,"outcome":1,"trial":37,"correct":2,"trial_type":"three-arm-trial","trial_index":46,"time_elapsed":679139,"internal_node_id":"0.0-43.0-0.0","task_version":"screening-mturk","missing":false,"accuracy":0},{"contexts":["red","blue","green"],"outcomes":[0,0,1],"key":38,"choice":1,"rt":491.56500000390224,"outcome":0,"trial":38,"correct":2,"trial_type":"three-arm-trial","trial_index":47,"time_elapsed":680834,"internal_node_id":"0.0-44.0-0.0","task_version":"screening-mturk","missing":false,"accuracy":0},{"contexts":["red","blue","green"],"outcomes":[0,1,1],"key":38,"choice":1,"rt":317.63999999384396,"outcome":1,"trial":39,"correct":2,"trial_type":"three-arm-trial","trial_index":48,"time_elapsed":682356,"internal_node_id":"0.0-45.0-0.0","task_version":"screening-mturk","missing":false,"accuracy":0},{"contexts":["red","blue","green"],"outcomes":[1,0,0],"key":38,"choice":1,"rt":301.56000002170913,"outcome":0,"trial":40,"correct":2,"trial_type":"three-arm-trial","trial_index":49,"time_elapsed":683861,"internal_node_id":"0.0-46.0-0.0","task_version":"screening-mturk","missing":false,"accuracy":0},{"contexts":["red","blue","green"],"outcomes":[0,0,1],"key":38,"choice":1,"rt":457.4900000006892,"outcome":0,"trial":41,"correct":2,"trial_type":"three-arm-trial","trial_index":50,"time_elapsed":685522,"internal_node_id":"0.0-47.0-0.0","task_version":"screening-mturk","missing":false,"accuracy":0},{"contexts":["red","blue","green"],"outcomes":[1,1,1],"key":37,"choice":0,"rt":234.58499999833293,"outcome":1,"trial":42,"correct":2,"trial_type":"three-arm-trial","trial_index":51,"time_elapsed":686960,"internal_node_id":"0.0-48.0-0.0","task_version":"screening-mturk","missing":false,"accuracy":0},{"contexts":["red","blue","green"],"outcomes":[0,0,1],"key":37,"choice":0,"rt":503.4999999916181,"outcome":0,"trial":43,"correct":2,"trial_type":"three-arm-trial","trial_index":52,"time_elapsed":688666,"internal_node_id":"0.0-49.0-0.0","task_version":"screening-mturk","missing":false,"accuracy":0},{"contexts":["red","blue","green"],"outcomes":[0,0,1],"key":38,"choice":1,"rt":77.47499999823049,"outcome":0,"trial":44,"correct":2,"trial_type":"three-arm-trial","trial_index":53,"time_elapsed":689946,"internal_node_id":"0.0-50.0-0.0","task_version":"screening-mturk","missing":false,"accuracy":0},{"contexts":["red","blue","green"],"outcomes":[0,0,0],"key":37,"choice":0,"rt":12.990000017452985,"outcome":0,"trial":45,"correct":2,"trial_type":"three-arm-trial","trial_index":54,"time_elapsed":691162,"internal_node_id":"0.0-51.0-0.0","task_version":"screening-mturk","missing":false,"accuracy":0},{"contexts":["red","blue","green"],"outcomes":[1,0,0],"key":37,"choice":0,"rt":91.57000001869164,"outcome":1,"trial":46,"correct":0,"trial_type":"three-arm-trial","trial_index":55,"time_elapsed":692457,"internal_node_id":"0.0-52.0-0.0","task_version":"screening-mturk","missing":false,"accuracy":1},{"contexts":["red","blue","green"],"outcomes":[1,0,0],"key":37,"choice":0,"rt":126.8500000005588,"outcome":1,"trial":47,"correct":0,"trial_type":"three-arm-trial","trial_index":56,"time_elapsed":693787,"internal_node_id":"0.0-53.0-0.0","task_version":"screening-mturk","missing":false,"accuracy":1},{"contexts":["red","blue","green"],"outcomes":[1,0,0],"key":37,"choice":0,"rt":323.5749999876134,"outcome":1,"trial":48,"correct":0,"trial_type":"three-arm-trial","trial_index":57,"time_elapsed":695314,"internal_node_id":"0.0-54.0-0.0","task_version":"screening-mturk","missing":false,"accuracy":1},{"contexts":["red","blue","green"],"outcomes":[1,0,0],"key":37,"choice":0,"rt":106.8000000086613,"outcome":1,"trial":49,"correct":0,"trial_type":"three-arm-trial","trial_index":58,"time_elapsed":696624,"internal_node_id":"0.0-55.0-0.0","task_version":"screening-mturk","missing":false,"accuracy":1},{"contexts":["red","blue","green"],"outcomes":[1,0,0],"key":37,"choice":0,"rt":143.59500000136904,"outcome":1,"trial":50,"correct":0,"trial_type":"three-arm-trial","trial_index":59,"time_elapsed":697972,"internal_node_id":"0.0-56.0-0.0","task_version":"screening-mturk","missing":false,"accuracy":1},{"contexts":["red","blue","green"],"outcomes":[1,0,0],"key":37,"choice":0,"rt":251.2550000101328,"outcome":1,"trial":51,"correct":0,"trial_type":"three-arm-trial","trial_index":60,"time_elapsed":699426,"internal_node_id":"0.0-57.0-0.0","task_version":"screening-mturk","missing":false,"accuracy":1},{"contexts":["red","blue","green"],"outcomes":[1,0,0],"key":37,"choice":0,"rt":74.51000000583008,"outcome":1,"trial":52,"correct":0,"trial_type":"three-arm-trial","trial_index":61,"time_elapsed":700704,"internal_node_id":"0.0-58.0-0.0","task_version":"screening-mturk","missing":false,"accuracy":1},{"contexts":["red","blue","green"],"outcomes":[1,0,0],"key":37,"choice":0,"rt":509.2149999982212,"outcome":1,"trial":53,"correct":0,"trial_type":"three-arm-trial","trial_index":62,"time_elapsed":702416,"internal_node_id":"0.0-59.0-0.0","task_version":"screening-mturk","missing":false,"accuracy":1},{"contexts":["red","blue","green"],"outcomes":[1,0,0],"key":37,"choice":0,"rt":425.8550000085961,"outcome":1,"trial":54,"correct":0,"trial_type":"three-arm-trial","trial_index":63,"time_elapsed":704045,"internal_node_id":"0.0-60.0-0.0","task_version":"screening-mturk","missing":false,"accuracy":1},{"contexts":["red","blue","green"],"outcomes":[1,1,0],"key":37,"choice":0,"rt":412.1349999913946,"outcome":1,"trial":55,"correct":0,"trial_type":"three-arm-trial","trial_index":64,"time_elapsed":705659,"internal_node_id":"0.0-61.0-0.0","task_version":"screening-mturk","missing":false,"accuracy":1},{"contexts":["red","blue","green"],"outcomes":[1,0,0],"key":37,"choice":0,"rt":40.12499999953434,"outcome":1,"trial":56,"correct":0,"trial_type":"three-arm-trial","trial_index":65,"time_elapsed":706904,"internal_node_id":"0.0-62.0-0.0","task_version":"screening-mturk","missing":false,"accuracy":1},{"contexts":["red","blue","green"],"outcomes":[0,0,1],"key":37,"choice":0,"rt":95.88000000803731,"outcome":0,"trial":57,"correct":0,"trial_type":"three-arm-trial","trial_index":66,"time_elapsed":708202,"internal_node_id":"0.0-63.0-0.0","task_version":"screening-mturk","missing":false,"accuracy":1},{"contexts":["red","blue","green"],"outcomes":[1,0,0],"key":38,"choice":1,"rt":91.87500001280569,"outcome":0,"trial":58,"correct":0,"trial_type":"three-arm-trial","trial_index":67,"time_elapsed":709498,"internal_node_id":"0.0-64.0-0.0","task_version":"screening-mturk","missing":false,"accuracy":0},{"contexts":["red","blue","green"],"outcomes":[1,0,0],"key":38,"choice":1,"rt":94.97000000556,"outcome":0,"trial":59,"correct":0,"trial_type":"three-arm-trial","trial_index":68,"time_elapsed":710796,"internal_node_id":"0.0-65.0-0.0","task_version":"screening-mturk","missing":false,"accuracy":0},{"contexts":["red","blue","green"],"outcomes":[0,0,0],"key":37,"choice":0,"rt":92.25499999593012,"outcome":0,"trial":60,"correct":0,"trial_type":"three-arm-trial","trial_index":69,"time_elapsed":712094,"internal_node_id":"0.0-66.0-0.0","task_version":"screening-mturk","missing":false,"accuracy":1},{"contexts":["red","blue","green"],"outcomes":[0,0,1],"key":37,"choice":0,"rt":80.87000000523403,"outcome":0,"trial":61,"correct":2,"trial_type":"three-arm-trial","trial_index":70,"time_elapsed":713378,"internal_node_id":"0.0-67.0-0.0","task_version":"screening-mturk","missing":false,"accuracy":0},{"contexts":["red","blue","green"],"outcomes":[0,0,1],"key":39,"choice":2,"rt":196.67000000481494,"outcome":1,"trial":62,"correct":2,"trial_type":"three-arm-trial","trial_index":71,"time_elapsed":714778,"internal_node_id":"0.0-68.0-0.0","task_version":"screening-mturk","missing":false,"accuracy":1},{"contexts":["red","blue","green"],"outcomes":[0,0,1],"key":39,"choice":2,"rt":155.11000002152286,"outcome":1,"trial":63,"correct":2,"trial_type":"three-arm-trial","trial_index":72,"time_elapsed":716136,"internal_node_id":"0.0-69.0-0.0","task_version":"screening-mturk","missing":false,"accuracy":1},{"contexts":["red","blue","green"],"outcomes":[0,1,1],"key":39,"choice":2,"rt":82.72999999462627,"outcome":1,"trial":64,"correct":2,"trial_type":"three-arm-trial","trial_index":73,"time_elapsed":717422,"internal_node_id":"0.0-70.0-0.0","task_version":"screening-mturk","missing":false,"accuracy":1},{"contexts":["red","blue","green"],"outcomes":[0,1,1],"key":39,"choice":2,"rt":31.60999997635372,"outcome":1,"trial":65,"correct":2,"trial_type":"three-arm-trial","trial_index":74,"time_elapsed":718658,"internal_node_id":"0.0-71.0-0.0","task_version":"screening-mturk","missing":false,"accuracy":1},{"contexts":["red","blue","green"],"outcomes":[0,1,1],"key":39,"choice":2,"rt":289.0750000078697,"outcome":1,"trial":66,"correct":2,"trial_type":"three-arm-trial","trial_index":75,"time_elapsed":720150,"internal_node_id":"0.0-72.0-0.0","task_version":"screening-mturk","missing":false,"accuracy":1},{"contexts":["red","blue","green"],"outcomes":[0,0,1],"key":39,"choice":2,"rt":225.27499997522682,"outcome":1,"trial":67,"correct":2,"trial_type":"three-arm-trial","trial_index":76,"time_elapsed":721578,"internal_node_id":"0.0-73.0-0.0","task_version":"screening-mturk","missing":false,"accuracy":1},{"contexts":["red","blue","green"],"outcomes":[0,0,1],"key":39,"choice":2,"rt":134.05499997315928,"outcome":1,"trial":68,"correct":2,"trial_type":"three-arm-trial","trial_index":77,"time_elapsed":722915,"internal_node_id":"0.0-74.0-0.0","task_version":"screening-mturk","missing":false,"accuracy":1},{"contexts":["red","blue","green"],"outcomes":[1,1,1],"key":39,"choice":2,"rt":95.86999999010004,"outcome":1,"trial":69,"correct":2,"trial_type":"three-arm-trial","trial_index":78,"time_elapsed":724214,"internal_node_id":"0.0-75.0-0.0","task_version":"screening-mturk","missing":false,"accuracy":1},{"contexts":["red","blue","green"],"outcomes":[0,1,0],"key":39,"choice":2,"rt":71.98999999673106,"outcome":0,"trial":70,"correct":2,"trial_type":"three-arm-trial","trial_index":79,"time_elapsed":725489,"internal_node_id":"0.0-76.0-0.0","task_version":"screening-mturk","missing":false,"accuracy":1},{"contexts":["red","blue","green"],"outcomes":[0,1,1],"key":37,"choice":0,"rt":329.61000001523644,"outcome":0,"trial":71,"correct":2,"trial_type":"three-arm-trial","trial_index":80,"time_elapsed":727022,"internal_node_id":"0.0-77.0-0.0","task_version":"screening-mturk","missing":false,"accuracy":0},{"contexts":["red","blue","green"],"outcomes":[0,0,1],"key":39,"choice":2,"rt":100.42000000248663,"outcome":1,"trial":72,"correct":2,"trial_type":"three-arm-trial","trial_index":81,"time_elapsed":728326,"internal_node_id":"0.0-78.0-0.0","task_version":"screening-mturk","missing":false,"accuracy":1},{"contexts":["red","blue","green"],"outcomes":[0,0,1],"key":39,"choice":2,"rt":53.579999977955595,"outcome":1,"trial":73,"correct":2,"trial_type":"three-arm-trial","trial_index":82,"time_elapsed":729584,"internal_node_id":"0.0-79.0-0.0","task_version":"screening-mturk","missing":false,"accuracy":1},{"contexts":["red","blue","green"],"outcomes":[0,0,0],"key":39,"choice":2,"rt":107.98000000067987,"outcome":0,"trial":74,"correct":2,"trial_type":"three-arm-trial","trial_index":83,"time_elapsed":730896,"internal_node_id":"0.0-80.0-0.0","task_version":"screening-mturk","missing":false,"accuracy":1},{"contexts":["red","blue","green"],"outcomes":[0,0,1],"key":38,"choice":1,"rt":178.58000000705943,"outcome":0,"trial":75,"correct":2,"trial_type":"three-arm-trial","trial_index":84,"time_elapsed":732278,"internal_node_id":"0.0-81.0-0.0","task_version":"screening-mturk","missing":false,"accuracy":0},{"contexts":["red","blue","green"],"outcomes":[0,1,0],"key":39,"choice":2,"rt":326.15499998792075,"outcome":0,"trial":76,"correct":1,"trial_type":"three-arm-trial","trial_index":85,"time_elapsed":733807,"internal_node_id":"0.0-82.0-0.0","task_version":"screening-mturk","missing":false,"accuracy":0},{"contexts":["red","blue","green"],"outcomes":[0,1,1],"key":37,"choice":0,"rt":53.820000000996515,"outcome":0,"trial":77,"correct":1,"trial_type":"three-arm-trial","trial_index":86,"time_elapsed":735065,"internal_node_id":"0.0-83.0-0.0","task_version":"screening-mturk","missing":false,"accuracy":0},{"contexts":["red","blue","green"],"outcomes":[1,1,0],"key":38,"choice":1,"rt":184.69500000355765,"outcome":1,"trial":78,"correct":1,"trial_type":"three-arm-trial","trial_index":87,"time_elapsed":736453,"internal_node_id":"0.0-84.0-0.0","task_version":"screening-mturk","missing":false,"accuracy":1},{"contexts":["red","blue","green"],"outcomes":[0,1,0],"key":38,"choice":1,"rt":364.82499999692664,"outcome":1,"trial":79,"correct":1,"trial_type":"three-arm-trial","trial_index":88,"time_elapsed":738021,"internal_node_id":"0.0-85.0-0.0","task_version":"screening-mturk","missing":false,"accuracy":1},{"contexts":["red","blue","green"],"outcomes":[1,0,1],"key":38,"choice":1,"rt":222.48500000569038,"outcome":0,"trial":80,"correct":1,"trial_type":"three-arm-trial","trial_index":89,"time_elapsed":739447,"internal_node_id":"0.0-86.0-0.0","task_version":"screening-mturk","missing":false,"accuracy":1},{"contexts":["red","blue","green"],"outcomes":[1,1,0],"key":39,"choice":2,"rt":416.9699999911245,"outcome":0,"trial":81,"correct":1,"trial_type":"three-arm-trial","trial_index":90,"time_elapsed":741066,"internal_node_id":"0.0-87.0-0.0","task_version":"screening-mturk","missing":false,"accuracy":0},{"contexts":["red","blue","green"],"outcomes":[1,1,1],"key":38,"choice":1,"rt":239.93999999947846,"outcome":1,"trial":82,"correct":1,"trial_type":"three-arm-trial","trial_index":91,"time_elapsed":742509,"internal_node_id":"0.0-88.0-0.0","task_version":"screening-mturk","missing":false,"accuracy":1},{"contexts":["red","blue","green"],"outcomes":[0,1,0],"key":38,"choice":1,"rt":74.10500000696629,"outcome":1,"trial":83,"correct":1,"trial_type":"three-arm-trial","trial_index":92,"time_elapsed":743786,"internal_node_id":"0.0-89.0-0.0","task_version":"screening-mturk","missing":false,"accuracy":1},{"contexts":["red","blue","green"],"outcomes":[1,1,0],"key":38,"choice":1,"rt":551.7099999997299,"outcome":1,"trial":84,"correct":1,"trial_type":"three-arm-trial","trial_index":93,"time_elapsed":745541,"internal_node_id":"0.0-90.0-0.0","task_version":"screening-mturk","missing":false,"accuracy":1},{"contexts":["red","blue","green"],"outcomes":[0,1,1],"key":38,"choice":1,"rt":278.80000000004657,"outcome":1,"trial":85,"correct":1,"trial_type":"three-arm-trial","trial_index":94,"time_elapsed":747023,"internal_node_id":"0.0-91.0-0.0","task_version":"screening-mturk","missing":false,"accuracy":1},{"contexts":["red","blue","green"],"outcomes":[0,1,0],"key":38,"choice":1,"rt":43.42999999062158,"outcome":1,"trial":86,"correct":1,"trial_type":"three-arm-trial","trial_index":95,"time_elapsed":748269,"internal_node_id":"0.0-92.0-0.0","task_version":"screening-mturk","missing":false,"accuracy":1},{"contexts":["red","blue","green"],"outcomes":[0,1,0],"key":38,"choice":1,"rt":428.2649999950081,"outcome":1,"trial":87,"correct":1,"trial_type":"three-arm-trial","trial_index":96,"time_elapsed":749900,"internal_node_id":"0.0-93.0-0.0","task_version":"screening-mturk","missing":false,"accuracy":1},{"contexts":["red","blue","green"],"outcomes":[1,1,0],"key":38,"choice":1,"rt":311.9950000254903,"outcome":1,"trial":88,"correct":1,"trial_type":"three-arm-trial","trial_index":97,"time_elapsed":751416,"internal_node_id":"0.0-94.0-0.0","task_version":"screening-mturk","missing":false,"accuracy":1},{"contexts":["red","blue","green"],"outcomes":[0,0,1],"key":38,"choice":1,"rt":81.20499999495223,"outcome":0,"trial":89,"correct":1,"trial_type":"three-arm-trial","trial_index":98,"time_elapsed":752701,"internal_node_id":"0.0-95.0-0.0","task_version":"screening-mturk","missing":false,"accuracy":1},{"contexts":["red","blue","green"],"outcomes":[0,1,0],"key":39,"choice":2,"rt":13.915000017732382,"outcome":0,"trial":90,"correct":1,"trial_type":"three-arm-trial","trial_index":99,"time_elapsed":753918,"internal_node_id":"0.0-96.0-0.0","task_version":"screening-mturk","missing":false,"accuracy":0},{"rt":14178.82999998983,"responses":{"age":"31","gender-categorical":"Male","gender-free-response":"","ethnicity":"Not Hispanic or Latino","race":["White"],"language":"Yes","fluency":"Very well","prolific":"Yes","prolific-this-study":"No"},"survey":"demographics","trial_type":"survey-demo","trial_index":100,"time_elapsed":768103,"internal_node_id":"0.0-97.0","task_version":"screening-mturk","interactions":"[{\"event\":\"blur\",\"trial\":0,\"time\":28440},{\"event\":\"focus\",\"trial\":0,\"time\":47943},{\"event\":\"blur\",\"trial\":2,\"time\":126222},{\"event\":\"focus\",\"trial\":2,\"time\":160864},{\"event\":\"blur\",\"trial\":2,\"time\":160864},{\"event\":\"focus\",\"trial\":2,\"time\":161812},{\"event\":\"blur\",\"trial\":2,\"time\":192421},{\"event\":\"focus\",\"trial\":2,\"time\":268927},{\"event\":\"blur\",\"trial\":3,\"time\":350845},{\"event\":\"focus\",\"trial\":3,\"time\":372836},{\"event\":\"blur\",\"trial\":3,\"time\":372837},{\"event\":\"focus\",\"trial\":3,\"time\":373462},{\"event\":\"blur\",\"trial\":3,\"time\":410902},{\"event\":\"focus\",\"trial\":3,\"time\":421513},{\"event\":\"blur\",\"trial\":5,\"time\":434765},{\"event\":\"focus\",\"trial\":5,\"time\":560917}]"}]