[{"responses":{"Q01":"2","Q04":"3","Q13":"2","Q03":"1","Q02":"2","Q07":"2","Q12":"3","Q05":"1","Q11":"2","Q08":"3","Q10":"2","Q06":"2","Q09":"1"},"rt":57909.775000065565,"survey":"bisbas","trial_type":"survey-template","trial_index":0,"time_elapsed":57923,"internal_node_id":"0.0-0.0","task_version":"screening-mturk"},{"responses":{"Q01":"3","Q02":"4","Q03":"3"},"rt":17079.39500012435,"survey":"pswq","trial_type":"survey-template","trial_index":1,"time_elapsed":75006,"internal_node_id":"0.0-1.0","task_version":"screening-mturk"},{"responses":{"Q02":"2","Q14":"3","Q15":"2","Q01":"1","Q06":"2","Q08":"2","Q13":"3","Q09":"2","Q12":"2","Q04":"3","Q10":"2","Q11":"1","Q03":"2","Q05":"2","Q07":"3"},"rt":38668.09000005014,"survey":"7up7down","trial_type":"survey-template","trial_index":2,"time_elapsed":113678,"internal_node_id":"0.0-2.0","task_version":"screening-mturk"},{"responses":{"Q08":"2","Q15":"3","Q13":"2","Q03":"1","Q06":"2","Q10":"3","Q02":"2","Q12":"2","Q09":"2","Q01":"3","Q04":"2","Q07":"1","Q11":"2","Q14":"3","Q05":"2"},"rt":38862.33499995433,"survey":"shaps","trial_type":"survey-template","trial_index":3,"time_elapsed":152544,"internal_node_id":"0.0-3.0","task_version":"screening-mturk"},{"responses":{"Q08":"2","Q07":"3","Q03":"2","Q01":"1","Q04":"2","Q05":"3","Q06":"2","Q02":"3"},"rt":20456.250000046566,"survey":"gad7","trial_type":"survey-template","trial_index":4,"time_elapsed":173003,"internal_node_id":"0.0-4.0","task_version":"screening-mturk"},{"view_history":"[{\"page_index\":0,\"viewing_time\":38725.52500013262},{\"page_index\":1,\"viewing_time\":1954.230000032112},{\"page_index\":2,\"viewing_time\":934.9299999885261},{\"page_index\":3,\"viewing_time\":2625.7199998945},{\"page_index\":4,\"viewing_time\":1429.1350001003593},{\"page_index\":5,\"viewing_time\":1185.0649998523295},{\"page_index\":6,\"viewing_time\":890.4900001361966},{\"page_index\":7,\"viewing_time\":1160.0450000260025}]","rt":48906.20500012301,"trial_type":"instructions","trial_index":5,"time_elapsed":221911,"internal_node_id":"0.0-5.0-0.0","task_version":"screening-mturk"},{"responses":["True","False","True","False","True"],"num_errors":2,"rt":77207.51500013284,"trial_type":"three-arm-comprehension","trial_index":6,"time_elapsed":299122,"internal_node_id":"0.0-5.0-1.0","task_version":"screening-mturk"},{"view_history":"[{\"page_index\":0,\"viewing_time\":3255.8150000404567},{\"page_index\":1,\"viewing_time\":5005.244999891147},{\"page_index\":2,\"viewing_time\":660.5100000742823},{\"page_index\":3,\"viewing_time\":158.9899999089539},{\"page_index\":4,\"viewing_time\":170.04500003531575},{\"page_index\":5,\"viewing_time\":139.90500010550022},{\"page_index\":6,\"viewing_time\":180.1999998278916},{\"page_index\":7,\"viewing_time\":159.88500020466745}]","rt":9730.890000006184,"trial_type":"instructions","trial_index":7,"time_elapsed":308859,"internal_node_id":"0.0-5.1-0.1","task_version":"screening-mturk"},{"responses":["True","True","False","False","True"],"num_errors":0,"rt":19528.675000183284,"trial_type":"three-arm-comprehension","trial_index":8,"time_elapsed":328390,"internal_node_id":"0.0-5.1-1.1","task_version":"screening-mturk"},{"view_history":"[{\"page_index\":0,\"viewing_time\":1897.0550000667572}]","rt":1897.385000018403,"trial_type":"instructions","trial_index":9,"time_elapsed":330290,"internal_node_id":"0.0-6.0","task_version":"screening-mturk"},{"contexts":["blue","green","red"],"outcomes":[0,1,0],"key":38,"choice":1,"rt":3117.219999898225,"outcome":1,"trial":1,"correct":0,"trial_type":"three-arm-trial","trial_index":10,"time_elapsed":334612,"internal_node_id":"0.0-7.0-0.0","task_version":"screening-mturk","missing":false,"accuracy":0},{"contexts":["blue","green","red"],"outcomes":[0,1,0],"key":38,"choice":1,"rt":1718.6099998652935,"outcome":1,"trial":2,"correct":0,"trial_type":"three-arm-trial","trial_index":11,"time_elapsed":337535,"internal_node_id":"0.0-8.0-0.0","task_version":"screening-mturk","missing":false,"accuracy":0},{"contexts":["blue","green","red"],"outcomes":[1,0,1],"key":38,"choice":1,"rt":202.22500013187528,"outcome":0,"trial":3,"correct":0,"trial_type":"three-arm-trial","trial_index":12,"time_elapsed":338940,"internal_node_id":"0.0-9.0-0.0","task_version":"screening-mturk","missing":false,"accuracy":0},{"contexts":["blue","green","red"],"outcomes":[1,0,1],"key":37,"choice":0,"rt":213.93499989062548,"outcome":1,"trial":4,"correct":0,"trial_type":"three-arm-trial","trial_index":13,"time_elapsed":340358,"internal_node_id":"0.0-10.0-0.0","task_version":"screening-mturk","missing":false,"accuracy":1},{"contexts":["blue","green","red"],"outcomes":[1,0,0],"key":39,"choice":2,"rt":109.82999997213483,"outcome":0,"trial":5,"correct":0,"trial_type":"three-arm-trial","trial_index":14,"time_elapsed":341671,"internal_node_id":"0.0-11.0-0.0","task_version":"screening-mturk","missing":false,"accuracy":0},{"contexts":["blue","green","red"],"outcomes":[0,0,1],"key":38,"choice":1,"rt":106.06999997980893,"outcome":0,"trial":6,"correct":0,"trial_type":"three-arm-trial","trial_index":15,"time_elapsed":342980,"internal_node_id":"0.0-12.0-0.0","task_version":"screening-mturk","missing":false,"accuracy":0},{"contexts":["blue","green","red"],"outcomes":[1,0,0],"key":37,"choice":0,"rt":187.0800000615418,"outcome":1,"trial":7,"correct":0,"trial_type":"three-arm-trial","trial_index":16,"time_elapsed":344371,"internal_node_id":"0.0-13.0-0.0","task_version":"screening-mturk","missing":false,"accuracy":1},{"contexts":["blue","green","red"],"outcomes":[1,0,0],"key":39,"choice":2,"rt":137.25499995052814,"outcome":0,"trial":8,"correct":0,"trial_type":"three-arm-trial","trial_index":17,"time_elapsed":345711,"internal_node_id":"0.0-14.0-0.0","task_version":"screening-mturk","missing":false,"accuracy":0},{"contexts":["blue","green","red"],"outcomes":[1,0,0],"key":38,"choice":1,"rt":856.7249998450279,"outcome":0,"trial":9,"correct":0,"trial_type":"three-arm-trial","trial_index":18,"time_elapsed":347771,"internal_node_id":"0.0-15.0-0.0","task_version":"screening-mturk","missing":false,"accuracy":0},{"contexts":["blue","green","red"],"outcomes":[1,0,0],"key":37,"choice":0,"rt":1717.4749998375773,"outcome":1,"trial":10,"correct":0,"trial_type":"three-arm-trial","trial_index":19,"time_elapsed":350693,"internal_node_id":"0.0-16.0-0.0","task_version":"screening-mturk","missing":false,"accuracy":1},{"contexts":["blue","green","red"],"outcomes":[1,0,0],"key":39,"choice":2,"rt":100.80500016920269,"outcome":0,"trial":11,"correct":0,"trial_type":"three-arm-trial","trial_index":20,"time_elapsed":351998,"internal_node_id":"0.0-17.0-0.0","task_version":"screening-mturk","missing":false,"accuracy":0},{"contexts":["blue","green","red"],"outcomes":[1,0,0],"key":39,"choice":2,"rt":210.5849999934435,"outcome":0,"trial":12,"correct":0,"trial_type":"three-arm-trial","trial_index":21,"time_elapsed":353411,"internal_node_id":"0.0-18.0-0.0","task_version":"screening-mturk","missing":false,"accuracy":0},{"contexts":["blue","green","red"],"outcomes":[0,0,0],"key":38,"choice":1,"rt":5851.77499987185,"outcome":0,"trial":13,"correct":0,"trial_type":"three-arm-trial","trial_index":22,"time_elapsed":360466,"internal_node_id":"0.0-19.0-0.0","task_version":"screening-mturk","missing":false,"accuracy":0},{"contexts":["blue","green","red"],"outcomes":[1,0,0],"key":38,"choice":1,"rt":8062.924999976531,"outcome":0,"trial":14,"correct":0,"trial_type":"three-arm-trial","trial_index":23,"time_elapsed":369731,"internal_node_id":"0.0-20.0-0.0","task_version":"screening-mturk","missing":false,"accuracy":0},{"contexts":["blue","green","red"],"outcomes":[1,0,1],"key":38,"choice":1,"rt":507.5299998279661,"outcome":0,"trial":15,"correct":0,"trial_type":"three-arm-trial","trial_index":24,"time_elapsed":371441,"internal_node_id":"0.0-21.0-0.0","task_version":"screening-mturk","missing":false,"accuracy":0},{"contexts":["blue","green","red"],"outcomes":[1,1,1],"key":null,"rt":null,"trial":16,"correct":2,"trial_type":"three-arm-trial","trial_index":25,"time_elapsed":387943,"internal_node_id":"0.0-22.0-0.0","task_version":"screening-mturk","missing":true},{"contexts":["blue","green","red"],"outcomes":[1,1,1],"key":null,"rt":null,"trial":16,"correct":2,"trial_type":"three-arm-trial","trial_index":26,"time_elapsed":404942,"internal_node_id":"0.0-22.1-0.1","task_version":"screening-mturk","missing":true},{"contexts":["blue","green","red"],"outcomes":[1,1,1],"key":38,"choice":1,"rt":2956.2299998942763,"outcome":1,"trial":16,"correct":2,"trial_type":"three-arm-trial","trial_index":27,"time_elapsed":409100,"internal_node_id":"0.0-22.2-0.2","task_version":"screening-mturk","missing":false,"accuracy":0},{"contexts":["blue","green","red"],"outcomes":[0,1,1],"key":37,"choice":0,"rt":202.674999833107,"outcome":0,"trial":17,"correct":2,"trial_type":"three-arm-trial","trial_index":28,"time_elapsed":410507,"internal_node_id":"0.0-23.0-0.0","task_version":"screening-mturk","missing":false,"accuracy":0},{"contexts":["blue","green","red"],"outcomes":[0,0,1],"key":38,"choice":1,"rt":2998.1949999928474,"outcome":0,"trial":18,"correct":2,"trial_type":"three-arm-trial","trial_index":29,"time_elapsed":414709,"internal_node_id":"0.0-24.0-0.0","task_version":"screening-mturk","missing":false,"accuracy":0},{"contexts":["blue","green","red"],"outcomes":[0,0,1],"key":37,"choice":0,"rt":70.56999998167157,"outcome":0,"trial":19,"correct":2,"trial_type":"three-arm-trial","trial_index":30,"time_elapsed":415986,"internal_node_id":"0.0-25.0-0.0","task_version":"screening-mturk","missing":false,"accuracy":0},{"contexts":["blue","green","red"],"outcomes":[0,0,0],"key":37,"choice":0,"rt":166.69500013813376,"outcome":0,"trial":20,"correct":2,"trial_type":"three-arm-trial","trial_index":31,"time_elapsed":417355,"internal_node_id":"0.0-26.0-0.0","task_version":"screening-mturk","missing":false,"accuracy":0},{"contexts":["blue","green","red"],"outcomes":[0,0,1],"key":37,"choice":0,"rt":281.199999852106,"outcome":0,"trial":21,"correct":2,"trial_type":"three-arm-trial","trial_index":32,"time_elapsed":418840,"internal_node_id":"0.0-27.0-0.0","task_version":"screening-mturk","missing":false,"accuracy":0},{"contexts":["blue","green","red"],"outcomes":[0,1,1],"key":37,"choice":0,"rt":608.585000038147,"outcome":0,"trial":22,"correct":2,"trial_type":"three-arm-trial","trial_index":33,"time_elapsed":420652,"internal_node_id":"0.0-28.0-0.0","task_version":"screening-mturk","missing":false,"accuracy":0},{"contexts":["blue","green","red"],"outcomes":[1,0,1],"key":37,"choice":0,"rt":62.08499986678362,"outcome":1,"trial":23,"correct":2,"trial_type":"three-arm-trial","trial_index":34,"time_elapsed":421916,"internal_node_id":"0.0-29.0-0.0","task_version":"screening-mturk","missing":false,"accuracy":0},{"contexts":["blue","green","red"],"outcomes":[1,0,1],"key":null,"rt":null,"trial":24,"correct":2,"trial_type":"three-arm-trial","trial_index":35,"time_elapsed":436922,"internal_node_id":"0.0-30.0-0.0","task_version":"screening-mturk","missing":true},{"contexts":["blue","green","red"],"outcomes":[1,0,1],"key":null,"rt":null,"trial":24,"correct":2,"trial_type":"three-arm-trial","trial_index":36,"time_elapsed":451924,"internal_node_id":"0.0-30.1-0.1","task_version":"screening-mturk","missing":true},{"contexts":["blue","green","red"],"outcomes":[1,0,1],"key":38,"choice":1,"rt":888.8649998698384,"outcome":0,"trial":24,"correct":2,"trial_type":"three-arm-trial","trial_index":37,"time_elapsed":454015,"internal_node_id":"0.0-30.2-0.2","task_version":"screening-mturk","missing":false,"accuracy":0},{"contexts":["blue","green","red"],"outcomes":[0,0,0],"key":38,"choice":1,"rt":147.55000011064112,"outcome":0,"trial":25,"correct":2,"trial_type":"three-arm-trial","trial_index":38,"time_elapsed":455365,"internal_node_id":"0.0-31.0-0.0","task_version":"screening-mturk","missing":false,"accuracy":0},{"contexts":["blue","green","red"],"outcomes":[0,0,1],"key":37,"choice":0,"rt":82.41000003181398,"outcome":0,"trial":26,"correct":2,"trial_type":"three-arm-trial","trial_index":39,"time_elapsed":456650,"internal_node_id":"0.0-32.0-0.0","task_version":"screening-mturk","missing":false,"accuracy":0},{"contexts":["blue","green","red"],"outcomes":[0,0,0],"key":37,"choice":0,"rt":87.74500014260411,"outcome":0,"trial":27,"correct":2,"trial_type":"three-arm-trial","trial_index":40,"time_elapsed":457940,"internal_node_id":"0.0-33.0-0.0","task_version":"screening-mturk","missing":false,"accuracy":0},{"contexts":["blue","green","red"],"outcomes":[0,1,1],"key":39,"choice":2,"rt":37.25499985739589,"outcome":1,"trial":28,"correct":2,"trial_type":"three-arm-trial","trial_index":41,"time_elapsed":459180,"internal_node_id":"0.0-34.0-0.0","task_version":"screening-mturk","missing":false,"accuracy":1},{"contexts":["blue","green","red"],"outcomes":[0,0,1],"key":38,"choice":1,"rt":132.00000021606684,"outcome":0,"trial":29,"correct":2,"trial_type":"three-arm-trial","trial_index":42,"time_elapsed":460514,"internal_node_id":"0.0-35.0-0.0","task_version":"screening-mturk","missing":false,"accuracy":0},{"contexts":["blue","green","red"],"outcomes":[1,0,1],"key":38,"choice":1,"rt":2.8899998869746923,"outcome":0,"trial":30,"correct":2,"trial_type":"three-arm-trial","trial_index":43,"time_elapsed":461719,"internal_node_id":"0.0-36.0-0.0","task_version":"screening-mturk","missing":false,"accuracy":0},{"contexts":["blue","green","red"],"outcomes":[0,1,0],"key":37,"choice":0,"rt":148.21000001393259,"outcome":0,"trial":31,"correct":1,"trial_type":"three-arm-trial","trial_index":44,"time_elapsed":463070,"internal_node_id":"0.0-37.0-0.0","task_version":"screening-mturk","missing":false,"accuracy":0},{"contexts":["blue","green","red"],"outcomes":[1,1,0],"key":37,"choice":0,"rt":107.24000004120171,"outcome":1,"trial":32,"correct":1,"trial_type":"three-arm-trial","trial_index":45,"time_elapsed":464381,"internal_node_id":"0.0-38.0-0.0","task_version":"screening-mturk","missing":false,"accuracy":0},{"contexts":["blue","green","red"],"outcomes":[0,1,1],"key":39,"choice":2,"rt":56.62499996833503,"outcome":1,"trial":33,"correct":1,"trial_type":"three-arm-trial","trial_index":46,"time_elapsed":465641,"internal_node_id":"0.0-39.0-0.0","task_version":"screening-mturk","missing":false,"accuracy":0},{"contexts":["blue","green","red"],"outcomes":[0,1,0],"key":37,"choice":0,"rt":7.47500010766089,"outcome":0,"trial":34,"correct":1,"trial_type":"three-arm-trial","trial_index":47,"time_elapsed":466851,"internal_node_id":"0.0-40.0-0.0","task_version":"screening-mturk","missing":false,"accuracy":0},{"contexts":["blue","green","red"],"outcomes":[0,1,0],"key":37,"choice":0,"rt":88.25999987311661,"outcome":0,"trial":35,"correct":1,"trial_type":"three-arm-trial","trial_index":48,"time_elapsed":468142,"internal_node_id":"0.0-41.0-0.0","task_version":"screening-mturk","missing":false,"accuracy":0},{"contexts":["blue","green","red"],"outcomes":[0,1,0],"key":39,"choice":2,"rt":126.04000000283122,"outcome":0,"trial":36,"correct":1,"trial_type":"three-arm-trial","trial_index":49,"time_elapsed":469471,"internal_node_id":"0.0-42.0-0.0","task_version":"screening-mturk","missing":false,"accuracy":0},{"contexts":["blue","green","red"],"outcomes":[1,0,0],"key":38,"choice":1,"rt":107.45000001043081,"outcome":0,"trial":37,"correct":1,"trial_type":"three-arm-trial","trial_index":50,"time_elapsed":470782,"internal_node_id":"0.0-43.0-0.0","task_version":"screening-mturk","missing":false,"accuracy":1},{"contexts":["blue","green","red"],"outcomes":[0,0,0],"key":39,"choice":2,"rt":138.4300000499934,"outcome":0,"trial":38,"correct":1,"trial_type":"three-arm-trial","trial_index":51,"time_elapsed":472123,"internal_node_id":"0.0-44.0-0.0","task_version":"screening-mturk","missing":false,"accuracy":0},{"contexts":["blue","green","red"],"outcomes":[0,0,0],"key":37,"choice":0,"rt":45.94999994151294,"outcome":0,"trial":39,"correct":1,"trial_type":"three-arm-trial","trial_index":52,"time_elapsed":473371,"internal_node_id":"0.0-45.0-0.0","task_version":"screening-mturk","missing":false,"accuracy":0},{"contexts":["blue","green","red"],"outcomes":[0,1,1],"key":38,"choice":1,"rt":167.3200000077486,"outcome":1,"trial":40,"correct":1,"trial_type":"three-arm-trial","trial_index":53,"time_elapsed":474741,"internal_node_id":"0.0-46.0-0.0","task_version":"screening-mturk","missing":false,"accuracy":1},{"contexts":["blue","green","red"],"outcomes":[1,1,0],"key":38,"choice":1,"rt":157.7749999705702,"outcome":1,"trial":41,"correct":1,"trial_type":"three-arm-trial","trial_index":54,"time_elapsed":476105,"internal_node_id":"0.0-47.0-0.0","task_version":"screening-mturk","missing":false,"accuracy":1},{"contexts":["blue","green","red"],"outcomes":[1,1,0],"key":37,"choice":0,"rt":85.13999986462295,"outcome":1,"trial":42,"correct":1,"trial_type":"three-arm-trial","trial_index":55,"time_elapsed":477392,"internal_node_id":"0.0-48.0-0.0","task_version":"screening-mturk","missing":false,"accuracy":0},{"contexts":["blue","green","red"],"outcomes":[0,1,0],"key":37,"choice":0,"rt":126.04500004090369,"outcome":0,"trial":43,"correct":1,"trial_type":"three-arm-trial","trial_index":56,"time_elapsed":478721,"internal_node_id":"0.0-49.0-0.0","task_version":"screening-mturk","missing":false,"accuracy":0},{"contexts":["blue","green","red"],"outcomes":[0,0,0],"key":37,"choice":0,"rt":232.28499991819263,"outcome":0,"trial":44,"correct":1,"trial_type":"three-arm-trial","trial_index":57,"time_elapsed":480156,"internal_node_id":"0.0-50.0-0.0","task_version":"screening-mturk","missing":false,"accuracy":0},{"contexts":["blue","green","red"],"outcomes":[0,1,0],"key":39,"choice":2,"rt":142.13000005111098,"outcome":0,"trial":45,"correct":1,"trial_type":"three-arm-trial","trial_index":58,"time_elapsed":481501,"internal_node_id":"0.0-51.0-0.0","task_version":"screening-mturk","missing":false,"accuracy":0},{"contexts":["blue","green","red"],"outcomes":[1,0,0],"key":39,"choice":2,"rt":57.53499991260469,"outcome":0,"trial":46,"correct":0,"trial_type":"three-arm-trial","trial_index":59,"time_elapsed":482761,"internal_node_id":"0.0-52.0-0.0","task_version":"screening-mturk","missing":false,"accuracy":0},{"contexts":["blue","green","red"],"outcomes":[1,0,0],"key":39,"choice":2,"rt":57.28000006638467,"outcome":0,"trial":47,"correct":0,"trial_type":"three-arm-trial","trial_index":60,"time_elapsed":484021,"internal_node_id":"0.0-53.0-0.0","task_version":"screening-mturk","missing":false,"accuracy":0},{"contexts":["blue","green","red"],"outcomes":[1,0,0],"key":37,"choice":0,"rt":84.47999996133149,"outcome":1,"trial":48,"correct":0,"trial_type":"three-arm-trial","trial_index":61,"time_elapsed":485310,"internal_node_id":"0.0-54.0-0.0","task_version":"screening-mturk","missing":false,"accuracy":1},{"contexts":["blue","green","red"],"outcomes":[1,0,0],"key":37,"choice":0,"rt":18.74000020325184,"outcome":1,"trial":49,"correct":0,"trial_type":"three-arm-trial","trial_index":62,"time_elapsed":486531,"internal_node_id":"0.0-55.0-0.0","task_version":"screening-mturk","missing":false,"accuracy":1},{"contexts":["blue","green","red"],"outcomes":[1,0,0],"key":38,"choice":1,"rt":277.280000038445,"outcome":0,"trial":50,"correct":0,"trial_type":"three-arm-trial","trial_index":63,"time_elapsed":488011,"internal_node_id":"0.0-56.0-0.0","task_version":"screening-mturk","missing":false,"accuracy":0},{"contexts":["blue","green","red"],"outcomes":[1,0,0],"key":39,"choice":2,"rt":76.60500006750226,"outcome":0,"trial":51,"correct":0,"trial_type":"three-arm-trial","trial_index":64,"time_elapsed":489292,"internal_node_id":"0.0-57.0-0.0","task_version":"screening-mturk","missing":false,"accuracy":0},{"contexts":["blue","green","red"],"outcomes":[1,1,0],"key":39,"choice":2,"rt":46.774999937042594,"outcome":0,"trial":52,"correct":0,"trial_type":"three-arm-trial","trial_index":65,"time_elapsed":490541,"internal_node_id":"0.0-58.0-0.0","task_version":"screening-mturk","missing":false,"accuracy":0},{"contexts":["blue","green","red"],"outcomes":[1,1,0],"key":39,"choice":2,"rt":317.1149999834597,"outcome":0,"trial":53,"correct":0,"trial_type":"three-arm-trial","trial_index":66,"time_elapsed":492060,"internal_node_id":"0.0-59.0-0.0","task_version":"screening-mturk","missing":false,"accuracy":0},{"contexts":["blue","green","red"],"outcomes":[1,0,1],"key":39,"choice":2,"rt":102.64499997720122,"outcome":1,"trial":54,"correct":0,"trial_type":"three-arm-trial","trial_index":67,"time_elapsed":493365,"internal_node_id":"0.0-60.0-0.0","task_version":"screening-mturk","missing":false,"accuracy":0},{"contexts":["blue","green","red"],"outcomes":[1,1,0],"key":38,"choice":1,"rt":3.065000055357814,"outcome":1,"trial":55,"correct":0,"trial_type":"three-arm-trial","trial_index":68,"time_elapsed":494570,"internal_node_id":"0.0-61.0-0.0","task_version":"screening-mturk","missing":false,"accuracy":0},{"contexts":["blue","green","red"],"outcomes":[0,0,0],"key":37,"choice":0,"rt":26.064999867230654,"outcome":0,"trial":56,"correct":0,"trial_type":"three-arm-trial","trial_index":69,"time_elapsed":495800,"internal_node_id":"0.0-62.0-0.0","task_version":"screening-mturk","missing":false,"accuracy":1},{"contexts":["blue","green","red"],"outcomes":[0,1,0],"key":37,"choice":0,"rt":342.54000009968877,"outcome":0,"trial":57,"correct":0,"trial_type":"three-arm-trial","trial_index":70,"time_elapsed":497345,"internal_node_id":"0.0-63.0-0.0","task_version":"screening-mturk","missing":false,"accuracy":1},{"contexts":["blue","green","red"],"outcomes":[1,0,1],"key":37,"choice":0,"rt":673.2300000730902,"outcome":1,"trial":58,"correct":0,"trial_type":"three-arm-trial","trial_index":71,"time_elapsed":499220,"internal_node_id":"0.0-64.0-0.0","task_version":"screening-mturk","missing":false,"accuracy":1},{"contexts":["blue","green","red"],"outcomes":[1,0,1],"key":39,"choice":2,"rt":314.3599999602884,"outcome":1,"trial":59,"correct":0,"trial_type":"three-arm-trial","trial_index":72,"time_elapsed":500738,"internal_node_id":"0.0-65.0-0.0","task_version":"screening-mturk","missing":false,"accuracy":0},{"contexts":["blue","green","red"],"outcomes":[1,0,0],"key":37,"choice":0,"rt":80.36499982699752,"outcome":1,"trial":60,"correct":0,"trial_type":"three-arm-trial","trial_index":73,"time_elapsed":502020,"internal_node_id":"0.0-66.0-0.0","task_version":"screening-mturk","missing":false,"accuracy":1},{"contexts":["blue","green","red"],"outcomes":[0,1,0],"key":38,"choice":1,"rt":147.45500008575618,"outcome":1,"trial":61,"correct":1,"trial_type":"three-arm-trial","trial_index":74,"time_elapsed":503370,"internal_node_id":"0.0-67.0-0.0","task_version":"screening-mturk","missing":false,"accuracy":1},{"contexts":["blue","green","red"],"outcomes":[1,0,0],"key":38,"choice":1,"rt":137.85500009544194,"outcome":0,"trial":62,"correct":1,"trial_type":"three-arm-trial","trial_index":75,"time_elapsed":504711,"internal_node_id":"0.0-68.0-0.0","task_version":"screening-mturk","missing":false,"accuracy":1},{"contexts":["blue","green","red"],"outcomes":[0,0,0],"key":38,"choice":1,"rt":597.4850000347942,"outcome":0,"trial":63,"correct":1,"trial_type":"three-arm-trial","trial_index":76,"time_elapsed":506510,"internal_node_id":"0.0-69.0-0.0","task_version":"screening-mturk","missing":false,"accuracy":1},{"contexts":["blue","green","red"],"outcomes":[0,1,0],"key":39,"choice":2,"rt":87.92499988339841,"outcome":0,"trial":64,"correct":1,"trial_type":"three-arm-trial","trial_index":77,"time_elapsed":507800,"internal_node_id":"0.0-70.0-0.0","task_version":"screening-mturk","missing":false,"accuracy":0},{"contexts":["blue","green","red"],"outcomes":[0,1,1],"key":38,"choice":1,"rt":57.06000002101064,"outcome":1,"trial":65,"correct":1,"trial_type":"three-arm-trial","trial_index":78,"time_elapsed":509060,"internal_node_id":"0.0-71.0-0.0","task_version":"screening-mturk","missing":false,"accuracy":1},{"contexts":["blue","green","red"],"outcomes":[0,1,0],"key":37,"choice":0,"rt":8.13499977812171,"outcome":0,"trial":66,"correct":1,"trial_type":"three-arm-trial","trial_index":79,"time_elapsed":510270,"internal_node_id":"0.0-72.0-0.0","task_version":"screening-mturk","missing":false,"accuracy":0},{"contexts":["blue","green","red"],"outcomes":[0,1,1],"key":37,"choice":0,"rt":187.78999987989664,"outcome":0,"trial":67,"correct":1,"trial_type":"three-arm-trial","trial_index":80,"time_elapsed":511660,"internal_node_id":"0.0-73.0-0.0","task_version":"screening-mturk","missing":false,"accuracy":0},{"contexts":["blue","green","red"],"outcomes":[0,1,0],"key":37,"choice":0,"rt":368.2549998629838,"outcome":0,"trial":68,"correct":1,"trial_type":"three-arm-trial","trial_index":81,"time_elapsed":513231,"internal_node_id":"0.0-74.0-0.0","task_version":"screening-mturk","missing":false,"accuracy":0},{"contexts":["blue","green","red"],"outcomes":[0,1,0],"key":37,"choice":0,"rt":132.07000005058944,"outcome":0,"trial":69,"correct":1,"trial_type":"three-arm-trial","trial_index":82,"time_elapsed":514565,"internal_node_id":"0.0-75.0-0.0","task_version":"screening-mturk","missing":false,"accuracy":0},{"contexts":["blue","green","red"],"outcomes":[0,1,0],"key":38,"choice":1,"rt":102.66999993473291,"outcome":1,"trial":70,"correct":1,"trial_type":"three-arm-trial","trial_index":83,"time_elapsed":515871,"internal_node_id":"0.0-76.0-0.0","task_version":"screening-mturk","missing":false,"accuracy":1},{"contexts":["blue","green","red"],"outcomes":[0,1,1],"key":38,"choice":1,"rt":87.11999980732799,"outcome":1,"trial":71,"correct":1,"trial_type":"three-arm-trial","trial_index":84,"time_elapsed":517162,"internal_node_id":"0.0-77.0-0.0","task_version":"screening-mturk","missing":false,"accuracy":1},{"contexts":["blue","green","red"],"outcomes":[1,1,0],"key":38,"choice":1,"rt":126.56999984756112,"outcome":1,"trial":72,"correct":1,"trial_type":"three-arm-trial","trial_index":85,"time_elapsed":518490,"internal_node_id":"0.0-78.0-0.0","task_version":"screening-mturk","missing":false,"accuracy":1},{"contexts":["blue","green","red"],"outcomes":[0,0,0],"key":39,"choice":2,"rt":136.3899998832494,"outcome":0,"trial":73,"correct":1,"trial_type":"three-arm-trial","trial_index":86,"time_elapsed":519830,"internal_node_id":"0.0-79.0-0.0","task_version":"screening-mturk","missing":false,"accuracy":0},{"contexts":["blue","green","red"],"outcomes":[0,1,0],"key":37,"choice":0,"rt":157.34999999403954,"outcome":0,"trial":74,"correct":1,"trial_type":"three-arm-trial","trial_index":87,"time_elapsed":521192,"internal_node_id":"0.0-80.0-0.0","task_version":"screening-mturk","missing":false,"accuracy":0},{"contexts":["blue","green","red"],"outcomes":[0,1,0],"key":37,"choice":0,"rt":76.18499989621341,"outcome":0,"trial":75,"correct":1,"trial_type":"three-arm-trial","trial_index":88,"time_elapsed":522470,"internal_node_id":"0.0-81.0-0.0","task_version":"screening-mturk","missing":false,"accuracy":0},{"contexts":["blue","green","red"],"outcomes":[1,0,0],"key":37,"choice":0,"rt":142.40500004962087,"outcome":1,"trial":76,"correct":0,"trial_type":"three-arm-trial","trial_index":89,"time_elapsed":523815,"internal_node_id":"0.0-82.0-0.0","task_version":"screening-mturk","missing":false,"accuracy":1},{"contexts":["blue","green","red"],"outcomes":[1,0,1],"key":37,"choice":0,"rt":133.5249999538064,"outcome":1,"trial":77,"correct":0,"trial_type":"three-arm-trial","trial_index":90,"time_elapsed":525150,"internal_node_id":"0.0-83.0-0.0","task_version":"screening-mturk","missing":false,"accuracy":1},{"contexts":["blue","green","red"],"outcomes":[1,0,0],"key":37,"choice":0,"rt":182.47999995946884,"outcome":1,"trial":78,"correct":0,"trial_type":"three-arm-trial","trial_index":91,"time_elapsed":526536,"internal_node_id":"0.0-84.0-0.0","task_version":"screening-mturk","missing":false,"accuracy":1},{"contexts":["blue","green","red"],"outcomes":[0,0,0],"key":37,"choice":0,"rt":112.43500001728535,"outcome":0,"trial":79,"correct":0,"trial_type":"three-arm-trial","trial_index":92,"time_elapsed":527851,"internal_node_id":"0.0-85.0-0.0","task_version":"screening-mturk","missing":false,"accuracy":1},{"contexts":["blue","green","red"],"outcomes":[0,0,0],"key":37,"choice":0,"rt":166.86500003561378,"outcome":0,"trial":80,"correct":0,"trial_type":"three-arm-trial","trial_index":93,"time_elapsed":529220,"internal_node_id":"0.0-86.0-0.0","task_version":"screening-mturk","missing":false,"accuracy":1},{"contexts":["blue","green","red"],"outcomes":[0,1,0],"key":39,"choice":2,"rt":127.51999986357987,"outcome":0,"trial":81,"correct":0,"trial_type":"three-arm-trial","trial_index":94,"time_elapsed":530551,"internal_node_id":"0.0-87.0-0.0","task_version":"screening-mturk","missing":false,"accuracy":0},{"contexts":["blue","green","red"],"outcomes":[1,0,0],"key":37,"choice":0,"rt":36.61499987356365,"outcome":1,"trial":82,"correct":0,"trial_type":"three-arm-trial","trial_index":95,"time_elapsed":531791,"internal_node_id":"0.0-88.0-0.0","task_version":"screening-mturk","missing":false,"accuracy":1},{"contexts":["blue","green","red"],"outcomes":[1,1,0],"key":37,"choice":0,"rt":666.9949998613447,"outcome":1,"trial":83,"correct":0,"trial_type":"three-arm-trial","trial_index":96,"time_elapsed":533661,"internal_node_id":"0.0-89.0-0.0","task_version":"screening-mturk","missing":false,"accuracy":1},{"contexts":["blue","green","red"],"outcomes":[1,0,0],"key":38,"choice":1,"rt":116.70999997295439,"outcome":0,"trial":84,"correct":0,"trial_type":"three-arm-trial","trial_index":97,"time_elapsed":534980,"internal_node_id":"0.0-90.0-0.0","task_version":"screening-mturk","missing":false,"accuracy":0},{"contexts":["blue","green","red"],"outcomes":[1,0,0],"key":38,"choice":1,"rt":217.475000070408,"outcome":0,"trial":85,"correct":0,"trial_type":"three-arm-trial","trial_index":98,"time_elapsed":536401,"internal_node_id":"0.0-91.0-0.0","task_version":"screening-mturk","missing":false,"accuracy":0},{"contexts":["blue","green","red"],"outcomes":[1,1,1],"key":39,"choice":2,"rt":150.9499999228865,"outcome":1,"trial":86,"correct":0,"trial_type":"three-arm-trial","trial_index":99,"time_elapsed":537755,"internal_node_id":"0.0-92.0-0.0","task_version":"screening-mturk","missing":false,"accuracy":0},{"contexts":["blue","green","red"],"outcomes":[1,0,0],"key":39,"choice":2,"rt":12.9549999255687,"outcome":0,"trial":87,"correct":0,"trial_type":"three-arm-trial","trial_index":100,"time_elapsed":538972,"internal_node_id":"0.0-93.0-0.0","task_version":"screening-mturk","missing":false,"accuracy":0},{"contexts":["blue","green","red"],"outcomes":[1,0,1],"key":39,"choice":2,"rt":56.425000075250864,"outcome":1,"trial":88,"correct":0,"trial_type":"three-arm-trial","trial_index":101,"time_elapsed":540230,"internal_node_id":"0.0-94.0-0.0","task_version":"screening-mturk","missing":false,"accuracy":0},{"contexts":["blue","green","red"],"outcomes":[1,1,1],"key":37,"choice":0,"rt":357.9599999357015,"outcome":1,"trial":89,"correct":0,"trial_type":"three-arm-trial","trial_index":102,"time_elapsed":541792,"internal_node_id":"0.0-95.0-0.0","task_version":"screening-mturk","missing":false,"accuracy":1},{"contexts":["blue","green","red"],"outcomes":[1,0,0],"key":37,"choice":0,"rt":515.8399997744709,"outcome":1,"trial":90,"correct":0,"trial_type":"three-arm-trial","trial_index":103,"time_elapsed":543512,"internal_node_id":"0.0-96.0-0.0","task_version":"screening-mturk","missing":false,"accuracy":1},{"rt":74834.63499997742,"responses":{"age":"40","gender-categorical":"Male","gender-free-response":"","ethnicity":"Not Hispanic or Latino","race":["White"],"language":"Yes","fluency":"Very well","prolific":"Yes","prolific-this-study":"No"},"survey":"demographics","trial_type":"survey-demo","trial_index":104,"time_elapsed":618352,"internal_node_id":"0.0-97.0","task_version":"screening-mturk","interactions":"[{\"event\":\"blur\",\"trial\":0,\"time\":103},{\"event\":\"focus\",\"trial\":0,\"time\":13452},{\"event\":\"blur\",\"trial\":0,\"time\":31185},{\"event\":\"focus\",\"trial\":0,\"time\":33332},{\"event\":\"blur\",\"trial\":0,\"time\":40503},{\"event\":\"focus\",\"trial\":0,\"time\":49033},{\"event\":\"blur\",\"trial\":1,\"time\":67120},{\"event\":\"focus\",\"trial\":1,\"time\":73008},{\"event\":\"blur\",\"trial\":2,\"time\":102744},{\"event\":\"focus\",\"trial\":2,\"time\":111124},{\"event\":\"blur\",\"trial\":3,\"time\":129045},{\"event\":\"focus\",\"trial\":3,\"time\":135326},{\"event\":\"blur\",\"trial\":4,\"time\":161900},{\"event\":\"focus\",\"trial\":4,\"time\":165731},{\"event\":\"blur\",\"trial\":5,\"time\":185785},{\"event\":\"focus\",\"trial\":5,\"time\":209450},{\"event\":\"blur\",\"trial\":6,\"time\":227272},{\"event\":\"focus\",\"trial\":6,\"time\":283470},{\"event\":\"blur\",\"trial\":7,\"time\":302859},{\"event\":\"focus\",\"trial\":7,\"time\":307272},{\"event\":\"blur\",\"trial\":25,\"time\":380341},{\"event\":\"focus\",\"trial\":27,\"time\":405351},{\"event\":\"blur\",\"trial\":35,\"time\":422531},{\"event\":\"focus\",\"trial\":36,\"time\":445630},{\"event\":\"blur\",\"trial\":104,\"time\":609210},{\"event\":\"focus\",\"trial\":104,\"time\":614815}]"}]