[{"responses":{"Q01":"3","Q13":"2","Q07":"2","Q14":"3","Q05":"1","Q12":"2","Q02":"2","Q04":"3","Q11":"3","Q10":"3","Q08":"3","Q15":"2","Q03":"2","Q06":"2","Q09":"3"},"rt":40651.00000007078,"survey":"7up7down","trial_type":"survey-template","trial_index":0,"time_elapsed":40728,"internal_node_id":"0.0-0.0","task_version":"screening-mturk"},{"responses":{"Q02":"3","Q05":"2","Q01":"3","Q08":"2","Q06":"2","Q03":"3","Q07":"1","Q04":"2"},"rt":76242.00000008568,"survey":"gad7","trial_type":"survey-template","trial_index":1,"time_elapsed":116987,"internal_node_id":"0.0-1.0","task_version":"screening-mturk"},{"responses":{"Q11":"2","Q10":"3","Q03":"2","Q07":"2","Q13":"3","Q08":"2","Q01":"2","Q05":"2","Q09":"3","Q06":"3","Q12":"2","Q02":"2","Q04":"3"},"rt":45234.00000017136,"survey":"bisbas","trial_type":"survey-template","trial_index":2,"time_elapsed":162235,"internal_node_id":"0.0-2.0","task_version":"screening-mturk"},{"responses":{"Q02":"4","Q01":"3","Q03":"4"},"rt":12637.000000104308,"survey":"pswq","trial_type":"survey-template","trial_index":3,"time_elapsed":174884,"internal_node_id":"0.0-3.0","task_version":"screening-mturk"},{"responses":{"Q02":"2","Q12":"3","Q05":"2","Q09":"2","Q04":"3","Q08":"2","Q10":"3","Q15":"2","Q03":"3","Q07":"2","Q01":"3","Q06":"2","Q11":"3","Q13":"3","Q14":"2"},"rt":42288.99999987334,"survey":"shaps","trial_type":"survey-template","trial_index":4,"time_elapsed":217179,"internal_node_id":"0.0-4.0","task_version":"screening-mturk"},{"view_history":"[{\"page_index\":0,\"viewing_time\":8506.999999983236},{\"page_index\":1,\"viewing_time\":18229.999999981374},{\"page_index\":2,\"viewing_time\":16880.000000121072},{\"page_index\":3,\"viewing_time\":4736.99999996461},{\"page_index\":2,\"viewing_time\":7601.9999999552965},{\"page_index\":3,\"viewing_time\":2405.999999959022},{\"page_index\":2,\"viewing_time\":15010.999999940395},{\"page_index\":3,\"viewing_time\":3209.999999962747},{\"page_index\":4,\"viewing_time\":8975.000000093132},{\"page_index\":5,\"viewing_time\":5178.000000072643},{\"page_index\":6,\"viewing_time\":7527.999999932945},{\"page_index\":7,\"viewing_time\":6279.000000096858}]","rt":104544.9999999255,"trial_type":"instructions","trial_index":5,"time_elapsed":321725,"internal_node_id":"0.0-5.0-0.0","task_version":"screening-mturk"},{"responses":["True","False","True","True","False"],"num_errors":4,"rt":56689.00000001304,"trial_type":"three-arm-comprehension","trial_index":6,"time_elapsed":378423,"internal_node_id":"0.0-5.0-1.0","task_version":"screening-mturk"},{"view_history":"[{\"page_index\":0,\"viewing_time\":5088.999999919906},{\"page_index\":1,\"viewing_time\":4894.000000087544},{\"page_index\":2,\"viewing_time\":21706.000000005588},{\"page_index\":3,\"viewing_time\":4802.9999998398125},{\"page_index\":4,\"viewing_time\":3439.0000000130385},{\"page_index\":5,\"viewing_time\":2472.9999999981374},{\"page_index\":6,\"viewing_time\":3094.9999999720603},{\"page_index\":7,\"viewing_time\":1920.0000001583248}]","rt":47422.00000002049,"trial_type":"instructions","trial_index":7,"time_elapsed":425854,"internal_node_id":"0.0-5.1-0.1","task_version":"screening-mturk"},{"responses":["True","True","False","True","True"],"num_errors":1,"rt":11025.000000139698,"trial_type":"three-arm-comprehension","trial_index":8,"time_elapsed":436888,"internal_node_id":"0.0-5.1-1.1","task_version":"screening-mturk"},{"view_history":"[{\"page_index\":0,\"viewing_time\":2440.0000001769513},{\"page_index\":1,\"viewing_time\":3335.999999893829},{\"page_index\":2,\"viewing_time\":5570.999999996275},{\"page_index\":3,\"viewing_time\":2135.9999999403954},{\"page_index\":4,\"viewing_time\":3420.000000158325},{\"page_index\":5,\"viewing_time\":3722.9999999981374},{\"page_index\":6,\"viewing_time\":14601.000000024214},{\"page_index\":7,\"viewing_time\":3804.9999999348074}]","rt":39035.00000014901,"trial_type":"instructions","trial_index":9,"time_elapsed":475932,"internal_node_id":"0.0-5.2-0.2","task_version":"screening-mturk"},{"responses":["True","False","True","True","True"],"num_errors":3,"rt":24097.999999998137,"trial_type":"three-arm-comprehension","trial_index":10,"time_elapsed":500036,"internal_node_id":"0.0-5.2-1.2","task_version":"screening-mturk"},{"view_history":"[{\"page_index\":0,\"viewing_time\":13323.00000009127},{\"page_index\":1,\"viewing_time\":9111.99999996461},{\"page_index\":2,\"viewing_time\":8442.000000039116},{\"page_index\":3,\"viewing_time\":13185.00000005588},{\"page_index\":4,\"viewing_time\":1783.9999999850988},{\"page_index\":5,\"viewing_time\":7768.999999854714},{\"page_index\":4,\"viewing_time\":11850.000000093132},{\"page_index\":5,\"viewing_time\":4938.000000081956},{\"page_index\":6,\"viewing_time\":3100.9999997913837},{\"page_index\":7,\"viewing_time\":7029.000000096858}]","rt":80533.00000005402,"trial_type":"instructions","trial_index":11,"time_elapsed":580578,"internal_node_id":"0.0-5.3-0.3","task_version":"screening-mturk"},{"responses":["True","True","True","True","True"],"num_errors":2,"rt":20928.000000072643,"trial_type":"three-arm-comprehension","trial_index":12,"time_elapsed":601520,"internal_node_id":"0.0-5.3-1.3","task_version":"screening-mturk"},{"view_history":"[{\"page_index\":0,\"viewing_time\":2966.000000014901},{\"page_index\":1,\"viewing_time\":2695.9999999962747},{\"page_index\":2,\"viewing_time\":3089.9999998509884},{\"page_index\":3,\"viewing_time\":5547.999999951571},{\"page_index\":4,\"viewing_time\":4439.0000000130385},{\"page_index\":5,\"viewing_time\":2532.0000001229346},{\"page_index\":6,\"viewing_time\":963.9999999199063},{\"page_index\":7,\"viewing_time\":1448.0000000912696}]","rt":23683.999999891967,"trial_type":"instructions","trial_index":13,"time_elapsed":625217,"internal_node_id":"0.0-5.4-0.4","task_version":"screening-mturk"},{"responses":["True","True","False","True","False"],"num_errors":2,"rt":27428.000000072643,"trial_type":"three-arm-comprehension","trial_index":14,"time_elapsed":652653,"internal_node_id":"0.0-5.4-1.4","task_version":"screening-mturk"},{"view_history":"[{\"page_index\":0,\"viewing_time\":6817.999999970198},{\"page_index\":1,\"viewing_time\":3601.0000000242144},{\"page_index\":2,\"viewing_time\":7381.000000052154},{\"page_index\":3,\"viewing_time\":6630.999999819323},{\"page_index\":4,\"viewing_time\":2026.0000000707805},{\"page_index\":5,\"viewing_time\":1695.9999999962747},{\"page_index\":6,\"viewing_time\":2073.0000000912696},{\"page_index\":7,\"viewing_time\":3798.9999998826534}]","rt":34025.99999983795,"trial_type":"instructions","trial_index":15,"time_elapsed":686692,"internal_node_id":"0.0-5.5-0.5","task_version":"screening-mturk"},{"responses":["False","False","True","True","False"],"num_errors":5,"rt":15885.000000009313,"trial_type":"three-arm-comprehension","trial_index":16,"time_elapsed":702585,"internal_node_id":"0.0-5.5-1.5","task_version":"screening-mturk"},{"view_history":"[{\"page_index\":0,\"viewing_time\":2087.000000057742},{\"page_index\":1,\"viewing_time\":8412.000000011176},{\"page_index\":2,\"viewing_time\":1760.0000000093132},{\"page_index\":3,\"viewing_time\":2247.999999905005},{\"page_index\":4,\"viewing_time\":5940.000000176951},{\"page_index\":5,\"viewing_time\":6623.999999836087},{\"page_index\":6,\"viewing_time\":1667.0000001322478},{\"page_index\":7,\"viewing_time\":2690.999999875203}]","rt":31431.00000009872,"trial_type":"instructions","trial_index":17,"time_elapsed":734027,"internal_node_id":"0.0-5.6-0.6","task_version":"screening-mturk"},{"responses":["True","True","False","True","False"],"num_errors":2,"rt":33289.00000010617,"trial_type":"three-arm-comprehension","trial_index":18,"time_elapsed":767320,"internal_node_id":"0.0-5.6-1.6","task_version":"screening-mturk"},{"view_history":"[{\"page_index\":0,\"viewing_time\":2620.0000001117587},{\"page_index\":1,\"viewing_time\":40.0000000372529},{\"page_index\":2,\"viewing_time\":310.9999999869615},{\"page_index\":3,\"viewing_time\":38.99999987334013},{\"page_index\":4,\"viewing_time\":849.0000001620501},{\"page_index\":5,\"viewing_time\":30.000000027939677},{\"page_index\":6,\"viewing_time\":334.9999999627471},{\"page_index\":7,\"viewing_time\":50.99999997764826}]","rt":4275.000000139698,"trial_type":"instructions","trial_index":19,"time_elapsed":771607,"internal_node_id":"0.0-5.7-0.7","task_version":"screening-mturk"},{"responses":["True","True","False","False","True"],"num_errors":0,"rt":16378.000000026077,"trial_type":"three-arm-comprehension","trial_index":20,"time_elapsed":787995,"internal_node_id":"0.0-5.7-1.7","task_version":"screening-mturk"},{"view_history":"[{\"page_index\":0,\"viewing_time\":14552.999999839813}]","rt":14557.000000029802,"trial_type":"instructions","trial_index":21,"time_elapsed":802560,"internal_node_id":"0.0-6.0","task_version":"screening-mturk"},{"contexts":["blue","red","green"],"outcomes":[1,0,0],"key":39,"choice":2,"rt":7122.999999905005,"outcome":0,"trial":1,"correct":0,"trial_type":"three-arm-trial","trial_index":22,"time_elapsed":810891,"internal_node_id":"0.0-7.0-0.0","task_version":"screening-mturk","missing":false,"accuracy":0},{"contexts":["blue","red","green"],"outcomes":[1,0,0],"key":37,"choice":0,"rt":1445.0000000651926,"outcome":1,"trial":2,"correct":0,"trial_type":"three-arm-trial","trial_index":23,"time_elapsed":813553,"internal_node_id":"0.0-8.0-0.0","task_version":"screening-mturk","missing":false,"accuracy":1},{"contexts":["blue","red","green"],"outcomes":[1,0,1],"key":38,"choice":1,"rt":1227.9999998863786,"outcome":0,"trial":3,"correct":0,"trial_type":"three-arm-trial","trial_index":24,"time_elapsed":815989,"internal_node_id":"0.0-9.0-0.0","task_version":"screening-mturk","missing":false,"accuracy":0},{"contexts":["blue","red","green"],"outcomes":[1,0,1],"key":39,"choice":2,"rt":371.00000004284084,"outcome":1,"trial":4,"correct":0,"trial_type":"three-arm-trial","trial_index":25,"time_elapsed":817563,"internal_node_id":"0.0-10.0-0.0","task_version":"screening-mturk","missing":false,"accuracy":0},{"contexts":["blue","red","green"],"outcomes":[1,1,0],"key":37,"choice":0,"rt":1108.0000000074506,"outcome":1,"trial":5,"correct":0,"trial_type":"three-arm-trial","trial_index":26,"time_elapsed":819896,"internal_node_id":"0.0-11.0-0.0","task_version":"screening-mturk","missing":false,"accuracy":1},{"contexts":["blue","red","green"],"outcomes":[1,0,0],"key":38,"choice":1,"rt":7092.000000178814,"outcome":0,"trial":6,"correct":0,"trial_type":"three-arm-trial","trial_index":27,"time_elapsed":828196,"internal_node_id":"0.0-12.0-0.0","task_version":"screening-mturk","missing":false,"accuracy":0},{"contexts":["blue","red","green"],"outcomes":[1,0,0],"key":39,"choice":2,"rt":142.99999992363155,"outcome":0,"trial":7,"correct":0,"trial_type":"three-arm-trial","trial_index":28,"time_elapsed":829547,"internal_node_id":"0.0-13.0-0.0","task_version":"screening-mturk","missing":false,"accuracy":0},{"contexts":["blue","red","green"],"outcomes":[0,0,0],"key":37,"choice":0,"rt":1260.0000000093132,"outcome":0,"trial":8,"correct":0,"trial_type":"three-arm-trial","trial_index":29,"time_elapsed":832060,"internal_node_id":"0.0-14.0-0.0","task_version":"screening-mturk","missing":false,"accuracy":1},{"contexts":["blue","red","green"],"outcomes":[1,0,0],"key":38,"choice":1,"rt":691.9999998062849,"outcome":0,"trial":9,"correct":0,"trial_type":"three-arm-trial","trial_index":30,"time_elapsed":833960,"internal_node_id":"0.0-15.0-0.0","task_version":"screening-mturk","missing":false,"accuracy":0},{"contexts":["blue","red","green"],"outcomes":[1,0,0],"key":38,"choice":1,"rt":1675.9999999776483,"outcome":0,"trial":10,"correct":0,"trial_type":"three-arm-trial","trial_index":31,"time_elapsed":836868,"internal_node_id":"0.0-16.0-0.0","task_version":"screening-mturk","missing":false,"accuracy":0},{"contexts":["blue","red","green"],"outcomes":[1,1,0],"key":39,"choice":2,"rt":269.9999997857958,"outcome":0,"trial":11,"correct":0,"trial_type":"three-arm-trial","trial_index":32,"time_elapsed":838349,"internal_node_id":"0.0-17.0-0.0","task_version":"screening-mturk","missing":false,"accuracy":0},{"contexts":["blue","red","green"],"outcomes":[1,0,0],"key":39,"choice":2,"rt":929.0000000037253,"outcome":0,"trial":12,"correct":0,"trial_type":"three-arm-trial","trial_index":33,"time_elapsed":840487,"internal_node_id":"0.0-18.0-0.0","task_version":"screening-mturk","missing":false,"accuracy":0},{"contexts":["blue","red","green"],"outcomes":[1,0,0],"key":39,"choice":2,"rt":1969.0000000409782,"outcome":0,"trial":13,"correct":0,"trial_type":"three-arm-trial","trial_index":34,"time_elapsed":843664,"internal_node_id":"0.0-19.0-0.0","task_version":"screening-mturk","missing":false,"accuracy":0},{"contexts":["blue","red","green"],"outcomes":[1,0,1],"key":38,"choice":1,"rt":726.9999999552965,"outcome":0,"trial":14,"correct":0,"trial_type":"three-arm-trial","trial_index":35,"time_elapsed":845599,"internal_node_id":"0.0-20.0-0.0","task_version":"screening-mturk","missing":false,"accuracy":0},{"contexts":["blue","red","green"],"outcomes":[0,0,0],"key":39,"choice":2,"rt":766.0000000614673,"outcome":0,"trial":15,"correct":0,"trial_type":"three-arm-trial","trial_index":36,"time_elapsed":847589,"internal_node_id":"0.0-21.0-0.0","task_version":"screening-mturk","missing":false,"accuracy":0},{"contexts":["blue","red","green"],"outcomes":[0,1,0],"key":39,"choice":2,"rt":940.9999998752028,"outcome":0,"trial":16,"correct":1,"trial_type":"three-arm-trial","trial_index":37,"time_elapsed":849736,"internal_node_id":"0.0-22.0-0.0","task_version":"screening-mturk","missing":false,"accuracy":0},{"contexts":["blue","red","green"],"outcomes":[0,1,0],"key":38,"choice":1,"rt":935.9999999869615,"outcome":1,"trial":17,"correct":1,"trial_type":"three-arm-trial","trial_index":38,"time_elapsed":851878,"internal_node_id":"0.0-23.0-0.0","task_version":"screening-mturk","missing":false,"accuracy":1},{"contexts":["blue","red","green"],"outcomes":[0,0,1],"key":38,"choice":1,"rt":1292.0000001322478,"outcome":0,"trial":18,"correct":1,"trial_type":"three-arm-trial","trial_index":39,"time_elapsed":854375,"internal_node_id":"0.0-24.0-0.0","task_version":"screening-mturk","missing":false,"accuracy":1},{"contexts":["blue","red","green"],"outcomes":[0,1,1],"key":39,"choice":2,"rt":1020.9999999497086,"outcome":1,"trial":19,"correct":1,"trial_type":"three-arm-trial","trial_index":40,"time_elapsed":856602,"internal_node_id":"0.0-25.0-0.0","task_version":"screening-mturk","missing":false,"accuracy":0},{"contexts":["blue","red","green"],"outcomes":[0,1,1],"key":37,"choice":0,"rt":1639.9999998975545,"outcome":0,"trial":20,"correct":1,"trial_type":"three-arm-trial","trial_index":41,"time_elapsed":859453,"internal_node_id":"0.0-26.0-0.0","task_version":"screening-mturk","missing":false,"accuracy":0},{"contexts":["blue","red","green"],"outcomes":[0,1,0],"key":37,"choice":0,"rt":911.0000000800937,"outcome":0,"trial":21,"correct":1,"trial_type":"three-arm-trial","trial_index":42,"time_elapsed":861567,"internal_node_id":"0.0-27.0-0.0","task_version":"screening-mturk","missing":false,"accuracy":0},{"contexts":["blue","red","green"],"outcomes":[1,0,0],"key":39,"choice":2,"rt":1697.0000001601875,"outcome":0,"trial":22,"correct":1,"trial_type":"three-arm-trial","trial_index":43,"time_elapsed":864472,"internal_node_id":"0.0-28.0-0.0","task_version":"screening-mturk","missing":false,"accuracy":0},{"contexts":["blue","red","green"],"outcomes":[1,1,0],"key":38,"choice":1,"rt":577.9999999795109,"outcome":1,"trial":23,"correct":1,"trial_type":"three-arm-trial","trial_index":44,"time_elapsed":866279,"internal_node_id":"0.0-29.0-0.0","task_version":"screening-mturk","missing":false,"accuracy":1},{"contexts":["blue","red","green"],"outcomes":[0,1,0],"key":39,"choice":2,"rt":2379.9999998882413,"outcome":0,"trial":24,"correct":1,"trial_type":"three-arm-trial","trial_index":45,"time_elapsed":869867,"internal_node_id":"0.0-30.0-0.0","task_version":"screening-mturk","missing":false,"accuracy":0},{"contexts":["blue","red","green"],"outcomes":[0,1,0],"key":38,"choice":1,"rt":92.00000017881393,"outcome":1,"trial":25,"correct":1,"trial_type":"three-arm-trial","trial_index":46,"time_elapsed":871171,"internal_node_id":"0.0-31.0-0.0","task_version":"screening-mturk","missing":false,"accuracy":1},{"contexts":["blue","red","green"],"outcomes":[0,1,0],"key":38,"choice":1,"rt":669.9999999254942,"outcome":1,"trial":26,"correct":1,"trial_type":"three-arm-trial","trial_index":47,"time_elapsed":873047,"internal_node_id":"0.0-32.0-0.0","task_version":"screening-mturk","missing":false,"accuracy":1},{"contexts":["blue","red","green"],"outcomes":[1,0,0],"key":38,"choice":1,"rt":668.0000000633299,"outcome":0,"trial":27,"correct":1,"trial_type":"three-arm-trial","trial_index":48,"time_elapsed":874926,"internal_node_id":"0.0-33.0-0.0","task_version":"screening-mturk","missing":false,"accuracy":1},{"contexts":["blue","red","green"],"outcomes":[0,1,1],"key":38,"choice":1,"rt":1026.0000000707805,"outcome":1,"trial":28,"correct":1,"trial_type":"three-arm-trial","trial_index":49,"time_elapsed":877157,"internal_node_id":"0.0-34.0-0.0","task_version":"screening-mturk","missing":false,"accuracy":1},{"contexts":["blue","red","green"],"outcomes":[0,1,0],"key":38,"choice":1,"rt":1407.999999821186,"outcome":1,"trial":29,"correct":1,"trial_type":"three-arm-trial","trial_index":50,"time_elapsed":879784,"internal_node_id":"0.0-35.0-0.0","task_version":"screening-mturk","missing":false,"accuracy":1},{"contexts":["blue","red","green"],"outcomes":[1,1,1],"key":38,"choice":1,"rt":621.0000000428408,"outcome":1,"trial":30,"correct":1,"trial_type":"three-arm-trial","trial_index":51,"time_elapsed":881613,"internal_node_id":"0.0-36.0-0.0","task_version":"screening-mturk","missing":false,"accuracy":1},{"contexts":["blue","red","green"],"outcomes":[1,0,0],"key":38,"choice":1,"rt":846.9999998342246,"outcome":0,"trial":31,"correct":0,"trial_type":"three-arm-trial","trial_index":52,"time_elapsed":883680,"internal_node_id":"0.0-37.0-0.0","task_version":"screening-mturk","missing":false,"accuracy":0},{"contexts":["blue","red","green"],"outcomes":[1,0,0],"key":38,"choice":1,"rt":626.0000001639128,"outcome":0,"trial":32,"correct":0,"trial_type":"three-arm-trial","trial_index":53,"time_elapsed":885516,"internal_node_id":"0.0-38.0-0.0","task_version":"screening-mturk","missing":false,"accuracy":0},{"contexts":["blue","red","green"],"outcomes":[1,1,0],"key":39,"choice":2,"rt":713.9999999199063,"outcome":0,"trial":33,"correct":0,"trial_type":"three-arm-trial","trial_index":54,"time_elapsed":887435,"internal_node_id":"0.0-39.0-0.0","task_version":"screening-mturk","missing":false,"accuracy":0},{"contexts":["blue","red","green"],"outcomes":[1,0,0],"key":38,"choice":1,"rt":1094.0000000409782,"outcome":0,"trial":34,"correct":0,"trial_type":"three-arm-trial","trial_index":55,"time_elapsed":889749,"internal_node_id":"0.0-40.0-0.0","task_version":"screening-mturk","missing":false,"accuracy":0},{"contexts":["blue","red","green"],"outcomes":[1,0,0],"key":37,"choice":0,"rt":1460.9999998938292,"outcome":1,"trial":35,"correct":0,"trial_type":"three-arm-trial","trial_index":56,"time_elapsed":892426,"internal_node_id":"0.0-41.0-0.0","task_version":"screening-mturk","missing":false,"accuracy":1},{"contexts":["blue","red","green"],"outcomes":[1,0,0],"key":37,"choice":0,"rt":783.0000000540167,"outcome":1,"trial":36,"correct":0,"trial_type":"three-arm-trial","trial_index":57,"time_elapsed":894425,"internal_node_id":"0.0-42.0-0.0","task_version":"screening-mturk","missing":false,"accuracy":1},{"contexts":["blue","red","green"],"outcomes":[1,0,0],"key":37,"choice":0,"rt":575.999999884516,"outcome":1,"trial":37,"correct":0,"trial_type":"three-arm-trial","trial_index":58,"time_elapsed":896219,"internal_node_id":"0.0-43.0-0.0","task_version":"screening-mturk","missing":false,"accuracy":1},{"contexts":["blue","red","green"],"outcomes":[1,1,0],"key":37,"choice":0,"rt":640.9999998286366,"outcome":1,"trial":38,"correct":0,"trial_type":"three-arm-trial","trial_index":59,"time_elapsed":898066,"internal_node_id":"0.0-44.0-0.0","task_version":"screening-mturk","missing":false,"accuracy":1},{"contexts":["blue","red","green"],"outcomes":[1,1,1],"key":37,"choice":0,"rt":611.9999999646097,"outcome":1,"trial":39,"correct":0,"trial_type":"three-arm-trial","trial_index":60,"time_elapsed":899889,"internal_node_id":"0.0-45.0-0.0","task_version":"screening-mturk","missing":false,"accuracy":1},{"contexts":["blue","red","green"],"outcomes":[1,0,1],"key":37,"choice":0,"rt":755.0000001210719,"outcome":1,"trial":40,"correct":0,"trial_type":"three-arm-trial","trial_index":61,"time_elapsed":901846,"internal_node_id":"0.0-46.0-0.0","task_version":"screening-mturk","missing":false,"accuracy":1},{"contexts":["blue","red","green"],"outcomes":[1,0,0],"key":37,"choice":0,"rt":916.9999998994172,"outcome":1,"trial":41,"correct":0,"trial_type":"three-arm-trial","trial_index":62,"time_elapsed":903968,"internal_node_id":"0.0-47.0-0.0","task_version":"screening-mturk","missing":false,"accuracy":1},{"contexts":["blue","red","green"],"outcomes":[1,1,1],"key":37,"choice":0,"rt":625.9999999310821,"outcome":1,"trial":42,"correct":0,"trial_type":"three-arm-trial","trial_index":63,"time_elapsed":905806,"internal_node_id":"0.0-48.0-0.0","task_version":"screening-mturk","missing":false,"accuracy":1},{"contexts":["blue","red","green"],"outcomes":[0,0,0],"key":37,"choice":0,"rt":614.9999999906868,"outcome":0,"trial":43,"correct":0,"trial_type":"three-arm-trial","trial_index":64,"time_elapsed":907640,"internal_node_id":"0.0-49.0-0.0","task_version":"screening-mturk","missing":false,"accuracy":1},{"contexts":["blue","red","green"],"outcomes":[1,0,1],"key":39,"choice":2,"rt":221.99999983422458,"outcome":1,"trial":44,"correct":0,"trial_type":"three-arm-trial","trial_index":65,"time_elapsed":909084,"internal_node_id":"0.0-50.0-0.0","task_version":"screening-mturk","missing":false,"accuracy":0},{"contexts":["blue","red","green"],"outcomes":[1,0,0],"key":39,"choice":2,"rt":629.9999998882413,"outcome":0,"trial":45,"correct":0,"trial_type":"three-arm-trial","trial_index":66,"time_elapsed":910940,"internal_node_id":"0.0-51.0-0.0","task_version":"screening-mturk","missing":false,"accuracy":0},{"contexts":["blue","red","green"],"outcomes":[0,1,1],"key":39,"choice":2,"rt":734.9999998696148,"outcome":1,"trial":46,"correct":2,"trial_type":"three-arm-trial","trial_index":67,"time_elapsed":912879,"internal_node_id":"0.0-52.0-0.0","task_version":"screening-mturk","missing":false,"accuracy":1},{"contexts":["blue","red","green"],"outcomes":[0,0,0],"key":39,"choice":2,"rt":410.0000001490116,"outcome":0,"trial":47,"correct":2,"trial_type":"three-arm-trial","trial_index":68,"time_elapsed":914499,"internal_node_id":"0.0-53.0-0.0","task_version":"screening-mturk","missing":false,"accuracy":1},{"contexts":["blue","red","green"],"outcomes":[0,0,1],"key":38,"choice":1,"rt":338.99999991990626,"outcome":0,"trial":48,"correct":2,"trial_type":"three-arm-trial","trial_index":69,"time_elapsed":916055,"internal_node_id":"0.0-54.0-0.0","task_version":"screening-mturk","missing":false,"accuracy":0},{"contexts":["blue","red","green"],"outcomes":[0,0,1],"key":38,"choice":1,"rt":905.9999999590218,"outcome":0,"trial":49,"correct":2,"trial_type":"three-arm-trial","trial_index":70,"time_elapsed":918181,"internal_node_id":"0.0-55.0-0.0","task_version":"screening-mturk","missing":false,"accuracy":0},{"contexts":["blue","red","green"],"outcomes":[0,0,1],"key":39,"choice":2,"rt":1891.9999999925494,"outcome":1,"trial":50,"correct":2,"trial_type":"three-arm-trial","trial_index":71,"time_elapsed":921284,"internal_node_id":"0.0-56.0-0.0","task_version":"screening-mturk","missing":false,"accuracy":1},{"contexts":["blue","red","green"],"outcomes":[0,0,1],"key":39,"choice":2,"rt":611.9999999646097,"outcome":1,"trial":51,"correct":2,"trial_type":"three-arm-trial","trial_index":72,"time_elapsed":923098,"internal_node_id":"0.0-57.0-0.0","task_version":"screening-mturk","missing":false,"accuracy":1},{"contexts":["blue","red","green"],"outcomes":[1,0,1],"key":39,"choice":2,"rt":614.9999999906868,"outcome":1,"trial":52,"correct":2,"trial_type":"three-arm-trial","trial_index":73,"time_elapsed":924933,"internal_node_id":"0.0-58.0-0.0","task_version":"screening-mturk","missing":false,"accuracy":1},{"contexts":["blue","red","green"],"outcomes":[0,0,1],"key":39,"choice":2,"rt":721.9999998342246,"outcome":1,"trial":53,"correct":2,"trial_type":"three-arm-trial","trial_index":74,"time_elapsed":926878,"internal_node_id":"0.0-59.0-0.0","task_version":"screening-mturk","missing":false,"accuracy":1},{"contexts":["blue","red","green"],"outcomes":[1,0,0],"key":39,"choice":2,"rt":263.00000003539026,"outcome":0,"trial":54,"correct":2,"trial_type":"three-arm-trial","trial_index":75,"time_elapsed":928348,"internal_node_id":"0.0-60.0-0.0","task_version":"screening-mturk","missing":false,"accuracy":1},{"contexts":["blue","red","green"],"outcomes":[0,0,1],"key":37,"choice":0,"rt":72.00000016018748,"outcome":0,"trial":55,"correct":2,"trial_type":"three-arm-trial","trial_index":76,"time_elapsed":929648,"internal_node_id":"0.0-61.0-0.0","task_version":"screening-mturk","missing":false,"accuracy":0},{"contexts":["blue","red","green"],"outcomes":[0,0,1],"key":38,"choice":1,"rt":271.9999998807907,"outcome":0,"trial":56,"correct":2,"trial_type":"three-arm-trial","trial_index":77,"time_elapsed":931127,"internal_node_id":"0.0-62.0-0.0","task_version":"screening-mturk","missing":false,"accuracy":0},{"contexts":["blue","red","green"],"outcomes":[0,0,1],"key":38,"choice":1,"rt":1019.0000000875443,"outcome":0,"trial":57,"correct":2,"trial_type":"three-arm-trial","trial_index":78,"time_elapsed":933363,"internal_node_id":"0.0-63.0-0.0","task_version":"screening-mturk","missing":false,"accuracy":0},{"contexts":["blue","red","green"],"outcomes":[1,0,1],"key":37,"choice":0,"rt":1064.0000000130385,"outcome":1,"trial":58,"correct":2,"trial_type":"three-arm-trial","trial_index":79,"time_elapsed":935643,"internal_node_id":"0.0-64.0-0.0","task_version":"screening-mturk","missing":false,"accuracy":0},{"contexts":["blue","red","green"],"outcomes":[0,0,1],"key":37,"choice":0,"rt":1003.9999999571592,"outcome":0,"trial":59,"correct":2,"trial_type":"three-arm-trial","trial_index":80,"time_elapsed":937861,"internal_node_id":"0.0-65.0-0.0","task_version":"screening-mturk","missing":false,"accuracy":0},{"contexts":["blue","red","green"],"outcomes":[0,0,1],"key":39,"choice":2,"rt":1546.000000089407,"outcome":1,"trial":60,"correct":2,"trial_type":"three-arm-trial","trial_index":81,"time_elapsed":940613,"internal_node_id":"0.0-66.0-0.0","task_version":"screening-mturk","missing":false,"accuracy":1},{"contexts":["blue","red","green"],"outcomes":[0,1,0],"key":39,"choice":2,"rt":710.9999998938292,"outcome":0,"trial":61,"correct":1,"trial_type":"three-arm-trial","trial_index":82,"time_elapsed":942531,"internal_node_id":"0.0-67.0-0.0","task_version":"screening-mturk","missing":false,"accuracy":0},{"contexts":["blue","red","green"],"outcomes":[0,1,0],"key":37,"choice":0,"rt":1233.0000000074506,"outcome":0,"trial":62,"correct":1,"trial_type":"three-arm-trial","trial_index":83,"time_elapsed":944969,"internal_node_id":"0.0-68.0-0.0","task_version":"screening-mturk","missing":false,"accuracy":0},{"contexts":["blue","red","green"],"outcomes":[1,0,0],"key":38,"choice":1,"rt":390.00000013038516,"outcome":0,"trial":63,"correct":1,"trial_type":"three-arm-trial","trial_index":84,"time_elapsed":946563,"internal_node_id":"0.0-69.0-0.0","task_version":"screening-mturk","missing":false,"accuracy":1},{"contexts":["blue","red","green"],"outcomes":[0,1,0],"key":38,"choice":1,"rt":766.9999999925494,"outcome":1,"trial":64,"correct":1,"trial_type":"three-arm-trial","trial_index":85,"time_elapsed":948547,"internal_node_id":"0.0-70.0-0.0","task_version":"screening-mturk","missing":false,"accuracy":1},{"contexts":["blue","red","green"],"outcomes":[0,1,0],"key":38,"choice":1,"rt":903.0000001657754,"outcome":1,"trial":65,"correct":1,"trial_type":"three-arm-trial","trial_index":86,"time_elapsed":950658,"internal_node_id":"0.0-71.0-0.0","task_version":"screening-mturk","missing":false,"accuracy":1},{"contexts":["blue","red","green"],"outcomes":[0,0,0],"key":38,"choice":1,"rt":702.0000000484288,"outcome":0,"trial":66,"correct":1,"trial_type":"three-arm-trial","trial_index":87,"time_elapsed":952564,"internal_node_id":"0.0-72.0-0.0","task_version":"screening-mturk","missing":false,"accuracy":1},{"contexts":["blue","red","green"],"outcomes":[0,1,0],"key":37,"choice":0,"rt":94.0000000409782,"outcome":0,"trial":67,"correct":1,"trial_type":"three-arm-trial","trial_index":88,"time_elapsed":953870,"internal_node_id":"0.0-73.0-0.0","task_version":"screening-mturk","missing":false,"accuracy":0},{"contexts":["blue","red","green"],"outcomes":[0,1,0],"key":39,"choice":2,"rt":101.00000002421439,"outcome":0,"trial":68,"correct":1,"trial_type":"three-arm-trial","trial_index":89,"time_elapsed":955177,"internal_node_id":"0.0-74.0-0.0","task_version":"screening-mturk","missing":false,"accuracy":0},{"contexts":["blue","red","green"],"outcomes":[0,1,0],"key":39,"choice":2,"rt":85.99999989382923,"outcome":0,"trial":69,"correct":1,"trial_type":"three-arm-trial","trial_index":90,"time_elapsed":956495,"internal_node_id":"0.0-75.0-0.0","task_version":"screening-mturk","missing":false,"accuracy":0},{"contexts":["blue","red","green"],"outcomes":[0,0,0],"key":38,"choice":1,"rt":87.99999998882413,"outcome":0,"trial":70,"correct":1,"trial_type":"three-arm-trial","trial_index":91,"time_elapsed":957812,"internal_node_id":"0.0-76.0-0.0","task_version":"screening-mturk","missing":false,"accuracy":1},{"contexts":["blue","red","green"],"outcomes":[0,0,0],"key":38,"choice":1,"rt":1628.000000026077,"outcome":0,"trial":71,"correct":1,"trial_type":"three-arm-trial","trial_index":92,"time_elapsed":960645,"internal_node_id":"0.0-77.0-0.0","task_version":"screening-mturk","missing":false,"accuracy":1},{"contexts":["blue","red","green"],"outcomes":[0,0,0],"key":37,"choice":0,"rt":868.0000000167638,"outcome":0,"trial":72,"correct":1,"trial_type":"three-arm-trial","trial_index":93,"time_elapsed":962739,"internal_node_id":"0.0-78.0-0.0","task_version":"screening-mturk","missing":false,"accuracy":0},{"contexts":["blue","red","green"],"outcomes":[1,0,0],"key":38,"choice":1,"rt":377.0000000949949,"outcome":0,"trial":73,"correct":1,"trial_type":"three-arm-trial","trial_index":94,"time_elapsed":964336,"internal_node_id":"0.0-79.0-0.0","task_version":"screening-mturk","missing":false,"accuracy":1},{"contexts":["blue","red","green"],"outcomes":[1,1,0],"key":38,"choice":1,"rt":1196.9999999273568,"outcome":1,"trial":74,"correct":1,"trial_type":"three-arm-trial","trial_index":95,"time_elapsed":966738,"internal_node_id":"0.0-80.0-0.0","task_version":"screening-mturk","missing":false,"accuracy":1},{"contexts":["blue","red","green"],"outcomes":[0,1,1],"key":38,"choice":1,"rt":718.9999998081475,"outcome":1,"trial":75,"correct":1,"trial_type":"three-arm-trial","trial_index":96,"time_elapsed":968673,"internal_node_id":"0.0-81.0-0.0","task_version":"screening-mturk","missing":false,"accuracy":1},{"contexts":["blue","red","green"],"outcomes":[0,0,0],"key":38,"choice":1,"rt":725.0000000931323,"outcome":0,"trial":76,"correct":0,"trial_type":"three-arm-trial","trial_index":97,"time_elapsed":970619,"internal_node_id":"0.0-82.0-0.0","task_version":"screening-mturk","missing":false,"accuracy":0},{"contexts":["blue","red","green"],"outcomes":[1,0,0],"key":39,"choice":2,"rt":150.99999983794987,"outcome":0,"trial":77,"correct":0,"trial_type":"three-arm-trial","trial_index":98,"time_elapsed":971990,"internal_node_id":"0.0-83.0-0.0","task_version":"screening-mturk","missing":false,"accuracy":0},{"contexts":["blue","red","green"],"outcomes":[1,0,0],"key":38,"choice":1,"rt":1331.99999993667,"outcome":0,"trial":78,"correct":0,"trial_type":"three-arm-trial","trial_index":99,"time_elapsed":974550,"internal_node_id":"0.0-84.0-0.0","task_version":"screening-mturk","missing":false,"accuracy":0},{"contexts":["blue","red","green"],"outcomes":[0,1,0],"key":37,"choice":0,"rt":70.99999999627471,"outcome":0,"trial":79,"correct":0,"trial_type":"three-arm-trial","trial_index":100,"time_elapsed":975827,"internal_node_id":"0.0-85.0-0.0","task_version":"screening-mturk","missing":false,"accuracy":1},{"contexts":["blue","red","green"],"outcomes":[1,0,0],"key":38,"choice":1,"rt":1106.0000001452863,"outcome":0,"trial":80,"correct":0,"trial_type":"three-arm-trial","trial_index":101,"time_elapsed":978146,"internal_node_id":"0.0-86.0-0.0","task_version":"screening-mturk","missing":false,"accuracy":0},{"contexts":["blue","red","green"],"outcomes":[1,0,0],"key":37,"choice":0,"rt":736.0000000335276,"outcome":1,"trial":81,"correct":0,"trial_type":"three-arm-trial","trial_index":102,"time_elapsed":980096,"internal_node_id":"0.0-87.0-0.0","task_version":"screening-mturk","missing":false,"accuracy":1},{"contexts":["blue","red","green"],"outcomes":[1,0,0],"key":37,"choice":0,"rt":667.0000001322478,"outcome":1,"trial":82,"correct":0,"trial_type":"three-arm-trial","trial_index":103,"time_elapsed":981971,"internal_node_id":"0.0-88.0-0.0","task_version":"screening-mturk","missing":false,"accuracy":1},{"contexts":["blue","red","green"],"outcomes":[1,1,0],"key":37,"choice":0,"rt":260.99999994039536,"outcome":1,"trial":83,"correct":0,"trial_type":"three-arm-trial","trial_index":104,"time_elapsed":983444,"internal_node_id":"0.0-89.0-0.0","task_version":"screening-mturk","missing":false,"accuracy":1},{"contexts":["blue","red","green"],"outcomes":[1,0,0],"key":37,"choice":0,"rt":793.0000000633299,"outcome":1,"trial":84,"correct":0,"trial_type":"three-arm-trial","trial_index":105,"time_elapsed":985462,"internal_node_id":"0.0-90.0-0.0","task_version":"screening-mturk","missing":false,"accuracy":1},{"contexts":["blue","red","green"],"outcomes":[0,0,0],"key":37,"choice":0,"rt":703.999999910593,"outcome":0,"trial":85,"correct":0,"trial_type":"three-arm-trial","trial_index":106,"time_elapsed":987376,"internal_node_id":"0.0-91.0-0.0","task_version":"screening-mturk","missing":false,"accuracy":1},{"contexts":["blue","red","green"],"outcomes":[1,1,0],"key":39,"choice":2,"rt":1965.000000083819,"outcome":0,"trial":86,"correct":0,"trial_type":"three-arm-trial","trial_index":107,"time_elapsed":990546,"internal_node_id":"0.0-92.0-0.0","task_version":"screening-mturk","missing":false,"accuracy":0},{"contexts":["blue","red","green"],"outcomes":[1,1,0],"key":37,"choice":0,"rt":1425.9999999776483,"outcome":1,"trial":87,"correct":0,"trial_type":"three-arm-trial","trial_index":108,"time_elapsed":993189,"internal_node_id":"0.0-93.0-0.0","task_version":"screening-mturk","missing":false,"accuracy":1},{"contexts":["blue","red","green"],"outcomes":[1,0,0],"key":37,"choice":0,"rt":922.0000000204891,"outcome":1,"trial":88,"correct":0,"trial_type":"three-arm-trial","trial_index":109,"time_elapsed":995337,"internal_node_id":"0.0-94.0-0.0","task_version":"screening-mturk","missing":false,"accuracy":1},{"contexts":["blue","red","green"],"outcomes":[1,0,0],"key":37,"choice":0,"rt":1440.0000001769513,"outcome":1,"trial":89,"correct":0,"trial_type":"three-arm-trial","trial_index":110,"time_elapsed":997998,"internal_node_id":"0.0-95.0-0.0","task_version":"screening-mturk","missing":false,"accuracy":1},{"contexts":["blue","red","green"],"outcomes":[1,1,0],"key":37,"choice":0,"rt":681.9999997969717,"outcome":1,"trial":90,"correct":0,"trial_type":"three-arm-trial","trial_index":111,"time_elapsed":999898,"internal_node_id":"0.0-96.0-0.0","task_version":"screening-mturk","missing":false,"accuracy":1},{"rt":47908.00000005402,"responses":{"age":"30","gender-categorical":"Male","gender-free-response":"","ethnicity":"Not Hispanic or Latino","race":["Black or African American"],"language":"Yes","fluency":"Very well","prolific":"Yes","prolific-this-study":"No"},"survey":"demographics","trial_type":"survey-demo","trial_index":112,"time_elapsed":1047889,"internal_node_id":"0.0-97.0","task_version":"screening-mturk","interactions":"[{\"event\":\"blur\",\"trial\":1,\"time\":51241},{\"event\":\"focus\",\"trial\":1,\"time\":53657},{\"event\":\"blur\",\"trial\":1,\"time\":85873},{\"event\":\"focus\",\"trial\":1,\"time\":90515}]"}]