[{"responses":{"Q08":"2","Q05":"2","Q06":"2","Q11":"2","Q12":"1","Q07":"2","Q09":"2","Q04":"2","Q13":"2","Q03":"2","Q10":"2","Q01":"2","Q02":"2"},"rt":120948.68999999017,"survey":"bisbas","trial_type":"survey-template","trial_index":0,"time_elapsed":120965,"internal_node_id":"0.0-0.0","task_version":"screening-mturk"},{"responses":{"Q03":"1","Q02":"1","Q01":"2"},"rt":16524.884999962524,"survey":"pswq","trial_type":"survey-template","trial_index":1,"time_elapsed":137494,"internal_node_id":"0.0-1.0","task_version":"screening-mturk"},{"responses":{"Q12":"2","Q03":"2","Q01":"2","Q02":"2","Q15":"2","Q05":"2","Q11":"2","Q14":"2","Q07":"2","Q13":"2","Q08":"2","Q04":"2","Q09":"2","Q10":"2","Q06":"2"},"rt":75478.4950001631,"survey":"shaps","trial_type":"survey-template","trial_index":2,"time_elapsed":212977,"internal_node_id":"0.0-2.0","task_version":"screening-mturk"},{"responses":{"Q06":"0","Q05":"1","Q03":"1","Q07":"0","Q02":"0","Q04":"1","Q08":"0","Q01":"0"},"rt":31322.805000003427,"survey":"gad7","trial_type":"survey-template","trial_index":3,"time_elapsed":244304,"internal_node_id":"0.0-3.0","task_version":"screening-mturk"},{"responses":{"Q11":"1","Q06":"1","Q04":"2","Q08":"2","Q01":"1","Q02":"1","Q05":"1","Q03":"2","Q15":"0","Q13":"1","Q09":"1","Q10":"1","Q07":"2","Q12":"0","Q14":"0"},"rt":164937.66000005417,"survey":"7up7down","trial_type":"survey-template","trial_index":4,"time_elapsed":409247,"internal_node_id":"0.0-4.0","task_version":"screening-mturk"},{"view_history":"[{\"page_index\":0,\"viewing_time\":12552.82499990426},{\"page_index\":1,\"viewing_time\":21970.045000081882},{\"page_index\":2,\"viewing_time\":19687.960000010207},{\"page_index\":3,\"viewing_time\":18961.78499981761},{\"page_index\":2,\"viewing_time\":1770.5149999819696},{\"page_index\":3,\"viewing_time\":1468.8800000585616},{\"page_index\":4,\"viewing_time\":15270.040000090376},{\"page_index\":5,\"viewing_time\":12769.594999961555},{\"page_index\":6,\"viewing_time\":9859.930000035092},{\"page_index\":7,\"viewing_time\":6749.240000033751}]","rt":121061.24999979511,"trial_type":"instructions","trial_index":5,"time_elapsed":530310,"internal_node_id":"0.0-5.0-0.0","task_version":"screening-mturk"},{"responses":["True","True","False","False","False"],"num_errors":1,"rt":84328.45499995165,"trial_type":"three-arm-comprehension","trial_index":6,"time_elapsed":614642,"internal_node_id":"0.0-5.0-1.0","task_version":"screening-mturk"},{"view_history":"[{\"page_index\":0,\"viewing_time\":9255.175000056624},{\"page_index\":1,\"viewing_time\":11040.160000091419},{\"page_index\":2,\"viewing_time\":3840.174999786541},{\"page_index\":3,\"viewing_time\":1829.6650000847876},{\"page_index\":4,\"viewing_time\":8450.230000074953},{\"page_index\":5,\"viewing_time\":11309.669999871403},{\"page_index\":6,\"viewing_time\":2549.980000127107},{\"page_index\":7,\"viewing_time\":2169.899999862537}]","rt":50445.28500013985,"trial_type":"instructions","trial_index":7,"time_elapsed":665091,"internal_node_id":"0.0-5.1-0.1","task_version":"screening-mturk"},{"responses":["True","False","False","False","False"],"num_errors":2,"rt":26588.66999996826,"trial_type":"three-arm-comprehension","trial_index":8,"time_elapsed":691682,"internal_node_id":"0.0-5.1-1.1","task_version":"screening-mturk"},{"view_history":"[{\"page_index\":0,\"viewing_time\":8205.885000061244},{\"page_index\":1,\"viewing_time\":11109.575000125915},{\"page_index\":2,\"viewing_time\":8874.91499981843},{\"page_index\":3,\"viewing_time\":9204.96500004083},{\"page_index\":4,\"viewing_time\":10389.655000064522},{\"page_index\":5,\"viewing_time\":4660.334999905899},{\"page_index\":6,\"viewing_time\":7939.8000000510365},{\"page_index\":7,\"viewing_time\":2560.3050000499934}]","rt":62945.80000010319,"trial_type":"instructions","trial_index":9,"time_elapsed":754632,"internal_node_id":"0.0-5.2-0.2","task_version":"screening-mturk"},{"responses":["True","True","True","True","True"],"num_errors":2,"rt":18038.51000010036,"trial_type":"three-arm-comprehension","trial_index":10,"time_elapsed":772673,"internal_node_id":"0.0-5.2-1.2","task_version":"screening-mturk"},{"view_history":"[{\"page_index\":0,\"viewing_time\":3854.814999969676},{\"page_index\":1,\"viewing_time\":1611.0000000335276},{\"page_index\":2,\"viewing_time\":1159.3199998605996},{\"page_index\":3,\"viewing_time\":1279.890000121668},{\"page_index\":4,\"viewing_time\":1739.894999889657},{\"page_index\":5,\"viewing_time\":5290.245000040159},{\"page_index\":6,\"viewing_time\":2322.7699999697506},{\"page_index\":7,\"viewing_time\":1717.0049999840558}]","rt":18975.325000006706,"trial_type":"instructions","trial_index":11,"time_elapsed":791651,"internal_node_id":"0.0-5.3-0.3","task_version":"screening-mturk"},{"responses":["True","True","True","False","True"],"num_errors":1,"rt":21448.454999830574,"trial_type":"three-arm-comprehension","trial_index":12,"time_elapsed":813102,"internal_node_id":"0.0-5.3-1.3","task_version":"screening-mturk"},{"view_history":"[{\"page_index\":0,\"viewing_time\":2341.59000008367},{\"page_index\":1,\"viewing_time\":264.9900000542402},{\"page_index\":2,\"viewing_time\":479.700000025332},{\"page_index\":3,\"viewing_time\":649.9649998731911},{\"page_index\":4,\"viewing_time\":869.7200000751764},{\"page_index\":5,\"viewing_time\":2610.0850000511855},{\"page_index\":6,\"viewing_time\":4510.4099998716265},{\"page_index\":7,\"viewing_time\":1599.6050001122057}]","rt":13326.540000038221,"trial_type":"instructions","trial_index":13,"time_elapsed":826431,"internal_node_id":"0.0-5.4-0.4","task_version":"screening-mturk"},{"responses":["True","True","True","True","True"],"num_errors":2,"rt":12941.45999988541,"trial_type":"three-arm-comprehension","trial_index":14,"time_elapsed":839375,"internal_node_id":"0.0-5.4-1.4","task_version":"screening-mturk"},{"view_history":"[{\"page_index\":0,\"viewing_time\":2593.254999956116},{\"page_index\":1,\"viewing_time\":970.1149999164045},{\"page_index\":2,\"viewing_time\":559.5100000500679},{\"page_index\":3,\"viewing_time\":340.6950000207871},{\"page_index\":4,\"viewing_time\":269.79000004939735},{\"page_index\":5,\"viewing_time\":269.62499995715916},{\"page_index\":6,\"viewing_time\":1369.9300000444055},{\"page_index\":7,\"viewing_time\":1130.2900000009686}]","rt":7503.564999904484,"trial_type":"instructions","trial_index":15,"time_elapsed":846882,"internal_node_id":"0.0-5.5-0.5","task_version":"screening-mturk"},{"responses":["True","True","True","True","False"],"num_errors":3,"rt":10399.85499996692,"trial_type":"three-arm-comprehension","trial_index":16,"time_elapsed":857284,"internal_node_id":"0.0-5.5-1.5","task_version":"screening-mturk"},{"view_history":"[{\"page_index\":0,\"viewing_time\":3203.325000125915},{\"page_index\":1,\"viewing_time\":4330.029999837279},{\"page_index\":2,\"viewing_time\":3029.8950001597404},{\"page_index\":3,\"viewing_time\":2240.2349999174476},{\"page_index\":4,\"viewing_time\":1810.6249999254942},{\"page_index\":5,\"viewing_time\":1930.9650000650436},{\"page_index\":6,\"viewing_time\":5978.025000076741},{\"page_index\":7,\"viewing_time\":1629.939999897033}]","rt":24153.41000002809,"trial_type":"instructions","trial_index":17,"time_elapsed":881441,"internal_node_id":"0.0-5.6-0.6","task_version":"screening-mturk"},{"responses":["True","True","True","True","True"],"num_errors":2,"rt":15628.355000168085,"trial_type":"three-arm-comprehension","trial_index":18,"time_elapsed":897072,"internal_node_id":"0.0-5.6-1.6","task_version":"screening-mturk"},{"view_history":"[{\"page_index\":0,\"viewing_time\":4896.064999978989},{\"page_index\":1,\"viewing_time\":6421.570000005886},{\"page_index\":2,\"viewing_time\":11638.130000093952},{\"page_index\":3,\"viewing_time\":3680.1350000314415},{\"page_index\":4,\"viewing_time\":9950.66999993287},{\"page_index\":5,\"viewing_time\":7808.889999985695},{\"page_index\":6,\"viewing_time\":10830.344999907538},{\"page_index\":7,\"viewing_time\":7871.805000118911}]","rt":63098.07000006549,"trial_type":"instructions","trial_index":19,"time_elapsed":960173,"internal_node_id":"0.0-5.7-0.7","task_version":"screening-mturk"},{"responses":["True","True","False","True","True"],"num_errors":1,"rt":99765.97500010394,"trial_type":"three-arm-comprehension","trial_index":20,"time_elapsed":1059943,"internal_node_id":"0.0-5.7-1.7","task_version":"screening-mturk"},{"view_history":"[{\"page_index\":0,\"viewing_time\":3485.944999847561},{\"page_index\":1,\"viewing_time\":359.92499999701977},{\"page_index\":2,\"viewing_time\":179.71500009298325},{\"page_index\":3,\"viewing_time\":188.1850000936538},{\"page_index\":4,\"viewing_time\":191.90999981947243},{\"page_index\":5,\"viewing_time\":210.21000016480684},{\"page_index\":6,\"viewing_time\":730.1549999974668},{\"page_index\":7,\"viewing_time\":1059.8400000017136}]","rt":6406.209999928251,"trial_type":"instructions","trial_index":21,"time_elapsed":1066351,"internal_node_id":"0.0-5.8-0.8","task_version":"screening-mturk"},{"responses":["True","True","False","False","True"],"num_errors":0,"rt":31258.944999892265,"trial_type":"three-arm-comprehension","trial_index":22,"time_elapsed":1097613,"internal_node_id":"0.0-5.8-1.8","task_version":"screening-mturk"},{"view_history":"[{\"page_index\":0,\"viewing_time\":4225.514999823645}]","rt":4225.845000008121,"trial_type":"instructions","trial_index":23,"time_elapsed":1101841,"internal_node_id":"0.0-6.0","task_version":"screening-mturk"},{"contexts":["blue","red","green"],"outcomes":[1,1,0],"key":39,"choice":2,"rt":6897.580000106245,"outcome":0,"trial":1,"correct":1,"trial_type":"three-arm-trial","trial_index":24,"time_elapsed":1109942,"internal_node_id":"0.0-7.0-0.0","task_version":"screening-mturk","missing":false,"accuracy":0},{"contexts":["blue","red","green"],"outcomes":[0,1,0],"key":38,"choice":1,"rt":486.0050000716001,"outcome":1,"trial":2,"correct":1,"trial_type":"three-arm-trial","trial_index":25,"time_elapsed":1111632,"internal_node_id":"0.0-8.0-0.0","task_version":"screening-mturk","missing":false,"accuracy":1},{"contexts":["blue","red","green"],"outcomes":[1,0,0],"key":null,"rt":null,"trial":3,"correct":1,"trial_type":"three-arm-trial","trial_index":26,"time_elapsed":1126636,"internal_node_id":"0.0-9.0-0.0","task_version":"screening-mturk","missing":true},{"contexts":["blue","red","green"],"outcomes":[1,0,0],"key":38,"choice":1,"rt":5633.015000028536,"outcome":0,"trial":3,"correct":1,"trial_type":"three-arm-trial","trial_index":27,"time_elapsed":1133471,"internal_node_id":"0.0-9.1-0.1","task_version":"screening-mturk","missing":false,"accuracy":1},{"contexts":["blue","red","green"],"outcomes":[0,1,0],"key":38,"choice":1,"rt":3886.800000211224,"outcome":1,"trial":4,"correct":1,"trial_type":"three-arm-trial","trial_index":28,"time_elapsed":1138562,"internal_node_id":"0.0-10.0-0.0","task_version":"screening-mturk","missing":false,"accuracy":1},{"contexts":["blue","red","green"],"outcomes":[0,1,1],"key":39,"choice":2,"rt":2507.800000021234,"outcome":1,"trial":5,"correct":1,"trial_type":"three-arm-trial","trial_index":29,"time_elapsed":1142273,"internal_node_id":"0.0-11.0-0.0","task_version":"screening-mturk","missing":false,"accuracy":0},{"contexts":["blue","red","green"],"outcomes":[0,1,0],"key":39,"choice":2,"rt":5034.779999870807,"outcome":0,"trial":6,"correct":1,"trial_type":"three-arm-trial","trial_index":30,"time_elapsed":1148511,"internal_node_id":"0.0-12.0-0.0","task_version":"screening-mturk","missing":false,"accuracy":0},{"contexts":["blue","red","green"],"outcomes":[0,0,0],"key":38,"choice":1,"rt":1856.7599998787045,"outcome":0,"trial":7,"correct":1,"trial_type":"three-arm-trial","trial_index":31,"time_elapsed":1151571,"internal_node_id":"0.0-13.0-0.0","task_version":"screening-mturk","missing":false,"accuracy":1},{"contexts":["blue","red","green"],"outcomes":[0,1,0],"key":39,"choice":2,"rt":1867.3400001134723,"outcome":0,"trial":8,"correct":1,"trial_type":"three-arm-trial","trial_index":32,"time_elapsed":1154642,"internal_node_id":"0.0-14.0-0.0","task_version":"screening-mturk","missing":false,"accuracy":0},{"contexts":["blue","red","green"],"outcomes":[0,1,0],"key":null,"rt":null,"trial":9,"correct":1,"trial_type":"three-arm-trial","trial_index":33,"time_elapsed":1169647,"internal_node_id":"0.0-15.0-0.0","task_version":"screening-mturk","missing":true},{"contexts":["blue","red","green"],"outcomes":[0,1,0],"key":38,"choice":1,"rt":8661.709999898449,"outcome":1,"trial":9,"correct":1,"trial_type":"three-arm-trial","trial_index":34,"time_elapsed":1179514,"internal_node_id":"0.0-15.1-0.1","task_version":"screening-mturk","missing":false,"accuracy":1},{"contexts":["blue","red","green"],"outcomes":[0,1,0],"key":39,"choice":2,"rt":4605.364999966696,"outcome":0,"trial":10,"correct":1,"trial_type":"three-arm-trial","trial_index":35,"time_elapsed":1185323,"internal_node_id":"0.0-16.0-0.0","task_version":"screening-mturk","missing":false,"accuracy":0},{"contexts":["blue","red","green"],"outcomes":[1,0,0],"key":38,"choice":1,"rt":5016.629999969155,"outcome":0,"trial":11,"correct":1,"trial_type":"three-arm-trial","trial_index":36,"time_elapsed":1191542,"internal_node_id":"0.0-17.0-0.0","task_version":"screening-mturk","missing":false,"accuracy":1},{"contexts":["blue","red","green"],"outcomes":[0,1,0],"key":null,"rt":null,"trial":12,"correct":1,"trial_type":"three-arm-trial","trial_index":37,"time_elapsed":1206548,"internal_node_id":"0.0-18.0-0.0","task_version":"screening-mturk","missing":true},{"contexts":["blue","red","green"],"outcomes":[0,1,0],"key":39,"choice":2,"rt":9901.80499991402,"outcome":0,"trial":12,"correct":1,"trial_type":"three-arm-trial","trial_index":38,"time_elapsed":1217653,"internal_node_id":"0.0-18.1-0.1","task_version":"screening-mturk","missing":false,"accuracy":0},{"contexts":["blue","red","green"],"outcomes":[0,1,1],"key":38,"choice":1,"rt":3957.429999951273,"outcome":1,"trial":13,"correct":1,"trial_type":"three-arm-trial","trial_index":39,"time_elapsed":1222814,"internal_node_id":"0.0-19.0-0.0","task_version":"screening-mturk","missing":false,"accuracy":1},{"contexts":["blue","red","green"],"outcomes":[0,1,0],"key":null,"rt":null,"trial":14,"correct":1,"trial_type":"three-arm-trial","trial_index":40,"time_elapsed":1237817,"internal_node_id":"0.0-20.0-0.0","task_version":"screening-mturk","missing":true},{"contexts":["blue","red","green"],"outcomes":[0,1,0],"key":null,"rt":null,"trial":14,"correct":1,"trial_type":"three-arm-trial","trial_index":41,"time_elapsed":1252821,"internal_node_id":"0.0-20.1-0.1","task_version":"screening-mturk","missing":true},{"contexts":["blue","red","green"],"outcomes":[0,1,0],"key":38,"choice":1,"rt":3817.799999844283,"outcome":1,"trial":14,"correct":1,"trial_type":"three-arm-trial","trial_index":42,"time_elapsed":1257841,"internal_node_id":"0.0-20.2-0.2","task_version":"screening-mturk","missing":false,"accuracy":1},{"contexts":["blue","red","green"],"outcomes":[0,1,1],"key":37,"choice":0,"rt":97.02500002458692,"outcome":0,"trial":15,"correct":1,"trial_type":"three-arm-trial","trial_index":43,"time_elapsed":1259142,"internal_node_id":"0.0-21.0-0.0","task_version":"screening-mturk","missing":false,"accuracy":0},{"contexts":["blue","red","green"],"outcomes":[0,1,1],"key":38,"choice":1,"rt":4896.485000150278,"outcome":1,"trial":16,"correct":2,"trial_type":"three-arm-trial","trial_index":44,"time_elapsed":1265241,"internal_node_id":"0.0-22.0-0.0","task_version":"screening-mturk","missing":false,"accuracy":0},{"contexts":["blue","red","green"],"outcomes":[0,0,1],"key":38,"choice":1,"rt":317.5499998033047,"outcome":0,"trial":17,"correct":2,"trial_type":"three-arm-trial","trial_index":45,"time_elapsed":1266763,"internal_node_id":"0.0-23.0-0.0","task_version":"screening-mturk","missing":false,"accuracy":0},{"contexts":["blue","red","green"],"outcomes":[0,0,1],"key":37,"choice":0,"rt":1006.1049999203533,"outcome":0,"trial":18,"correct":2,"trial_type":"three-arm-trial","trial_index":46,"time_elapsed":1268971,"internal_node_id":"0.0-24.0-0.0","task_version":"screening-mturk","missing":false,"accuracy":0},{"contexts":["blue","red","green"],"outcomes":[0,0,1],"key":38,"choice":1,"rt":7326.98000012897,"outcome":0,"trial":19,"correct":2,"trial_type":"three-arm-trial","trial_index":47,"time_elapsed":1277502,"internal_node_id":"0.0-25.0-0.0","task_version":"screening-mturk","missing":false,"accuracy":0},{"contexts":["blue","red","green"],"outcomes":[0,0,1],"key":38,"choice":1,"rt":66.36000005528331,"outcome":0,"trial":20,"correct":2,"trial_type":"three-arm-trial","trial_index":48,"time_elapsed":1278771,"internal_node_id":"0.0-26.0-0.0","task_version":"screening-mturk","missing":false,"accuracy":0},{"contexts":["blue","red","green"],"outcomes":[0,1,0],"key":null,"rt":null,"trial":21,"correct":2,"trial_type":"three-arm-trial","trial_index":49,"time_elapsed":1293775,"internal_node_id":"0.0-27.0-0.0","task_version":"screening-mturk","missing":true},{"contexts":["blue","red","green"],"outcomes":[0,1,0],"key":null,"rt":null,"trial":21,"correct":2,"trial_type":"three-arm-trial","trial_index":50,"time_elapsed":1308779,"internal_node_id":"0.0-27.1-0.1","task_version":"screening-mturk","missing":true},{"contexts":["blue","red","green"],"outcomes":[0,1,0],"key":null,"rt":null,"trial":21,"correct":2,"trial_type":"three-arm-trial","trial_index":51,"time_elapsed":1323783,"internal_node_id":"0.0-27.2-0.2","task_version":"screening-mturk","missing":true},{"contexts":["blue","red","green"],"outcomes":[0,1,0],"key":38,"choice":1,"rt":5916.614999994636,"outcome":1,"trial":21,"correct":2,"trial_type":"three-arm-trial","trial_index":52,"time_elapsed":1330902,"internal_node_id":"0.0-27.3-0.3","task_version":"screening-mturk","missing":false,"accuracy":0},{"contexts":["blue","red","green"],"outcomes":[0,0,1],"key":38,"choice":1,"rt":456.68000006116927,"outcome":0,"trial":22,"correct":2,"trial_type":"three-arm-trial","trial_index":53,"time_elapsed":1332563,"internal_node_id":"0.0-28.0-0.0","task_version":"screening-mturk","missing":false,"accuracy":0},{"contexts":["blue","red","green"],"outcomes":[1,0,1],"key":37,"choice":0,"rt":236.29500018432736,"outcome":1,"trial":23,"correct":2,"trial_type":"three-arm-trial","trial_index":54,"time_elapsed":1334002,"internal_node_id":"0.0-29.0-0.0","task_version":"screening-mturk","missing":false,"accuracy":0},{"contexts":["blue","red","green"],"outcomes":[0,0,1],"key":39,"choice":2,"rt":246.78000016137958,"outcome":1,"trial":24,"correct":2,"trial_type":"three-arm-trial","trial_index":55,"time_elapsed":1335451,"internal_node_id":"0.0-30.0-0.0","task_version":"screening-mturk","missing":false,"accuracy":1},{"contexts":["blue","red","green"],"outcomes":[0,0,1],"key":38,"choice":1,"rt":1817.3849999438971,"outcome":0,"trial":25,"correct":2,"trial_type":"three-arm-trial","trial_index":56,"time_elapsed":1338472,"internal_node_id":"0.0-31.0-0.0","task_version":"screening-mturk","missing":false,"accuracy":0},{"contexts":["blue","red","green"],"outcomes":[0,1,0],"key":39,"choice":2,"rt":206.31000003777444,"outcome":0,"trial":26,"correct":2,"trial_type":"three-arm-trial","trial_index":57,"time_elapsed":1339882,"internal_node_id":"0.0-32.0-0.0","task_version":"screening-mturk","missing":false,"accuracy":1},{"contexts":["blue","red","green"],"outcomes":[0,0,1],"key":38,"choice":1,"rt":636.7599999066442,"outcome":0,"trial":27,"correct":2,"trial_type":"three-arm-trial","trial_index":58,"time_elapsed":1341724,"internal_node_id":"0.0-33.0-0.0","task_version":"screening-mturk","missing":false,"accuracy":0},{"contexts":["blue","red","green"],"outcomes":[0,0,0],"key":37,"choice":0,"rt":1105.0950000062585,"outcome":0,"trial":28,"correct":2,"trial_type":"three-arm-trial","trial_index":59,"time_elapsed":1344032,"internal_node_id":"0.0-34.0-0.0","task_version":"screening-mturk","missing":false,"accuracy":0},{"contexts":["blue","red","green"],"outcomes":[0,0,1],"key":39,"choice":2,"rt":196.89999986439943,"outcome":1,"trial":29,"correct":2,"trial_type":"three-arm-trial","trial_index":60,"time_elapsed":1345432,"internal_node_id":"0.0-35.0-0.0","task_version":"screening-mturk","missing":false,"accuracy":1},{"contexts":["blue","red","green"],"outcomes":[0,1,1],"key":38,"choice":1,"rt":2056.6749998833984,"outcome":1,"trial":30,"correct":2,"trial_type":"three-arm-trial","trial_index":61,"time_elapsed":1348692,"internal_node_id":"0.0-36.0-0.0","task_version":"screening-mturk","missing":false,"accuracy":0},{"contexts":["blue","red","green"],"outcomes":[0,1,1],"key":39,"choice":2,"rt":176.48000014014542,"outcome":1,"trial":31,"correct":1,"trial_type":"three-arm-trial","trial_index":62,"time_elapsed":1350072,"internal_node_id":"0.0-37.0-0.0","task_version":"screening-mturk","missing":false,"accuracy":0},{"contexts":["blue","red","green"],"outcomes":[0,1,0],"key":38,"choice":1,"rt":557.2200000751764,"outcome":1,"trial":32,"correct":1,"trial_type":"three-arm-trial","trial_index":63,"time_elapsed":1351833,"internal_node_id":"0.0-38.0-0.0","task_version":"screening-mturk","missing":false,"accuracy":1},{"contexts":["blue","red","green"],"outcomes":[0,0,0],"key":39,"choice":2,"rt":3075.279999990016,"outcome":0,"trial":33,"correct":1,"trial_type":"three-arm-trial","trial_index":64,"time_elapsed":1356112,"internal_node_id":"0.0-39.0-0.0","task_version":"screening-mturk","missing":false,"accuracy":0},{"contexts":["blue","red","green"],"outcomes":[1,1,0],"key":38,"choice":1,"rt":2966.909999959171,"outcome":1,"trial":34,"correct":1,"trial_type":"three-arm-trial","trial_index":65,"time_elapsed":1360282,"internal_node_id":"0.0-40.0-0.0","task_version":"screening-mturk","missing":false,"accuracy":1},{"contexts":["blue","red","green"],"outcomes":[0,1,0],"key":39,"choice":2,"rt":506.8999999202788,"outcome":0,"trial":35,"correct":1,"trial_type":"three-arm-trial","trial_index":66,"time_elapsed":1361992,"internal_node_id":"0.0-41.0-0.0","task_version":"screening-mturk","missing":false,"accuracy":0},{"contexts":["blue","red","green"],"outcomes":[0,0,0],"key":38,"choice":1,"rt":766.8099999427795,"outcome":0,"trial":36,"correct":1,"trial_type":"three-arm-trial","trial_index":67,"time_elapsed":1363962,"internal_node_id":"0.0-42.0-0.0","task_version":"screening-mturk","missing":false,"accuracy":1},{"contexts":["blue","red","green"],"outcomes":[0,0,0],"key":39,"choice":2,"rt":2595.0849999208003,"outcome":0,"trial":37,"correct":1,"trial_type":"three-arm-trial","trial_index":68,"time_elapsed":1367762,"internal_node_id":"0.0-43.0-0.0","task_version":"screening-mturk","missing":false,"accuracy":0},{"contexts":["blue","red","green"],"outcomes":[0,1,0],"key":38,"choice":1,"rt":2793.4399999212474,"outcome":1,"trial":38,"correct":1,"trial_type":"three-arm-trial","trial_index":69,"time_elapsed":1371761,"internal_node_id":"0.0-44.0-0.0","task_version":"screening-mturk","missing":false,"accuracy":1},{"contexts":["blue","red","green"],"outcomes":[0,1,0],"key":39,"choice":2,"rt":187.78999987989664,"outcome":0,"trial":39,"correct":1,"trial_type":"three-arm-trial","trial_index":70,"time_elapsed":1373153,"internal_node_id":"0.0-45.0-0.0","task_version":"screening-mturk","missing":false,"accuracy":0},{"contexts":["blue","red","green"],"outcomes":[1,1,1],"key":38,"choice":1,"rt":716.0300000105053,"outcome":1,"trial":40,"correct":1,"trial_type":"three-arm-trial","trial_index":71,"time_elapsed":1375072,"internal_node_id":"0.0-46.0-0.0","task_version":"screening-mturk","missing":false,"accuracy":1},{"contexts":["blue","red","green"],"outcomes":[0,1,0],"key":39,"choice":2,"rt":2677.3349998984486,"outcome":0,"trial":41,"correct":1,"trial_type":"three-arm-trial","trial_index":72,"time_elapsed":1378952,"internal_node_id":"0.0-47.0-0.0","task_version":"screening-mturk","missing":false,"accuracy":0},{"contexts":["blue","red","green"],"outcomes":[0,1,0],"key":38,"choice":1,"rt":86.64499991573393,"outcome":1,"trial":42,"correct":1,"trial_type":"three-arm-trial","trial_index":73,"time_elapsed":1380241,"internal_node_id":"0.0-48.0-0.0","task_version":"screening-mturk","missing":false,"accuracy":1},{"contexts":["blue","red","green"],"outcomes":[0,0,0],"key":38,"choice":1,"rt":288.90000004321337,"outcome":0,"trial":43,"correct":1,"trial_type":"three-arm-trial","trial_index":74,"time_elapsed":1381734,"internal_node_id":"0.0-49.0-0.0","task_version":"screening-mturk","missing":false,"accuracy":1},{"contexts":["blue","red","green"],"outcomes":[0,1,0],"key":38,"choice":1,"rt":194.87500004470348,"outcome":1,"trial":44,"correct":1,"trial_type":"three-arm-trial","trial_index":75,"time_elapsed":1383132,"internal_node_id":"0.0-50.0-0.0","task_version":"screening-mturk","missing":false,"accuracy":1},{"contexts":["blue","red","green"],"outcomes":[0,1,0],"key":38,"choice":1,"rt":147.61000010184944,"outcome":1,"trial":45,"correct":1,"trial_type":"three-arm-trial","trial_index":76,"time_elapsed":1384483,"internal_node_id":"0.0-51.0-0.0","task_version":"screening-mturk","missing":false,"accuracy":1},{"contexts":["blue","red","green"],"outcomes":[0,0,0],"key":38,"choice":1,"rt":55.90999987907708,"outcome":0,"trial":46,"correct":0,"trial_type":"three-arm-trial","trial_index":77,"time_elapsed":1385742,"internal_node_id":"0.0-52.0-0.0","task_version":"screening-mturk","missing":false,"accuracy":0},{"contexts":["blue","red","green"],"outcomes":[1,0,0],"key":38,"choice":1,"rt":18.094999948516488,"outcome":0,"trial":47,"correct":0,"trial_type":"three-arm-trial","trial_index":78,"time_elapsed":1386964,"internal_node_id":"0.0-53.0-0.0","task_version":"screening-mturk","missing":false,"accuracy":0},{"contexts":["blue","red","green"],"outcomes":[1,0,0],"key":39,"choice":2,"rt":2334.9950001575053,"outcome":0,"trial":48,"correct":0,"trial_type":"three-arm-trial","trial_index":79,"time_elapsed":1390502,"internal_node_id":"0.0-54.0-0.0","task_version":"screening-mturk","missing":false,"accuracy":0},{"contexts":["blue","red","green"],"outcomes":[1,0,1],"key":38,"choice":1,"rt":196.67500001378357,"outcome":0,"trial":49,"correct":0,"trial_type":"three-arm-trial","trial_index":80,"time_elapsed":1391902,"internal_node_id":"0.0-55.0-0.0","task_version":"screening-mturk","missing":false,"accuracy":0},{"contexts":["blue","red","green"],"outcomes":[1,0,0],"key":38,"choice":1,"rt":486.38000013306737,"outcome":0,"trial":50,"correct":0,"trial_type":"three-arm-trial","trial_index":81,"time_elapsed":1393591,"internal_node_id":"0.0-56.0-0.0","task_version":"screening-mturk","missing":false,"accuracy":0},{"contexts":["blue","red","green"],"outcomes":[1,0,0],"key":38,"choice":1,"rt":61.23499991372228,"outcome":0,"trial":51,"correct":0,"trial_type":"three-arm-trial","trial_index":82,"time_elapsed":1394856,"internal_node_id":"0.0-57.0-0.0","task_version":"screening-mturk","missing":false,"accuracy":0},{"contexts":["blue","red","green"],"outcomes":[1,0,0],"key":38,"choice":1,"rt":882.7599999494851,"outcome":0,"trial":52,"correct":0,"trial_type":"three-arm-trial","trial_index":83,"time_elapsed":1396942,"internal_node_id":"0.0-58.0-0.0","task_version":"screening-mturk","missing":false,"accuracy":0},{"contexts":["blue","red","green"],"outcomes":[1,0,0],"key":39,"choice":2,"rt":56.2799999024719,"outcome":0,"trial":53,"correct":0,"trial_type":"three-arm-trial","trial_index":84,"time_elapsed":1398201,"internal_node_id":"0.0-59.0-0.0","task_version":"screening-mturk","missing":false,"accuracy":0},{"contexts":["blue","red","green"],"outcomes":[0,0,0],"key":38,"choice":1,"rt":238.21499990299344,"outcome":0,"trial":54,"correct":0,"trial_type":"three-arm-trial","trial_index":85,"time_elapsed":1399642,"internal_node_id":"0.0-60.0-0.0","task_version":"screening-mturk","missing":false,"accuracy":0},{"contexts":["blue","red","green"],"outcomes":[1,0,0],"key":39,"choice":2,"rt":673.3649999368936,"outcome":0,"trial":55,"correct":0,"trial_type":"three-arm-trial","trial_index":86,"time_elapsed":1401521,"internal_node_id":"0.0-61.0-0.0","task_version":"screening-mturk","missing":false,"accuracy":0},{"contexts":["blue","red","green"],"outcomes":[1,0,0],"key":38,"choice":1,"rt":267.53999991342425,"outcome":0,"trial":56,"correct":0,"trial_type":"three-arm-trial","trial_index":87,"time_elapsed":1402993,"internal_node_id":"0.0-62.0-0.0","task_version":"screening-mturk","missing":false,"accuracy":0},{"contexts":["blue","red","green"],"outcomes":[1,0,0],"key":38,"choice":1,"rt":805.580000160262,"outcome":0,"trial":57,"correct":0,"trial_type":"three-arm-trial","trial_index":88,"time_elapsed":1405001,"internal_node_id":"0.0-63.0-0.0","task_version":"screening-mturk","missing":false,"accuracy":0},{"contexts":["blue","red","green"],"outcomes":[1,0,1],"key":38,"choice":1,"rt":1106.8249999079853,"outcome":0,"trial":58,"correct":0,"trial_type":"three-arm-trial","trial_index":89,"time_elapsed":1407313,"internal_node_id":"0.0-64.0-0.0","task_version":"screening-mturk","missing":false,"accuracy":0},{"contexts":["blue","red","green"],"outcomes":[1,0,0],"key":39,"choice":2,"rt":117.28999996557832,"outcome":0,"trial":59,"correct":0,"trial_type":"three-arm-trial","trial_index":90,"time_elapsed":1408635,"internal_node_id":"0.0-65.0-0.0","task_version":"screening-mturk","missing":false,"accuracy":0},{"contexts":["blue","red","green"],"outcomes":[1,0,1],"key":38,"choice":1,"rt":494.05999993905425,"outcome":0,"trial":60,"correct":0,"trial_type":"three-arm-trial","trial_index":91,"time_elapsed":1410332,"internal_node_id":"0.0-66.0-0.0","task_version":"screening-mturk","missing":false,"accuracy":0},{"contexts":["blue","red","green"],"outcomes":[0,1,0],"key":39,"choice":2,"rt":167.45000006631017,"outcome":0,"trial":61,"correct":1,"trial_type":"three-arm-trial","trial_index":92,"time_elapsed":1411702,"internal_node_id":"0.0-67.0-0.0","task_version":"screening-mturk","missing":false,"accuracy":0},{"contexts":["blue","red","green"],"outcomes":[0,1,0],"key":38,"choice":1,"rt":796.4299998711795,"outcome":1,"trial":62,"correct":1,"trial_type":"three-arm-trial","trial_index":93,"time_elapsed":1413703,"internal_node_id":"0.0-68.0-0.0","task_version":"screening-mturk","missing":false,"accuracy":1},{"contexts":["blue","red","green"],"outcomes":[0,0,0],"key":38,"choice":1,"rt":297.23999998532236,"outcome":0,"trial":63,"correct":1,"trial_type":"three-arm-trial","trial_index":94,"time_elapsed":1415202,"internal_node_id":"0.0-69.0-0.0","task_version":"screening-mturk","missing":false,"accuracy":1},{"contexts":["blue","red","green"],"outcomes":[0,1,0],"key":38,"choice":1,"rt":1255.9849999379367,"outcome":1,"trial":64,"correct":1,"trial_type":"three-arm-trial","trial_index":95,"time_elapsed":1417661,"internal_node_id":"0.0-70.0-0.0","task_version":"screening-mturk","missing":false,"accuracy":1},{"contexts":["blue","red","green"],"outcomes":[0,1,0],"key":39,"choice":2,"rt":817.4550000112504,"outcome":0,"trial":65,"correct":1,"trial_type":"three-arm-trial","trial_index":96,"time_elapsed":1419682,"internal_node_id":"0.0-71.0-0.0","task_version":"screening-mturk","missing":false,"accuracy":0},{"contexts":["blue","red","green"],"outcomes":[0,1,0],"key":38,"choice":1,"rt":716.8349998537451,"outcome":1,"trial":66,"correct":1,"trial_type":"three-arm-trial","trial_index":97,"time_elapsed":1421601,"internal_node_id":"0.0-72.0-0.0","task_version":"screening-mturk","missing":false,"accuracy":1},{"contexts":["blue","red","green"],"outcomes":[0,0,0],"key":38,"choice":1,"rt":395.8900000434369,"outcome":0,"trial":67,"correct":1,"trial_type":"three-arm-trial","trial_index":98,"time_elapsed":1423201,"internal_node_id":"0.0-73.0-0.0","task_version":"screening-mturk","missing":false,"accuracy":1},{"contexts":["blue","red","green"],"outcomes":[1,1,0],"key":38,"choice":1,"rt":677.0399999804795,"outcome":1,"trial":68,"correct":1,"trial_type":"three-arm-trial","trial_index":99,"time_elapsed":1425082,"internal_node_id":"0.0-74.0-0.0","task_version":"screening-mturk","missing":false,"accuracy":1},{"contexts":["blue","red","green"],"outcomes":[0,0,0],"key":38,"choice":1,"rt":756.5550000872463,"outcome":0,"trial":69,"correct":1,"trial_type":"three-arm-trial","trial_index":100,"time_elapsed":1427041,"internal_node_id":"0.0-75.0-0.0","task_version":"screening-mturk","missing":false,"accuracy":1},{"contexts":["blue","red","green"],"outcomes":[0,0,0],"key":39,"choice":2,"rt":307.7750001102686,"outcome":0,"trial":70,"correct":1,"trial_type":"three-arm-trial","trial_index":101,"time_elapsed":1428551,"internal_node_id":"0.0-76.0-0.0","task_version":"screening-mturk","missing":false,"accuracy":0},{"contexts":["blue","red","green"],"outcomes":[0,1,1],"key":38,"choice":1,"rt":687.4899999238551,"outcome":1,"trial":71,"correct":1,"trial_type":"three-arm-trial","trial_index":102,"time_elapsed":1430442,"internal_node_id":"0.0-77.0-0.0","task_version":"screening-mturk","missing":false,"accuracy":1},{"contexts":["blue","red","green"],"outcomes":[0,1,1],"key":38,"choice":1,"rt":96.85499989427626,"outcome":1,"trial":72,"correct":1,"trial_type":"three-arm-trial","trial_index":103,"time_elapsed":1431742,"internal_node_id":"0.0-78.0-0.0","task_version":"screening-mturk","missing":false,"accuracy":1},{"contexts":["blue","red","green"],"outcomes":[0,1,0],"key":38,"choice":1,"rt":61.56500009819865,"outcome":1,"trial":73,"correct":1,"trial_type":"three-arm-trial","trial_index":104,"time_elapsed":1433006,"internal_node_id":"0.0-79.0-0.0","task_version":"screening-mturk","missing":false,"accuracy":1},{"contexts":["blue","red","green"],"outcomes":[0,1,0],"key":38,"choice":1,"rt":331.1399999074638,"outcome":1,"trial":74,"correct":1,"trial_type":"three-arm-trial","trial_index":105,"time_elapsed":1434542,"internal_node_id":"0.0-80.0-0.0","task_version":"screening-mturk","missing":false,"accuracy":1},{"contexts":["blue","red","green"],"outcomes":[0,0,0],"key":39,"choice":2,"rt":227.1099998615682,"outcome":0,"trial":75,"correct":1,"trial_type":"three-arm-trial","trial_index":106,"time_elapsed":1435973,"internal_node_id":"0.0-81.0-0.0","task_version":"screening-mturk","missing":false,"accuracy":0},{"contexts":["blue","red","green"],"outcomes":[1,0,0],"key":39,"choice":2,"rt":165.40999989956617,"outcome":0,"trial":76,"correct":0,"trial_type":"three-arm-trial","trial_index":107,"time_elapsed":1437342,"internal_node_id":"0.0-82.0-0.0","task_version":"screening-mturk","missing":false,"accuracy":0},{"contexts":["blue","red","green"],"outcomes":[0,0,0],"key":38,"choice":1,"rt":246.92999990656972,"outcome":0,"trial":77,"correct":0,"trial_type":"three-arm-trial","trial_index":108,"time_elapsed":1438792,"internal_node_id":"0.0-83.0-0.0","task_version":"screening-mturk","missing":false,"accuracy":0},{"contexts":["blue","red","green"],"outcomes":[1,0,0],"key":38,"choice":1,"rt":246.37999990954995,"outcome":0,"trial":78,"correct":0,"trial_type":"three-arm-trial","trial_index":109,"time_elapsed":1440241,"internal_node_id":"0.0-84.0-0.0","task_version":"screening-mturk","missing":false,"accuracy":0},{"contexts":["blue","red","green"],"outcomes":[1,0,1],"key":38,"choice":1,"rt":327.9649999458343,"outcome":0,"trial":79,"correct":0,"trial_type":"three-arm-trial","trial_index":110,"time_elapsed":1441773,"internal_node_id":"0.0-85.0-0.0","task_version":"screening-mturk","missing":false,"accuracy":0},{"contexts":["blue","red","green"],"outcomes":[1,0,0],"key":39,"choice":2,"rt":16.159999882802367,"outcome":0,"trial":80,"correct":0,"trial_type":"three-arm-trial","trial_index":111,"time_elapsed":1442993,"internal_node_id":"0.0-86.0-0.0","task_version":"screening-mturk","missing":false,"accuracy":0},{"contexts":["blue","red","green"],"outcomes":[0,1,0],"key":38,"choice":1,"rt":255.8549998793751,"outcome":1,"trial":81,"correct":0,"trial_type":"three-arm-trial","trial_index":112,"time_elapsed":1444452,"internal_node_id":"0.0-87.0-0.0","task_version":"screening-mturk","missing":false,"accuracy":0},{"contexts":["blue","red","green"],"outcomes":[1,0,0],"key":38,"choice":1,"rt":217.75000006891787,"outcome":0,"trial":82,"correct":0,"trial_type":"three-arm-trial","trial_index":113,"time_elapsed":1445873,"internal_node_id":"0.0-88.0-0.0","task_version":"screening-mturk","missing":false,"accuracy":0},{"contexts":["blue","red","green"],"outcomes":[1,0,1],"key":38,"choice":1,"rt":324.56999993883073,"outcome":0,"trial":83,"correct":0,"trial_type":"three-arm-trial","trial_index":114,"time_elapsed":1447403,"internal_node_id":"0.0-89.0-0.0","task_version":"screening-mturk","missing":false,"accuracy":0},{"contexts":["blue","red","green"],"outcomes":[1,0,1],"key":38,"choice":1,"rt":128.1900000758469,"outcome":0,"trial":84,"correct":0,"trial_type":"three-arm-trial","trial_index":115,"time_elapsed":1448734,"internal_node_id":"0.0-90.0-0.0","task_version":"screening-mturk","missing":false,"accuracy":0},{"contexts":["blue","red","green"],"outcomes":[1,0,1],"key":38,"choice":1,"rt":273.90000014565885,"outcome":0,"trial":85,"correct":0,"trial_type":"three-arm-trial","trial_index":116,"time_elapsed":1450211,"internal_node_id":"0.0-91.0-0.0","task_version":"screening-mturk","missing":false,"accuracy":0},{"contexts":["blue","red","green"],"outcomes":[0,0,0],"key":38,"choice":1,"rt":679.109999909997,"outcome":0,"trial":86,"correct":0,"trial_type":"three-arm-trial","trial_index":117,"time_elapsed":1452093,"internal_node_id":"0.0-92.0-0.0","task_version":"screening-mturk","missing":false,"accuracy":0},{"contexts":["blue","red","green"],"outcomes":[0,0,1],"key":38,"choice":1,"rt":55.39500014856458,"outcome":0,"trial":87,"correct":0,"trial_type":"three-arm-trial","trial_index":118,"time_elapsed":1453352,"internal_node_id":"0.0-93.0-0.0","task_version":"screening-mturk","missing":false,"accuracy":0},{"contexts":["blue","red","green"],"outcomes":[1,0,0],"key":38,"choice":1,"rt":357.0550000295043,"outcome":0,"trial":88,"correct":0,"trial_type":"three-arm-trial","trial_index":119,"time_elapsed":1454912,"internal_node_id":"0.0-94.0-0.0","task_version":"screening-mturk","missing":false,"accuracy":0},{"contexts":["blue","red","green"],"outcomes":[1,0,0],"key":38,"choice":1,"rt":696.8249999918044,"outcome":0,"trial":89,"correct":0,"trial_type":"three-arm-trial","trial_index":120,"time_elapsed":1456812,"internal_node_id":"0.0-95.0-0.0","task_version":"screening-mturk","missing":false,"accuracy":0},{"contexts":["blue","red","green"],"outcomes":[1,0,0],"key":38,"choice":1,"rt":912.4849999789149,"outcome":0,"trial":90,"correct":0,"trial_type":"three-arm-trial","trial_index":121,"time_elapsed":1458927,"internal_node_id":"0.0-96.0-0.0","task_version":"screening-mturk","missing":false,"accuracy":0},{"rt":27421.70999990776,"responses":{"age":"58","gender-categorical":"Male","gender-free-response":"","ethnicity":"Not Hispanic or Latino","race":["White"],"language":"Yes","fluency":"Very well","prolific":"No","prolific-this-study":"No"},"survey":"demographics","trial_type":"survey-demo","trial_index":122,"time_elapsed":1486354,"internal_node_id":"0.0-97.0","task_version":"screening-mturk","interactions":"[{\"event\":\"blur\",\"trial\":0,\"time\":7645},{\"event\":\"focus\",\"trial\":0,\"time\":8634},{\"event\":\"blur\",\"trial\":19,\"time\":912351},{\"event\":\"focus\",\"trial\":19,\"time\":916061},{\"event\":\"blur\",\"trial\":19,\"time\":925881},{\"event\":\"focus\",\"trial\":19,\"time\":928205},{\"event\":\"blur\",\"trial\":19,\"time\":935844},{\"event\":\"focus\",\"trial\":19,\"time\":937616},{\"event\":\"blur\",\"trial\":19,\"time\":944722},{\"event\":\"focus\",\"trial\":19,\"time\":947737},{\"event\":\"blur\",\"trial\":20,\"time\":970432},{\"event\":\"focus\",\"trial\":20,\"time\":980990},{\"event\":\"blur\",\"trial\":20,\"time\":997892},{\"event\":\"focus\",\"trial\":20,\"time\":1016833},{\"event\":\"blur\",\"trial\":20,\"time\":1023062},{\"event\":\"focus\",\"trial\":20,\"time\":1049144},{\"event\":\"blur\",\"trial\":22,\"time\":1080702},{\"event\":\"focus\",\"trial\":22,\"time\":1087906}]"}]