[{"responses":{"Q01":"3","Q03":"4","Q02":"2"},"rt":17674.360000062734,"survey":"pswq","trial_type":"survey-template","trial_index":0,"time_elapsed":17688,"internal_node_id":"0.0-0.0","task_version":"screening-mturk"},{"responses":{"Q08":"2","Q03":"3","Q01":"1","Q04":"2","Q14":"0","Q07":"1","Q15":"3","Q06":"2","Q11":"1","Q13":"3","Q05":"2","Q02":"1","Q10":"3","Q09":"0","Q12":"2"},"rt":19125.19000004977,"survey":"7up7down","trial_type":"survey-template","trial_index":1,"time_elapsed":36818,"internal_node_id":"0.0-1.0","task_version":"screening-mturk"},{"responses":{"Q06":"2","Q04":"3","Q02":"2","Q03":"1","Q05":"2","Q07":"3","Q08":"2","Q01":"0"},"rt":20655.65999993123,"survey":"gad7","trial_type":"survey-template","trial_index":2,"time_elapsed":57476,"internal_node_id":"0.0-2.0","task_version":"screening-mturk"},{"responses":{"Q06":"2","Q01":"1","Q04":"3","Q13":"2","Q10":"0","Q03":"1","Q07":"2","Q12":"2","Q11":"1","Q08":"3","Q02":"2","Q05":"2","Q09":"3"},"rt":56807.35999997705,"survey":"bisbas","trial_type":"survey-template","trial_index":3,"time_elapsed":114288,"internal_node_id":"0.0-3.0","task_version":"screening-mturk"},{"responses":{"Q10":"2","Q15":"3","Q07":"2","Q14":"1","Q03":"2","Q13":"0","Q09":"2","Q01":"3","Q04":"2","Q11":"1","Q02":"2","Q08":"3","Q12":"2","Q05":"0","Q06":"2"},"rt":21126.94499990903,"survey":"shaps","trial_type":"survey-template","trial_index":4,"time_elapsed":135418,"internal_node_id":"0.0-4.0","task_version":"screening-mturk"},{"view_history":"[{\"page_index\":0,\"viewing_time\":2924.5850001461804},{\"page_index\":1,\"viewing_time\":8579.809999791905},{\"page_index\":2,\"viewing_time\":4610.075000207871},{\"page_index\":3,\"viewing_time\":3479.839999927208},{\"page_index\":4,\"viewing_time\":2709.980000043288},{\"page_index\":5,\"viewing_time\":1630.204999819398},{\"page_index\":6,\"viewing_time\":1031.0950002167374},{\"page_index\":7,\"viewing_time\":969.2749998066574}]","rt":25936.23000010848,"trial_type":"instructions","trial_index":5,"time_elapsed":161356,"internal_node_id":"0.0-5.0-0.0","task_version":"screening-mturk"},{"responses":["True","True","False","True","False"],"num_errors":2,"rt":23215.959999943152,"trial_type":"three-arm-comprehension","trial_index":6,"time_elapsed":184576,"internal_node_id":"0.0-5.0-1.0","task_version":"screening-mturk"},{"view_history":"[{\"page_index\":0,\"viewing_time\":4664.76000007242},{\"page_index\":1,\"viewing_time\":4609.674999956042},{\"page_index\":2,\"viewing_time\":2389.9850000161678},{\"page_index\":1,\"viewing_time\":2104.689999949187},{\"page_index\":2,\"viewing_time\":15116.33999994956},{\"page_index\":3,\"viewing_time\":9383.990000002086},{\"page_index\":4,\"viewing_time\":10124.940000008792},{\"page_index\":5,\"viewing_time\":8400.035000173375},{\"page_index\":6,\"viewing_time\":4645.129999844357},{\"page_index\":7,\"viewing_time\":2804.909999947995}]","rt":64244.824999943376,"trial_type":"instructions","trial_index":7,"time_elapsed":248824,"internal_node_id":"0.0-5.1-0.1","task_version":"screening-mturk"},{"responses":["True","True","False","True","True"],"num_errors":1,"rt":23129.145000129938,"trial_type":"three-arm-comprehension","trial_index":8,"time_elapsed":271955,"internal_node_id":"0.0-5.1-1.1","task_version":"screening-mturk"},{"view_history":"[{\"page_index\":0,\"viewing_time\":1855.405000038445},{\"page_index\":1,\"viewing_time\":310.10999996215105},{\"page_index\":2,\"viewing_time\":364.77499990724027},{\"page_index\":3,\"viewing_time\":468.2899999897927},{\"page_index\":4,\"viewing_time\":936.7450000718236},{\"page_index\":5,\"viewing_time\":880.0449999980628},{\"page_index\":6,\"viewing_time\":780.4250000044703},{\"page_index\":7,\"viewing_time\":949.4249999988824}]","rt":6545.6299998331815,"trial_type":"instructions","trial_index":9,"time_elapsed":278504,"internal_node_id":"0.0-5.2-0.2","task_version":"screening-mturk"},{"responses":["True","True","True","True","True"],"num_errors":2,"rt":6198.59499996528,"trial_type":"three-arm-comprehension","trial_index":10,"time_elapsed":284705,"internal_node_id":"0.0-5.2-1.2","task_version":"screening-mturk"},{"view_history":"[{\"page_index\":0,\"viewing_time\":1540.4699998907745},{\"page_index\":1,\"viewing_time\":215.12500010430813},{\"page_index\":2,\"viewing_time\":140.04500000737607},{\"page_index\":3,\"viewing_time\":149.97499994933605},{\"page_index\":4,\"viewing_time\":179.92999986745417},{\"page_index\":5,\"viewing_time\":170.39000010117888},{\"page_index\":6,\"viewing_time\":619.3349999375641},{\"page_index\":7,\"viewing_time\":1210.2950001135468}]","rt":4226.05499997735,"trial_type":"instructions","trial_index":11,"time_elapsed":288934,"internal_node_id":"0.0-5.3-0.3","task_version":"screening-mturk"},{"responses":["True","True","False","False","True"],"num_errors":0,"rt":12918.969999998808,"trial_type":"three-arm-comprehension","trial_index":12,"time_elapsed":301856,"internal_node_id":"0.0-5.3-1.3","task_version":"screening-mturk"},{"view_history":"[{\"page_index\":0,\"viewing_time\":2335.274999961257}]","rt":2335.6500000227243,"trial_type":"instructions","trial_index":13,"time_elapsed":304194,"internal_node_id":"0.0-6.0","task_version":"screening-mturk"},{"contexts":["red","blue","green"],"outcomes":[1,1,0],"key":38,"choice":1,"rt":3783.24000001885,"outcome":1,"trial":1,"correct":1,"trial_type":"three-arm-trial","trial_index":14,"time_elapsed":309181,"internal_node_id":"0.0-7.0-0.0","task_version":"screening-mturk","missing":false,"accuracy":1},{"contexts":["red","blue","green"],"outcomes":[1,1,0],"key":39,"choice":2,"rt":2331.1199999880046,"outcome":0,"trial":2,"correct":1,"trial_type":"three-arm-trial","trial_index":15,"time_elapsed":312715,"internal_node_id":"0.0-8.0-0.0","task_version":"screening-mturk","missing":false,"accuracy":0},{"contexts":["red","blue","green"],"outcomes":[0,0,1],"key":39,"choice":2,"rt":297.99499991349876,"outcome":1,"trial":3,"correct":1,"trial_type":"three-arm-trial","trial_index":16,"time_elapsed":314215,"internal_node_id":"0.0-9.0-0.0","task_version":"screening-mturk","missing":false,"accuracy":0},{"contexts":["red","blue","green"],"outcomes":[0,0,0],"key":37,"choice":0,"rt":747.9749999474734,"outcome":0,"trial":4,"correct":1,"trial_type":"three-arm-trial","trial_index":17,"time_elapsed":316170,"internal_node_id":"0.0-10.0-0.0","task_version":"screening-mturk","missing":false,"accuracy":0},{"contexts":["red","blue","green"],"outcomes":[0,1,1],"key":38,"choice":1,"rt":248.82499990053475,"outcome":1,"trial":5,"correct":1,"trial_type":"three-arm-trial","trial_index":18,"time_elapsed":317622,"internal_node_id":"0.0-11.0-0.0","task_version":"screening-mturk","missing":false,"accuracy":1},{"contexts":["red","blue","green"],"outcomes":[0,1,0],"key":39,"choice":2,"rt":910.5749998707324,"outcome":0,"trial":6,"correct":1,"trial_type":"three-arm-trial","trial_index":19,"time_elapsed":319735,"internal_node_id":"0.0-12.0-0.0","task_version":"screening-mturk","missing":false,"accuracy":0},{"contexts":["red","blue","green"],"outcomes":[1,1,0],"key":37,"choice":0,"rt":247.10500007495284,"outcome":1,"trial":7,"correct":1,"trial_type":"three-arm-trial","trial_index":20,"time_elapsed":321185,"internal_node_id":"0.0-13.0-0.0","task_version":"screening-mturk","missing":false,"accuracy":0},{"contexts":["red","blue","green"],"outcomes":[1,1,0],"key":38,"choice":1,"rt":27.67500001937151,"outcome":1,"trial":8,"correct":1,"trial_type":"three-arm-trial","trial_index":21,"time_elapsed":322431,"internal_node_id":"0.0-14.0-0.0","task_version":"screening-mturk","missing":false,"accuracy":1},{"contexts":["red","blue","green"],"outcomes":[1,1,0],"key":37,"choice":0,"rt":250.81499991938472,"outcome":1,"trial":9,"correct":1,"trial_type":"three-arm-trial","trial_index":22,"time_elapsed":323885,"internal_node_id":"0.0-15.0-0.0","task_version":"screening-mturk","missing":false,"accuracy":0},{"contexts":["red","blue","green"],"outcomes":[0,1,0],"key":39,"choice":2,"rt":662.6299999188632,"outcome":0,"trial":10,"correct":1,"trial_type":"three-arm-trial","trial_index":23,"time_elapsed":325751,"internal_node_id":"0.0-16.0-0.0","task_version":"screening-mturk","missing":false,"accuracy":0},{"contexts":["red","blue","green"],"outcomes":[0,1,0],"key":38,"choice":1,"rt":581.4499999396503,"outcome":1,"trial":11,"correct":1,"trial_type":"three-arm-trial","trial_index":24,"time_elapsed":327534,"internal_node_id":"0.0-17.0-0.0","task_version":"screening-mturk","missing":false,"accuracy":1},{"contexts":["red","blue","green"],"outcomes":[0,1,0],"key":37,"choice":0,"rt":288.31000020727515,"outcome":0,"trial":12,"correct":1,"trial_type":"three-arm-trial","trial_index":25,"time_elapsed":329036,"internal_node_id":"0.0-18.0-0.0","task_version":"screening-mturk","missing":false,"accuracy":0},{"contexts":["red","blue","green"],"outcomes":[1,1,0],"key":39,"choice":2,"rt":339.9200001731515,"outcome":0,"trial":13,"correct":1,"trial_type":"three-arm-trial","trial_index":26,"time_elapsed":330582,"internal_node_id":"0.0-19.0-0.0","task_version":"screening-mturk","missing":false,"accuracy":0},{"contexts":["red","blue","green"],"outcomes":[0,1,0],"key":37,"choice":0,"rt":160.1950000040233,"outcome":0,"trial":14,"correct":1,"trial_type":"three-arm-trial","trial_index":27,"time_elapsed":331947,"internal_node_id":"0.0-20.0-0.0","task_version":"screening-mturk","missing":false,"accuracy":0},{"contexts":["red","blue","green"],"outcomes":[0,1,0],"key":38,"choice":1,"rt":125.99499989300966,"outcome":1,"trial":15,"correct":1,"trial_type":"three-arm-trial","trial_index":28,"time_elapsed":333276,"internal_node_id":"0.0-21.0-0.0","task_version":"screening-mturk","missing":false,"accuracy":1},{"contexts":["red","blue","green"],"outcomes":[0,0,1],"key":38,"choice":1,"rt":136.04000001214445,"outcome":0,"trial":16,"correct":2,"trial_type":"three-arm-trial","trial_index":29,"time_elapsed":334615,"internal_node_id":"0.0-22.0-0.0","task_version":"screening-mturk","missing":false,"accuracy":0},{"contexts":["red","blue","green"],"outcomes":[0,0,0],"key":37,"choice":0,"rt":176.92500003613532,"outcome":0,"trial":17,"correct":2,"trial_type":"three-arm-trial","trial_index":30,"time_elapsed":335996,"internal_node_id":"0.0-23.0-0.0","task_version":"screening-mturk","missing":false,"accuracy":0},{"contexts":["red","blue","green"],"outcomes":[0,0,1],"key":39,"choice":2,"rt":156.7100000102073,"outcome":1,"trial":18,"correct":2,"trial_type":"three-arm-trial","trial_index":31,"time_elapsed":337355,"internal_node_id":"0.0-24.0-0.0","task_version":"screening-mturk","missing":false,"accuracy":1},{"contexts":["red","blue","green"],"outcomes":[0,0,1],"key":38,"choice":1,"rt":57.76500003412366,"outcome":0,"trial":19,"correct":2,"trial_type":"three-arm-trial","trial_index":32,"time_elapsed":338617,"internal_node_id":"0.0-25.0-0.0","task_version":"screening-mturk","missing":false,"accuracy":0},{"contexts":["red","blue","green"],"outcomes":[0,0,1],"key":39,"choice":2,"rt":48.624999821186066,"outcome":1,"trial":20,"correct":2,"trial_type":"three-arm-trial","trial_index":33,"time_elapsed":339869,"internal_node_id":"0.0-26.0-0.0","task_version":"screening-mturk","missing":false,"accuracy":1},{"contexts":["red","blue","green"],"outcomes":[0,0,1],"key":37,"choice":0,"rt":140.86499996483326,"outcome":0,"trial":21,"correct":2,"trial_type":"three-arm-trial","trial_index":34,"time_elapsed":341209,"internal_node_id":"0.0-27.0-0.0","task_version":"screening-mturk","missing":false,"accuracy":0},{"contexts":["red","blue","green"],"outcomes":[1,0,1],"key":39,"choice":2,"rt":65.26000006124377,"outcome":1,"trial":22,"correct":2,"trial_type":"three-arm-trial","trial_index":35,"time_elapsed":342478,"internal_node_id":"0.0-28.0-0.0","task_version":"screening-mturk","missing":false,"accuracy":1},{"contexts":["red","blue","green"],"outcomes":[0,0,1],"key":38,"choice":1,"rt":41.55500000342727,"outcome":0,"trial":23,"correct":2,"trial_type":"three-arm-trial","trial_index":36,"time_elapsed":343722,"internal_node_id":"0.0-29.0-0.0","task_version":"screening-mturk","missing":false,"accuracy":0},{"contexts":["red","blue","green"],"outcomes":[1,0,1],"key":37,"choice":0,"rt":2969.539999961853,"outcome":1,"trial":24,"correct":2,"trial_type":"three-arm-trial","trial_index":37,"time_elapsed":347896,"internal_node_id":"0.0-30.0-0.0","task_version":"screening-mturk","missing":false,"accuracy":0},{"contexts":["red","blue","green"],"outcomes":[0,1,1],"key":39,"choice":2,"rt":397.9549999348819,"outcome":1,"trial":25,"correct":2,"trial_type":"three-arm-trial","trial_index":38,"time_elapsed":349496,"internal_node_id":"0.0-31.0-0.0","task_version":"screening-mturk","missing":false,"accuracy":1},{"contexts":["red","blue","green"],"outcomes":[0,0,1],"key":38,"choice":1,"rt":492.7050000987947,"outcome":0,"trial":26,"correct":2,"trial_type":"three-arm-trial","trial_index":39,"time_elapsed":351192,"internal_node_id":"0.0-32.0-0.0","task_version":"screening-mturk","missing":false,"accuracy":0},{"contexts":["red","blue","green"],"outcomes":[0,0,1],"key":37,"choice":0,"rt":265.32000000588596,"outcome":0,"trial":27,"correct":2,"trial_type":"three-arm-trial","trial_index":40,"time_elapsed":352660,"internal_node_id":"0.0-33.0-0.0","task_version":"screening-mturk","missing":false,"accuracy":0},{"contexts":["red","blue","green"],"outcomes":[0,0,1],"key":39,"choice":2,"rt":18.70499993674457,"outcome":1,"trial":28,"correct":2,"trial_type":"three-arm-trial","trial_index":41,"time_elapsed":353882,"internal_node_id":"0.0-34.0-0.0","task_version":"screening-mturk","missing":false,"accuracy":1},{"contexts":["red","blue","green"],"outcomes":[0,1,1],"key":38,"choice":1,"rt":827.7499999385327,"outcome":1,"trial":29,"correct":2,"trial_type":"three-arm-trial","trial_index":42,"time_elapsed":355913,"internal_node_id":"0.0-35.0-0.0","task_version":"screening-mturk","missing":false,"accuracy":0},{"contexts":["red","blue","green"],"outcomes":[0,0,1],"key":37,"choice":0,"rt":339.1100000590086,"outcome":0,"trial":30,"correct":2,"trial_type":"three-arm-trial","trial_index":43,"time_elapsed":357455,"internal_node_id":"0.0-36.0-0.0","task_version":"screening-mturk","missing":false,"accuracy":0},{"contexts":["red","blue","green"],"outcomes":[0,1,0],"key":39,"choice":2,"rt":352.9150001704693,"outcome":0,"trial":31,"correct":1,"trial_type":"three-arm-trial","trial_index":44,"time_elapsed":359012,"internal_node_id":"0.0-37.0-0.0","task_version":"screening-mturk","missing":false,"accuracy":0},{"contexts":["red","blue","green"],"outcomes":[0,1,0],"key":38,"choice":1,"rt":212.4449999537319,"outcome":1,"trial":32,"correct":1,"trial_type":"three-arm-trial","trial_index":45,"time_elapsed":360432,"internal_node_id":"0.0-38.0-0.0","task_version":"screening-mturk","missing":false,"accuracy":1},{"contexts":["red","blue","green"],"outcomes":[1,1,0],"key":37,"choice":0,"rt":328.0650000087917,"outcome":1,"trial":33,"correct":1,"trial_type":"three-arm-trial","trial_index":46,"time_elapsed":361963,"internal_node_id":"0.0-39.0-0.0","task_version":"screening-mturk","missing":false,"accuracy":0},{"contexts":["red","blue","green"],"outcomes":[0,1,0],"key":39,"choice":2,"rt":149.1599997971207,"outcome":0,"trial":34,"correct":1,"trial_type":"three-arm-trial","trial_index":47,"time_elapsed":363315,"internal_node_id":"0.0-40.0-0.0","task_version":"screening-mturk","missing":false,"accuracy":0},{"contexts":["red","blue","green"],"outcomes":[0,1,0],"key":37,"choice":0,"rt":314.20499994419515,"outcome":0,"trial":35,"correct":1,"trial_type":"three-arm-trial","trial_index":48,"time_elapsed":364832,"internal_node_id":"0.0-41.0-0.0","task_version":"screening-mturk","missing":false,"accuracy":0},{"contexts":["red","blue","green"],"outcomes":[0,1,0],"key":38,"choice":1,"rt":252.04499997198582,"outcome":1,"trial":36,"correct":1,"trial_type":"three-arm-trial","trial_index":49,"time_elapsed":366287,"internal_node_id":"0.0-42.0-0.0","task_version":"screening-mturk","missing":false,"accuracy":1},{"contexts":["red","blue","green"],"outcomes":[1,0,0],"key":39,"choice":2,"rt":23.68500013835728,"outcome":0,"trial":37,"correct":1,"trial_type":"three-arm-trial","trial_index":50,"time_elapsed":367514,"internal_node_id":"0.0-43.0-0.0","task_version":"screening-mturk","missing":false,"accuracy":0},{"contexts":["red","blue","green"],"outcomes":[0,1,0],"key":37,"choice":0,"rt":94.83000007458031,"outcome":0,"trial":38,"correct":1,"trial_type":"three-arm-trial","trial_index":51,"time_elapsed":368812,"internal_node_id":"0.0-44.0-0.0","task_version":"screening-mturk","missing":false,"accuracy":0},{"contexts":["red","blue","green"],"outcomes":[0,0,0],"key":38,"choice":1,"rt":169.02000014670193,"outcome":0,"trial":39,"correct":1,"trial_type":"three-arm-trial","trial_index":52,"time_elapsed":370184,"internal_node_id":"0.0-45.0-0.0","task_version":"screening-mturk","missing":false,"accuracy":1},{"contexts":["red","blue","green"],"outcomes":[0,1,0],"key":39,"choice":2,"rt":4.9600000493228436,"outcome":0,"trial":40,"correct":1,"trial_type":"three-arm-trial","trial_index":53,"time_elapsed":371397,"internal_node_id":"0.0-46.0-0.0","task_version":"screening-mturk","missing":false,"accuracy":0},{"contexts":["red","blue","green"],"outcomes":[0,1,0],"key":37,"choice":0,"rt":484.9350000731647,"outcome":0,"trial":41,"correct":1,"trial_type":"three-arm-trial","trial_index":54,"time_elapsed":373084,"internal_node_id":"0.0-47.0-0.0","task_version":"screening-mturk","missing":false,"accuracy":0},{"contexts":["red","blue","green"],"outcomes":[0,0,0],"key":39,"choice":2,"rt":87.48500002548099,"outcome":0,"trial":42,"correct":1,"trial_type":"three-arm-trial","trial_index":55,"time_elapsed":374374,"internal_node_id":"0.0-48.0-0.0","task_version":"screening-mturk","missing":false,"accuracy":0},{"contexts":["red","blue","green"],"outcomes":[0,1,0],"key":38,"choice":1,"rt":415.0650000665337,"outcome":1,"trial":43,"correct":1,"trial_type":"three-arm-trial","trial_index":56,"time_elapsed":375995,"internal_node_id":"0.0-49.0-0.0","task_version":"screening-mturk","missing":false,"accuracy":1},{"contexts":["red","blue","green"],"outcomes":[1,1,0],"key":37,"choice":0,"rt":274.38500011339784,"outcome":1,"trial":44,"correct":1,"trial_type":"three-arm-trial","trial_index":57,"time_elapsed":377472,"internal_node_id":"0.0-50.0-0.0","task_version":"screening-mturk","missing":false,"accuracy":0},{"contexts":["red","blue","green"],"outcomes":[0,1,0],"key":39,"choice":2,"rt":37.31000004336238,"outcome":0,"trial":45,"correct":1,"trial_type":"three-arm-trial","trial_index":58,"time_elapsed":378712,"internal_node_id":"0.0-51.0-0.0","task_version":"screening-mturk","missing":false,"accuracy":0},{"contexts":["red","blue","green"],"outcomes":[0,0,0],"key":38,"choice":1,"rt":546.7199999839067,"outcome":0,"trial":46,"correct":0,"trial_type":"three-arm-trial","trial_index":59,"time_elapsed":380462,"internal_node_id":"0.0-52.0-0.0","task_version":"screening-mturk","missing":false,"accuracy":0},{"contexts":["red","blue","green"],"outcomes":[1,1,0],"key":37,"choice":0,"rt":46.82999989017844,"outcome":1,"trial":47,"correct":0,"trial_type":"three-arm-trial","trial_index":60,"time_elapsed":381711,"internal_node_id":"0.0-53.0-0.0","task_version":"screening-mturk","missing":false,"accuracy":1},{"contexts":["red","blue","green"],"outcomes":[1,0,1],"key":39,"choice":2,"rt":412.71999990567565,"outcome":1,"trial":48,"correct":0,"trial_type":"three-arm-trial","trial_index":61,"time_elapsed":383327,"internal_node_id":"0.0-54.0-0.0","task_version":"screening-mturk","missing":false,"accuracy":0},{"contexts":["red","blue","green"],"outcomes":[0,0,0],"key":38,"choice":1,"rt":284.12500000558794,"outcome":0,"trial":49,"correct":0,"trial_type":"three-arm-trial","trial_index":62,"time_elapsed":384815,"internal_node_id":"0.0-55.0-0.0","task_version":"screening-mturk","missing":false,"accuracy":0},{"contexts":["red","blue","green"],"outcomes":[1,0,0],"key":39,"choice":2,"rt":34.51000014320016,"outcome":0,"trial":50,"correct":0,"trial_type":"three-arm-trial","trial_index":63,"time_elapsed":386052,"internal_node_id":"0.0-56.0-0.0","task_version":"screening-mturk","missing":false,"accuracy":0},{"contexts":["red","blue","green"],"outcomes":[1,0,0],"key":37,"choice":0,"rt":147.42000005207956,"outcome":1,"trial":51,"correct":0,"trial_type":"three-arm-trial","trial_index":64,"time_elapsed":387402,"internal_node_id":"0.0-57.0-0.0","task_version":"screening-mturk","missing":false,"accuracy":1},{"contexts":["red","blue","green"],"outcomes":[0,1,0],"key":38,"choice":1,"rt":22.785000037401915,"outcome":1,"trial":52,"correct":0,"trial_type":"three-arm-trial","trial_index":65,"time_elapsed":388627,"internal_node_id":"0.0-58.0-0.0","task_version":"screening-mturk","missing":false,"accuracy":0},{"contexts":["red","blue","green"],"outcomes":[1,0,0],"key":38,"choice":1,"rt":571.7849999200553,"outcome":0,"trial":53,"correct":0,"trial_type":"three-arm-trial","trial_index":66,"time_elapsed":390404,"internal_node_id":"0.0-59.0-0.0","task_version":"screening-mturk","missing":false,"accuracy":0},{"contexts":["red","blue","green"],"outcomes":[1,0,1],"key":39,"choice":2,"rt":538.1849999539554,"outcome":1,"trial":54,"correct":0,"trial_type":"three-arm-trial","trial_index":67,"time_elapsed":392146,"internal_node_id":"0.0-60.0-0.0","task_version":"screening-mturk","missing":false,"accuracy":0},{"contexts":["red","blue","green"],"outcomes":[0,0,0],"key":39,"choice":2,"rt":4078.514999942854,"outcome":0,"trial":55,"correct":0,"trial_type":"three-arm-trial","trial_index":68,"time_elapsed":397428,"internal_node_id":"0.0-61.0-0.0","task_version":"screening-mturk","missing":false,"accuracy":0},{"contexts":["red","blue","green"],"outcomes":[1,0,0],"key":37,"choice":0,"rt":111.71499988995492,"outcome":1,"trial":56,"correct":0,"trial_type":"three-arm-trial","trial_index":69,"time_elapsed":398745,"internal_node_id":"0.0-62.0-0.0","task_version":"screening-mturk","missing":false,"accuracy":1},{"contexts":["red","blue","green"],"outcomes":[1,0,0],"key":38,"choice":1,"rt":159.19000003486872,"outcome":0,"trial":57,"correct":0,"trial_type":"three-arm-trial","trial_index":70,"time_elapsed":400111,"internal_node_id":"0.0-63.0-0.0","task_version":"screening-mturk","missing":false,"accuracy":0},{"contexts":["red","blue","green"],"outcomes":[1,1,1],"key":39,"choice":2,"rt":562.9200001712888,"outcome":1,"trial":58,"correct":0,"trial_type":"three-arm-trial","trial_index":71,"time_elapsed":401878,"internal_node_id":"0.0-64.0-0.0","task_version":"screening-mturk","missing":false,"accuracy":0},{"contexts":["red","blue","green"],"outcomes":[1,0,0],"key":37,"choice":0,"rt":314.4249999895692,"outcome":1,"trial":59,"correct":0,"trial_type":"three-arm-trial","trial_index":72,"time_elapsed":403396,"internal_node_id":"0.0-65.0-0.0","task_version":"screening-mturk","missing":false,"accuracy":1},{"contexts":["red","blue","green"],"outcomes":[1,1,1],"key":39,"choice":2,"rt":5620.909999823198,"outcome":1,"trial":60,"correct":0,"trial_type":"three-arm-trial","trial_index":73,"time_elapsed":410220,"internal_node_id":"0.0-66.0-0.0","task_version":"screening-mturk","missing":false,"accuracy":0},{"contexts":["red","blue","green"],"outcomes":[0,1,1],"key":38,"choice":1,"rt":242.9550001397729,"outcome":1,"trial":61,"correct":1,"trial_type":"three-arm-trial","trial_index":74,"time_elapsed":411666,"internal_node_id":"0.0-67.0-0.0","task_version":"screening-mturk","missing":false,"accuracy":1},{"contexts":["red","blue","green"],"outcomes":[0,1,0],"key":37,"choice":0,"rt":272.5150000769645,"outcome":0,"trial":62,"correct":1,"trial_type":"three-arm-trial","trial_index":75,"time_elapsed":413141,"internal_node_id":"0.0-68.0-0.0","task_version":"screening-mturk","missing":false,"accuracy":0},{"contexts":["red","blue","green"],"outcomes":[1,0,1],"key":38,"choice":1,"rt":550.8099999278784,"outcome":0,"trial":63,"correct":1,"trial_type":"three-arm-trial","trial_index":76,"time_elapsed":414895,"internal_node_id":"0.0-69.0-0.0","task_version":"screening-mturk","missing":false,"accuracy":1},{"contexts":["red","blue","green"],"outcomes":[0,0,0],"key":39,"choice":2,"rt":206.41999994404614,"outcome":0,"trial":64,"correct":1,"trial_type":"three-arm-trial","trial_index":77,"time_elapsed":416305,"internal_node_id":"0.0-70.0-0.0","task_version":"screening-mturk","missing":false,"accuracy":0},{"contexts":["red","blue","green"],"outcomes":[0,0,1],"key":37,"choice":0,"rt":457.1100000757724,"outcome":0,"trial":65,"correct":1,"trial_type":"three-arm-trial","trial_index":78,"time_elapsed":417966,"internal_node_id":"0.0-71.0-0.0","task_version":"screening-mturk","missing":false,"accuracy":0},{"contexts":["red","blue","green"],"outcomes":[0,1,0],"key":38,"choice":1,"rt":370.91000005602837,"outcome":1,"trial":66,"correct":1,"trial_type":"three-arm-trial","trial_index":79,"time_elapsed":419541,"internal_node_id":"0.0-72.0-0.0","task_version":"screening-mturk","missing":false,"accuracy":1},{"contexts":["red","blue","green"],"outcomes":[0,1,1],"key":39,"choice":2,"rt":331.8449999205768,"outcome":1,"trial":67,"correct":1,"trial_type":"three-arm-trial","trial_index":80,"time_elapsed":421078,"internal_node_id":"0.0-73.0-0.0","task_version":"screening-mturk","missing":false,"accuracy":0},{"contexts":["red","blue","green"],"outcomes":[1,1,0],"key":37,"choice":0,"rt":1463.7149998452514,"outcome":1,"trial":68,"correct":1,"trial_type":"three-arm-trial","trial_index":81,"time_elapsed":423745,"internal_node_id":"0.0-74.0-0.0","task_version":"screening-mturk","missing":false,"accuracy":0},{"contexts":["red","blue","green"],"outcomes":[0,0,0],"key":39,"choice":2,"rt":1467.1950000338256,"outcome":0,"trial":69,"correct":1,"trial_type":"three-arm-trial","trial_index":82,"time_elapsed":426417,"internal_node_id":"0.0-75.0-0.0","task_version":"screening-mturk","missing":false,"accuracy":0},{"contexts":["red","blue","green"],"outcomes":[0,1,0],"key":37,"choice":0,"rt":141.0199999809265,"outcome":0,"trial":70,"correct":1,"trial_type":"three-arm-trial","trial_index":83,"time_elapsed":427762,"internal_node_id":"0.0-76.0-0.0","task_version":"screening-mturk","missing":false,"accuracy":0},{"contexts":["red","blue","green"],"outcomes":[0,1,0],"key":38,"choice":1,"rt":620.0549998320639,"outcome":1,"trial":71,"correct":1,"trial_type":"three-arm-trial","trial_index":84,"time_elapsed":429585,"internal_node_id":"0.0-77.0-0.0","task_version":"screening-mturk","missing":false,"accuracy":1},{"contexts":["red","blue","green"],"outcomes":[0,1,0],"key":37,"choice":0,"rt":482.8099999576807,"outcome":0,"trial":72,"correct":1,"trial_type":"three-arm-trial","trial_index":85,"time_elapsed":431271,"internal_node_id":"0.0-78.0-0.0","task_version":"screening-mturk","missing":false,"accuracy":0},{"contexts":["red","blue","green"],"outcomes":[0,1,0],"key":39,"choice":2,"rt":721.2449999060482,"outcome":0,"trial":73,"correct":1,"trial_type":"three-arm-trial","trial_index":86,"time_elapsed":433196,"internal_node_id":"0.0-79.0-0.0","task_version":"screening-mturk","missing":false,"accuracy":0},{"contexts":["red","blue","green"],"outcomes":[1,1,0],"key":38,"choice":1,"rt":215.9600001759827,"outcome":1,"trial":74,"correct":1,"trial_type":"three-arm-trial","trial_index":87,"time_elapsed":434615,"internal_node_id":"0.0-80.0-0.0","task_version":"screening-mturk","missing":false,"accuracy":1},{"contexts":["red","blue","green"],"outcomes":[0,1,0],"key":37,"choice":0,"rt":9316.600000020117,"outcome":0,"trial":75,"correct":1,"trial_type":"three-arm-trial","trial_index":88,"time_elapsed":445138,"internal_node_id":"0.0-81.0-0.0","task_version":"screening-mturk","missing":false,"accuracy":0},{"contexts":["red","blue","green"],"outcomes":[0,1,0],"key":39,"choice":2,"rt":282.21500013023615,"outcome":0,"trial":76,"correct":0,"trial_type":"three-arm-trial","trial_index":89,"time_elapsed":446624,"internal_node_id":"0.0-82.0-0.0","task_version":"screening-mturk","missing":false,"accuracy":0},{"contexts":["red","blue","green"],"outcomes":[1,0,0],"key":38,"choice":1,"rt":168.40499988757074,"outcome":0,"trial":77,"correct":0,"trial_type":"three-arm-trial","trial_index":90,"time_elapsed":447995,"internal_node_id":"0.0-83.0-0.0","task_version":"screening-mturk","missing":false,"accuracy":0},{"contexts":["red","blue","green"],"outcomes":[1,0,0],"key":39,"choice":2,"rt":167.16000018641353,"outcome":0,"trial":78,"correct":0,"trial_type":"three-arm-trial","trial_index":91,"time_elapsed":449366,"internal_node_id":"0.0-84.0-0.0","task_version":"screening-mturk","missing":false,"accuracy":0},{"contexts":["red","blue","green"],"outcomes":[1,1,1],"key":37,"choice":0,"rt":706.2950001563877,"outcome":1,"trial":79,"correct":0,"trial_type":"three-arm-trial","trial_index":92,"time_elapsed":451275,"internal_node_id":"0.0-85.0-0.0","task_version":"screening-mturk","missing":false,"accuracy":1},{"contexts":["red","blue","green"],"outcomes":[1,0,0],"key":37,"choice":0,"rt":2372.285000048578,"outcome":1,"trial":80,"correct":0,"trial_type":"three-arm-trial","trial_index":93,"time_elapsed":454850,"internal_node_id":"0.0-86.0-0.0","task_version":"screening-mturk","missing":false,"accuracy":1},{"contexts":["red","blue","green"],"outcomes":[0,0,1],"key":38,"choice":1,"rt":492.0649998821318,"outcome":0,"trial":81,"correct":0,"trial_type":"three-arm-trial","trial_index":94,"time_elapsed":456546,"internal_node_id":"0.0-87.0-0.0","task_version":"screening-mturk","missing":false,"accuracy":0},{"contexts":["red","blue","green"],"outcomes":[1,0,1],"key":37,"choice":0,"rt":426.39999999664724,"outcome":1,"trial":82,"correct":0,"trial_type":"three-arm-trial","trial_index":95,"time_elapsed":458175,"internal_node_id":"0.0-88.0-0.0","task_version":"screening-mturk","missing":false,"accuracy":1},{"contexts":["red","blue","green"],"outcomes":[1,0,0],"key":39,"choice":2,"rt":156.88000014051795,"outcome":0,"trial":83,"correct":0,"trial_type":"three-arm-trial","trial_index":96,"time_elapsed":459535,"internal_node_id":"0.0-89.0-0.0","task_version":"screening-mturk","missing":false,"accuracy":0},{"contexts":["red","blue","green"],"outcomes":[1,0,0],"key":37,"choice":0,"rt":367.20499978400767,"outcome":1,"trial":84,"correct":0,"trial_type":"three-arm-trial","trial_index":97,"time_elapsed":461105,"internal_node_id":"0.0-90.0-0.0","task_version":"screening-mturk","missing":false,"accuracy":1},{"contexts":["red","blue","green"],"outcomes":[1,1,1],"key":38,"choice":1,"rt":13.479999965056777,"outcome":1,"trial":85,"correct":0,"trial_type":"three-arm-trial","trial_index":98,"time_elapsed":462320,"internal_node_id":"0.0-91.0-0.0","task_version":"screening-mturk","missing":false,"accuracy":0},{"contexts":["red","blue","green"],"outcomes":[1,0,0],"key":37,"choice":0,"rt":90.89499991387129,"outcome":1,"trial":86,"correct":0,"trial_type":"three-arm-trial","trial_index":99,"time_elapsed":463616,"internal_node_id":"0.0-92.0-0.0","task_version":"screening-mturk","missing":false,"accuracy":1},{"contexts":["red","blue","green"],"outcomes":[1,1,0],"key":38,"choice":1,"rt":204.79499991051853,"outcome":1,"trial":87,"correct":0,"trial_type":"three-arm-trial","trial_index":100,"time_elapsed":465024,"internal_node_id":"0.0-93.0-0.0","task_version":"screening-mturk","missing":false,"accuracy":0},{"contexts":["red","blue","green"],"outcomes":[1,0,0],"key":37,"choice":0,"rt":297.2349999472499,"outcome":1,"trial":88,"correct":0,"trial_type":"three-arm-trial","trial_index":101,"time_elapsed":466528,"internal_node_id":"0.0-94.0-0.0","task_version":"screening-mturk","missing":false,"accuracy":1},{"contexts":["red","blue","green"],"outcomes":[1,1,0],"key":38,"choice":1,"rt":29.58500012755394,"outcome":1,"trial":89,"correct":0,"trial_type":"three-arm-trial","trial_index":102,"time_elapsed":467761,"internal_node_id":"0.0-95.0-0.0","task_version":"screening-mturk","missing":false,"accuracy":0},{"contexts":["red","blue","green"],"outcomes":[0,0,0],"key":37,"choice":0,"rt":880.6499999482185,"outcome":0,"trial":90,"correct":0,"trial_type":"three-arm-trial","trial_index":103,"time_elapsed":469843,"internal_node_id":"0.0-96.0-0.0","task_version":"screening-mturk","missing":false,"accuracy":1},{"rt":27618.305000010878,"responses":{"age":"45","gender-categorical":"Male","gender-free-response":"","ethnicity":"Not Hispanic or Latino","race":["White"],"language":"Yes","fluency":"Well","prolific":"No","prolific-this-study":"No"},"survey":"demographics","trial_type":"survey-demo","trial_index":104,"time_elapsed":497466,"internal_node_id":"0.0-97.0","task_version":"screening-mturk","interactions":"[{\"event\":\"blur\",\"trial\":104,\"time\":494398},{\"event\":\"focus\",\"trial\":104,\"time\":494706}]"}]