[{"responses":{"Q02":"3","Q01":"4","Q03":"3"},"rt":76868.99999994785,"survey":"pswq","trial_type":"survey-template","trial_index":0,"time_elapsed":76932,"internal_node_id":"0.0-0.0","task_version":"screening-mturk"},{"responses":{"Q03":"2","Q14":"3","Q09":"2","Q13":"1","Q04":"2","Q06":"3","Q08":"2","Q15":"3","Q12":"2","Q05":"3","Q02":"2","Q07":"1","Q11":"2","Q01":"3","Q10":"2"},"rt":29738.99999994319,"survey":"shaps","trial_type":"survey-template","trial_index":1,"time_elapsed":106701,"internal_node_id":"0.0-1.0","task_version":"screening-mturk"},{"responses":{"Q05":"2","Q08":"1","Q07":"2","Q06":"3","Q02":"2","Q04":"1","Q03":"2","Q01":"3"},"rt":108724.00000004563,"survey":"gad7","trial_type":"survey-template","trial_index":2,"time_elapsed":215433,"internal_node_id":"0.0-2.0","task_version":"screening-mturk"},{"responses":{"Q06":"2","Q12":"3","Q01":"2","Q03":"1","Q09":"2","Q04":"3","Q08":"2","Q11":"2","Q07":"3","Q13":"2","Q05":"1","Q02":"2","Q10":"3"},"rt":25061.000000103377,"survey":"bisbas","trial_type":"survey-template","trial_index":3,"time_elapsed":240520,"internal_node_id":"0.0-3.0","task_version":"screening-mturk"},{"responses":{"Q15":"2","Q04":"3","Q01":"2","Q03":"3","Q11":"2","Q12":"1","Q08":"2","Q02":"3","Q09":"1","Q10":"2","Q06":"3","Q14":"2","Q05":"1","Q13":"2","Q07":"3"},"rt":54229.00000005029,"survey":"7up7down","trial_type":"survey-template","trial_index":4,"time_elapsed":294765,"internal_node_id":"0.0-4.0","task_version":"screening-mturk"},{"view_history":"[{\"page_index\":0,\"viewing_time\":5150.999999954365},{\"page_index\":1,\"viewing_time\":1678.0000000726432},{\"page_index\":2,\"viewing_time\":2941.9999999227},{\"page_index\":3,\"viewing_time\":2082.9999999841675},{\"page_index\":4,\"viewing_time\":16.99999999254942},{\"page_index\":3,\"viewing_time\":312.00000003445894},{\"page_index\":4,\"viewing_time\":1.9999999785795808},{\"page_index\":3,\"viewing_time\":2761.999999987893},{\"page_index\":4,\"viewing_time\":1123.0000000214204},{\"page_index\":5,\"viewing_time\":1307.0000000298023},{\"page_index\":6,\"viewing_time\":1707.9999999841675},{\"page_index\":7,\"viewing_time\":1084.999999962747}]","rt":20169.999999925494,"trial_type":"instructions","trial_index":5,"time_elapsed":314946,"internal_node_id":"0.0-5.0-0.0","task_version":"screening-mturk"},{"responses":["False","True","False","True","False"],"num_errors":3,"rt":51183.0000000773,"trial_type":"three-arm-comprehension","trial_index":6,"time_elapsed":366208,"internal_node_id":"0.0-5.0-1.0","task_version":"screening-mturk"},{"view_history":"[{\"page_index\":0,\"viewing_time\":5894.000000087544},{\"page_index\":1,\"viewing_time\":1299.9999999301508},{\"page_index\":2,\"viewing_time\":1835.0000000791624},{\"page_index\":3,\"viewing_time\":1375.9999999310821},{\"page_index\":4,\"viewing_time\":898.9999999757856},{\"page_index\":5,\"viewing_time\":988.0000000121072},{\"page_index\":6,\"viewing_time\":845.0000000884756},{\"page_index\":7,\"viewing_time\":841.9999999459833}]","rt":13985.000000102445,"trial_type":"instructions","trial_index":7,"time_elapsed":380236,"internal_node_id":"0.0-5.1-0.1","task_version":"screening-mturk"},{"responses":["True","True","True","True","True"],"num_errors":2,"rt":10941.000000108033,"trial_type":"three-arm-comprehension","trial_index":8,"time_elapsed":391189,"internal_node_id":"0.0-5.1-1.1","task_version":"screening-mturk"},{"view_history":"[{\"page_index\":0,\"viewing_time\":14849.000000045635},{\"page_index\":1,\"viewing_time\":4620.9999999264255},{\"page_index\":2,\"viewing_time\":3001.9999999785796},{\"page_index\":3,\"viewing_time\":2945.0000000651926},{\"page_index\":4,\"viewing_time\":3728.000000002794},{\"page_index\":5,\"viewing_time\":2758.999999961816},{\"page_index\":6,\"viewing_time\":3067.0000000391155},{\"page_index\":7,\"viewing_time\":3314.0000000130385}]","rt":38312.99999996554,"trial_type":"instructions","trial_index":9,"time_elapsed":429520,"internal_node_id":"0.0-5.2-0.2","task_version":"screening-mturk"},{"responses":["False","False","True","False","False"],"num_errors":4,"rt":69717.99999999348,"trial_type":"three-arm-comprehension","trial_index":10,"time_elapsed":499251,"internal_node_id":"0.0-5.2-1.2","task_version":"screening-mturk"},{"view_history":"[{\"page_index\":0,\"viewing_time\":1445.0000000651926},{\"page_index\":1,\"viewing_time\":143.999999971129},{\"page_index\":2,\"viewing_time\":209.00000003166497},{\"page_index\":3,\"viewing_time\":145.99999994970858},{\"page_index\":4,\"viewing_time\":178.00000007264316},{\"page_index\":5,\"viewing_time\":652.9999999329448},{\"page_index\":6,\"viewing_time\":754.0000000735745},{\"page_index\":7,\"viewing_time\":706.9999999366701}]","rt":4236.000000033528,"trial_type":"instructions","trial_index":11,"time_elapsed":503491,"internal_node_id":"0.0-5.3-0.3","task_version":"screening-mturk"},{"responses":["True","True","False","False","True"],"num_errors":0,"rt":6159.000000101514,"trial_type":"three-arm-comprehension","trial_index":12,"time_elapsed":509659,"internal_node_id":"0.0-5.3-1.3","task_version":"screening-mturk"},{"view_history":"[{\"page_index\":0,\"viewing_time\":3138.0000000353903}]","rt":3138.0000000353903,"trial_type":"instructions","trial_index":13,"time_elapsed":512811,"internal_node_id":"0.0-6.0","task_version":"screening-mturk"},{"contexts":["green","red","blue"],"outcomes":[0,1,0],"key":null,"rt":null,"trial":1,"correct":1,"trial_type":"three-arm-trial","trial_index":14,"time_elapsed":527856,"internal_node_id":"0.0-7.0-0.0","task_version":"screening-mturk","missing":true},{"contexts":["green","red","blue"],"outcomes":[0,1,0],"key":39,"choice":2,"rt":1738.0000000121072,"outcome":0,"trial":1,"correct":1,"trial_type":"three-arm-trial","trial_index":15,"time_elapsed":530829,"internal_node_id":"0.0-7.1-0.1","task_version":"screening-mturk","missing":false,"accuracy":0},{"contexts":["green","red","blue"],"outcomes":[1,1,0],"key":37,"choice":0,"rt":253.00000002607703,"outcome":1,"trial":2,"correct":1,"trial_type":"three-arm-trial","trial_index":16,"time_elapsed":532291,"internal_node_id":"0.0-8.0-0.0","task_version":"screening-mturk","missing":false,"accuracy":0},{"contexts":["green","red","blue"],"outcomes":[0,1,0],"key":39,"choice":2,"rt":12.000000104308128,"outcome":0,"trial":3,"correct":1,"trial_type":"three-arm-trial","trial_index":17,"time_elapsed":533520,"internal_node_id":"0.0-9.0-0.0","task_version":"screening-mturk","missing":false,"accuracy":0},{"contexts":["green","red","blue"],"outcomes":[0,0,0],"key":39,"choice":2,"rt":5.000000004656613,"outcome":0,"trial":4,"correct":1,"trial_type":"three-arm-trial","trial_index":18,"time_elapsed":534728,"internal_node_id":"0.0-10.0-0.0","task_version":"screening-mturk","missing":false,"accuracy":0},{"contexts":["green","red","blue"],"outcomes":[0,1,0],"key":39,"choice":2,"rt":27.999999932944775,"outcome":0,"trial":5,"correct":1,"trial_type":"three-arm-trial","trial_index":19,"time_elapsed":536103,"internal_node_id":"0.0-11.0-0.0","task_version":"screening-mturk","missing":false,"accuracy":0},{"contexts":["green","red","blue"],"outcomes":[1,0,0],"key":39,"choice":2,"rt":150.9999999543652,"outcome":0,"trial":6,"correct":1,"trial_type":"three-arm-trial","trial_index":20,"time_elapsed":537484,"internal_node_id":"0.0-12.0-0.0","task_version":"screening-mturk","missing":false,"accuracy":0},{"contexts":["green","red","blue"],"outcomes":[0,1,0],"key":39,"choice":2,"rt":471.0000000195578,"outcome":0,"trial":7,"correct":1,"trial_type":"three-arm-trial","trial_index":21,"time_elapsed":539167,"internal_node_id":"0.0-13.0-0.0","task_version":"screening-mturk","missing":false,"accuracy":0},{"contexts":["green","red","blue"],"outcomes":[0,1,0],"key":37,"choice":0,"rt":76.00000000093132,"outcome":0,"trial":8,"correct":1,"trial_type":"three-arm-trial","trial_index":22,"time_elapsed":540487,"internal_node_id":"0.0-14.0-0.0","task_version":"screening-mturk","missing":false,"accuracy":0},{"contexts":["green","red","blue"],"outcomes":[0,1,1],"key":37,"choice":0,"rt":77.00000004842877,"outcome":0,"trial":9,"correct":1,"trial_type":"three-arm-trial","trial_index":23,"time_elapsed":541813,"internal_node_id":"0.0-15.0-0.0","task_version":"screening-mturk","missing":false,"accuracy":0},{"contexts":["green","red","blue"],"outcomes":[0,0,0],"key":39,"choice":2,"rt":15.999999945051968,"outcome":0,"trial":10,"correct":1,"trial_type":"three-arm-trial","trial_index":24,"time_elapsed":543050,"internal_node_id":"0.0-16.0-0.0","task_version":"screening-mturk","missing":false,"accuracy":0},{"contexts":["green","red","blue"],"outcomes":[0,1,0],"key":37,"choice":0,"rt":60.999999986961484,"outcome":0,"trial":11,"correct":1,"trial_type":"three-arm-trial","trial_index":25,"time_elapsed":544322,"internal_node_id":"0.0-17.0-0.0","task_version":"screening-mturk","missing":false,"accuracy":0},{"contexts":["green","red","blue"],"outcomes":[1,0,0],"key":39,"choice":2,"rt":12.000000104308128,"outcome":0,"trial":12,"correct":1,"trial_type":"three-arm-trial","trial_index":26,"time_elapsed":545551,"internal_node_id":"0.0-18.0-0.0","task_version":"screening-mturk","missing":false,"accuracy":0},{"contexts":["green","red","blue"],"outcomes":[0,1,0],"key":37,"choice":0,"rt":232.00000007636845,"outcome":0,"trial":13,"correct":1,"trial_type":"three-arm-trial","trial_index":27,"time_elapsed":546992,"internal_node_id":"0.0-19.0-0.0","task_version":"screening-mturk","missing":false,"accuracy":0},{"contexts":["green","red","blue"],"outcomes":[0,0,0],"key":39,"choice":2,"rt":52.99999995622784,"outcome":0,"trial":14,"correct":1,"trial_type":"three-arm-trial","trial_index":28,"time_elapsed":548252,"internal_node_id":"0.0-20.0-0.0","task_version":"screening-mturk","missing":false,"accuracy":0},{"contexts":["green","red","blue"],"outcomes":[0,1,0],"key":37,"choice":0,"rt":197.9999999748543,"outcome":0,"trial":15,"correct":1,"trial_type":"three-arm-trial","trial_index":29,"time_elapsed":549659,"internal_node_id":"0.0-21.0-0.0","task_version":"screening-mturk","missing":false,"accuracy":0},{"contexts":["green","red","blue"],"outcomes":[0,0,1],"key":37,"choice":0,"rt":248.00000002142042,"outcome":0,"trial":16,"correct":2,"trial_type":"three-arm-trial","trial_index":30,"time_elapsed":551148,"internal_node_id":"0.0-22.0-0.0","task_version":"screening-mturk","missing":false,"accuracy":0},{"contexts":["green","red","blue"],"outcomes":[0,0,1],"key":37,"choice":0,"rt":20.99999994970858,"outcome":0,"trial":17,"correct":2,"trial_type":"three-arm-trial","trial_index":31,"time_elapsed":552529,"internal_node_id":"0.0-23.0-0.0","task_version":"screening-mturk","missing":false,"accuracy":0},{"contexts":["green","red","blue"],"outcomes":[0,0,1],"key":39,"choice":2,"rt":109.00000005494803,"outcome":1,"trial":18,"correct":2,"trial_type":"three-arm-trial","trial_index":32,"time_elapsed":553865,"internal_node_id":"0.0-24.0-0.0","task_version":"screening-mturk","missing":false,"accuracy":1},{"contexts":["green","red","blue"],"outcomes":[1,0,1],"key":37,"choice":0,"rt":293.99999999441206,"outcome":1,"trial":19,"correct":2,"trial_type":"three-arm-trial","trial_index":33,"time_elapsed":555386,"internal_node_id":"0.0-25.0-0.0","task_version":"screening-mturk","missing":false,"accuracy":0},{"contexts":["green","red","blue"],"outcomes":[0,0,1],"key":37,"choice":0,"rt":0,"outcome":0,"trial":20,"correct":2,"trial_type":"three-arm-trial","trial_index":34,"time_elapsed":556689,"internal_node_id":"0.0-26.0-0.0","task_version":"screening-mturk","missing":false,"accuracy":0},{"contexts":["green","red","blue"],"outcomes":[0,0,1],"key":39,"choice":2,"rt":131.00000005215406,"outcome":1,"trial":21,"correct":2,"trial_type":"three-arm-trial","trial_index":35,"time_elapsed":558040,"internal_node_id":"0.0-27.0-0.0","task_version":"screening-mturk","missing":false,"accuracy":1},{"contexts":["green","red","blue"],"outcomes":[0,0,1],"key":39,"choice":2,"rt":134.0000000782311,"outcome":1,"trial":22,"correct":2,"trial_type":"three-arm-trial","trial_index":36,"time_elapsed":559398,"internal_node_id":"0.0-28.0-0.0","task_version":"screening-mturk","missing":false,"accuracy":1},{"contexts":["green","red","blue"],"outcomes":[0,0,1],"key":37,"choice":0,"rt":50.00000004656613,"outcome":0,"trial":23,"correct":2,"trial_type":"three-arm-trial","trial_index":37,"time_elapsed":560704,"internal_node_id":"0.0-29.0-0.0","task_version":"screening-mturk","missing":false,"accuracy":0},{"contexts":["green","red","blue"],"outcomes":[0,1,1],"key":37,"choice":0,"rt":133.00000003073364,"outcome":0,"trial":24,"correct":2,"trial_type":"three-arm-trial","trial_index":38,"time_elapsed":562064,"internal_node_id":"0.0-30.0-0.0","task_version":"screening-mturk","missing":false,"accuracy":0},{"contexts":["green","red","blue"],"outcomes":[0,0,1],"key":37,"choice":0,"rt":244.9999999953434,"outcome":0,"trial":25,"correct":2,"trial_type":"three-arm-trial","trial_index":39,"time_elapsed":563551,"internal_node_id":"0.0-31.0-0.0","task_version":"screening-mturk","missing":false,"accuracy":0},{"contexts":["green","red","blue"],"outcomes":[0,0,1],"key":37,"choice":0,"rt":0.9999999310821295,"outcome":0,"trial":26,"correct":2,"trial_type":"three-arm-trial","trial_index":40,"time_elapsed":564819,"internal_node_id":"0.0-32.0-0.0","task_version":"screening-mturk","missing":false,"accuracy":0},{"contexts":["green","red","blue"],"outcomes":[0,0,1],"key":37,"choice":0,"rt":18.999999971129,"outcome":0,"trial":27,"correct":2,"trial_type":"three-arm-trial","trial_index":41,"time_elapsed":566069,"internal_node_id":"0.0-33.0-0.0","task_version":"screening-mturk","missing":false,"accuracy":0},{"contexts":["green","red","blue"],"outcomes":[0,0,1],"key":37,"choice":0,"rt":29.999999911524355,"outcome":0,"trial":28,"correct":2,"trial_type":"three-arm-trial","trial_index":42,"time_elapsed":567313,"internal_node_id":"0.0-34.0-0.0","task_version":"screening-mturk","missing":false,"accuracy":0},{"contexts":["green","red","blue"],"outcomes":[0,1,1],"key":37,"choice":0,"rt":321.99999992735684,"outcome":0,"trial":29,"correct":2,"trial_type":"three-arm-trial","trial_index":43,"time_elapsed":568840,"internal_node_id":"0.0-35.0-0.0","task_version":"screening-mturk","missing":false,"accuracy":0},{"contexts":["green","red","blue"],"outcomes":[0,0,1],"key":39,"choice":2,"rt":140.00000001396984,"outcome":1,"trial":30,"correct":2,"trial_type":"three-arm-trial","trial_index":44,"time_elapsed":570207,"internal_node_id":"0.0-36.0-0.0","task_version":"screening-mturk","missing":false,"accuracy":1},{"contexts":["green","red","blue"],"outcomes":[1,0,1],"key":39,"choice":2,"rt":179.0000000037253,"outcome":1,"trial":31,"correct":0,"trial_type":"three-arm-trial","trial_index":45,"time_elapsed":571592,"internal_node_id":"0.0-37.0-0.0","task_version":"screening-mturk","missing":false,"accuracy":0},{"contexts":["green","red","blue"],"outcomes":[1,0,0],"key":37,"choice":0,"rt":123.00000002142042,"outcome":1,"trial":32,"correct":0,"trial_type":"three-arm-trial","trial_index":46,"time_elapsed":572919,"internal_node_id":"0.0-38.0-0.0","task_version":"screening-mturk","missing":false,"accuracy":1},{"contexts":["green","red","blue"],"outcomes":[1,0,0],"key":37,"choice":0,"rt":87.99999998882413,"outcome":1,"trial":33,"correct":0,"trial_type":"three-arm-trial","trial_index":47,"time_elapsed":574212,"internal_node_id":"0.0-39.0-0.0","task_version":"screening-mturk","missing":false,"accuracy":1},{"contexts":["green","red","blue"],"outcomes":[1,1,0],"key":39,"choice":2,"rt":643.999999971129,"outcome":0,"trial":34,"correct":0,"trial_type":"three-arm-trial","trial_index":48,"time_elapsed":576154,"internal_node_id":"0.0-40.0-0.0","task_version":"screening-mturk","missing":false,"accuracy":0},{"contexts":["green","red","blue"],"outcomes":[1,0,1],"key":37,"choice":0,"rt":125,"outcome":1,"trial":35,"correct":0,"trial_type":"three-arm-trial","trial_index":49,"time_elapsed":577527,"internal_node_id":"0.0-41.0-0.0","task_version":"screening-mturk","missing":false,"accuracy":1},{"contexts":["green","red","blue"],"outcomes":[1,0,0],"key":37,"choice":0,"rt":10.000000009313226,"outcome":1,"trial":36,"correct":0,"trial_type":"three-arm-trial","trial_index":50,"time_elapsed":578745,"internal_node_id":"0.0-42.0-0.0","task_version":"screening-mturk","missing":false,"accuracy":1},{"contexts":["green","red","blue"],"outcomes":[1,0,1],"key":39,"choice":2,"rt":20.00000001862645,"outcome":1,"trial":37,"correct":0,"trial_type":"three-arm-trial","trial_index":51,"time_elapsed":580016,"internal_node_id":"0.0-43.0-0.0","task_version":"screening-mturk","missing":false,"accuracy":0},{"contexts":["green","red","blue"],"outcomes":[0,0,0],"key":39,"choice":2,"rt":96.00000001955777,"outcome":0,"trial":38,"correct":0,"trial_type":"three-arm-trial","trial_index":52,"time_elapsed":581324,"internal_node_id":"0.0-44.0-0.0","task_version":"screening-mturk","missing":false,"accuracy":0},{"contexts":["green","red","blue"],"outcomes":[1,1,1],"key":37,"choice":0,"rt":0,"outcome":1,"trial":39,"correct":0,"trial_type":"three-arm-trial","trial_index":53,"time_elapsed":582554,"internal_node_id":"0.0-45.0-0.0","task_version":"screening-mturk","missing":false,"accuracy":1},{"contexts":["green","red","blue"],"outcomes":[1,0,1],"key":37,"choice":0,"rt":74.00000002235174,"outcome":1,"trial":40,"correct":0,"trial_type":"three-arm-trial","trial_index":54,"time_elapsed":583830,"internal_node_id":"0.0-46.0-0.0","task_version":"screening-mturk","missing":false,"accuracy":1},{"contexts":["green","red","blue"],"outcomes":[1,0,1],"key":37,"choice":0,"rt":23.999999975785613,"outcome":1,"trial":41,"correct":0,"trial_type":"three-arm-trial","trial_index":55,"time_elapsed":585059,"internal_node_id":"0.0-47.0-0.0","task_version":"screening-mturk","missing":false,"accuracy":1},{"contexts":["green","red","blue"],"outcomes":[1,0,1],"key":37,"choice":0,"rt":467.0000000623986,"outcome":1,"trial":42,"correct":0,"trial_type":"three-arm-trial","trial_index":56,"time_elapsed":586748,"internal_node_id":"0.0-48.0-0.0","task_version":"screening-mturk","missing":false,"accuracy":1},{"contexts":["green","red","blue"],"outcomes":[1,0,0],"key":37,"choice":0,"rt":157.00000000651926,"outcome":1,"trial":43,"correct":0,"trial_type":"three-arm-trial","trial_index":57,"time_elapsed":588114,"internal_node_id":"0.0-49.0-0.0","task_version":"screening-mturk","missing":false,"accuracy":1},{"contexts":["green","red","blue"],"outcomes":[1,0,0],"key":37,"choice":0,"rt":118.0000000167638,"outcome":1,"trial":44,"correct":0,"trial_type":"three-arm-trial","trial_index":58,"time_elapsed":589440,"internal_node_id":"0.0-50.0-0.0","task_version":"screening-mturk","missing":false,"accuracy":1},{"contexts":["green","red","blue"],"outcomes":[0,0,0],"key":37,"choice":0,"rt":57.99999996088445,"outcome":0,"trial":45,"correct":0,"trial_type":"three-arm-trial","trial_index":59,"time_elapsed":590740,"internal_node_id":"0.0-51.0-0.0","task_version":"screening-mturk","missing":false,"accuracy":1},{"contexts":["green","red","blue"],"outcomes":[0,1,1],"key":39,"choice":2,"rt":258.00000003073364,"outcome":1,"trial":46,"correct":2,"trial_type":"three-arm-trial","trial_index":60,"time_elapsed":592231,"internal_node_id":"0.0-52.0-0.0","task_version":"screening-mturk","missing":false,"accuracy":1},{"contexts":["green","red","blue"],"outcomes":[0,0,1],"key":39,"choice":2,"rt":270.00000001862645,"outcome":1,"trial":47,"correct":2,"trial_type":"three-arm-trial","trial_index":61,"time_elapsed":593730,"internal_node_id":"0.0-53.0-0.0","task_version":"screening-mturk","missing":false,"accuracy":1},{"contexts":["green","red","blue"],"outcomes":[0,1,0],"key":37,"choice":0,"rt":163.99999998975545,"outcome":0,"trial":48,"correct":2,"trial_type":"three-arm-trial","trial_index":62,"time_elapsed":595102,"internal_node_id":"0.0-54.0-0.0","task_version":"screening-mturk","missing":false,"accuracy":0},{"contexts":["green","red","blue"],"outcomes":[0,0,0],"key":37,"choice":0,"rt":47.0000000204891,"outcome":0,"trial":49,"correct":2,"trial_type":"three-arm-trial","trial_index":63,"time_elapsed":596386,"internal_node_id":"0.0-55.0-0.0","task_version":"screening-mturk","missing":false,"accuracy":0},{"contexts":["green","red","blue"],"outcomes":[0,0,1],"key":39,"choice":2,"rt":396.99999999720603,"outcome":1,"trial":50,"correct":2,"trial_type":"three-arm-trial","trial_index":64,"time_elapsed":598036,"internal_node_id":"0.0-56.0-0.0","task_version":"screening-mturk","missing":false,"accuracy":1},{"contexts":["green","red","blue"],"outcomes":[0,0,1],"key":37,"choice":0,"rt":430.99999998230487,"outcome":0,"trial":51,"correct":2,"trial_type":"three-arm-trial","trial_index":65,"time_elapsed":599682,"internal_node_id":"0.0-57.0-0.0","task_version":"screening-mturk","missing":false,"accuracy":0},{"contexts":["green","red","blue"],"outcomes":[0,1,1],"key":37,"choice":0,"rt":170.00000004190952,"outcome":0,"trial":52,"correct":2,"trial_type":"three-arm-trial","trial_index":66,"time_elapsed":601088,"internal_node_id":"0.0-58.0-0.0","task_version":"screening-mturk","missing":false,"accuracy":0},{"contexts":["green","red","blue"],"outcomes":[0,0,1],"key":37,"choice":0,"rt":5.999999935738742,"outcome":0,"trial":53,"correct":2,"trial_type":"three-arm-trial","trial_index":67,"time_elapsed":602312,"internal_node_id":"0.0-59.0-0.0","task_version":"screening-mturk","missing":false,"accuracy":0},{"contexts":["green","red","blue"],"outcomes":[0,0,1],"key":37,"choice":0,"rt":198.0000000912696,"outcome":0,"trial":54,"correct":2,"trial_type":"three-arm-trial","trial_index":68,"time_elapsed":603743,"internal_node_id":"0.0-60.0-0.0","task_version":"screening-mturk","missing":false,"accuracy":0},{"contexts":["green","red","blue"],"outcomes":[0,0,0],"key":37,"choice":0,"rt":279.00000009685755,"outcome":0,"trial":55,"correct":2,"trial_type":"three-arm-trial","trial_index":69,"time_elapsed":605242,"internal_node_id":"0.0-61.0-0.0","task_version":"screening-mturk","missing":false,"accuracy":0},{"contexts":["green","red","blue"],"outcomes":[0,0,1],"key":37,"choice":0,"rt":198.99999990593642,"outcome":0,"trial":56,"correct":2,"trial_type":"three-arm-trial","trial_index":70,"time_elapsed":606658,"internal_node_id":"0.0-62.0-0.0","task_version":"screening-mturk","missing":false,"accuracy":0},{"contexts":["green","red","blue"],"outcomes":[1,0,1],"key":37,"choice":0,"rt":353.00000000279397,"outcome":1,"trial":57,"correct":2,"trial_type":"three-arm-trial","trial_index":71,"time_elapsed":608260,"internal_node_id":"0.0-63.0-0.0","task_version":"screening-mturk","missing":false,"accuracy":0},{"contexts":["green","red","blue"],"outcomes":[0,0,0],"key":37,"choice":0,"rt":304.0000000037253,"outcome":0,"trial":58,"correct":2,"trial_type":"three-arm-trial","trial_index":72,"time_elapsed":609855,"internal_node_id":"0.0-64.0-0.0","task_version":"screening-mturk","missing":false,"accuracy":0},{"contexts":["green","red","blue"],"outcomes":[0,1,1],"key":37,"choice":0,"rt":787.0000000111759,"outcome":0,"trial":59,"correct":2,"trial_type":"three-arm-trial","trial_index":73,"time_elapsed":611858,"internal_node_id":"0.0-65.0-0.0","task_version":"screening-mturk","missing":false,"accuracy":0},{"contexts":["green","red","blue"],"outcomes":[0,0,1],"key":37,"choice":0,"rt":130.0000000046566,"outcome":0,"trial":60,"correct":2,"trial_type":"three-arm-trial","trial_index":74,"time_elapsed":613201,"internal_node_id":"0.0-66.0-0.0","task_version":"screening-mturk","missing":false,"accuracy":0},{"contexts":["green","red","blue"],"outcomes":[1,0,0],"key":37,"choice":0,"rt":375,"outcome":1,"trial":61,"correct":0,"trial_type":"three-arm-trial","trial_index":75,"time_elapsed":614832,"internal_node_id":"0.0-67.0-0.0","task_version":"screening-mturk","missing":false,"accuracy":1},{"contexts":["green","red","blue"],"outcomes":[1,0,0],"key":37,"choice":0,"rt":277.9999999329448,"outcome":1,"trial":62,"correct":0,"trial_type":"three-arm-trial","trial_index":76,"time_elapsed":616377,"internal_node_id":"0.0-68.0-0.0","task_version":"screening-mturk","missing":false,"accuracy":1},{"contexts":["green","red","blue"],"outcomes":[0,0,0],"key":37,"choice":0,"rt":427.0000000251457,"outcome":0,"trial":63,"correct":0,"trial_type":"three-arm-trial","trial_index":77,"time_elapsed":618014,"internal_node_id":"0.0-69.0-0.0","task_version":"screening-mturk","missing":false,"accuracy":1},{"contexts":["green","red","blue"],"outcomes":[1,0,0],"key":37,"choice":0,"rt":366.99999996926636,"outcome":1,"trial":64,"correct":0,"trial_type":"three-arm-trial","trial_index":78,"time_elapsed":619616,"internal_node_id":"0.0-70.0-0.0","task_version":"screening-mturk","missing":false,"accuracy":1},{"contexts":["green","red","blue"],"outcomes":[1,0,1],"key":37,"choice":0,"rt":342.0000000623986,"outcome":1,"trial":65,"correct":0,"trial_type":"three-arm-trial","trial_index":79,"time_elapsed":621168,"internal_node_id":"0.0-71.0-0.0","task_version":"screening-mturk","missing":false,"accuracy":1},{"contexts":["green","red","blue"],"outcomes":[1,0,1],"key":37,"choice":0,"rt":956.0000000055879,"outcome":1,"trial":66,"correct":0,"trial_type":"three-arm-trial","trial_index":80,"time_elapsed":623355,"internal_node_id":"0.0-72.0-0.0","task_version":"screening-mturk","missing":false,"accuracy":1},{"contexts":["green","red","blue"],"outcomes":[1,0,0],"key":37,"choice":0,"rt":113.99999994318932,"outcome":1,"trial":67,"correct":0,"trial_type":"three-arm-trial","trial_index":81,"time_elapsed":624690,"internal_node_id":"0.0-73.0-0.0","task_version":"screening-mturk","missing":false,"accuracy":1},{"contexts":["green","red","blue"],"outcomes":[1,0,1],"key":37,"choice":0,"rt":640.0000000139698,"outcome":1,"trial":68,"correct":0,"trial_type":"three-arm-trial","trial_index":82,"time_elapsed":626571,"internal_node_id":"0.0-74.0-0.0","task_version":"screening-mturk","missing":false,"accuracy":1},{"contexts":["green","red","blue"],"outcomes":[1,0,0],"key":37,"choice":0,"rt":316.9999999227002,"outcome":1,"trial":69,"correct":0,"trial_type":"three-arm-trial","trial_index":83,"time_elapsed":628095,"internal_node_id":"0.0-75.0-0.0","task_version":"screening-mturk","missing":false,"accuracy":1},{"contexts":["green","red","blue"],"outcomes":[0,0,0],"key":37,"choice":0,"rt":91.99999994598329,"outcome":0,"trial":70,"correct":0,"trial_type":"three-arm-trial","trial_index":84,"time_elapsed":629437,"internal_node_id":"0.0-76.0-0.0","task_version":"screening-mturk","missing":false,"accuracy":1},{"contexts":["green","red","blue"],"outcomes":[1,0,1],"key":37,"choice":0,"rt":702.0000000484288,"outcome":1,"trial":71,"correct":0,"trial_type":"three-arm-trial","trial_index":85,"time_elapsed":631368,"internal_node_id":"0.0-77.0-0.0","task_version":"screening-mturk","missing":false,"accuracy":1},{"contexts":["green","red","blue"],"outcomes":[1,0,0],"key":39,"choice":2,"rt":76.00000000093132,"outcome":0,"trial":72,"correct":0,"trial_type":"three-arm-trial","trial_index":86,"time_elapsed":632653,"internal_node_id":"0.0-78.0-0.0","task_version":"screening-mturk","missing":false,"accuracy":0},{"contexts":["green","red","blue"],"outcomes":[1,1,0],"key":39,"choice":2,"rt":25.999999954365194,"outcome":0,"trial":73,"correct":0,"trial_type":"three-arm-trial","trial_index":87,"time_elapsed":633936,"internal_node_id":"0.0-79.0-0.0","task_version":"screening-mturk","missing":false,"accuracy":0},{"contexts":["green","red","blue"],"outcomes":[1,0,0],"key":37,"choice":0,"rt":13.999999966472387,"outcome":1,"trial":74,"correct":0,"trial_type":"three-arm-trial","trial_index":88,"time_elapsed":635180,"internal_node_id":"0.0-80.0-0.0","task_version":"screening-mturk","missing":false,"accuracy":1},{"contexts":["green","red","blue"],"outcomes":[1,0,1],"key":37,"choice":0,"rt":48.00000006798655,"outcome":1,"trial":75,"correct":0,"trial_type":"three-arm-trial","trial_index":89,"time_elapsed":636694,"internal_node_id":"0.0-81.0-0.0","task_version":"screening-mturk","missing":false,"accuracy":1},{"contexts":["green","red","blue"],"outcomes":[0,1,0],"key":37,"choice":0,"rt":876.9999999785796,"outcome":0,"trial":76,"correct":1,"trial_type":"three-arm-trial","trial_index":90,"time_elapsed":638784,"internal_node_id":"0.0-82.0-0.0","task_version":"screening-mturk","missing":false,"accuracy":0},{"contexts":["green","red","blue"],"outcomes":[0,1,1],"key":37,"choice":0,"rt":324.00000002235174,"outcome":0,"trial":77,"correct":1,"trial_type":"three-arm-trial","trial_index":91,"time_elapsed":640383,"internal_node_id":"0.0-83.0-0.0","task_version":"screening-mturk","missing":false,"accuracy":0},{"contexts":["green","red","blue"],"outcomes":[0,1,1],"key":39,"choice":2,"rt":131.9999999832362,"outcome":1,"trial":78,"correct":1,"trial_type":"three-arm-trial","trial_index":92,"time_elapsed":641729,"internal_node_id":"0.0-84.0-0.0","task_version":"screening-mturk","missing":false,"accuracy":0},{"contexts":["green","red","blue"],"outcomes":[0,1,0],"key":37,"choice":0,"rt":37.00000001117587,"outcome":0,"trial":79,"correct":1,"trial_type":"three-arm-trial","trial_index":93,"time_elapsed":642996,"internal_node_id":"0.0-85.0-0.0","task_version":"screening-mturk","missing":false,"accuracy":0},{"contexts":["green","red","blue"],"outcomes":[1,1,0],"key":39,"choice":2,"rt":65.9999999916181,"outcome":0,"trial":80,"correct":1,"trial_type":"three-arm-trial","trial_index":94,"time_elapsed":644267,"internal_node_id":"0.0-86.0-0.0","task_version":"screening-mturk","missing":false,"accuracy":0},{"contexts":["green","red","blue"],"outcomes":[1,0,0],"key":37,"choice":0,"rt":167.9999999469146,"outcome":1,"trial":81,"correct":1,"trial_type":"three-arm-trial","trial_index":95,"time_elapsed":645673,"internal_node_id":"0.0-87.0-0.0","task_version":"screening-mturk","missing":false,"accuracy":0},{"contexts":["green","red","blue"],"outcomes":[1,0,0],"key":37,"choice":0,"rt":417.0000000158325,"outcome":1,"trial":82,"correct":1,"trial_type":"three-arm-trial","trial_index":96,"time_elapsed":647297,"internal_node_id":"0.0-88.0-0.0","task_version":"screening-mturk","missing":false,"accuracy":0},{"contexts":["green","red","blue"],"outcomes":[1,0,0],"key":37,"choice":0,"rt":1043.999999994412,"outcome":1,"trial":83,"correct":1,"trial_type":"three-arm-trial","trial_index":97,"time_elapsed":649545,"internal_node_id":"0.0-89.0-0.0","task_version":"screening-mturk","missing":false,"accuracy":0},{"contexts":["green","red","blue"],"outcomes":[0,0,0],"key":37,"choice":0,"rt":359.99999998603016,"outcome":0,"trial":84,"correct":1,"trial_type":"three-arm-trial","trial_index":98,"time_elapsed":651132,"internal_node_id":"0.0-90.0-0.0","task_version":"screening-mturk","missing":false,"accuracy":0},{"contexts":["green","red","blue"],"outcomes":[0,0,1],"key":37,"choice":0,"rt":176.00000009406358,"outcome":0,"trial":85,"correct":1,"trial_type":"three-arm-trial","trial_index":99,"time_elapsed":652610,"internal_node_id":"0.0-91.0-0.0","task_version":"screening-mturk","missing":false,"accuracy":0},{"contexts":["green","red","blue"],"outcomes":[0,1,0],"key":37,"choice":0,"rt":266.9999999925494,"outcome":0,"trial":86,"correct":1,"trial_type":"three-arm-trial","trial_index":100,"time_elapsed":654097,"internal_node_id":"0.0-92.0-0.0","task_version":"screening-mturk","missing":false,"accuracy":0},{"contexts":["green","red","blue"],"outcomes":[0,1,0],"key":37,"choice":0,"rt":152.00000000186265,"outcome":0,"trial":87,"correct":1,"trial_type":"three-arm-trial","trial_index":101,"time_elapsed":655469,"internal_node_id":"0.0-93.0-0.0","task_version":"screening-mturk","missing":false,"accuracy":0},{"contexts":["green","red","blue"],"outcomes":[1,1,0],"key":37,"choice":0,"rt":202.00000004842877,"outcome":1,"trial":88,"correct":1,"trial_type":"three-arm-trial","trial_index":102,"time_elapsed":656898,"internal_node_id":"0.0-94.0-0.0","task_version":"screening-mturk","missing":false,"accuracy":0},{"contexts":["green","red","blue"],"outcomes":[0,1,1],"key":37,"choice":0,"rt":1285.9999999636784,"outcome":0,"trial":89,"correct":1,"trial_type":"three-arm-trial","trial_index":103,"time_elapsed":659394,"internal_node_id":"0.0-95.0-0.0","task_version":"screening-mturk","missing":false,"accuracy":0},{"contexts":["green","red","blue"],"outcomes":[0,1,0],"key":37,"choice":0,"rt":145.00000001862645,"outcome":0,"trial":90,"correct":1,"trial_type":"three-arm-trial","trial_index":104,"time_elapsed":660744,"internal_node_id":"0.0-96.0-0.0","task_version":"screening-mturk","missing":false,"accuracy":0},{"rt":32593.999999924563,"responses":{"age":"35","gender-categorical":"Male","gender-free-response":"","ethnicity":"Hispanic or Latino","race":["Black or African American"],"language":"Yes","fluency":"Very well","prolific":"Yes","prolific-this-study":"Yes"},"survey":"demographics","trial_type":"survey-demo","trial_index":105,"time_elapsed":693370,"internal_node_id":"0.0-97.0","task_version":"screening-mturk","interactions":"[{\"event\":\"blur\",\"trial\":9,\"time\":402054},{\"event\":\"focus\",\"trial\":9,\"time\":404280},{\"event\":\"blur\",\"trial\":10,\"time\":435358},{\"event\":\"focus\",\"trial\":10,\"time\":458026},{\"event\":\"blur\",\"trial\":10,\"time\":467519},{\"event\":\"focus\",\"trial\":10,\"time\":483530},{\"event\":\"blur\",\"trial\":10,\"time\":494208},{\"event\":\"focus\",\"trial\":10,\"time\":495674}]"}]