[{"responses":{"Q06":"0","Q03":"1","Q01":"2","Q02":"0","Q05":"1","Q08":"1","Q07":"0","Q04":"0"},"rt":36273.3949997928,"survey":"gad7","trial_type":"survey-template","trial_index":0,"time_elapsed":36300,"internal_node_id":"0.0-0.0","task_version":"screening-mturk"},{"responses":{"Q04":"1","Q12":"1","Q01":"2","Q11":"2","Q08":"2","Q02":"1","Q14":"2","Q10":"1","Q03":"1","Q15":"3","Q09":"2","Q06":"1","Q07":"1","Q05":"2","Q13":"2"},"rt":53648.12500006519,"survey":"shaps","trial_type":"survey-template","trial_index":1,"time_elapsed":89963,"internal_node_id":"0.0-1.0","task_version":"screening-mturk"},{"responses":{"Q02":"2","Q03":"1","Q01":"2"},"rt":5445.784999988973,"survey":"pswq","trial_type":"survey-template","trial_index":2,"time_elapsed":95417,"internal_node_id":"0.0-2.0","task_version":"screening-mturk"},{"responses":{"Q10":"1","Q09":"2","Q13":"2","Q01":"1","Q06":"1","Q12":"2","Q15":"0","Q03":"1","Q11":"1","Q02":"2","Q04":"1","Q14":"1","Q05":"2","Q08":"0","Q07":"1"},"rt":18187.489999923855,"survey":"7up7down","trial_type":"survey-template","trial_index":3,"time_elapsed":113612,"internal_node_id":"0.0-3.0","task_version":"screening-mturk"},{"responses":{"Q06":"2","Q13":"0","Q03":"1","Q02":"1","Q01":"2","Q09":"2","Q05":"1","Q07":"1","Q04":"0","Q12":"0","Q10":"2","Q08":"1","Q11":"1"},"rt":16751.475000055507,"survey":"bisbas","trial_type":"survey-template","trial_index":4,"time_elapsed":130371,"internal_node_id":"0.0-4.0","task_version":"screening-mturk"},{"view_history":"[{\"page_index\":0,\"viewing_time\":4652.2750000003725},{\"page_index\":1,\"viewing_time\":5558.850000146776},{\"page_index\":2,\"viewing_time\":9449.764999793842},{\"page_index\":3,\"viewing_time\":11921.850000042468},{\"page_index\":4,\"viewing_time\":2808.930000057444},{\"page_index\":5,\"viewing_time\":3459.969999967143},{\"page_index\":6,\"viewing_time\":3970.8800001535565},{\"page_index\":7,\"viewing_time\":3519.724999787286}]","rt":45344.62000010535,"trial_type":"instructions","trial_index":5,"time_elapsed":175720,"internal_node_id":"0.0-5.0-0.0","task_version":"screening-mturk"},{"responses":["True","False","False","True","True"],"num_errors":2,"rt":25165.065000066534,"trial_type":"three-arm-comprehension","trial_index":6,"time_elapsed":200892,"internal_node_id":"0.0-5.0-1.0","task_version":"screening-mturk"},{"view_history":"[{\"page_index\":0,\"viewing_time\":1987.544999923557},{\"page_index\":1,\"viewing_time\":1831.0799999162555},{\"page_index\":2,\"viewing_time\":2019.1399999894202},{\"page_index\":3,\"viewing_time\":2559.995000017807},{\"page_index\":4,\"viewing_time\":6170.230000047013},{\"page_index\":5,\"viewing_time\":6591.170000145212},{\"page_index\":6,\"viewing_time\":4319.629999808967},{\"page_index\":7,\"viewing_time\":7090.160000137985}]","rt":32570.279999868944,"trial_type":"instructions","trial_index":7,"time_elapsed":233470,"internal_node_id":"0.0-5.1-0.1","task_version":"screening-mturk"},{"responses":["True","True","True","False","True"],"num_errors":1,"rt":29546.459999866784,"trial_type":"three-arm-comprehension","trial_index":8,"time_elapsed":263023,"internal_node_id":"0.0-5.1-1.1","task_version":"screening-mturk"},{"view_history":"[{\"page_index\":0,\"viewing_time\":4790.860000066459},{\"page_index\":1,\"viewing_time\":6699.939999962226},{\"page_index\":2,\"viewing_time\":5979.965000180528},{\"page_index\":3,\"viewing_time\":6330.689999973401},{\"page_index\":4,\"viewing_time\":14872.664999915287},{\"page_index\":5,\"viewing_time\":10707.750000059605},{\"page_index\":6,\"viewing_time\":6830.504999961704},{\"page_index\":7,\"viewing_time\":3039.6249999757856}]","rt":59253.25500010513,"trial_type":"instructions","trial_index":9,"time_elapsed":322282,"internal_node_id":"0.0-5.2-0.2","task_version":"screening-mturk"},{"responses":["True","True","False","False","True"],"num_errors":0,"rt":17995.624999981374,"trial_type":"three-arm-comprehension","trial_index":10,"time_elapsed":340285,"internal_node_id":"0.0-5.2-1.2","task_version":"screening-mturk"},{"view_history":"[{\"page_index\":0,\"viewing_time\":4359.345000004396}]","rt":4360.885000089183,"trial_type":"instructions","trial_index":11,"time_elapsed":344652,"internal_node_id":"0.0-6.0","task_version":"screening-mturk"},{"contexts":["red","blue","green"],"outcomes":[0,1,1],"key":37,"choice":0,"rt":3575.650000013411,"outcome":0,"trial":1,"correct":2,"trial_type":"three-arm-trial","trial_index":12,"time_elapsed":349437,"internal_node_id":"0.0-7.0-0.0","task_version":"screening-mturk","missing":false,"accuracy":0},{"contexts":["red","blue","green"],"outcomes":[1,0,0],"key":39,"choice":2,"rt":2245.040000183508,"outcome":0,"trial":2,"correct":2,"trial_type":"three-arm-trial","trial_index":13,"time_elapsed":352892,"internal_node_id":"0.0-8.0-0.0","task_version":"screening-mturk","missing":false,"accuracy":1},{"contexts":["red","blue","green"],"outcomes":[0,0,1],"key":37,"choice":0,"rt":815.7500000670552,"outcome":0,"trial":3,"correct":2,"trial_type":"three-arm-trial","trial_index":14,"time_elapsed":354916,"internal_node_id":"0.0-9.0-0.0","task_version":"screening-mturk","missing":false,"accuracy":0},{"contexts":["red","blue","green"],"outcomes":[0,1,1],"key":38,"choice":1,"rt":324.69499995931983,"outcome":1,"trial":4,"correct":2,"trial_type":"three-arm-trial","trial_index":15,"time_elapsed":356445,"internal_node_id":"0.0-10.0-0.0","task_version":"screening-mturk","missing":false,"accuracy":0},{"contexts":["red","blue","green"],"outcomes":[0,0,1],"key":38,"choice":1,"rt":662.3200001195073,"outcome":0,"trial":5,"correct":2,"trial_type":"three-arm-trial","trial_index":16,"time_elapsed":358315,"internal_node_id":"0.0-11.0-0.0","task_version":"screening-mturk","missing":false,"accuracy":0},{"contexts":["red","blue","green"],"outcomes":[1,1,1],"key":39,"choice":2,"rt":324.0149999037385,"outcome":1,"trial":6,"correct":2,"trial_type":"three-arm-trial","trial_index":17,"time_elapsed":359852,"internal_node_id":"0.0-12.0-0.0","task_version":"screening-mturk","missing":false,"accuracy":1},{"contexts":["red","blue","green"],"outcomes":[0,0,1],"key":39,"choice":2,"rt":366.13500001840293,"outcome":1,"trial":7,"correct":2,"trial_type":"three-arm-trial","trial_index":18,"time_elapsed":361423,"internal_node_id":"0.0-13.0-0.0","task_version":"screening-mturk","missing":false,"accuracy":1},{"contexts":["red","blue","green"],"outcomes":[0,0,1],"key":37,"choice":0,"rt":275.81000002101064,"outcome":0,"trial":8,"correct":2,"trial_type":"three-arm-trial","trial_index":19,"time_elapsed":362906,"internal_node_id":"0.0-14.0-0.0","task_version":"screening-mturk","missing":false,"accuracy":0},{"contexts":["red","blue","green"],"outcomes":[1,1,1],"key":37,"choice":0,"rt":642.0199999120086,"outcome":1,"trial":9,"correct":2,"trial_type":"three-arm-trial","trial_index":20,"time_elapsed":364754,"internal_node_id":"0.0-15.0-0.0","task_version":"screening-mturk","missing":false,"accuracy":0},{"contexts":["red","blue","green"],"outcomes":[0,0,1],"key":37,"choice":0,"rt":761.7999999783933,"outcome":0,"trial":10,"correct":2,"trial_type":"three-arm-trial","trial_index":21,"time_elapsed":366721,"internal_node_id":"0.0-16.0-0.0","task_version":"screening-mturk","missing":false,"accuracy":0},{"contexts":["red","blue","green"],"outcomes":[0,0,0],"key":38,"choice":1,"rt":666.6249998379499,"outcome":0,"trial":11,"correct":2,"trial_type":"three-arm-trial","trial_index":22,"time_elapsed":368597,"internal_node_id":"0.0-17.0-0.0","task_version":"screening-mturk","missing":false,"accuracy":0},{"contexts":["red","blue","green"],"outcomes":[0,0,1],"key":39,"choice":2,"rt":401.6999998129904,"outcome":1,"trial":12,"correct":2,"trial_type":"three-arm-trial","trial_index":23,"time_elapsed":370204,"internal_node_id":"0.0-18.0-0.0","task_version":"screening-mturk","missing":false,"accuracy":1},{"contexts":["red","blue","green"],"outcomes":[1,0,1],"key":37,"choice":0,"rt":214.57999991253018,"outcome":1,"trial":13,"correct":2,"trial_type":"three-arm-trial","trial_index":24,"time_elapsed":371625,"internal_node_id":"0.0-19.0-0.0","task_version":"screening-mturk","missing":false,"accuracy":0},{"contexts":["red","blue","green"],"outcomes":[1,0,1],"key":38,"choice":1,"rt":432.7799999155104,"outcome":0,"trial":14,"correct":2,"trial_type":"three-arm-trial","trial_index":25,"time_elapsed":373264,"internal_node_id":"0.0-20.0-0.0","task_version":"screening-mturk","missing":false,"accuracy":0},{"contexts":["red","blue","green"],"outcomes":[0,1,0],"key":37,"choice":0,"rt":734.9800001829863,"outcome":0,"trial":15,"correct":2,"trial_type":"three-arm-trial","trial_index":26,"time_elapsed":375204,"internal_node_id":"0.0-21.0-0.0","task_version":"screening-mturk","missing":false,"accuracy":0},{"contexts":["red","blue","green"],"outcomes":[0,1,0],"key":39,"choice":2,"rt":213.22500007227063,"outcome":0,"trial":16,"correct":1,"trial_type":"three-arm-trial","trial_index":27,"time_elapsed":376627,"internal_node_id":"0.0-22.0-0.0","task_version":"screening-mturk","missing":false,"accuracy":0},{"contexts":["red","blue","green"],"outcomes":[0,1,0],"key":38,"choice":1,"rt":311.4549999590963,"outcome":1,"trial":17,"correct":1,"trial_type":"three-arm-trial","trial_index":28,"time_elapsed":378144,"internal_node_id":"0.0-23.0-0.0","task_version":"screening-mturk","missing":false,"accuracy":1},{"contexts":["red","blue","green"],"outcomes":[0,1,0],"key":38,"choice":1,"rt":253.1900000758469,"outcome":1,"trial":18,"correct":1,"trial_type":"three-arm-trial","trial_index":29,"time_elapsed":379603,"internal_node_id":"0.0-24.0-0.0","task_version":"screening-mturk","missing":false,"accuracy":1},{"contexts":["red","blue","green"],"outcomes":[1,1,0],"key":39,"choice":2,"rt":365.1799999643117,"outcome":0,"trial":19,"correct":1,"trial_type":"three-arm-trial","trial_index":30,"time_elapsed":381175,"internal_node_id":"0.0-25.0-0.0","task_version":"screening-mturk","missing":false,"accuracy":0},{"contexts":["red","blue","green"],"outcomes":[0,1,0],"key":39,"choice":2,"rt":312.92499997653067,"outcome":0,"trial":20,"correct":1,"trial_type":"three-arm-trial","trial_index":31,"time_elapsed":382696,"internal_node_id":"0.0-26.0-0.0","task_version":"screening-mturk","missing":false,"accuracy":0},{"contexts":["red","blue","green"],"outcomes":[0,0,0],"key":39,"choice":2,"rt":656.2899998389184,"outcome":0,"trial":21,"correct":1,"trial_type":"three-arm-trial","trial_index":32,"time_elapsed":384559,"internal_node_id":"0.0-27.0-0.0","task_version":"screening-mturk","missing":false,"accuracy":0},{"contexts":["red","blue","green"],"outcomes":[0,1,0],"key":37,"choice":0,"rt":530.144999967888,"outcome":0,"trial":22,"correct":1,"trial_type":"three-arm-trial","trial_index":33,"time_elapsed":386296,"internal_node_id":"0.0-28.0-0.0","task_version":"screening-mturk","missing":false,"accuracy":0},{"contexts":["red","blue","green"],"outcomes":[0,1,0],"key":38,"choice":1,"rt":233.26500016264617,"outcome":1,"trial":23,"correct":1,"trial_type":"three-arm-trial","trial_index":34,"time_elapsed":387736,"internal_node_id":"0.0-29.0-0.0","task_version":"screening-mturk","missing":false,"accuracy":1},{"contexts":["red","blue","green"],"outcomes":[0,1,1],"key":37,"choice":0,"rt":475.9750000666827,"outcome":0,"trial":24,"correct":1,"trial_type":"three-arm-trial","trial_index":35,"time_elapsed":389417,"internal_node_id":"0.0-30.0-0.0","task_version":"screening-mturk","missing":false,"accuracy":0},{"contexts":["red","blue","green"],"outcomes":[0,1,0],"key":38,"choice":1,"rt":291.4249999448657,"outcome":1,"trial":25,"correct":1,"trial_type":"three-arm-trial","trial_index":36,"time_elapsed":390913,"internal_node_id":"0.0-31.0-0.0","task_version":"screening-mturk","missing":false,"accuracy":1},{"contexts":["red","blue","green"],"outcomes":[0,1,0],"key":38,"choice":1,"rt":333.430000115186,"outcome":1,"trial":26,"correct":1,"trial_type":"three-arm-trial","trial_index":37,"time_elapsed":392468,"internal_node_id":"0.0-32.0-0.0","task_version":"screening-mturk","missing":false,"accuracy":1},{"contexts":["red","blue","green"],"outcomes":[1,1,0],"key":38,"choice":1,"rt":340.3400001116097,"outcome":1,"trial":27,"correct":1,"trial_type":"three-arm-trial","trial_index":38,"time_elapsed":394019,"internal_node_id":"0.0-33.0-0.0","task_version":"screening-mturk","missing":false,"accuracy":1},{"contexts":["red","blue","green"],"outcomes":[0,1,0],"key":38,"choice":1,"rt":1838.179999962449,"outcome":1,"trial":28,"correct":1,"trial_type":"three-arm-trial","trial_index":39,"time_elapsed":397066,"internal_node_id":"0.0-34.0-0.0","task_version":"screening-mturk","missing":false,"accuracy":1},{"contexts":["red","blue","green"],"outcomes":[0,1,0],"key":39,"choice":2,"rt":245.89999997988343,"outcome":0,"trial":29,"correct":1,"trial_type":"three-arm-trial","trial_index":40,"time_elapsed":398517,"internal_node_id":"0.0-35.0-0.0","task_version":"screening-mturk","missing":false,"accuracy":0},{"contexts":["red","blue","green"],"outcomes":[0,0,0],"key":38,"choice":1,"rt":305.7949999347329,"outcome":0,"trial":30,"correct":1,"trial_type":"three-arm-trial","trial_index":41,"time_elapsed":400029,"internal_node_id":"0.0-36.0-0.0","task_version":"screening-mturk","missing":false,"accuracy":1},{"contexts":["red","blue","green"],"outcomes":[0,0,1],"key":38,"choice":1,"rt":611.2100000027567,"outcome":0,"trial":31,"correct":2,"trial_type":"three-arm-trial","trial_index":42,"time_elapsed":401847,"internal_node_id":"0.0-37.0-0.0","task_version":"screening-mturk","missing":false,"accuracy":0},{"contexts":["red","blue","green"],"outcomes":[0,0,1],"key":37,"choice":0,"rt":305.30499992892146,"outcome":0,"trial":32,"correct":2,"trial_type":"three-arm-trial","trial_index":43,"time_elapsed":403357,"internal_node_id":"0.0-38.0-0.0","task_version":"screening-mturk","missing":false,"accuracy":0},{"contexts":["red","blue","green"],"outcomes":[0,0,1],"key":39,"choice":2,"rt":341.02499997243285,"outcome":1,"trial":33,"correct":2,"trial_type":"three-arm-trial","trial_index":44,"time_elapsed":404931,"internal_node_id":"0.0-39.0-0.0","task_version":"screening-mturk","missing":false,"accuracy":1},{"contexts":["red","blue","green"],"outcomes":[1,0,0],"key":39,"choice":2,"rt":177.83499998040497,"outcome":0,"trial":34,"correct":2,"trial_type":"three-arm-trial","trial_index":45,"time_elapsed":406314,"internal_node_id":"0.0-40.0-0.0","task_version":"screening-mturk","missing":false,"accuracy":1},{"contexts":["red","blue","green"],"outcomes":[0,1,1],"key":39,"choice":2,"rt":846.3850000407547,"outcome":1,"trial":35,"correct":2,"trial_type":"three-arm-trial","trial_index":46,"time_elapsed":408365,"internal_node_id":"0.0-41.0-0.0","task_version":"screening-mturk","missing":false,"accuracy":1},{"contexts":["red","blue","green"],"outcomes":[0,0,1],"key":38,"choice":1,"rt":445.9349999669939,"outcome":0,"trial":36,"correct":2,"trial_type":"three-arm-trial","trial_index":47,"time_elapsed":410018,"internal_node_id":"0.0-42.0-0.0","task_version":"screening-mturk","missing":false,"accuracy":0},{"contexts":["red","blue","green"],"outcomes":[0,0,1],"key":38,"choice":1,"rt":351.23999998904765,"outcome":0,"trial":37,"correct":2,"trial_type":"three-arm-trial","trial_index":48,"time_elapsed":411575,"internal_node_id":"0.0-43.0-0.0","task_version":"screening-mturk","missing":false,"accuracy":0},{"contexts":["red","blue","green"],"outcomes":[0,0,1],"key":38,"choice":1,"rt":2024.4450001046062,"outcome":0,"trial":38,"correct":2,"trial_type":"three-arm-trial","trial_index":49,"time_elapsed":414805,"internal_node_id":"0.0-44.0-0.0","task_version":"screening-mturk","missing":false,"accuracy":0},{"contexts":["red","blue","green"],"outcomes":[1,0,0],"key":37,"choice":0,"rt":13.885000022128224,"outcome":1,"trial":39,"correct":2,"trial_type":"three-arm-trial","trial_index":50,"time_elapsed":416027,"internal_node_id":"0.0-45.0-0.0","task_version":"screening-mturk","missing":false,"accuracy":0},{"contexts":["red","blue","green"],"outcomes":[1,0,1],"key":39,"choice":2,"rt":212.5200000591576,"outcome":1,"trial":40,"correct":2,"trial_type":"three-arm-trial","trial_index":51,"time_elapsed":417445,"internal_node_id":"0.0-46.0-0.0","task_version":"screening-mturk","missing":false,"accuracy":1},{"contexts":["red","blue","green"],"outcomes":[0,0,1],"key":37,"choice":0,"rt":201.91499986685812,"outcome":0,"trial":41,"correct":2,"trial_type":"three-arm-trial","trial_index":52,"time_elapsed":418852,"internal_node_id":"0.0-47.0-0.0","task_version":"screening-mturk","missing":false,"accuracy":0},{"contexts":["red","blue","green"],"outcomes":[0,0,1],"key":38,"choice":1,"rt":427.0249998662621,"outcome":0,"trial":42,"correct":2,"trial_type":"three-arm-trial","trial_index":53,"time_elapsed":420486,"internal_node_id":"0.0-48.0-0.0","task_version":"screening-mturk","missing":false,"accuracy":0},{"contexts":["red","blue","green"],"outcomes":[0,0,1],"key":37,"choice":0,"rt":193.23999993503094,"outcome":0,"trial":43,"correct":2,"trial_type":"three-arm-trial","trial_index":54,"time_elapsed":421883,"internal_node_id":"0.0-49.0-0.0","task_version":"screening-mturk","missing":false,"accuracy":0},{"contexts":["red","blue","green"],"outcomes":[1,1,1],"key":37,"choice":0,"rt":78.65000003948808,"outcome":1,"trial":44,"correct":2,"trial_type":"three-arm-trial","trial_index":55,"time_elapsed":423167,"internal_node_id":"0.0-50.0-0.0","task_version":"screening-mturk","missing":false,"accuracy":0},{"contexts":["red","blue","green"],"outcomes":[0,1,1],"key":38,"choice":1,"rt":258.6400001309812,"outcome":1,"trial":45,"correct":2,"trial_type":"three-arm-trial","trial_index":56,"time_elapsed":424630,"internal_node_id":"0.0-51.0-0.0","task_version":"screening-mturk","missing":false,"accuracy":0},{"contexts":["red","blue","green"],"outcomes":[1,0,0],"key":38,"choice":1,"rt":526.649999897927,"outcome":0,"trial":46,"correct":0,"trial_type":"three-arm-trial","trial_index":57,"time_elapsed":426363,"internal_node_id":"0.0-52.0-0.0","task_version":"screening-mturk","missing":false,"accuracy":0},{"contexts":["red","blue","green"],"outcomes":[1,1,0],"key":39,"choice":2,"rt":771.6950001195073,"outcome":0,"trial":47,"correct":0,"trial_type":"three-arm-trial","trial_index":58,"time_elapsed":428341,"internal_node_id":"0.0-53.0-0.0","task_version":"screening-mturk","missing":false,"accuracy":0},{"contexts":["red","blue","green"],"outcomes":[1,0,0],"key":37,"choice":0,"rt":320.0850000139326,"outcome":1,"trial":48,"correct":0,"trial_type":"three-arm-trial","trial_index":59,"time_elapsed":429866,"internal_node_id":"0.0-54.0-0.0","task_version":"screening-mturk","missing":false,"accuracy":1},{"contexts":["red","blue","green"],"outcomes":[1,1,1],"key":38,"choice":1,"rt":623.0450000148267,"outcome":1,"trial":49,"correct":0,"trial_type":"three-arm-trial","trial_index":60,"time_elapsed":431696,"internal_node_id":"0.0-55.0-0.0","task_version":"screening-mturk","missing":false,"accuracy":0},{"contexts":["red","blue","green"],"outcomes":[1,0,0],"key":39,"choice":2,"rt":752.549999859184,"outcome":0,"trial":50,"correct":0,"trial_type":"three-arm-trial","trial_index":61,"time_elapsed":433659,"internal_node_id":"0.0-56.0-0.0","task_version":"screening-mturk","missing":false,"accuracy":0},{"contexts":["red","blue","green"],"outcomes":[1,0,1],"key":37,"choice":0,"rt":841.2399999797344,"outcome":1,"trial":51,"correct":0,"trial_type":"three-arm-trial","trial_index":62,"time_elapsed":435707,"internal_node_id":"0.0-57.0-0.0","task_version":"screening-mturk","missing":false,"accuracy":1},{"contexts":["red","blue","green"],"outcomes":[1,0,0],"key":37,"choice":0,"rt":502.49999994412065,"outcome":1,"trial":52,"correct":0,"trial_type":"three-arm-trial","trial_index":63,"time_elapsed":437414,"internal_node_id":"0.0-58.0-0.0","task_version":"screening-mturk","missing":false,"accuracy":1},{"contexts":["red","blue","green"],"outcomes":[1,0,0],"key":38,"choice":1,"rt":765.2300000190735,"outcome":0,"trial":53,"correct":0,"trial_type":"three-arm-trial","trial_index":64,"time_elapsed":439392,"internal_node_id":"0.0-59.0-0.0","task_version":"screening-mturk","missing":false,"accuracy":0},{"contexts":["red","blue","green"],"outcomes":[0,0,0],"key":37,"choice":0,"rt":678.0400001443923,"outcome":0,"trial":54,"correct":0,"trial_type":"three-arm-trial","trial_index":65,"time_elapsed":441276,"internal_node_id":"0.0-60.0-0.0","task_version":"screening-mturk","missing":false,"accuracy":1},{"contexts":["red","blue","green"],"outcomes":[1,0,1],"key":39,"choice":2,"rt":655.0799999386072,"outcome":1,"trial":55,"correct":0,"trial_type":"three-arm-trial","trial_index":66,"time_elapsed":443136,"internal_node_id":"0.0-61.0-0.0","task_version":"screening-mturk","missing":false,"accuracy":0},{"contexts":["red","blue","green"],"outcomes":[1,0,0],"key":37,"choice":0,"rt":523.5150000080466,"outcome":1,"trial":56,"correct":0,"trial_type":"three-arm-trial","trial_index":67,"time_elapsed":444867,"internal_node_id":"0.0-62.0-0.0","task_version":"screening-mturk","missing":false,"accuracy":1},{"contexts":["red","blue","green"],"outcomes":[1,0,1],"key":39,"choice":2,"rt":383.03499994799495,"outcome":1,"trial":57,"correct":0,"trial_type":"three-arm-trial","trial_index":68,"time_elapsed":446455,"internal_node_id":"0.0-63.0-0.0","task_version":"screening-mturk","missing":false,"accuracy":0},{"contexts":["red","blue","green"],"outcomes":[0,0,0],"key":38,"choice":1,"rt":369.61000016890466,"outcome":0,"trial":58,"correct":0,"trial_type":"three-arm-trial","trial_index":69,"time_elapsed":448033,"internal_node_id":"0.0-64.0-0.0","task_version":"screening-mturk","missing":false,"accuracy":0},{"contexts":["red","blue","green"],"outcomes":[1,0,1],"key":37,"choice":0,"rt":87.74499990977347,"outcome":1,"trial":59,"correct":0,"trial_type":"three-arm-trial","trial_index":70,"time_elapsed":449330,"internal_node_id":"0.0-65.0-0.0","task_version":"screening-mturk","missing":false,"accuracy":1},{"contexts":["red","blue","green"],"outcomes":[1,0,0],"key":39,"choice":2,"rt":99.93500006385148,"outcome":0,"trial":60,"correct":0,"trial_type":"three-arm-trial","trial_index":71,"time_elapsed":450635,"internal_node_id":"0.0-66.0-0.0","task_version":"screening-mturk","missing":false,"accuracy":0},{"contexts":["red","blue","green"],"outcomes":[0,0,1],"key":37,"choice":0,"rt":772.6749998982996,"outcome":0,"trial":61,"correct":2,"trial_type":"three-arm-trial","trial_index":72,"time_elapsed":452613,"internal_node_id":"0.0-67.0-0.0","task_version":"screening-mturk","missing":false,"accuracy":0},{"contexts":["red","blue","green"],"outcomes":[0,1,0],"key":38,"choice":1,"rt":347.719999961555,"outcome":1,"trial":62,"correct":2,"trial_type":"three-arm-trial","trial_index":73,"time_elapsed":454166,"internal_node_id":"0.0-68.0-0.0","task_version":"screening-mturk","missing":false,"accuracy":0},{"contexts":["red","blue","green"],"outcomes":[1,0,1],"key":37,"choice":0,"rt":542.6650000736117,"outcome":1,"trial":63,"correct":2,"trial_type":"three-arm-trial","trial_index":74,"time_elapsed":455915,"internal_node_id":"0.0-69.0-0.0","task_version":"screening-mturk","missing":false,"accuracy":0},{"contexts":["red","blue","green"],"outcomes":[0,0,1],"key":39,"choice":2,"rt":175.7899997755885,"outcome":1,"trial":64,"correct":2,"trial_type":"three-arm-trial","trial_index":75,"time_elapsed":457296,"internal_node_id":"0.0-70.0-0.0","task_version":"screening-mturk","missing":false,"accuracy":1},{"contexts":["red","blue","green"],"outcomes":[0,0,0],"key":37,"choice":0,"rt":214.83499999158084,"outcome":0,"trial":65,"correct":2,"trial_type":"three-arm-trial","trial_index":76,"time_elapsed":458717,"internal_node_id":"0.0-71.0-0.0","task_version":"screening-mturk","missing":false,"accuracy":0},{"contexts":["red","blue","green"],"outcomes":[0,0,1],"key":37,"choice":0,"rt":301.65000003762543,"outcome":0,"trial":66,"correct":2,"trial_type":"three-arm-trial","trial_index":77,"time_elapsed":460223,"internal_node_id":"0.0-72.0-0.0","task_version":"screening-mturk","missing":false,"accuracy":0},{"contexts":["red","blue","green"],"outcomes":[0,0,1],"key":37,"choice":0,"rt":527.4050000589341,"outcome":0,"trial":67,"correct":2,"trial_type":"three-arm-trial","trial_index":78,"time_elapsed":461960,"internal_node_id":"0.0-73.0-0.0","task_version":"screening-mturk","missing":false,"accuracy":0},{"contexts":["red","blue","green"],"outcomes":[1,1,0],"key":37,"choice":0,"rt":166.10000003129244,"outcome":1,"trial":68,"correct":2,"trial_type":"three-arm-trial","trial_index":79,"time_elapsed":463331,"internal_node_id":"0.0-74.0-0.0","task_version":"screening-mturk","missing":false,"accuracy":0},{"contexts":["red","blue","green"],"outcomes":[0,0,1],"key":39,"choice":2,"rt":565.7399999909103,"outcome":1,"trial":69,"correct":2,"trial_type":"three-arm-trial","trial_index":80,"time_elapsed":465101,"internal_node_id":"0.0-75.0-0.0","task_version":"screening-mturk","missing":false,"accuracy":1},{"contexts":["red","blue","green"],"outcomes":[1,0,1],"key":38,"choice":1,"rt":423.10000001452863,"outcome":0,"trial":70,"correct":2,"trial_type":"three-arm-trial","trial_index":81,"time_elapsed":466732,"internal_node_id":"0.0-76.0-0.0","task_version":"screening-mturk","missing":false,"accuracy":0},{"contexts":["red","blue","green"],"outcomes":[0,0,0],"key":37,"choice":0,"rt":589.6899998188019,"outcome":0,"trial":71,"correct":2,"trial_type":"three-arm-trial","trial_index":82,"time_elapsed":468526,"internal_node_id":"0.0-77.0-0.0","task_version":"screening-mturk","missing":false,"accuracy":0},{"contexts":["red","blue","green"],"outcomes":[0,0,1],"key":37,"choice":0,"rt":82.64499995857477,"outcome":0,"trial":72,"correct":2,"trial_type":"three-arm-trial","trial_index":83,"time_elapsed":469816,"internal_node_id":"0.0-78.0-0.0","task_version":"screening-mturk","missing":false,"accuracy":0},{"contexts":["red","blue","green"],"outcomes":[0,1,1],"key":39,"choice":2,"rt":25.279999943450093,"outcome":1,"trial":73,"correct":2,"trial_type":"three-arm-trial","trial_index":84,"time_elapsed":471050,"internal_node_id":"0.0-79.0-0.0","task_version":"screening-mturk","missing":false,"accuracy":1},{"contexts":["red","blue","green"],"outcomes":[0,1,0],"key":38,"choice":1,"rt":150.80499998293817,"outcome":1,"trial":74,"correct":2,"trial_type":"three-arm-trial","trial_index":85,"time_elapsed":472406,"internal_node_id":"0.0-80.0-0.0","task_version":"screening-mturk","missing":false,"accuracy":0},{"contexts":["red","blue","green"],"outcomes":[0,1,1],"key":39,"choice":2,"rt":263.83999991230667,"outcome":1,"trial":75,"correct":2,"trial_type":"three-arm-trial","trial_index":86,"time_elapsed":473875,"internal_node_id":"0.0-81.0-0.0","task_version":"screening-mturk","missing":false,"accuracy":1},{"contexts":["red","blue","green"],"outcomes":[1,0,1],"key":39,"choice":2,"rt":435.88000000454485,"outcome":1,"trial":76,"correct":0,"trial_type":"three-arm-trial","trial_index":87,"time_elapsed":475517,"internal_node_id":"0.0-82.0-0.0","task_version":"screening-mturk","missing":false,"accuracy":0},{"contexts":["red","blue","green"],"outcomes":[1,0,0],"key":38,"choice":1,"rt":284.85999978147447,"outcome":0,"trial":77,"correct":0,"trial_type":"three-arm-trial","trial_index":88,"time_elapsed":477008,"internal_node_id":"0.0-83.0-0.0","task_version":"screening-mturk","missing":false,"accuracy":0},{"contexts":["red","blue","green"],"outcomes":[1,0,0],"key":39,"choice":2,"rt":193.81000008434057,"outcome":0,"trial":78,"correct":0,"trial_type":"three-arm-trial","trial_index":89,"time_elapsed":478407,"internal_node_id":"0.0-84.0-0.0","task_version":"screening-mturk","missing":false,"accuracy":0},{"contexts":["red","blue","green"],"outcomes":[1,0,0],"key":37,"choice":0,"rt":35.715000005438924,"outcome":1,"trial":79,"correct":0,"trial_type":"three-arm-trial","trial_index":90,"time_elapsed":479648,"internal_node_id":"0.0-85.0-0.0","task_version":"screening-mturk","missing":false,"accuracy":1},{"contexts":["red","blue","green"],"outcomes":[1,0,0],"key":39,"choice":2,"rt":224.34499999508262,"outcome":0,"trial":80,"correct":0,"trial_type":"three-arm-trial","trial_index":91,"time_elapsed":481077,"internal_node_id":"0.0-86.0-0.0","task_version":"screening-mturk","missing":false,"accuracy":0},{"contexts":["red","blue","green"],"outcomes":[1,0,0],"key":38,"choice":1,"rt":205.5450000334531,"outcome":0,"trial":81,"correct":0,"trial_type":"three-arm-trial","trial_index":92,"time_elapsed":482488,"internal_node_id":"0.0-87.0-0.0","task_version":"screening-mturk","missing":false,"accuracy":0},{"contexts":["red","blue","green"],"outcomes":[0,0,0],"key":39,"choice":2,"rt":85.41000005789101,"outcome":0,"trial":82,"correct":0,"trial_type":"three-arm-trial","trial_index":93,"time_elapsed":483778,"internal_node_id":"0.0-88.0-0.0","task_version":"screening-mturk","missing":false,"accuracy":0},{"contexts":["red","blue","green"],"outcomes":[1,0,0],"key":38,"choice":1,"rt":123.47499979659915,"outcome":0,"trial":83,"correct":0,"trial_type":"three-arm-trial","trial_index":94,"time_elapsed":485108,"internal_node_id":"0.0-89.0-0.0","task_version":"screening-mturk","missing":false,"accuracy":0},{"contexts":["red","blue","green"],"outcomes":[1,0,1],"key":39,"choice":2,"rt":173.08499990031123,"outcome":1,"trial":84,"correct":0,"trial_type":"three-arm-trial","trial_index":95,"time_elapsed":486487,"internal_node_id":"0.0-90.0-0.0","task_version":"screening-mturk","missing":false,"accuracy":0},{"contexts":["red","blue","green"],"outcomes":[1,0,0],"key":37,"choice":0,"rt":33.980000065639615,"outcome":1,"trial":85,"correct":0,"trial_type":"three-arm-trial","trial_index":96,"time_elapsed":487727,"internal_node_id":"0.0-91.0-0.0","task_version":"screening-mturk","missing":false,"accuracy":1},{"contexts":["red","blue","green"],"outcomes":[1,0,1],"key":38,"choice":1,"rt":123.65000019781291,"outcome":0,"trial":86,"correct":0,"trial_type":"three-arm-trial","trial_index":97,"time_elapsed":489059,"internal_node_id":"0.0-92.0-0.0","task_version":"screening-mturk","missing":false,"accuracy":0},{"contexts":["red","blue","green"],"outcomes":[1,1,0],"key":38,"choice":1,"rt":257.6899998821318,"outcome":1,"trial":87,"correct":0,"trial_type":"three-arm-trial","trial_index":98,"time_elapsed":490521,"internal_node_id":"0.0-93.0-0.0","task_version":"screening-mturk","missing":false,"accuracy":0},{"contexts":["red","blue","green"],"outcomes":[1,1,0],"key":37,"choice":0,"rt":70.13499992899597,"outcome":1,"trial":88,"correct":0,"trial_type":"three-arm-trial","trial_index":99,"time_elapsed":491800,"internal_node_id":"0.0-94.0-0.0","task_version":"screening-mturk","missing":false,"accuracy":1},{"contexts":["red","blue","green"],"outcomes":[1,0,0],"key":37,"choice":0,"rt":111.77499988116324,"outcome":1,"trial":89,"correct":0,"trial_type":"three-arm-trial","trial_index":100,"time_elapsed":493117,"internal_node_id":"0.0-95.0-0.0","task_version":"screening-mturk","missing":false,"accuracy":1},{"contexts":["red","blue","green"],"outcomes":[1,0,0],"key":37,"choice":0,"rt":110.89000012725592,"outcome":1,"trial":90,"correct":0,"trial_type":"three-arm-trial","trial_index":101,"time_elapsed":494432,"internal_node_id":"0.0-96.0-0.0","task_version":"screening-mturk","missing":false,"accuracy":1},{"rt":24779.94000003673,"responses":{"age":"34","gender-categorical":"Male","gender-free-response":"","ethnicity":"Not Hispanic or Latino","race":["White"],"language":"Yes","fluency":"Very well","prolific":"No","prolific-this-study":"No"},"survey":"demographics","trial_type":"survey-demo","trial_index":102,"time_elapsed":519226,"internal_node_id":"0.0-97.0","task_version":"screening-mturk","interactions":"[]"}]