[{"responses":{"Q03":"3","Q04":"3","Q02":"3","Q10":"3","Q01":"3","Q12":"3","Q06":"3","Q05":"3","Q13":"3","Q11":"3","Q09":"3","Q15":"3","Q07":"3","Q14":"3","Q08":"3"},"rt":36063.68000000111,"survey":"shaps","trial_type":"survey-template","trial_index":0,"time_elapsed":36096,"internal_node_id":"0.0-0.0","task_version":"screening-mturk"},{"responses":{"Q07":"0","Q02":"0","Q05":"0","Q01":"0","Q04":"0","Q03":"0","Q08":"0","Q06":"0"},"rt":11298.455000000104,"survey":"gad7","trial_type":"survey-template","trial_index":1,"time_elapsed":47417,"internal_node_id":"0.0-1.0","task_version":"screening-mturk"},{"responses":{"Q03":"0","Q01":"0","Q02":"0"},"rt":5932.660000000396,"survey":"pswq","trial_type":"survey-template","trial_index":2,"time_elapsed":53365,"internal_node_id":"0.0-2.0","task_version":"screening-mturk"},{"responses":{"Q04":"2","Q09":"2","Q06":"2","Q01":"2","Q07":"3","Q13":"3","Q08":"2","Q12":"2","Q02":"2","Q11":"2","Q03":"2","Q05":"2","Q10":"2"},"rt":29829.460000000836,"survey":"bisbas","trial_type":"survey-template","trial_index":3,"time_elapsed":83216,"internal_node_id":"0.0-3.0","task_version":"screening-mturk"},{"responses":{"Q01":"1","Q14":"0","Q06":"1","Q08":"0","Q09":"0","Q04":"1","Q03":"1","Q11":"0","Q13":"0","Q02":"0","Q07":"0","Q15":"0","Q05":"0","Q10":"0","Q12":"0"},"rt":58169.67499999919,"survey":"7up7down","trial_type":"survey-template","trial_index":4,"time_elapsed":141405,"internal_node_id":"0.0-4.0","task_version":"screening-mturk"},{"view_history":"[{\"page_index\":0,\"viewing_time\":11399.929999999586},{\"page_index\":1,\"viewing_time\":10598.78500000012},{\"page_index\":2,\"viewing_time\":10524.410000000003},{\"page_index\":3,\"viewing_time\":7599.785000000353},{\"page_index\":4,\"viewing_time\":6219.649999999092},{\"page_index\":5,\"viewing_time\":11126.224999999977},{\"page_index\":6,\"viewing_time\":7324.85000000085},{\"page_index\":7,\"viewing_time\":7240.85500000004}]","rt":72036.51999999964,"trial_type":"instructions","trial_index":5,"time_elapsed":213453,"internal_node_id":"0.0-5.0-0.0","task_version":"screening-mturk"},{"responses":["True","True","False","False","True"],"num_errors":0,"rt":14141.809999999154,"trial_type":"three-arm-comprehension","trial_index":6,"time_elapsed":227604,"internal_node_id":"0.0-5.0-1.0","task_version":"screening-mturk"},{"view_history":"[{\"page_index\":0,\"viewing_time\":2373.315000000759}]","rt":2374.2249999995693,"trial_type":"instructions","trial_index":7,"time_elapsed":229998,"internal_node_id":"0.0-6.0","task_version":"screening-mturk"},{"contexts":["red","blue","green"],"outcomes":[1,0,0],"key":39,"choice":2,"rt":1620.2450000000536,"outcome":0,"trial":1,"correct":0,"trial_type":"three-arm-trial","trial_index":8,"time_elapsed":232827,"internal_node_id":"0.0-7.0-0.0","task_version":"screening-mturk","missing":false,"accuracy":0},{"contexts":["red","blue","green"],"outcomes":[0,0,0],"key":39,"choice":2,"rt":696.0949999993318,"outcome":0,"trial":2,"correct":0,"trial_type":"three-arm-trial","trial_index":9,"time_elapsed":234739,"internal_node_id":"0.0-8.0-0.0","task_version":"screening-mturk","missing":false,"accuracy":0},{"contexts":["red","blue","green"],"outcomes":[1,0,0],"key":39,"choice":2,"rt":481.8450000002631,"outcome":0,"trial":3,"correct":0,"trial_type":"three-arm-trial","trial_index":10,"time_elapsed":236436,"internal_node_id":"0.0-9.0-0.0","task_version":"screening-mturk","missing":false,"accuracy":0},{"contexts":["red","blue","green"],"outcomes":[1,0,0],"key":38,"choice":1,"rt":334.869999998773,"outcome":0,"trial":4,"correct":0,"trial_type":"three-arm-trial","trial_index":11,"time_elapsed":237987,"internal_node_id":"0.0-10.0-0.0","task_version":"screening-mturk","missing":false,"accuracy":0},{"contexts":["red","blue","green"],"outcomes":[1,0,0],"key":38,"choice":1,"rt":404.9699999995937,"outcome":0,"trial":5,"correct":0,"trial_type":"three-arm-trial","trial_index":12,"time_elapsed":239609,"internal_node_id":"0.0-11.0-0.0","task_version":"screening-mturk","missing":false,"accuracy":0},{"contexts":["red","blue","green"],"outcomes":[1,0,1],"key":38,"choice":1,"rt":414.9349999988626,"outcome":0,"trial":6,"correct":0,"trial_type":"three-arm-trial","trial_index":13,"time_elapsed":241242,"internal_node_id":"0.0-12.0-0.0","task_version":"screening-mturk","missing":false,"accuracy":0},{"contexts":["red","blue","green"],"outcomes":[1,0,0],"key":37,"choice":0,"rt":396.139999998908,"outcome":1,"trial":7,"correct":0,"trial_type":"three-arm-trial","trial_index":14,"time_elapsed":242860,"internal_node_id":"0.0-13.0-0.0","task_version":"screening-mturk","missing":false,"accuracy":1},{"contexts":["red","blue","green"],"outcomes":[1,0,0],"key":37,"choice":0,"rt":394.3299999991723,"outcome":1,"trial":8,"correct":0,"trial_type":"three-arm-trial","trial_index":15,"time_elapsed":244480,"internal_node_id":"0.0-14.0-0.0","task_version":"screening-mturk","missing":false,"accuracy":1},{"contexts":["red","blue","green"],"outcomes":[0,0,0],"key":37,"choice":0,"rt":185.61500000031083,"outcome":0,"trial":9,"correct":0,"trial_type":"three-arm-trial","trial_index":16,"time_elapsed":245885,"internal_node_id":"0.0-15.0-0.0","task_version":"screening-mturk","missing":false,"accuracy":1},{"contexts":["red","blue","green"],"outcomes":[1,0,0],"key":37,"choice":0,"rt":397.20999999914784,"outcome":1,"trial":10,"correct":0,"trial_type":"three-arm-trial","trial_index":17,"time_elapsed":247503,"internal_node_id":"0.0-16.0-0.0","task_version":"screening-mturk","missing":false,"accuracy":1},{"contexts":["red","blue","green"],"outcomes":[1,0,0],"key":37,"choice":0,"rt":372.27499999970314,"outcome":1,"trial":11,"correct":0,"trial_type":"three-arm-trial","trial_index":18,"time_elapsed":249100,"internal_node_id":"0.0-17.0-0.0","task_version":"screening-mturk","missing":false,"accuracy":1},{"contexts":["red","blue","green"],"outcomes":[1,0,0],"key":37,"choice":0,"rt":310.8350000002247,"outcome":1,"trial":12,"correct":0,"trial_type":"three-arm-trial","trial_index":19,"time_elapsed":250627,"internal_node_id":"0.0-18.0-0.0","task_version":"screening-mturk","missing":false,"accuracy":1},{"contexts":["red","blue","green"],"outcomes":[1,0,0],"key":37,"choice":0,"rt":126.5400000011432,"outcome":1,"trial":13,"correct":0,"trial_type":"three-arm-trial","trial_index":20,"time_elapsed":251970,"internal_node_id":"0.0-19.0-0.0","task_version":"screening-mturk","missing":false,"accuracy":1},{"contexts":["red","blue","green"],"outcomes":[1,0,0],"key":37,"choice":0,"rt":157.6500000010128,"outcome":1,"trial":14,"correct":0,"trial_type":"three-arm-trial","trial_index":21,"time_elapsed":253345,"internal_node_id":"0.0-20.0-0.0","task_version":"screening-mturk","missing":false,"accuracy":1},{"contexts":["red","blue","green"],"outcomes":[1,1,0],"key":37,"choice":0,"rt":55.544999999256106,"outcome":1,"trial":15,"correct":0,"trial_type":"three-arm-trial","trial_index":22,"time_elapsed":254616,"internal_node_id":"0.0-21.0-0.0","task_version":"screening-mturk","missing":false,"accuracy":1},{"contexts":["red","blue","green"],"outcomes":[0,1,0],"key":37,"choice":0,"rt":122.0050000010815,"outcome":0,"trial":16,"correct":1,"trial_type":"three-arm-trial","trial_index":23,"time_elapsed":255954,"internal_node_id":"0.0-22.0-0.0","task_version":"screening-mturk","missing":false,"accuracy":0},{"contexts":["red","blue","green"],"outcomes":[0,1,0],"key":37,"choice":0,"rt":328.205000001617,"outcome":0,"trial":17,"correct":1,"trial_type":"three-arm-trial","trial_index":24,"time_elapsed":257508,"internal_node_id":"0.0-23.0-0.0","task_version":"screening-mturk","missing":false,"accuracy":0},{"contexts":["red","blue","green"],"outcomes":[0,1,0],"key":37,"choice":0,"rt":315.65000000045984,"outcome":0,"trial":18,"correct":1,"trial_type":"three-arm-trial","trial_index":25,"time_elapsed":259038,"internal_node_id":"0.0-24.0-0.0","task_version":"screening-mturk","missing":false,"accuracy":0},{"contexts":["red","blue","green"],"outcomes":[0,1,0],"key":39,"choice":2,"rt":124.68500000066706,"outcome":0,"trial":19,"correct":1,"trial_type":"three-arm-trial","trial_index":26,"time_elapsed":260383,"internal_node_id":"0.0-25.0-0.0","task_version":"screening-mturk","missing":false,"accuracy":0},{"contexts":["red","blue","green"],"outcomes":[0,1,1],"key":39,"choice":2,"rt":28.175000001268927,"outcome":1,"trial":20,"correct":1,"trial_type":"three-arm-trial","trial_index":27,"time_elapsed":261632,"internal_node_id":"0.0-26.0-0.0","task_version":"screening-mturk","missing":false,"accuracy":0},{"contexts":["red","blue","green"],"outcomes":[1,1,0],"key":39,"choice":2,"rt":742.3499999985797,"outcome":0,"trial":21,"correct":1,"trial_type":"three-arm-trial","trial_index":28,"time_elapsed":263600,"internal_node_id":"0.0-27.0-0.0","task_version":"screening-mturk","missing":false,"accuracy":0},{"contexts":["red","blue","green"],"outcomes":[1,0,0],"key":39,"choice":2,"rt":1011.9300000005751,"outcome":0,"trial":22,"correct":1,"trial_type":"three-arm-trial","trial_index":29,"time_elapsed":265827,"internal_node_id":"0.0-28.0-0.0","task_version":"screening-mturk","missing":false,"accuracy":0},{"contexts":["red","blue","green"],"outcomes":[0,1,0],"key":39,"choice":2,"rt":428.14999999973224,"outcome":0,"trial":23,"correct":1,"trial_type":"three-arm-trial","trial_index":30,"time_elapsed":267470,"internal_node_id":"0.0-29.0-0.0","task_version":"screening-mturk","missing":false,"accuracy":0},{"contexts":["red","blue","green"],"outcomes":[0,1,0],"key":39,"choice":2,"rt":388.9749999998603,"outcome":0,"trial":24,"correct":1,"trial_type":"three-arm-trial","trial_index":31,"time_elapsed":269075,"internal_node_id":"0.0-30.0-0.0","task_version":"screening-mturk","missing":false,"accuracy":0},{"contexts":["red","blue","green"],"outcomes":[0,1,0],"key":38,"choice":1,"rt":329.59499999921536,"outcome":1,"trial":25,"correct":1,"trial_type":"three-arm-trial","trial_index":32,"time_elapsed":270621,"internal_node_id":"0.0-31.0-0.0","task_version":"screening-mturk","missing":false,"accuracy":1},{"contexts":["red","blue","green"],"outcomes":[0,1,0],"key":38,"choice":1,"rt":290.50500000087777,"outcome":1,"trial":26,"correct":1,"trial_type":"three-arm-trial","trial_index":33,"time_elapsed":272144,"internal_node_id":"0.0-32.0-0.0","task_version":"screening-mturk","missing":false,"accuracy":1},{"contexts":["red","blue","green"],"outcomes":[0,1,1],"key":38,"choice":1,"rt":359.70499999891035,"outcome":1,"trial":27,"correct":1,"trial_type":"three-arm-trial","trial_index":34,"time_elapsed":273728,"internal_node_id":"0.0-33.0-0.0","task_version":"screening-mturk","missing":false,"accuracy":1},{"contexts":["red","blue","green"],"outcomes":[0,1,0],"key":38,"choice":1,"rt":283.2450000005192,"outcome":1,"trial":28,"correct":1,"trial_type":"three-arm-trial","trial_index":35,"time_elapsed":275226,"internal_node_id":"0.0-34.0-0.0","task_version":"screening-mturk","missing":false,"accuracy":1},{"contexts":["red","blue","green"],"outcomes":[0,1,0],"key":38,"choice":1,"rt":393.715000000142,"outcome":1,"trial":29,"correct":1,"trial_type":"three-arm-trial","trial_index":36,"time_elapsed":276836,"internal_node_id":"0.0-35.0-0.0","task_version":"screening-mturk","missing":false,"accuracy":1},{"contexts":["red","blue","green"],"outcomes":[1,1,0],"key":38,"choice":1,"rt":341.9100000010221,"outcome":1,"trial":30,"correct":1,"trial_type":"three-arm-trial","trial_index":37,"time_elapsed":278399,"internal_node_id":"0.0-36.0-0.0","task_version":"screening-mturk","missing":false,"accuracy":1},{"contexts":["red","blue","green"],"outcomes":[0,0,1],"key":38,"choice":1,"rt":827.5700000012876,"outcome":0,"trial":31,"correct":2,"trial_type":"three-arm-trial","trial_index":38,"time_elapsed":280443,"internal_node_id":"0.0-37.0-0.0","task_version":"screening-mturk","missing":false,"accuracy":0},{"contexts":["red","blue","green"],"outcomes":[0,0,1],"key":38,"choice":1,"rt":345.91499999986263,"outcome":0,"trial":32,"correct":2,"trial_type":"three-arm-trial","trial_index":39,"time_elapsed":282007,"internal_node_id":"0.0-38.0-0.0","task_version":"screening-mturk","missing":false,"accuracy":0},{"contexts":["red","blue","green"],"outcomes":[0,0,0],"key":37,"choice":0,"rt":390.06000000151107,"outcome":0,"trial":33,"correct":2,"trial_type":"three-arm-trial","trial_index":40,"time_elapsed":283612,"internal_node_id":"0.0-39.0-0.0","task_version":"screening-mturk","missing":false,"accuracy":0},{"contexts":["red","blue","green"],"outcomes":[0,1,1],"key":37,"choice":0,"rt":356.66499999933876,"outcome":0,"trial":34,"correct":2,"trial_type":"three-arm-trial","trial_index":41,"time_elapsed":285185,"internal_node_id":"0.0-40.0-0.0","task_version":"screening-mturk","missing":false,"accuracy":0},{"contexts":["red","blue","green"],"outcomes":[1,0,1],"key":37,"choice":0,"rt":360.88999999995576,"outcome":1,"trial":35,"correct":2,"trial_type":"three-arm-trial","trial_index":42,"time_elapsed":286770,"internal_node_id":"0.0-41.0-0.0","task_version":"screening-mturk","missing":false,"accuracy":0},{"contexts":["red","blue","green"],"outcomes":[0,0,1],"key":37,"choice":0,"rt":454.2750000000233,"outcome":0,"trial":36,"correct":2,"trial_type":"three-arm-trial","trial_index":43,"time_elapsed":288453,"internal_node_id":"0.0-42.0-0.0","task_version":"screening-mturk","missing":false,"accuracy":0},{"contexts":["red","blue","green"],"outcomes":[0,0,1],"key":37,"choice":0,"rt":353.9000000000233,"outcome":0,"trial":37,"correct":2,"trial_type":"three-arm-trial","trial_index":44,"time_elapsed":290021,"internal_node_id":"0.0-43.0-0.0","task_version":"screening-mturk","missing":false,"accuracy":0},{"contexts":["red","blue","green"],"outcomes":[0,0,0],"key":37,"choice":0,"rt":360.3700000003446,"outcome":0,"trial":38,"correct":2,"trial_type":"three-arm-trial","trial_index":45,"time_elapsed":291595,"internal_node_id":"0.0-44.0-0.0","task_version":"screening-mturk","missing":false,"accuracy":0},{"contexts":["red","blue","green"],"outcomes":[0,1,0],"key":38,"choice":1,"rt":601.8150000000023,"outcome":1,"trial":39,"correct":2,"trial_type":"three-arm-trial","trial_index":46,"time_elapsed":293413,"internal_node_id":"0.0-45.0-0.0","task_version":"screening-mturk","missing":false,"accuracy":0},{"contexts":["red","blue","green"],"outcomes":[1,0,1],"key":38,"choice":1,"rt":181.7399999999907,"outcome":0,"trial":40,"correct":2,"trial_type":"three-arm-trial","trial_index":47,"time_elapsed":294812,"internal_node_id":"0.0-46.0-0.0","task_version":"screening-mturk","missing":false,"accuracy":0},{"contexts":["red","blue","green"],"outcomes":[1,0,0],"key":38,"choice":1,"rt":244.06999999884283,"outcome":0,"trial":41,"correct":2,"trial_type":"three-arm-trial","trial_index":48,"time_elapsed":296270,"internal_node_id":"0.0-47.0-0.0","task_version":"screening-mturk","missing":false,"accuracy":0},{"contexts":["red","blue","green"],"outcomes":[0,1,1],"key":38,"choice":1,"rt":189.4800000009127,"outcome":1,"trial":42,"correct":2,"trial_type":"three-arm-trial","trial_index":49,"time_elapsed":297675,"internal_node_id":"0.0-48.0-0.0","task_version":"screening-mturk","missing":false,"accuracy":0},{"contexts":["red","blue","green"],"outcomes":[0,1,1],"key":38,"choice":1,"rt":255.40000000002328,"outcome":1,"trial":43,"correct":2,"trial_type":"three-arm-trial","trial_index":50,"time_elapsed":299147,"internal_node_id":"0.0-49.0-0.0","task_version":"screening-mturk","missing":false,"accuracy":0},{"contexts":["red","blue","green"],"outcomes":[0,0,1],"key":38,"choice":1,"rt":292.3150000005844,"outcome":0,"trial":44,"correct":2,"trial_type":"three-arm-trial","trial_index":51,"time_elapsed":300659,"internal_node_id":"0.0-50.0-0.0","task_version":"screening-mturk","missing":false,"accuracy":0},{"contexts":["red","blue","green"],"outcomes":[0,0,1],"key":38,"choice":1,"rt":292.51499999919906,"outcome":0,"trial":45,"correct":2,"trial_type":"three-arm-trial","trial_index":52,"time_elapsed":302171,"internal_node_id":"0.0-51.0-0.0","task_version":"screening-mturk","missing":false,"accuracy":0},{"contexts":["red","blue","green"],"outcomes":[1,0,0],"key":38,"choice":1,"rt":294.2000000002445,"outcome":0,"trial":46,"correct":0,"trial_type":"three-arm-trial","trial_index":53,"time_elapsed":303681,"internal_node_id":"0.0-52.0-0.0","task_version":"screening-mturk","missing":false,"accuracy":0},{"contexts":["red","blue","green"],"outcomes":[0,0,0],"key":38,"choice":1,"rt":185.55999999993946,"outcome":0,"trial":47,"correct":0,"trial_type":"three-arm-trial","trial_index":54,"time_elapsed":305083,"internal_node_id":"0.0-53.0-0.0","task_version":"screening-mturk","missing":false,"accuracy":0},{"contexts":["red","blue","green"],"outcomes":[1,0,1],"key":39,"choice":2,"rt":369.7400000001071,"outcome":1,"trial":48,"correct":0,"trial_type":"three-arm-trial","trial_index":55,"time_elapsed":306672,"internal_node_id":"0.0-54.0-0.0","task_version":"screening-mturk","missing":false,"accuracy":0},{"contexts":["red","blue","green"],"outcomes":[1,0,0],"key":39,"choice":2,"rt":362.844999999681,"outcome":0,"trial":49,"correct":0,"trial_type":"three-arm-trial","trial_index":56,"time_elapsed":308255,"internal_node_id":"0.0-55.0-0.0","task_version":"screening-mturk","missing":false,"accuracy":0},{"contexts":["red","blue","green"],"outcomes":[0,0,1],"key":39,"choice":2,"rt":520.5999999998603,"outcome":1,"trial":50,"correct":0,"trial_type":"three-arm-trial","trial_index":57,"time_elapsed":309991,"internal_node_id":"0.0-56.0-0.0","task_version":"screening-mturk","missing":false,"accuracy":0},{"contexts":["red","blue","green"],"outcomes":[0,0,0],"key":39,"choice":2,"rt":739.7349999991711,"outcome":0,"trial":51,"correct":0,"trial_type":"three-arm-trial","trial_index":58,"time_elapsed":311947,"internal_node_id":"0.0-57.0-0.0","task_version":"screening-mturk","missing":false,"accuracy":0},{"contexts":["red","blue","green"],"outcomes":[1,0,0],"key":39,"choice":2,"rt":480.39499999867985,"outcome":0,"trial":52,"correct":0,"trial_type":"three-arm-trial","trial_index":59,"time_elapsed":313648,"internal_node_id":"0.0-58.0-0.0","task_version":"screening-mturk","missing":false,"accuracy":0},{"contexts":["red","blue","green"],"outcomes":[1,0,1],"key":39,"choice":2,"rt":408.33500000007916,"outcome":1,"trial":53,"correct":0,"trial_type":"three-arm-trial","trial_index":60,"time_elapsed":315271,"internal_node_id":"0.0-59.0-0.0","task_version":"screening-mturk","missing":false,"accuracy":0},{"contexts":["red","blue","green"],"outcomes":[1,0,0],"key":39,"choice":2,"rt":361.3100000002305,"outcome":0,"trial":54,"correct":0,"trial_type":"three-arm-trial","trial_index":61,"time_elapsed":316847,"internal_node_id":"0.0-60.0-0.0","task_version":"screening-mturk","missing":false,"accuracy":0},{"contexts":["red","blue","green"],"outcomes":[1,0,0],"key":39,"choice":2,"rt":177.34500000003027,"outcome":0,"trial":55,"correct":0,"trial_type":"three-arm-trial","trial_index":62,"time_elapsed":318248,"internal_node_id":"0.0-61.0-0.0","task_version":"screening-mturk","missing":false,"accuracy":0},{"contexts":["red","blue","green"],"outcomes":[0,0,0],"key":39,"choice":2,"rt":282.8300000000745,"outcome":0,"trial":56,"correct":0,"trial_type":"three-arm-trial","trial_index":63,"time_elapsed":319755,"internal_node_id":"0.0-62.0-0.0","task_version":"screening-mturk","missing":false,"accuracy":0},{"contexts":["red","blue","green"],"outcomes":[1,0,0],"key":39,"choice":2,"rt":333.7949999986449,"outcome":0,"trial":57,"correct":0,"trial_type":"three-arm-trial","trial_index":64,"time_elapsed":321328,"internal_node_id":"0.0-63.0-0.0","task_version":"screening-mturk","missing":false,"accuracy":0},{"contexts":["red","blue","green"],"outcomes":[1,0,0],"key":38,"choice":1,"rt":2420.729999999865,"outcome":0,"trial":58,"correct":0,"trial_type":"three-arm-trial","trial_index":65,"time_elapsed":324965,"internal_node_id":"0.0-64.0-0.0","task_version":"screening-mturk","missing":false,"accuracy":0},{"contexts":["red","blue","green"],"outcomes":[1,0,0],"key":38,"choice":1,"rt":190.30500000010943,"outcome":0,"trial":59,"correct":0,"trial_type":"three-arm-trial","trial_index":66,"time_elapsed":326375,"internal_node_id":"0.0-65.0-0.0","task_version":"screening-mturk","missing":false,"accuracy":0},{"contexts":["red","blue","green"],"outcomes":[1,1,0],"key":38,"choice":1,"rt":284.59499999915715,"outcome":1,"trial":60,"correct":0,"trial_type":"three-arm-trial","trial_index":67,"time_elapsed":327877,"internal_node_id":"0.0-66.0-0.0","task_version":"screening-mturk","missing":false,"accuracy":0},{"contexts":["red","blue","green"],"outcomes":[0,1,0],"key":38,"choice":1,"rt":281.97999999974854,"outcome":1,"trial":61,"correct":1,"trial_type":"three-arm-trial","trial_index":68,"time_elapsed":329375,"internal_node_id":"0.0-67.0-0.0","task_version":"screening-mturk","missing":false,"accuracy":1},{"contexts":["red","blue","green"],"outcomes":[0,1,0],"key":38,"choice":1,"rt":296.97999999916647,"outcome":1,"trial":62,"correct":1,"trial_type":"three-arm-trial","trial_index":69,"time_elapsed":330891,"internal_node_id":"0.0-68.0-0.0","task_version":"screening-mturk","missing":false,"accuracy":1},{"contexts":["red","blue","green"],"outcomes":[0,1,0],"key":38,"choice":1,"rt":337.72000000136904,"outcome":1,"trial":63,"correct":1,"trial_type":"three-arm-trial","trial_index":70,"time_elapsed":332443,"internal_node_id":"0.0-69.0-0.0","task_version":"screening-mturk","missing":false,"accuracy":1},{"contexts":["red","blue","green"],"outcomes":[1,1,0],"key":38,"choice":1,"rt":371.489999999525,"outcome":1,"trial":64,"correct":1,"trial_type":"three-arm-trial","trial_index":71,"time_elapsed":334030,"internal_node_id":"0.0-70.0-0.0","task_version":"screening-mturk","missing":false,"accuracy":1},{"contexts":["red","blue","green"],"outcomes":[0,1,1],"key":38,"choice":1,"rt":305.8249999994878,"outcome":1,"trial":65,"correct":1,"trial_type":"three-arm-trial","trial_index":72,"time_elapsed":335561,"internal_node_id":"0.0-71.0-0.0","task_version":"screening-mturk","missing":false,"accuracy":1},{"contexts":["red","blue","green"],"outcomes":[1,1,1],"key":38,"choice":1,"rt":311.63999999989755,"outcome":1,"trial":66,"correct":1,"trial_type":"three-arm-trial","trial_index":73,"time_elapsed":337096,"internal_node_id":"0.0-72.0-0.0","task_version":"screening-mturk","missing":false,"accuracy":1},{"contexts":["red","blue","green"],"outcomes":[0,1,1],"key":38,"choice":1,"rt":259.6749999993481,"outcome":1,"trial":67,"correct":1,"trial_type":"three-arm-trial","trial_index":74,"time_elapsed":338575,"internal_node_id":"0.0-73.0-0.0","task_version":"screening-mturk","missing":false,"accuracy":1},{"contexts":["red","blue","green"],"outcomes":[0,1,0],"key":38,"choice":1,"rt":271.1200000012759,"outcome":1,"trial":68,"correct":1,"trial_type":"three-arm-trial","trial_index":75,"time_elapsed":340063,"internal_node_id":"0.0-74.0-0.0","task_version":"screening-mturk","missing":false,"accuracy":1},{"contexts":["red","blue","green"],"outcomes":[0,1,0],"key":38,"choice":1,"rt":17.73499999946216,"outcome":1,"trial":69,"correct":1,"trial_type":"three-arm-trial","trial_index":76,"time_elapsed":341297,"internal_node_id":"0.0-75.0-0.0","task_version":"screening-mturk","missing":false,"accuracy":1},{"contexts":["red","blue","green"],"outcomes":[0,1,0],"key":38,"choice":1,"rt":180.31499999965308,"outcome":1,"trial":70,"correct":1,"trial_type":"three-arm-trial","trial_index":77,"time_elapsed":342692,"internal_node_id":"0.0-76.0-0.0","task_version":"screening-mturk","missing":false,"accuracy":1},{"contexts":["red","blue","green"],"outcomes":[0,1,0],"key":38,"choice":1,"rt":338.16000000119675,"outcome":1,"trial":71,"correct":1,"trial_type":"three-arm-trial","trial_index":78,"time_elapsed":344246,"internal_node_id":"0.0-77.0-0.0","task_version":"screening-mturk","missing":false,"accuracy":1},{"contexts":["red","blue","green"],"outcomes":[0,1,0],"key":38,"choice":1,"rt":315.4350000004051,"outcome":1,"trial":72,"correct":1,"trial_type":"three-arm-trial","trial_index":79,"time_elapsed":345792,"internal_node_id":"0.0-78.0-0.0","task_version":"screening-mturk","missing":false,"accuracy":1},{"contexts":["red","blue","green"],"outcomes":[0,1,0],"key":38,"choice":1,"rt":367.49000000057276,"outcome":1,"trial":73,"correct":1,"trial_type":"three-arm-trial","trial_index":80,"time_elapsed":347376,"internal_node_id":"0.0-79.0-0.0","task_version":"screening-mturk","missing":false,"accuracy":1},{"contexts":["red","blue","green"],"outcomes":[0,1,0],"key":38,"choice":1,"rt":350.3600000003353,"outcome":1,"trial":74,"correct":1,"trial_type":"three-arm-trial","trial_index":81,"time_elapsed":348944,"internal_node_id":"0.0-80.0-0.0","task_version":"screening-mturk","missing":false,"accuracy":1},{"contexts":["red","blue","green"],"outcomes":[0,1,0],"key":38,"choice":1,"rt":311.50999999954365,"outcome":1,"trial":75,"correct":1,"trial_type":"three-arm-trial","trial_index":82,"time_elapsed":350471,"internal_node_id":"0.0-81.0-0.0","task_version":"screening-mturk","missing":false,"accuracy":1},{"contexts":["red","blue","green"],"outcomes":[0,0,1],"key":38,"choice":1,"rt":352.6750000001048,"outcome":0,"trial":76,"correct":2,"trial_type":"three-arm-trial","trial_index":83,"time_elapsed":352040,"internal_node_id":"0.0-82.0-0.0","task_version":"screening-mturk","missing":false,"accuracy":0},{"contexts":["red","blue","green"],"outcomes":[0,0,1],"key":38,"choice":1,"rt":301.33500000007916,"outcome":0,"trial":77,"correct":2,"trial_type":"three-arm-trial","trial_index":84,"time_elapsed":353557,"internal_node_id":"0.0-83.0-0.0","task_version":"screening-mturk","missing":false,"accuracy":0},{"contexts":["red","blue","green"],"outcomes":[0,0,1],"key":37,"choice":0,"rt":135.10500000120373,"outcome":0,"trial":78,"correct":2,"trial_type":"three-arm-trial","trial_index":85,"time_elapsed":354907,"internal_node_id":"0.0-84.0-0.0","task_version":"screening-mturk","missing":false,"accuracy":0},{"contexts":["red","blue","green"],"outcomes":[1,0,1],"key":37,"choice":0,"rt":412.7549999993644,"outcome":1,"trial":79,"correct":2,"trial_type":"three-arm-trial","trial_index":86,"time_elapsed":356535,"internal_node_id":"0.0-85.0-0.0","task_version":"screening-mturk","missing":false,"accuracy":0},{"contexts":["red","blue","green"],"outcomes":[0,0,1],"key":37,"choice":0,"rt":311.690000000468,"outcome":0,"trial":80,"correct":2,"trial_type":"three-arm-trial","trial_index":87,"time_elapsed":358063,"internal_node_id":"0.0-86.0-0.0","task_version":"screening-mturk","missing":false,"accuracy":0},{"contexts":["red","blue","green"],"outcomes":[0,0,1],"key":37,"choice":0,"rt":255.51500000077067,"outcome":0,"trial":81,"correct":2,"trial_type":"three-arm-trial","trial_index":88,"time_elapsed":359536,"internal_node_id":"0.0-87.0-0.0","task_version":"screening-mturk","missing":false,"accuracy":0},{"contexts":["red","blue","green"],"outcomes":[1,0,1],"key":37,"choice":0,"rt":423.55499999935273,"outcome":1,"trial":82,"correct":2,"trial_type":"three-arm-trial","trial_index":89,"time_elapsed":361193,"internal_node_id":"0.0-88.0-0.0","task_version":"screening-mturk","missing":false,"accuracy":0},{"contexts":["red","blue","green"],"outcomes":[0,0,1],"key":37,"choice":0,"rt":332.8250000013504,"outcome":0,"trial":83,"correct":2,"trial_type":"three-arm-trial","trial_index":90,"time_elapsed":362742,"internal_node_id":"0.0-89.0-0.0","task_version":"screening-mturk","missing":false,"accuracy":0},{"contexts":["red","blue","green"],"outcomes":[0,1,1],"key":37,"choice":0,"rt":330.9700000009034,"outcome":0,"trial":84,"correct":2,"trial_type":"three-arm-trial","trial_index":91,"time_elapsed":364294,"internal_node_id":"0.0-90.0-0.0","task_version":"screening-mturk","missing":false,"accuracy":0},{"contexts":["red","blue","green"],"outcomes":[0,0,1],"key":37,"choice":0,"rt":218.49500000098487,"outcome":0,"trial":85,"correct":2,"trial_type":"three-arm-trial","trial_index":92,"time_elapsed":365744,"internal_node_id":"0.0-91.0-0.0","task_version":"screening-mturk","missing":false,"accuracy":0},{"contexts":["red","blue","green"],"outcomes":[0,0,1],"key":37,"choice":0,"rt":111.1550000004936,"outcome":0,"trial":86,"correct":2,"trial_type":"three-arm-trial","trial_index":93,"time_elapsed":367073,"internal_node_id":"0.0-92.0-0.0","task_version":"screening-mturk","missing":false,"accuracy":0},{"contexts":["red","blue","green"],"outcomes":[1,1,1],"key":39,"choice":2,"rt":223.24999999906868,"outcome":1,"trial":87,"correct":2,"trial_type":"three-arm-trial","trial_index":94,"time_elapsed":368518,"internal_node_id":"0.0-93.0-0.0","task_version":"screening-mturk","missing":false,"accuracy":1},{"contexts":["red","blue","green"],"outcomes":[0,1,1],"key":39,"choice":2,"rt":332.87999999994645,"outcome":1,"trial":88,"correct":2,"trial_type":"three-arm-trial","trial_index":95,"time_elapsed":370067,"internal_node_id":"0.0-94.0-0.0","task_version":"screening-mturk","missing":false,"accuracy":1},{"contexts":["red","blue","green"],"outcomes":[1,1,1],"key":39,"choice":2,"rt":458.71000000077765,"outcome":1,"trial":89,"correct":2,"trial_type":"three-arm-trial","trial_index":96,"time_elapsed":371741,"internal_node_id":"0.0-95.0-0.0","task_version":"screening-mturk","missing":false,"accuracy":1},{"contexts":["red","blue","green"],"outcomes":[0,1,1],"key":39,"choice":2,"rt":378.3349999994389,"outcome":1,"trial":90,"correct":2,"trial_type":"three-arm-trial","trial_index":97,"time_elapsed":373335,"internal_node_id":"0.0-96.0-0.0","task_version":"screening-mturk","missing":false,"accuracy":1},{"rt":22070.16500000097,"responses":{"age":"58","gender-categorical":"Female","gender-free-response":"","ethnicity":"Not Hispanic or Latino","race":["White"],"language":"Yes","fluency":"Very well","prolific":"Yes","prolific-this-study":"No"},"survey":"demographics","trial_type":"survey-demo","trial_index":98,"time_elapsed":395451,"internal_node_id":"0.0-97.0","task_version":"screening-mturk","interactions":"[]"}]