[{"responses":{"Q07":"2","Q04":"1","Q03":"3","Q01":"3","Q02":"2","Q06":"3","Q05":"1","Q08":"2"},"rt":20690.999999991618,"survey":"gad7","trial_type":"survey-template","trial_index":0,"time_elapsed":20723,"internal_node_id":"0.0-0.0","task_version":"screening-mturk"},{"responses":{"Q04":"3","Q02":"2","Q13":"1","Q09":"3","Q08":"2","Q05":"3","Q06":"1","Q12":"2","Q01":"3","Q15":"2","Q11":"1","Q14":"3","Q03":"2","Q07":"3","Q10":"2"},"rt":57375,"survey":"7up7down","trial_type":"survey-template","trial_index":1,"time_elapsed":78105,"internal_node_id":"0.0-1.0","task_version":"screening-mturk"},{"responses":{"Q10":"2","Q01":"3","Q07":"2","Q08":"3","Q13":"2","Q05":"2","Q03":"3","Q09":"2","Q12":"3","Q02":"3","Q06":"2","Q04":"3","Q11":"2"},"rt":93185.99999998696,"survey":"bisbas","trial_type":"survey-template","trial_index":2,"time_elapsed":171300,"internal_node_id":"0.0-2.0","task_version":"screening-mturk"},{"responses":{"Q02":"4","Q01":"3","Q03":"2"},"rt":23771.999999997206,"survey":"pswq","trial_type":"survey-template","trial_index":3,"time_elapsed":195074,"internal_node_id":"0.0-3.0","task_version":"screening-mturk"},{"responses":{"Q10":"2","Q11":"3","Q06":"3","Q07":"2","Q02":"3","Q05":"2","Q15":"2","Q09":"3","Q04":"2","Q14":"3","Q08":"2","Q12":"3","Q01":"2","Q13":"3","Q03":"2"},"rt":44747.00000009034,"survey":"shaps","trial_type":"survey-template","trial_index":4,"time_elapsed":239831,"internal_node_id":"0.0-4.0","task_version":"screening-mturk"},{"view_history":"[{\"page_index\":0,\"viewing_time\":21688.999999896623},{\"page_index\":1,\"viewing_time\":26333.000000100583},{\"page_index\":2,\"viewing_time\":4995.9999999264255},{\"page_index\":3,\"viewing_time\":1591.0000000149012},{\"page_index\":2,\"viewing_time\":886.9999999878928},{\"page_index\":3,\"viewing_time\":603.000000002794},{\"page_index\":4,\"viewing_time\":831.0000000055879},{\"page_index\":5,\"viewing_time\":711.0000000102445},{\"page_index\":6,\"viewing_time\":633.9999999618158},{\"page_index\":7,\"viewing_time\":601.0000000242144}]","rt":58875.99999993108,"trial_type":"instructions","trial_index":5,"time_elapsed":298711,"internal_node_id":"0.0-5.0-0.0","task_version":"screening-mturk"},{"responses":["True","True","True","True","True"],"num_errors":2,"rt":8451.000000000931,"trial_type":"three-arm-comprehension","trial_index":6,"time_elapsed":307169,"internal_node_id":"0.0-5.0-1.0","task_version":"screening-mturk"},{"view_history":"[{\"page_index\":0,\"viewing_time\":30263.999999966472},{\"page_index\":1,\"viewing_time\":3426.0000000940636},{\"page_index\":2,\"viewing_time\":2030.9999999590218},{\"page_index\":3,\"viewing_time\":2192.0000000391155},{\"page_index\":4,\"viewing_time\":1652.9999999329448},{\"page_index\":5,\"viewing_time\":1739.0000000596046},{\"page_index\":6,\"viewing_time\":1956.000000005588},{\"page_index\":7,\"viewing_time\":1854.9999999813735}]","rt":45116.000000038184,"trial_type":"instructions","trial_index":7,"time_elapsed":352300,"internal_node_id":"0.0-5.1-0.1","task_version":"screening-mturk"},{"responses":["True","True","False","False","False"],"num_errors":1,"rt":138511.9999999879,"trial_type":"three-arm-comprehension","trial_index":8,"time_elapsed":490813,"internal_node_id":"0.0-5.1-1.1","task_version":"screening-mturk"},{"view_history":"[{\"page_index\":0,\"viewing_time\":2976.0000000242144},{\"page_index\":1,\"viewing_time\":836.9999999413267},{\"page_index\":2,\"viewing_time\":513.9999999664724},{\"page_index\":3,\"viewing_time\":386.0000000568107},{\"page_index\":4,\"viewing_time\":481.99999995995313},{\"page_index\":5,\"viewing_time\":617.0000000856817},{\"page_index\":6,\"viewing_time\":620.9999999264255},{\"page_index\":7,\"viewing_time\":648.0000000447035}]","rt":7081.99999993667,"trial_type":"instructions","trial_index":9,"time_elapsed":497898,"internal_node_id":"0.0-5.2-0.2","task_version":"screening-mturk"},{"responses":["True","True","True","True","True"],"num_errors":2,"rt":4128.000000026077,"trial_type":"three-arm-comprehension","trial_index":10,"time_elapsed":502032,"internal_node_id":"0.0-5.2-1.2","task_version":"screening-mturk"},{"view_history":"[{\"page_index\":0,\"viewing_time\":1300.9999999776483},{\"page_index\":1,\"viewing_time\":488.0000000121072},{\"page_index\":2,\"viewing_time\":265.00000001396984},{\"page_index\":3,\"viewing_time\":228.9999999338761},{\"page_index\":4,\"viewing_time\":202.9999999795109},{\"page_index\":5,\"viewing_time\":195.00000006519258},{\"page_index\":6,\"viewing_time\":204.99999995809048},{\"page_index\":7,\"viewing_time\":222.99999999813735}]","rt":3109.99999998603,"trial_type":"instructions","trial_index":11,"time_elapsed":505152,"internal_node_id":"0.0-5.3-0.3","task_version":"screening-mturk"},{"responses":["False","False","False","False","False"],"num_errors":3,"rt":4945.999999996275,"trial_type":"three-arm-comprehension","trial_index":12,"time_elapsed":510108,"internal_node_id":"0.0-5.3-1.3","task_version":"screening-mturk"},{"view_history":"[{\"page_index\":0,\"viewing_time\":1168.999999994412},{\"page_index\":1,\"viewing_time\":283.0000000540167},{\"page_index\":2,\"viewing_time\":204.99999995809048},{\"page_index\":3,\"viewing_time\":182.00000002980232},{\"page_index\":4,\"viewing_time\":380.0000000046566},{\"page_index\":5,\"viewing_time\":3.000000026077032},{\"page_index\":6,\"viewing_time\":234.99999998603016},{\"page_index\":7,\"viewing_time\":631.0000000521541}]","rt":3092.0000000623986,"trial_type":"instructions","trial_index":13,"time_elapsed":513218,"internal_node_id":"0.0-5.4-0.4","task_version":"screening-mturk"},{"responses":["True","False","True","False","True"],"num_errors":2,"rt":4542.0000000158325,"trial_type":"three-arm-comprehension","trial_index":14,"time_elapsed":517762,"internal_node_id":"0.0-5.4-1.4","task_version":"screening-mturk"},{"view_history":"[{\"page_index\":0,\"viewing_time\":1697.9999999748543},{\"page_index\":1,\"viewing_time\":815.000000060536},{\"page_index\":2,\"viewing_time\":420.99999997299165},{\"page_index\":3,\"viewing_time\":192.00000003911555},{\"page_index\":4,\"viewing_time\":205.9999998891726},{\"page_index\":5,\"viewing_time\":197.00000004377216},{\"page_index\":6,\"viewing_time\":153.99999998044223},{\"page_index\":7,\"viewing_time\":168.00000006332994}]","rt":3851.0000000242144,"trial_type":"instructions","trial_index":15,"time_elapsed":521613,"internal_node_id":"0.0-5.5-0.5","task_version":"screening-mturk"},{"responses":["True","False","False","True","True"],"num_errors":2,"rt":5999.000000068918,"trial_type":"three-arm-comprehension","trial_index":16,"time_elapsed":527620,"internal_node_id":"0.0-5.5-1.5","task_version":"screening-mturk"},{"view_history":"[{\"page_index\":0,\"viewing_time\":1032.0000000065193},{\"page_index\":1,\"viewing_time\":456.00000000558794},{\"page_index\":2,\"viewing_time\":185.00000005587935},{\"page_index\":3,\"viewing_time\":204.00000002700835},{\"page_index\":4,\"viewing_time\":176.9999999087304},{\"page_index\":5,\"viewing_time\":195.9999999962747},{\"page_index\":6,\"viewing_time\":193.000000086613},{\"page_index\":7,\"viewing_time\":172.99999995157123}]","rt":2616.000000038184,"trial_type":"instructions","trial_index":17,"time_elapsed":530242,"internal_node_id":"0.0-5.6-0.6","task_version":"screening-mturk"},{"responses":["True","False","False","False","True"],"num_errors":1,"rt":4170.0000000419095,"trial_type":"three-arm-comprehension","trial_index":18,"time_elapsed":534414,"internal_node_id":"0.0-5.6-1.6","task_version":"screening-mturk"},{"view_history":"[{\"page_index\":0,\"viewing_time\":1106.9999999599531},{\"page_index\":1,\"viewing_time\":241.99999996926636},{\"page_index\":2,\"viewing_time\":171.00000008940697},{\"page_index\":3,\"viewing_time\":191.99999992270023},{\"page_index\":4,\"viewing_time\":177.0000000251457},{\"page_index\":5,\"viewing_time\":211.00000001024455},{\"page_index\":6,\"viewing_time\":148.00000004470348},{\"page_index\":7,\"viewing_time\":195.9999999962747}]","rt":2444.000000017695,"trial_type":"instructions","trial_index":19,"time_elapsed":536863,"internal_node_id":"0.0-5.7-0.7","task_version":"screening-mturk"},{"responses":["False","False","False","False","True"],"num_errors":2,"rt":7359.99999998603,"trial_type":"three-arm-comprehension","trial_index":20,"time_elapsed":544223,"internal_node_id":"0.0-5.7-1.7","task_version":"screening-mturk"},{"view_history":"[{\"page_index\":0,\"viewing_time\":1028.9999999804422},{\"page_index\":1,\"viewing_time\":214.00000003632158},{\"page_index\":2,\"viewing_time\":157.9999999376014},{\"page_index\":3,\"viewing_time\":224.0000000456348},{\"page_index\":4,\"viewing_time\":155.9999999590218},{\"page_index\":5,\"viewing_time\":201.00000000093132},{\"page_index\":6,\"viewing_time\":143.00000004004687},{\"page_index\":7,\"viewing_time\":209.9999999627471}]","rt":2334.999999962747,"trial_type":"instructions","trial_index":21,"time_elapsed":546558,"internal_node_id":"0.0-5.8-0.8","task_version":"screening-mturk"},{"responses":["True","False","False","True","False"],"num_errors":3,"rt":5266.999999992549,"trial_type":"three-arm-comprehension","trial_index":22,"time_elapsed":551829,"internal_node_id":"0.0-5.8-1.8","task_version":"screening-mturk"},{"view_history":"[{\"page_index\":0,\"viewing_time\":974.0000000456348},{\"page_index\":1,\"viewing_time\":271.0000000661239},{\"page_index\":2,\"viewing_time\":182.99999996088445},{\"page_index\":3,\"viewing_time\":182.99999996088445},{\"page_index\":4,\"viewing_time\":160.0000000325963},{\"page_index\":5,\"viewing_time\":162.00000001117587},{\"page_index\":6,\"viewing_time\":410.9999999636784},{\"page_index\":7,\"viewing_time\":194.00000001769513}]","rt":2539.000000106171,"trial_type":"instructions","trial_index":23,"time_elapsed":554383,"internal_node_id":"0.0-5.9-0.9","task_version":"screening-mturk"},{"responses":["False","True","False","True","False"],"num_errors":3,"rt":7126.000000047497,"trial_type":"three-arm-comprehension","trial_index":24,"time_elapsed":561510,"internal_node_id":"0.0-5.9-1.9","task_version":"screening-mturk"},{"view_history":"[{\"page_index\":0,\"viewing_time\":1125.9999999310821},{\"page_index\":1,\"viewing_time\":207.0000000530854},{\"page_index\":2,\"viewing_time\":302.99999995622784},{\"page_index\":3,\"viewing_time\":204.00000002700835},{\"page_index\":4,\"viewing_time\":361.0000000335276},{\"page_index\":5,\"viewing_time\":150.00000002328306},{\"page_index\":6,\"viewing_time\":190.9999999916181},{\"page_index\":7,\"viewing_time\":498.99999995250255}]","rt":3040.999999968335,"trial_type":"instructions","trial_index":25,"time_elapsed":564551,"internal_node_id":"0.0-5.10-0.10","task_version":"screening-mturk"},{"responses":["True","False","False","True","True"],"num_errors":2,"rt":6427.000000025146,"trial_type":"three-arm-comprehension","trial_index":26,"time_elapsed":570982,"internal_node_id":"0.0-5.10-1.10","task_version":"screening-mturk"},{"view_history":"[{\"page_index\":0,\"viewing_time\":1153.00000004936},{\"page_index\":1,\"viewing_time\":12211.999999941327},{\"page_index\":2,\"viewing_time\":452.0000000484288},{\"page_index\":3,\"viewing_time\":202.9999999795109},{\"page_index\":4,\"viewing_time\":187.99999996554106},{\"page_index\":5,\"viewing_time\":168.99999999441206},{\"page_index\":6,\"viewing_time\":177.0000000251457},{\"page_index\":7,\"viewing_time\":173.99999999906868}]","rt":14728.000000002794,"trial_type":"instructions","trial_index":27,"time_elapsed":585713,"internal_node_id":"0.0-5.11-0.11","task_version":"screening-mturk"},{"responses":["False","True","True","False","False"],"num_errors":3,"rt":5346.000000019558,"trial_type":"three-arm-comprehension","trial_index":28,"time_elapsed":591089,"internal_node_id":"0.0-5.11-1.11","task_version":"screening-mturk"},{"view_history":"[{\"page_index\":0,\"viewing_time\":1113.0000000121072},{\"page_index\":1,\"viewing_time\":203.00000009592623},{\"page_index\":2,\"viewing_time\":211.99999994132668},{\"page_index\":3,\"viewing_time\":158.0000000540167},{\"page_index\":4,\"viewing_time\":180.99999998230487},{\"page_index\":5,\"viewing_time\":170.99999997299165},{\"page_index\":6,\"viewing_time\":368.0000000167638},{\"page_index\":7,\"viewing_time\":199.99999995343387}]","rt":2607.0000000763685,"trial_type":"instructions","trial_index":29,"time_elapsed":593701,"internal_node_id":"0.0-5.12-0.12","task_version":"screening-mturk"},{"responses":["False","False","False","True","False"],"num_errors":4,"rt":5232.000000076368,"trial_type":"three-arm-comprehension","trial_index":30,"time_elapsed":598936,"internal_node_id":"0.0-5.12-1.12","task_version":"screening-mturk"},{"view_history":"[{\"page_index\":0,\"viewing_time\":1059.000000008382},{\"page_index\":1,\"viewing_time\":198.99999990593642},{\"page_index\":2,\"viewing_time\":167.00000001583248},{\"page_index\":3,\"viewing_time\":187.00000003445894},{\"page_index\":4,\"viewing_time\":167.9999999469146},{\"page_index\":5,\"viewing_time\":187.00000003445894},{\"page_index\":6,\"viewing_time\":165.99999996833503},{\"page_index\":7,\"viewing_time\":244.9999999953434}]","rt":2377.9999999096617,"trial_type":"instructions","trial_index":31,"time_elapsed":601317,"internal_node_id":"0.0-5.13-0.13","task_version":"screening-mturk"},{"responses":["True","True","True","True","False"],"num_errors":3,"rt":4743.000000016764,"trial_type":"three-arm-comprehension","trial_index":32,"time_elapsed":606065,"internal_node_id":"0.0-5.13-1.13","task_version":"screening-mturk"},{"view_history":"[{\"page_index\":0,\"viewing_time\":917.9999999469146},{\"page_index\":1,\"viewing_time\":201.00000000093132},{\"page_index\":2,\"viewing_time\":194.00000001769513},{\"page_index\":3,\"viewing_time\":201.00000000093132},{\"page_index\":4,\"viewing_time\":167.00000001583248},{\"page_index\":5,\"viewing_time\":199.00000002235174},{\"page_index\":6,\"viewing_time\":137.99999991897494},{\"page_index\":7,\"viewing_time\":222.00000006705523}]","rt":2243.000000016764,"trial_type":"instructions","trial_index":33,"time_elapsed":608313,"internal_node_id":"0.0-5.14-0.14","task_version":"screening-mturk"},{"responses":["True","True","True","False","True"],"num_errors":1,"rt":8486.99999996461,"trial_type":"three-arm-comprehension","trial_index":34,"time_elapsed":616809,"internal_node_id":"0.0-5.14-1.14","task_version":"screening-mturk"},{"view_history":"[{\"page_index\":0,\"viewing_time\":1675.0000000465661},{\"page_index\":1,\"viewing_time\":378.00000002607703},{\"page_index\":2,\"viewing_time\":340.99999989848584},{\"page_index\":3,\"viewing_time\":145.00000001862645},{\"page_index\":4,\"viewing_time\":204.00000002700835},{\"page_index\":5,\"viewing_time\":195.9999999962747},{\"page_index\":6,\"viewing_time\":182.00000002980232},{\"page_index\":7,\"viewing_time\":211.99999994132668}]","rt":3332.9999999841675,"trial_type":"instructions","trial_index":35,"time_elapsed":620142,"internal_node_id":"0.0-5.15-0.15","task_version":"screening-mturk"},{"responses":["False","True","True","False","True"],"num_errors":2,"rt":4760.000000009313,"trial_type":"three-arm-comprehension","trial_index":36,"time_elapsed":624904,"internal_node_id":"0.0-5.15-1.15","task_version":"screening-mturk"},{"view_history":"[{\"page_index\":0,\"viewing_time\":1061.9999999180436},{\"page_index\":1,\"viewing_time\":217.99999999348074},{\"page_index\":2,\"viewing_time\":582.0000000530854},{\"page_index\":3,\"viewing_time\":201.99999993201345},{\"page_index\":4,\"viewing_time\":200.0000000698492},{\"page_index\":5,\"viewing_time\":194.00000001769513},{\"page_index\":6,\"viewing_time\":181.999999913387},{\"page_index\":7,\"viewing_time\":242.00000008568168}]","rt":2881.999999983236,"trial_type":"instructions","trial_index":37,"time_elapsed":627793,"internal_node_id":"0.0-5.16-0.16","task_version":"screening-mturk"},{"responses":["False","True","True","False","True"],"num_errors":2,"rt":6356.000000028871,"trial_type":"three-arm-comprehension","trial_index":38,"time_elapsed":634151,"internal_node_id":"0.0-5.16-1.16","task_version":"screening-mturk"},{"view_history":"[{\"page_index\":0,\"viewing_time\":1074.9999999534339},{\"page_index\":1,\"viewing_time\":292.9999999469146},{\"page_index\":2,\"viewing_time\":189.00000001303852},{\"page_index\":3,\"viewing_time\":176.00000009406358},{\"page_index\":4,\"viewing_time\":202.9999999795109},{\"page_index\":5,\"viewing_time\":186.9999999180436},{\"page_index\":6,\"viewing_time\":161.00000008009374},{\"page_index\":7,\"viewing_time\":192.99999997019768}]","rt":2479.9999999813735,"trial_type":"instructions","trial_index":39,"time_elapsed":636631,"internal_node_id":"0.0-5.17-0.17","task_version":"screening-mturk"},{"responses":["True","True","False","False","False"],"num_errors":1,"rt":5048.999999999069,"trial_type":"three-arm-comprehension","trial_index":40,"time_elapsed":641683,"internal_node_id":"0.0-5.17-1.17","task_version":"screening-mturk"},{"view_history":"[{\"page_index\":0,\"viewing_time\":912.0000000111759},{\"page_index\":1,\"viewing_time\":190.9999999916181},{\"page_index\":2,\"viewing_time\":204.99999995809048},{\"page_index\":3,\"viewing_time\":199.00000002235174},{\"page_index\":4,\"viewing_time\":184.0000000083819},{\"page_index\":5,\"viewing_time\":319.00000001769513},{\"page_index\":6,\"viewing_time\":241.99999996926636},{\"page_index\":7,\"viewing_time\":216.00000001490116}]","rt":2518.999999971129,"trial_type":"instructions","trial_index":41,"time_elapsed":644211,"internal_node_id":"0.0-5.18-0.18","task_version":"screening-mturk"},{"responses":["True","True","False","True","True"],"num_errors":1,"rt":26616.000000038184,"trial_type":"three-arm-comprehension","trial_index":42,"time_elapsed":670828,"internal_node_id":"0.0-5.18-1.18","task_version":"screening-mturk"},{"view_history":"[{\"page_index\":0,\"viewing_time\":1263.9999999664724},{\"page_index\":1,\"viewing_time\":248.00000002142042},{\"page_index\":2,\"viewing_time\":189.99999994412065},{\"page_index\":3,\"viewing_time\":198.0000000912696},{\"page_index\":4,\"viewing_time\":162.999999942258},{\"page_index\":5,\"viewing_time\":190.00000006053597},{\"page_index\":6,\"viewing_time\":152.00000000186265},{\"page_index\":7,\"viewing_time\":553.99999988731}]","rt":2958.9999999152496,"trial_type":"instructions","trial_index":43,"time_elapsed":673795,"internal_node_id":"0.0-5.19-0.19","task_version":"screening-mturk"},{"responses":["False","True","True","True","False"],"num_errors":4,"rt":4702.000000048429,"trial_type":"three-arm-comprehension","trial_index":44,"time_elapsed":678498,"internal_node_id":"0.0-5.19-1.19","task_version":"screening-mturk"},{"view_history":"[{\"page_index\":0,\"viewing_time\":818.000000086613},{\"page_index\":1,\"viewing_time\":219.99999997206032},{\"page_index\":2,\"viewing_time\":341.00000001490116},{\"page_index\":3,\"viewing_time\":196.99999992735684},{\"page_index\":4,\"viewing_time\":172.0000000204891},{\"page_index\":5,\"viewing_time\":180.99999998230487},{\"page_index\":6,\"viewing_time\":146.0000000661239},{\"page_index\":7,\"viewing_time\":300.99999997764826}]","rt":2381.000000052154,"trial_type":"instructions","trial_index":45,"time_elapsed":680882,"internal_node_id":"0.0-5.20-0.20","task_version":"screening-mturk"},{"responses":["False","False","False","True","True"],"num_errors":3,"rt":7179.999999934807,"trial_type":"three-arm-comprehension","trial_index":46,"time_elapsed":688063,"internal_node_id":"0.0-5.20-1.20","task_version":"screening-mturk"},{"view_history":"[{\"page_index\":0,\"viewing_time\":1047.000000020489},{\"page_index\":1,\"viewing_time\":239.00000005960464},{\"page_index\":2,\"viewing_time\":153.99999998044223},{\"page_index\":3,\"viewing_time\":163.99999998975545},{\"page_index\":4,\"viewing_time\":187.00000003445894},{\"page_index\":5,\"viewing_time\":186.9999999180436},{\"page_index\":6,\"viewing_time\":187.00000003445894},{\"page_index\":7,\"viewing_time\":189.00000001303852}]","rt":2354.0000000502914,"trial_type":"instructions","trial_index":47,"time_elapsed":690436,"internal_node_id":"0.0-5.21-0.21","task_version":"screening-mturk"},{"responses":["False","True","True","True","True"],"num_errors":3,"rt":4800.000000046566,"trial_type":"three-arm-comprehension","trial_index":48,"time_elapsed":695252,"internal_node_id":"0.0-5.21-1.21","task_version":"screening-mturk"},{"view_history":"[{\"page_index\":0,\"viewing_time\":1290.000000037253},{\"page_index\":1,\"viewing_time\":349.99999997671694},{\"page_index\":2,\"viewing_time\":228.00000000279397},{\"page_index\":3,\"viewing_time\":339.9999999674037},{\"page_index\":4,\"viewing_time\":225.00000009313226},{\"page_index\":5,\"viewing_time\":335.9999998938292},{\"page_index\":6,\"viewing_time\":240.0000001071021},{\"page_index\":7,\"viewing_time\":152.00000000186265}]","rt":3161.0000000800937,"trial_type":"instructions","trial_index":49,"time_elapsed":698415,"internal_node_id":"0.0-5.22-0.22","task_version":"screening-mturk"},{"responses":["False","True","True","False","True"],"num_errors":2,"rt":11462.999999988824,"trial_type":"three-arm-comprehension","trial_index":50,"time_elapsed":709885,"internal_node_id":"0.0-5.22-1.22","task_version":"screening-mturk"},{"view_history":"[{\"page_index\":0,\"viewing_time\":1219.9999999720603},{\"page_index\":1,\"viewing_time\":236.0000000335276},{\"page_index\":2,\"viewing_time\":140.99999994505197},{\"page_index\":3,\"viewing_time\":178.00000007264316},{\"page_index\":4,\"viewing_time\":184.0000000083819},{\"page_index\":5,\"viewing_time\":355.9999999124557},{\"page_index\":6,\"viewing_time\":215.00000008381903},{\"page_index\":7,\"viewing_time\":377.9999999096617}]","rt":2908.999999985099,"trial_type":"instructions","trial_index":51,"time_elapsed":712816,"internal_node_id":"0.0-5.23-0.23","task_version":"screening-mturk"},{"responses":["True","False","False","False","False"],"num_errors":2,"rt":7974.000000045635,"trial_type":"three-arm-comprehension","trial_index":52,"time_elapsed":720793,"internal_node_id":"0.0-5.23-1.23","task_version":"screening-mturk"},{"view_history":"[{\"page_index\":0,\"viewing_time\":969.0000000409782},{\"page_index\":1,\"viewing_time\":238.0000000121072},{\"page_index\":2,\"viewing_time\":172.99999995157123},{\"page_index\":3,\"viewing_time\":184.0000000083819},{\"page_index\":4,\"viewing_time\":182.00000002980232},{\"page_index\":5,\"viewing_time\":755.9999999357387},{\"page_index\":6,\"viewing_time\":212.000000057742},{\"page_index\":7,\"viewing_time\":133.99999996181577}]","rt":2849.000000045635,"trial_type":"instructions","trial_index":53,"time_elapsed":723645,"internal_node_id":"0.0-5.24-0.24","task_version":"screening-mturk"},{"responses":["True","True","False","False","True"],"num_errors":0,"rt":14010.999999940395,"trial_type":"three-arm-comprehension","trial_index":54,"time_elapsed":737661,"internal_node_id":"0.0-5.24-1.24","task_version":"screening-mturk"},{"view_history":"[{\"page_index\":0,\"viewing_time\":5000}]","rt":5000,"trial_type":"instructions","trial_index":55,"time_elapsed":742666,"internal_node_id":"0.0-6.0","task_version":"screening-mturk"},{"contexts":["green","blue","red"],"outcomes":[0,0,1],"key":null,"rt":null,"trial":1,"correct":2,"trial_type":"three-arm-trial","trial_index":56,"time_elapsed":757672,"internal_node_id":"0.0-7.0-0.0","task_version":"screening-mturk","missing":true},{"contexts":["green","blue","red"],"outcomes":[0,0,1],"key":39,"choice":2,"rt":1873.0000000214204,"outcome":1,"trial":1,"correct":2,"trial_type":"three-arm-trial","trial_index":57,"time_elapsed":760774,"internal_node_id":"0.0-7.1-0.1","task_version":"screening-mturk","missing":false,"accuracy":1},{"contexts":["green","blue","red"],"outcomes":[1,0,1],"key":37,"choice":0,"rt":1482.0000000763685,"outcome":1,"trial":2,"correct":2,"trial_type":"three-arm-trial","trial_index":58,"time_elapsed":763459,"internal_node_id":"0.0-8.0-0.0","task_version":"screening-mturk","missing":false,"accuracy":0},{"contexts":["green","blue","red"],"outcomes":[1,1,1],"key":38,"choice":1,"rt":831.9999999366701,"outcome":1,"trial":3,"correct":2,"trial_type":"three-arm-trial","trial_index":59,"time_elapsed":765497,"internal_node_id":"0.0-9.0-0.0","task_version":"screening-mturk","missing":false,"accuracy":0},{"contexts":["green","blue","red"],"outcomes":[1,0,1],"key":39,"choice":2,"rt":790.999999968335,"outcome":1,"trial":4,"correct":2,"trial_type":"three-arm-trial","trial_index":60,"time_elapsed":767494,"internal_node_id":"0.0-10.0-0.0","task_version":"screening-mturk","missing":false,"accuracy":1},{"contexts":["green","blue","red"],"outcomes":[0,0,1],"key":38,"choice":1,"rt":54.99999993480742,"outcome":0,"trial":5,"correct":2,"trial_type":"three-arm-trial","trial_index":61,"time_elapsed":768765,"internal_node_id":"0.0-11.0-0.0","task_version":"screening-mturk","missing":false,"accuracy":0},{"contexts":["green","blue","red"],"outcomes":[0,0,1],"key":39,"choice":2,"rt":3.9999999571591616,"outcome":1,"trial":6,"correct":2,"trial_type":"three-arm-trial","trial_index":62,"time_elapsed":769972,"internal_node_id":"0.0-12.0-0.0","task_version":"screening-mturk","missing":false,"accuracy":1},{"contexts":["green","blue","red"],"outcomes":[0,0,1],"key":39,"choice":2,"rt":55.00000005122274,"outcome":1,"trial":7,"correct":2,"trial_type":"three-arm-trial","trial_index":63,"time_elapsed":771229,"internal_node_id":"0.0-13.0-0.0","task_version":"screening-mturk","missing":false,"accuracy":1},{"contexts":["green","blue","red"],"outcomes":[0,0,1],"key":37,"choice":0,"rt":81.99999993667006,"outcome":0,"trial":8,"correct":2,"trial_type":"three-arm-trial","trial_index":64,"time_elapsed":772520,"internal_node_id":"0.0-14.0-0.0","task_version":"screening-mturk","missing":false,"accuracy":0},{"contexts":["green","blue","red"],"outcomes":[0,0,0],"key":38,"choice":1,"rt":209.00000003166497,"outcome":0,"trial":9,"correct":2,"trial_type":"three-arm-trial","trial_index":65,"time_elapsed":773943,"internal_node_id":"0.0-15.0-0.0","task_version":"screening-mturk","missing":false,"accuracy":0},{"contexts":["green","blue","red"],"outcomes":[1,0,1],"key":37,"choice":0,"rt":108.00000000745058,"outcome":1,"trial":10,"correct":2,"trial_type":"three-arm-trial","trial_index":66,"time_elapsed":775257,"internal_node_id":"0.0-16.0-0.0","task_version":"screening-mturk","missing":false,"accuracy":0},{"contexts":["green","blue","red"],"outcomes":[0,0,1],"key":38,"choice":1,"rt":49.99999993015081,"outcome":0,"trial":11,"correct":2,"trial_type":"three-arm-trial","trial_index":67,"time_elapsed":776513,"internal_node_id":"0.0-17.0-0.0","task_version":"screening-mturk","missing":false,"accuracy":0},{"contexts":["green","blue","red"],"outcomes":[0,0,1],"key":38,"choice":1,"rt":39.99999992083758,"outcome":0,"trial":12,"correct":2,"trial_type":"three-arm-trial","trial_index":68,"time_elapsed":777763,"internal_node_id":"0.0-18.0-0.0","task_version":"screening-mturk","missing":false,"accuracy":0},{"contexts":["green","blue","red"],"outcomes":[1,0,1],"key":39,"choice":2,"rt":3.9999999571591616,"outcome":1,"trial":13,"correct":2,"trial_type":"three-arm-trial","trial_index":69,"time_elapsed":778970,"internal_node_id":"0.0-19.0-0.0","task_version":"screening-mturk","missing":false,"accuracy":1},{"contexts":["green","blue","red"],"outcomes":[1,0,1],"key":39,"choice":2,"rt":377.9999999096617,"outcome":1,"trial":14,"correct":2,"trial_type":"three-arm-trial","trial_index":70,"time_elapsed":780563,"internal_node_id":"0.0-20.0-0.0","task_version":"screening-mturk","missing":false,"accuracy":1},{"contexts":["green","blue","red"],"outcomes":[1,0,1],"key":39,"choice":2,"rt":152.99999993294477,"outcome":1,"trial":15,"correct":2,"trial_type":"three-arm-trial","trial_index":71,"time_elapsed":781917,"internal_node_id":"0.0-21.0-0.0","task_version":"screening-mturk","missing":false,"accuracy":1},{"contexts":["green","blue","red"],"outcomes":[1,1,0],"key":39,"choice":2,"rt":97.00000006705523,"outcome":0,"trial":16,"correct":0,"trial_type":"three-arm-trial","trial_index":72,"time_elapsed":783254,"internal_node_id":"0.0-22.0-0.0","task_version":"screening-mturk","missing":false,"accuracy":0},{"contexts":["green","blue","red"],"outcomes":[1,0,0],"key":37,"choice":0,"rt":35.00000003259629,"outcome":1,"trial":17,"correct":0,"trial_type":"three-arm-trial","trial_index":73,"time_elapsed":784502,"internal_node_id":"0.0-23.0-0.0","task_version":"screening-mturk","missing":false,"accuracy":1},{"contexts":["green","blue","red"],"outcomes":[1,0,1],"key":38,"choice":1,"rt":37.00000001117587,"outcome":0,"trial":18,"correct":0,"trial_type":"three-arm-trial","trial_index":74,"time_elapsed":785743,"internal_node_id":"0.0-24.0-0.0","task_version":"screening-mturk","missing":false,"accuracy":0},{"contexts":["green","blue","red"],"outcomes":[1,0,0],"key":37,"choice":0,"rt":67.00000003911555,"outcome":1,"trial":19,"correct":0,"trial_type":"three-arm-trial","trial_index":75,"time_elapsed":787012,"internal_node_id":"0.0-25.0-0.0","task_version":"screening-mturk","missing":false,"accuracy":1},{"contexts":["green","blue","red"],"outcomes":[1,0,0],"key":37,"choice":0,"rt":128.99999995715916,"outcome":1,"trial":20,"correct":0,"trial_type":"three-arm-trial","trial_index":76,"time_elapsed":788350,"internal_node_id":"0.0-26.0-0.0","task_version":"screening-mturk","missing":false,"accuracy":1},{"contexts":["green","blue","red"],"outcomes":[1,0,0],"key":37,"choice":0,"rt":16.99999999254942,"outcome":1,"trial":21,"correct":0,"trial_type":"three-arm-trial","trial_index":77,"time_elapsed":789572,"internal_node_id":"0.0-27.0-0.0","task_version":"screening-mturk","missing":false,"accuracy":1},{"contexts":["green","blue","red"],"outcomes":[1,0,0],"key":37,"choice":0,"rt":82.99999998416752,"outcome":1,"trial":22,"correct":0,"trial_type":"three-arm-trial","trial_index":78,"time_elapsed":790863,"internal_node_id":"0.0-28.0-0.0","task_version":"screening-mturk","missing":false,"accuracy":1},{"contexts":["green","blue","red"],"outcomes":[1,0,1],"key":37,"choice":0,"rt":150.9999999543652,"outcome":1,"trial":23,"correct":0,"trial_type":"three-arm-trial","trial_index":79,"time_elapsed":792222,"internal_node_id":"0.0-29.0-0.0","task_version":"screening-mturk","missing":false,"accuracy":1},{"contexts":["green","blue","red"],"outcomes":[1,0,0],"key":37,"choice":0,"rt":97.99999999813735,"outcome":1,"trial":24,"correct":0,"trial_type":"three-arm-trial","trial_index":80,"time_elapsed":793531,"internal_node_id":"0.0-30.0-0.0","task_version":"screening-mturk","missing":false,"accuracy":1},{"contexts":["green","blue","red"],"outcomes":[1,0,0],"key":37,"choice":0,"rt":173.00000006798655,"outcome":1,"trial":25,"correct":0,"trial_type":"three-arm-trial","trial_index":81,"time_elapsed":794906,"internal_node_id":"0.0-31.0-0.0","task_version":"screening-mturk","missing":false,"accuracy":1},{"contexts":["green","blue","red"],"outcomes":[1,0,1],"key":37,"choice":0,"rt":5.999999935738742,"outcome":1,"trial":26,"correct":0,"trial_type":"three-arm-trial","trial_index":82,"time_elapsed":796123,"internal_node_id":"0.0-32.0-0.0","task_version":"screening-mturk","missing":false,"accuracy":1},{"contexts":["green","blue","red"],"outcomes":[1,0,0],"key":37,"choice":0,"rt":96.00000001955777,"outcome":1,"trial":27,"correct":0,"trial_type":"three-arm-trial","trial_index":83,"time_elapsed":797431,"internal_node_id":"0.0-33.0-0.0","task_version":"screening-mturk","missing":false,"accuracy":1},{"contexts":["green","blue","red"],"outcomes":[1,0,0],"key":37,"choice":0,"rt":87.99999998882413,"outcome":1,"trial":28,"correct":0,"trial_type":"three-arm-trial","trial_index":84,"time_elapsed":798730,"internal_node_id":"0.0-34.0-0.0","task_version":"screening-mturk","missing":false,"accuracy":1},{"contexts":["green","blue","red"],"outcomes":[0,1,0],"key":37,"choice":0,"rt":59.0000000083819,"outcome":0,"trial":29,"correct":0,"trial_type":"three-arm-trial","trial_index":85,"time_elapsed":799992,"internal_node_id":"0.0-35.0-0.0","task_version":"screening-mturk","missing":false,"accuracy":1},{"contexts":["green","blue","red"],"outcomes":[1,0,1],"key":39,"choice":2,"rt":57.99999996088445,"outcome":1,"trial":30,"correct":0,"trial_type":"three-arm-trial","trial_index":86,"time_elapsed":801267,"internal_node_id":"0.0-36.0-0.0","task_version":"screening-mturk","missing":false,"accuracy":0},{"contexts":["green","blue","red"],"outcomes":[0,1,0],"key":39,"choice":2,"rt":46.00000008940697,"outcome":0,"trial":31,"correct":1,"trial_type":"three-arm-trial","trial_index":87,"time_elapsed":802534,"internal_node_id":"0.0-37.0-0.0","task_version":"screening-mturk","missing":false,"accuracy":0},{"contexts":["green","blue","red"],"outcomes":[0,0,0],"key":38,"choice":1,"rt":121.99999997392297,"outcome":0,"trial":32,"correct":1,"trial_type":"three-arm-trial","trial_index":88,"time_elapsed":803856,"internal_node_id":"0.0-38.0-0.0","task_version":"screening-mturk","missing":false,"accuracy":1},{"contexts":["green","blue","red"],"outcomes":[0,1,0],"key":37,"choice":0,"rt":57.00000002980232,"outcome":0,"trial":33,"correct":1,"trial_type":"three-arm-trial","trial_index":89,"time_elapsed":805116,"internal_node_id":"0.0-39.0-0.0","task_version":"screening-mturk","missing":false,"accuracy":0},{"contexts":["green","blue","red"],"outcomes":[1,0,0],"key":39,"choice":2,"rt":187.00000003445894,"outcome":0,"trial":34,"correct":1,"trial_type":"three-arm-trial","trial_index":90,"time_elapsed":806511,"internal_node_id":"0.0-40.0-0.0","task_version":"screening-mturk","missing":false,"accuracy":0},{"contexts":["green","blue","red"],"outcomes":[0,1,1],"key":37,"choice":0,"rt":64.00000001303852,"outcome":0,"trial":35,"correct":1,"trial_type":"three-arm-trial","trial_index":91,"time_elapsed":807777,"internal_node_id":"0.0-41.0-0.0","task_version":"screening-mturk","missing":false,"accuracy":0},{"contexts":["green","blue","red"],"outcomes":[0,1,0],"key":38,"choice":1,"rt":82.99999998416752,"outcome":1,"trial":36,"correct":1,"trial_type":"three-arm-trial","trial_index":92,"time_elapsed":809066,"internal_node_id":"0.0-42.0-0.0","task_version":"screening-mturk","missing":false,"accuracy":1},{"contexts":["green","blue","red"],"outcomes":[0,0,0],"key":38,"choice":1,"rt":131.9999999832362,"outcome":0,"trial":37,"correct":1,"trial_type":"three-arm-trial","trial_index":93,"time_elapsed":810407,"internal_node_id":"0.0-43.0-0.0","task_version":"screening-mturk","missing":false,"accuracy":1},{"contexts":["green","blue","red"],"outcomes":[0,1,0],"key":37,"choice":0,"rt":201.00000000093132,"outcome":0,"trial":38,"correct":1,"trial_type":"three-arm-trial","trial_index":94,"time_elapsed":811808,"internal_node_id":"0.0-44.0-0.0","task_version":"screening-mturk","missing":false,"accuracy":0},{"contexts":["green","blue","red"],"outcomes":[1,1,0],"key":39,"choice":2,"rt":195.00000006519258,"outcome":0,"trial":39,"correct":1,"trial_type":"three-arm-trial","trial_index":95,"time_elapsed":813212,"internal_node_id":"0.0-45.0-0.0","task_version":"screening-mturk","missing":false,"accuracy":0},{"contexts":["green","blue","red"],"outcomes":[0,0,0],"key":37,"choice":0,"rt":161.00000008009374,"outcome":0,"trial":40,"correct":1,"trial_type":"three-arm-trial","trial_index":96,"time_elapsed":814582,"internal_node_id":"0.0-46.0-0.0","task_version":"screening-mturk","missing":false,"accuracy":0},{"contexts":["green","blue","red"],"outcomes":[0,1,0],"key":38,"choice":1,"rt":52.99999995622784,"outcome":1,"trial":41,"correct":1,"trial_type":"three-arm-trial","trial_index":97,"time_elapsed":815836,"internal_node_id":"0.0-47.0-0.0","task_version":"screening-mturk","missing":false,"accuracy":1},{"contexts":["green","blue","red"],"outcomes":[0,1,0],"key":38,"choice":1,"rt":83.99999991524965,"outcome":1,"trial":42,"correct":1,"trial_type":"three-arm-trial","trial_index":98,"time_elapsed":817132,"internal_node_id":"0.0-48.0-0.0","task_version":"screening-mturk","missing":false,"accuracy":1},{"contexts":["green","blue","red"],"outcomes":[0,1,0],"key":38,"choice":1,"rt":18.999999971129,"outcome":1,"trial":43,"correct":1,"trial_type":"three-arm-trial","trial_index":99,"time_elapsed":818358,"internal_node_id":"0.0-49.0-0.0","task_version":"screening-mturk","missing":false,"accuracy":1},{"contexts":["green","blue","red"],"outcomes":[0,0,0],"key":38,"choice":1,"rt":11.999999987892807,"outcome":0,"trial":44,"correct":1,"trial_type":"three-arm-trial","trial_index":100,"time_elapsed":819578,"internal_node_id":"0.0-50.0-0.0","task_version":"screening-mturk","missing":false,"accuracy":1},{"contexts":["green","blue","red"],"outcomes":[0,1,0],"key":39,"choice":2,"rt":148.9999999757856,"outcome":0,"trial":45,"correct":1,"trial_type":"three-arm-trial","trial_index":101,"time_elapsed":820956,"internal_node_id":"0.0-51.0-0.0","task_version":"screening-mturk","missing":false,"accuracy":0},{"contexts":["green","blue","red"],"outcomes":[1,1,0],"key":39,"choice":2,"rt":6.999999983236194,"outcome":0,"trial":46,"correct":0,"trial_type":"three-arm-trial","trial_index":102,"time_elapsed":822201,"internal_node_id":"0.0-52.0-0.0","task_version":"screening-mturk","missing":false,"accuracy":0},{"contexts":["green","blue","red"],"outcomes":[0,0,0],"key":37,"choice":0,"rt":74.00000002235174,"outcome":0,"trial":47,"correct":0,"trial_type":"three-arm-trial","trial_index":103,"time_elapsed":823477,"internal_node_id":"0.0-53.0-0.0","task_version":"screening-mturk","missing":false,"accuracy":1},{"contexts":["green","blue","red"],"outcomes":[1,1,0],"key":38,"choice":1,"rt":50.00000004656613,"outcome":1,"trial":48,"correct":0,"trial_type":"three-arm-trial","trial_index":104,"time_elapsed":824754,"internal_node_id":"0.0-54.0-0.0","task_version":"screening-mturk","missing":false,"accuracy":0},{"contexts":["green","blue","red"],"outcomes":[1,0,0],"key":38,"choice":1,"rt":136.9999999878928,"outcome":0,"trial":49,"correct":0,"trial_type":"three-arm-trial","trial_index":105,"time_elapsed":826098,"internal_node_id":"0.0-55.0-0.0","task_version":"screening-mturk","missing":false,"accuracy":0},{"contexts":["green","blue","red"],"outcomes":[1,0,0],"key":37,"choice":0,"rt":101.99999995529652,"outcome":1,"trial":50,"correct":0,"trial_type":"three-arm-trial","trial_index":106,"time_elapsed":827405,"internal_node_id":"0.0-56.0-0.0","task_version":"screening-mturk","missing":false,"accuracy":1},{"contexts":["green","blue","red"],"outcomes":[1,0,0],"key":37,"choice":0,"rt":40.99999996833503,"outcome":1,"trial":51,"correct":0,"trial_type":"three-arm-trial","trial_index":107,"time_elapsed":828649,"internal_node_id":"0.0-57.0-0.0","task_version":"screening-mturk","missing":false,"accuracy":1},{"contexts":["green","blue","red"],"outcomes":[1,0,0],"key":37,"choice":0,"rt":165.99999996833503,"outcome":1,"trial":52,"correct":0,"trial_type":"three-arm-trial","trial_index":108,"time_elapsed":830039,"internal_node_id":"0.0-58.0-0.0","task_version":"screening-mturk","missing":false,"accuracy":1},{"contexts":["green","blue","red"],"outcomes":[1,1,0],"key":37,"choice":0,"rt":113.0000000121072,"outcome":1,"trial":53,"correct":0,"trial_type":"three-arm-trial","trial_index":109,"time_elapsed":831360,"internal_node_id":"0.0-59.0-0.0","task_version":"screening-mturk","missing":false,"accuracy":1},{"contexts":["green","blue","red"],"outcomes":[0,0,0],"key":37,"choice":0,"rt":155.9999999590218,"outcome":0,"trial":54,"correct":0,"trial_type":"three-arm-trial","trial_index":110,"time_elapsed":832725,"internal_node_id":"0.0-60.0-0.0","task_version":"screening-mturk","missing":false,"accuracy":1},{"contexts":["green","blue","red"],"outcomes":[1,0,0],"key":39,"choice":2,"rt":209.9999999627471,"outcome":0,"trial":55,"correct":0,"trial_type":"three-arm-trial","trial_index":111,"time_elapsed":834138,"internal_node_id":"0.0-61.0-0.0","task_version":"screening-mturk","missing":false,"accuracy":0},{"contexts":["green","blue","red"],"outcomes":[1,0,0],"key":38,"choice":1,"rt":347.99999999813735,"outcome":0,"trial":56,"correct":0,"trial_type":"three-arm-trial","trial_index":112,"time_elapsed":835688,"internal_node_id":"0.0-62.0-0.0","task_version":"screening-mturk","missing":false,"accuracy":0},{"contexts":["green","blue","red"],"outcomes":[1,0,0],"key":37,"choice":0,"rt":307.99999996088445,"outcome":1,"trial":57,"correct":0,"trial_type":"three-arm-trial","trial_index":113,"time_elapsed":837230,"internal_node_id":"0.0-63.0-0.0","task_version":"screening-mturk","missing":false,"accuracy":1},{"contexts":["green","blue","red"],"outcomes":[1,1,0],"key":37,"choice":0,"rt":258.00000003073364,"outcome":1,"trial":58,"correct":0,"trial_type":"three-arm-trial","trial_index":114,"time_elapsed":838702,"internal_node_id":"0.0-64.0-0.0","task_version":"screening-mturk","missing":false,"accuracy":1},{"contexts":["green","blue","red"],"outcomes":[1,1,1],"key":37,"choice":0,"rt":157.9999999376014,"outcome":1,"trial":59,"correct":0,"trial_type":"three-arm-trial","trial_index":115,"time_elapsed":840063,"internal_node_id":"0.0-65.0-0.0","task_version":"screening-mturk","missing":false,"accuracy":1},{"contexts":["green","blue","red"],"outcomes":[1,0,0],"key":37,"choice":0,"rt":192.99999997019768,"outcome":1,"trial":60,"correct":0,"trial_type":"three-arm-trial","trial_index":116,"time_elapsed":841462,"internal_node_id":"0.0-66.0-0.0","task_version":"screening-mturk","missing":false,"accuracy":1},{"contexts":["green","blue","red"],"outcomes":[0,0,1],"key":37,"choice":0,"rt":138.00000003539026,"outcome":0,"trial":61,"correct":1,"trial_type":"three-arm-trial","trial_index":117,"time_elapsed":842806,"internal_node_id":"0.0-67.0-0.0","task_version":"screening-mturk","missing":false,"accuracy":0},{"contexts":["green","blue","red"],"outcomes":[0,1,0],"key":38,"choice":1,"rt":153.99999998044223,"outcome":1,"trial":62,"correct":1,"trial_type":"three-arm-trial","trial_index":118,"time_elapsed":844167,"internal_node_id":"0.0-68.0-0.0","task_version":"screening-mturk","missing":false,"accuracy":1},{"contexts":["green","blue","red"],"outcomes":[0,1,0],"key":37,"choice":0,"rt":172.0000000204891,"outcome":0,"trial":63,"correct":1,"trial_type":"three-arm-trial","trial_index":119,"time_elapsed":845540,"internal_node_id":"0.0-69.0-0.0","task_version":"screening-mturk","missing":false,"accuracy":0},{"contexts":["green","blue","red"],"outcomes":[0,1,1],"key":39,"choice":2,"rt":114.99999999068677,"outcome":1,"trial":64,"correct":1,"trial_type":"three-arm-trial","trial_index":120,"time_elapsed":846897,"internal_node_id":"0.0-70.0-0.0","task_version":"screening-mturk","missing":false,"accuracy":0},{"contexts":["green","blue","red"],"outcomes":[0,0,0],"key":37,"choice":0,"rt":32.00000000651926,"outcome":0,"trial":65,"correct":1,"trial_type":"three-arm-trial","trial_index":121,"time_elapsed":848131,"internal_node_id":"0.0-71.0-0.0","task_version":"screening-mturk","missing":false,"accuracy":0},{"contexts":["green","blue","red"],"outcomes":[0,0,0],"key":39,"choice":2,"rt":82.00000005308539,"outcome":0,"trial":66,"correct":1,"trial_type":"three-arm-trial","trial_index":122,"time_elapsed":849418,"internal_node_id":"0.0-72.0-0.0","task_version":"screening-mturk","missing":false,"accuracy":0},{"contexts":["green","blue","red"],"outcomes":[0,1,0],"key":37,"choice":0,"rt":125.99999993108213,"outcome":0,"trial":67,"correct":1,"trial_type":"three-arm-trial","trial_index":123,"time_elapsed":850758,"internal_node_id":"0.0-73.0-0.0","task_version":"screening-mturk","missing":false,"accuracy":0},{"contexts":["green","blue","red"],"outcomes":[0,1,0],"key":39,"choice":2,"rt":138.9999999664724,"outcome":0,"trial":68,"correct":1,"trial_type":"three-arm-trial","trial_index":124,"time_elapsed":852109,"internal_node_id":"0.0-74.0-0.0","task_version":"screening-mturk","missing":false,"accuracy":0},{"contexts":["green","blue","red"],"outcomes":[0,0,0],"key":38,"choice":1,"rt":195.9999999962747,"outcome":0,"trial":69,"correct":1,"trial_type":"three-arm-trial","trial_index":125,"time_elapsed":853508,"internal_node_id":"0.0-75.0-0.0","task_version":"screening-mturk","missing":false,"accuracy":1},{"contexts":["green","blue","red"],"outcomes":[0,1,0],"key":37,"choice":0,"rt":82.99999998416752,"outcome":0,"trial":70,"correct":1,"trial_type":"three-arm-trial","trial_index":126,"time_elapsed":854796,"internal_node_id":"0.0-76.0-0.0","task_version":"screening-mturk","missing":false,"accuracy":0},{"contexts":["green","blue","red"],"outcomes":[0,1,0],"key":39,"choice":2,"rt":120.99999992642552,"outcome":0,"trial":71,"correct":1,"trial_type":"three-arm-trial","trial_index":127,"time_elapsed":856138,"internal_node_id":"0.0-77.0-0.0","task_version":"screening-mturk","missing":false,"accuracy":0},{"contexts":["green","blue","red"],"outcomes":[0,1,0],"key":39,"choice":2,"rt":219.99999997206032,"outcome":0,"trial":72,"correct":1,"trial_type":"three-arm-trial","trial_index":128,"time_elapsed":857560,"internal_node_id":"0.0-78.0-0.0","task_version":"screening-mturk","missing":false,"accuracy":0},{"contexts":["green","blue","red"],"outcomes":[0,1,0],"key":37,"choice":0,"rt":13.999999966472387,"outcome":0,"trial":73,"correct":1,"trial_type":"three-arm-trial","trial_index":129,"time_elapsed":858777,"internal_node_id":"0.0-79.0-0.0","task_version":"screening-mturk","missing":false,"accuracy":0},{"contexts":["green","blue","red"],"outcomes":[0,1,0],"key":39,"choice":2,"rt":88.00000010523945,"outcome":0,"trial":74,"correct":1,"trial_type":"three-arm-trial","trial_index":130,"time_elapsed":860069,"internal_node_id":"0.0-80.0-0.0","task_version":"screening-mturk","missing":false,"accuracy":0},{"contexts":["green","blue","red"],"outcomes":[0,1,0],"key":37,"choice":0,"rt":172.99999995157123,"outcome":0,"trial":75,"correct":1,"trial_type":"three-arm-trial","trial_index":131,"time_elapsed":861456,"internal_node_id":"0.0-81.0-0.0","task_version":"screening-mturk","missing":false,"accuracy":0},{"contexts":["green","blue","red"],"outcomes":[1,0,1],"key":38,"choice":1,"rt":116.99999996926636,"outcome":0,"trial":76,"correct":2,"trial_type":"three-arm-trial","trial_index":132,"time_elapsed":862781,"internal_node_id":"0.0-82.0-0.0","task_version":"screening-mturk","missing":false,"accuracy":0},{"contexts":["green","blue","red"],"outcomes":[0,0,0],"key":39,"choice":2,"rt":1.0000000474974513,"outcome":0,"trial":77,"correct":2,"trial_type":"three-arm-trial","trial_index":133,"time_elapsed":863985,"internal_node_id":"0.0-83.0-0.0","task_version":"screening-mturk","missing":false,"accuracy":1},{"contexts":["green","blue","red"],"outcomes":[0,0,1],"key":37,"choice":0,"rt":256.9999999832362,"outcome":0,"trial":78,"correct":2,"trial_type":"three-arm-trial","trial_index":134,"time_elapsed":865451,"internal_node_id":"0.0-84.0-0.0","task_version":"screening-mturk","missing":false,"accuracy":0},{"contexts":["green","blue","red"],"outcomes":[0,0,0],"key":37,"choice":0,"rt":92.99999999348074,"outcome":0,"trial":79,"correct":2,"trial_type":"three-arm-trial","trial_index":135,"time_elapsed":866749,"internal_node_id":"0.0-85.0-0.0","task_version":"screening-mturk","missing":false,"accuracy":0},{"contexts":["green","blue","red"],"outcomes":[1,0,1],"key":38,"choice":1,"rt":33.99999998509884,"outcome":0,"trial":80,"correct":2,"trial_type":"three-arm-trial","trial_index":136,"time_elapsed":867993,"internal_node_id":"0.0-86.0-0.0","task_version":"screening-mturk","missing":false,"accuracy":0},{"contexts":["green","blue","red"],"outcomes":[0,0,1],"key":39,"choice":2,"rt":51.99999990873039,"outcome":1,"trial":81,"correct":2,"trial_type":"three-arm-trial","trial_index":137,"time_elapsed":869262,"internal_node_id":"0.0-87.0-0.0","task_version":"screening-mturk","missing":false,"accuracy":1},{"contexts":["green","blue","red"],"outcomes":[0,1,1],"key":39,"choice":2,"rt":116.00000003818423,"outcome":1,"trial":82,"correct":2,"trial_type":"three-arm-trial","trial_index":138,"time_elapsed":870581,"internal_node_id":"0.0-88.0-0.0","task_version":"screening-mturk","missing":false,"accuracy":1},{"contexts":["green","blue","red"],"outcomes":[1,0,1],"key":39,"choice":2,"rt":201.00000000093132,"outcome":1,"trial":83,"correct":2,"trial_type":"three-arm-trial","trial_index":139,"time_elapsed":871998,"internal_node_id":"0.0-89.0-0.0","task_version":"screening-mturk","missing":false,"accuracy":1},{"contexts":["green","blue","red"],"outcomes":[0,1,1],"key":39,"choice":2,"rt":173.99999999906868,"outcome":1,"trial":84,"correct":2,"trial_type":"three-arm-trial","trial_index":140,"time_elapsed":873374,"internal_node_id":"0.0-90.0-0.0","task_version":"screening-mturk","missing":false,"accuracy":1},{"contexts":["green","blue","red"],"outcomes":[0,0,1],"key":39,"choice":2,"rt":163.00000005867332,"outcome":1,"trial":85,"correct":2,"trial_type":"three-arm-trial","trial_index":141,"time_elapsed":874742,"internal_node_id":"0.0-91.0-0.0","task_version":"screening-mturk","missing":false,"accuracy":1},{"contexts":["green","blue","red"],"outcomes":[1,0,0],"key":39,"choice":2,"rt":108.00000000745058,"outcome":0,"trial":86,"correct":2,"trial_type":"three-arm-trial","trial_index":142,"time_elapsed":876052,"internal_node_id":"0.0-92.0-0.0","task_version":"screening-mturk","missing":false,"accuracy":1},{"contexts":["green","blue","red"],"outcomes":[0,0,1],"key":37,"choice":0,"rt":5.999999935738742,"outcome":0,"trial":87,"correct":2,"trial_type":"three-arm-trial","trial_index":143,"time_elapsed":877264,"internal_node_id":"0.0-93.0-0.0","task_version":"screening-mturk","missing":false,"accuracy":0},{"contexts":["green","blue","red"],"outcomes":[0,0,1],"key":38,"choice":1,"rt":54.00000000372529,"outcome":0,"trial":88,"correct":2,"trial_type":"three-arm-trial","trial_index":144,"time_elapsed":878521,"internal_node_id":"0.0-94.0-0.0","task_version":"screening-mturk","missing":false,"accuracy":0},{"contexts":["green","blue","red"],"outcomes":[0,0,1],"key":39,"choice":2,"rt":193.000000086613,"outcome":1,"trial":89,"correct":2,"trial_type":"three-arm-trial","trial_index":145,"time_elapsed":879923,"internal_node_id":"0.0-95.0-0.0","task_version":"screening-mturk","missing":false,"accuracy":1},{"contexts":["green","blue","red"],"outcomes":[0,0,1],"key":39,"choice":2,"rt":76.00000000093132,"outcome":1,"trial":90,"correct":2,"trial_type":"three-arm-trial","trial_index":146,"time_elapsed":881217,"internal_node_id":"0.0-96.0-0.0","task_version":"screening-mturk","missing":false,"accuracy":1},{"rt":31118.000000016764,"responses":{"age":"30","gender-categorical":"Male","gender-free-response":"","ethnicity":"Hispanic or Latino","race":["Black or African American"],"language":"Yes","fluency":"Very well","prolific":"Yes","prolific-this-study":"No"},"survey":"demographics","trial_type":"survey-demo","trial_index":147,"time_elapsed":912352,"internal_node_id":"0.0-97.0","task_version":"screening-mturk","interactions":"[{\"event\":\"blur\",\"trial\":2,\"time\":83556},{\"event\":\"focus\",\"trial\":2,\"time\":118399},{\"event\":\"blur\",\"trial\":5,\"time\":266566},{\"event\":\"focus\",\"trial\":5,\"time\":285901},{\"event\":\"blur\",\"trial\":27,\"time\":573042},{\"event\":\"focus\",\"trial\":27,\"time\":582738},{\"event\":\"blur\",\"trial\":50,\"time\":700781},{\"event\":\"focus\",\"trial\":50,\"time\":702684},{\"event\":\"blur\",\"trial\":50,\"time\":703639},{\"event\":\"focus\",\"trial\":50,\"time\":704671}]"}]