[{"responses":{"Q04":"2","Q13":"3","Q08":"2","Q09":"2","Q01":"2","Q03":"2","Q11":"2","Q07":"3","Q06":"2","Q10":"2","Q05":"2","Q02":"2","Q12":"2"},"rt":42907.18500001822,"survey":"bisbas","trial_type":"survey-template","trial_index":0,"time_elapsed":42919,"internal_node_id":"0.0-0.0","task_version":"screening-mturk"},{"responses":{"Q09":"1","Q04":"1","Q10":"1","Q07":"0","Q05":"1","Q08":"0","Q14":"0","Q13":"0","Q01":"0","Q15":"0","Q02":"1","Q03":"0","Q06":"0","Q12":"0","Q11":"1"},"rt":69538.37999992538,"survey":"7up7down","trial_type":"survey-template","trial_index":1,"time_elapsed":112463,"internal_node_id":"0.0-1.0","task_version":"screening-mturk"},{"responses":{"Q06":"0","Q05":"0","Q02":"0","Q01":"0","Q04":"0","Q07":"0","Q08":"0","Q03":"0"},"rt":13283.554999972694,"survey":"gad7","trial_type":"survey-template","trial_index":2,"time_elapsed":125751,"internal_node_id":"0.0-2.0","task_version":"screening-mturk"},{"responses":{"Q04":"3","Q07":"2","Q05":"2","Q03":"2","Q08":"2","Q10":"3","Q06":"2","Q01":"3","Q02":"2","Q11":"2","Q15":"3","Q12":"2","Q13":"2","Q09":"2","Q14":"2"},"rt":41075.689999968745,"survey":"shaps","trial_type":"survey-template","trial_index":3,"time_elapsed":166831,"internal_node_id":"0.0-3.0","task_version":"screening-mturk"},{"responses":{"Q01":"1","Q03":"1","Q02":"1"},"rt":11396.234999992885,"survey":"pswq","trial_type":"survey-template","trial_index":4,"time_elapsed":178231,"internal_node_id":"0.0-4.0","task_version":"screening-mturk"},{"view_history":"[{\"page_index\":0,\"viewing_time\":4894.4300001021475},{\"page_index\":1,\"viewing_time\":11375.639999983832},{\"page_index\":2,\"viewing_time\":4753.154999925755},{\"page_index\":3,\"viewing_time\":6350.62000004109},{\"page_index\":4,\"viewing_time\":6208.00500002224},{\"page_index\":5,\"viewing_time\":2783.964999951422},{\"page_index\":6,\"viewing_time\":5616.0600000293925},{\"page_index\":7,\"viewing_time\":3152.0849999506027}]","rt":45134.89000010304,"trial_type":"instructions","trial_index":5,"time_elapsed":223367,"internal_node_id":"0.0-5.0-0.0","task_version":"screening-mturk"},{"responses":["True","True","False","True","True"],"num_errors":1,"rt":21301.09999992419,"trial_type":"three-arm-comprehension","trial_index":6,"time_elapsed":244671,"internal_node_id":"0.0-5.0-1.0","task_version":"screening-mturk"},{"view_history":"[{\"page_index\":0,\"viewing_time\":2257.4499999172986},{\"page_index\":1,\"viewing_time\":2967.5950000528246},{\"page_index\":2,\"viewing_time\":1455.989999929443},{\"page_index\":3,\"viewing_time\":1040.015000035055},{\"page_index\":4,\"viewing_time\":1271.9499999657273},{\"page_index\":5,\"viewing_time\":831.9850000552833},{\"page_index\":6,\"viewing_time\":872.0500000054017},{\"page_index\":7,\"viewing_time\":839.7750000003725}]","rt":11537.164999986999,"trial_type":"instructions","trial_index":7,"time_elapsed":256214,"internal_node_id":"0.0-5.1-0.1","task_version":"screening-mturk"},{"responses":["True","True","False","False","True"],"num_errors":0,"rt":14118.33999992814,"trial_type":"three-arm-comprehension","trial_index":8,"time_elapsed":270335,"internal_node_id":"0.0-5.1-1.1","task_version":"screening-mturk"},{"view_history":"[{\"page_index\":0,\"viewing_time\":1260.6650000670925}]","rt":1261.1150000011548,"trial_type":"instructions","trial_index":9,"time_elapsed":271598,"internal_node_id":"0.0-6.0","task_version":"screening-mturk"},{"contexts":["blue","red","green"],"outcomes":[0,1,0],"key":38,"choice":1,"rt":3869.334999937564,"outcome":1,"trial":1,"correct":1,"trial_type":"three-arm-trial","trial_index":10,"time_elapsed":276671,"internal_node_id":"0.0-7.0-0.0","task_version":"screening-mturk","missing":false,"accuracy":1},{"contexts":["blue","red","green"],"outcomes":[0,1,0],"key":38,"choice":1,"rt":682.230000034906,"outcome":1,"trial":2,"correct":1,"trial_type":"three-arm-trial","trial_index":11,"time_elapsed":278557,"internal_node_id":"0.0-8.0-0.0","task_version":"screening-mturk","missing":false,"accuracy":1},{"contexts":["blue","red","green"],"outcomes":[0,1,0],"key":38,"choice":1,"rt":402.3999999044463,"outcome":1,"trial":3,"correct":1,"trial_type":"three-arm-trial","trial_index":12,"time_elapsed":280163,"internal_node_id":"0.0-9.0-0.0","task_version":"screening-mturk","missing":false,"accuracy":1},{"contexts":["blue","red","green"],"outcomes":[1,0,0],"key":38,"choice":1,"rt":319.83000005129725,"outcome":0,"trial":4,"correct":1,"trial_type":"three-arm-trial","trial_index":13,"time_elapsed":281687,"internal_node_id":"0.0-10.0-0.0","task_version":"screening-mturk","missing":false,"accuracy":1},{"contexts":["blue","red","green"],"outcomes":[0,1,0],"key":38,"choice":1,"rt":361.5200000349432,"outcome":1,"trial":5,"correct":1,"trial_type":"three-arm-trial","trial_index":14,"time_elapsed":283252,"internal_node_id":"0.0-11.0-0.0","task_version":"screening-mturk","missing":false,"accuracy":1},{"contexts":["blue","red","green"],"outcomes":[0,1,0],"key":38,"choice":1,"rt":368.8550000078976,"outcome":1,"trial":6,"correct":1,"trial_type":"three-arm-trial","trial_index":15,"time_elapsed":284823,"internal_node_id":"0.0-12.0-0.0","task_version":"screening-mturk","missing":false,"accuracy":1},{"contexts":["blue","red","green"],"outcomes":[1,1,0],"key":38,"choice":1,"rt":357.73999989032745,"outcome":1,"trial":7,"correct":1,"trial_type":"three-arm-trial","trial_index":16,"time_elapsed":286383,"internal_node_id":"0.0-13.0-0.0","task_version":"screening-mturk","missing":false,"accuracy":1},{"contexts":["blue","red","green"],"outcomes":[0,1,1],"key":38,"choice":1,"rt":410.19999992568046,"outcome":1,"trial":8,"correct":1,"trial_type":"three-arm-trial","trial_index":17,"time_elapsed":287997,"internal_node_id":"0.0-14.0-0.0","task_version":"screening-mturk","missing":false,"accuracy":1},{"contexts":["blue","red","green"],"outcomes":[0,0,0],"key":38,"choice":1,"rt":421.71000002417713,"outcome":0,"trial":9,"correct":1,"trial_type":"three-arm-trial","trial_index":18,"time_elapsed":289621,"internal_node_id":"0.0-15.0-0.0","task_version":"screening-mturk","missing":false,"accuracy":1},{"contexts":["blue","red","green"],"outcomes":[0,0,1],"key":38,"choice":1,"rt":357.85500006750226,"outcome":0,"trial":10,"correct":1,"trial_type":"three-arm-trial","trial_index":19,"time_elapsed":291182,"internal_node_id":"0.0-16.0-0.0","task_version":"screening-mturk","missing":false,"accuracy":1},{"contexts":["blue","red","green"],"outcomes":[0,1,0],"key":37,"choice":0,"rt":400.43500007595867,"outcome":0,"trial":11,"correct":1,"trial_type":"three-arm-trial","trial_index":20,"time_elapsed":292785,"internal_node_id":"0.0-17.0-0.0","task_version":"screening-mturk","missing":false,"accuracy":0},{"contexts":["blue","red","green"],"outcomes":[1,1,0],"key":39,"choice":2,"rt":452.73500005714595,"outcome":0,"trial":12,"correct":1,"trial_type":"three-arm-trial","trial_index":21,"time_elapsed":294440,"internal_node_id":"0.0-18.0-0.0","task_version":"screening-mturk","missing":false,"accuracy":0},{"contexts":["blue","red","green"],"outcomes":[0,1,1],"key":38,"choice":1,"rt":364.8850000463426,"outcome":1,"trial":13,"correct":1,"trial_type":"three-arm-trial","trial_index":22,"time_elapsed":296008,"internal_node_id":"0.0-19.0-0.0","task_version":"screening-mturk","missing":false,"accuracy":1},{"contexts":["blue","red","green"],"outcomes":[0,1,0],"key":38,"choice":1,"rt":436.8900000117719,"outcome":1,"trial":14,"correct":1,"trial_type":"three-arm-trial","trial_index":23,"time_elapsed":297647,"internal_node_id":"0.0-20.0-0.0","task_version":"screening-mturk","missing":false,"accuracy":1},{"contexts":["blue","red","green"],"outcomes":[0,1,1],"key":38,"choice":1,"rt":469.67500005848706,"outcome":1,"trial":15,"correct":1,"trial_type":"three-arm-trial","trial_index":24,"time_elapsed":299321,"internal_node_id":"0.0-21.0-0.0","task_version":"screening-mturk","missing":false,"accuracy":1},{"contexts":["blue","red","green"],"outcomes":[1,0,1],"key":38,"choice":1,"rt":450.13999997172505,"outcome":0,"trial":16,"correct":2,"trial_type":"three-arm-trial","trial_index":25,"time_elapsed":300974,"internal_node_id":"0.0-22.0-0.0","task_version":"screening-mturk","missing":false,"accuracy":0},{"contexts":["blue","red","green"],"outcomes":[0,0,1],"key":38,"choice":1,"rt":318.98500001989305,"outcome":0,"trial":17,"correct":2,"trial_type":"three-arm-trial","trial_index":26,"time_elapsed":302500,"internal_node_id":"0.0-23.0-0.0","task_version":"screening-mturk","missing":false,"accuracy":0},{"contexts":["blue","red","green"],"outcomes":[0,1,1],"key":38,"choice":1,"rt":418.5650000581518,"outcome":1,"trial":18,"correct":2,"trial_type":"three-arm-trial","trial_index":27,"time_elapsed":304121,"internal_node_id":"0.0-24.0-0.0","task_version":"screening-mturk","missing":false,"accuracy":0},{"contexts":["blue","red","green"],"outcomes":[0,0,1],"key":38,"choice":1,"rt":431.1549999983981,"outcome":0,"trial":19,"correct":2,"trial_type":"three-arm-trial","trial_index":28,"time_elapsed":305754,"internal_node_id":"0.0-25.0-0.0","task_version":"screening-mturk","missing":false,"accuracy":0},{"contexts":["blue","red","green"],"outcomes":[1,0,1],"key":37,"choice":0,"rt":393.69499997701496,"outcome":1,"trial":20,"correct":2,"trial_type":"three-arm-trial","trial_index":29,"time_elapsed":307351,"internal_node_id":"0.0-26.0-0.0","task_version":"screening-mturk","missing":false,"accuracy":0},{"contexts":["blue","red","green"],"outcomes":[0,1,0],"key":39,"choice":2,"rt":380.38999994751066,"outcome":0,"trial":21,"correct":2,"trial_type":"three-arm-trial","trial_index":30,"time_elapsed":308934,"internal_node_id":"0.0-27.0-0.0","task_version":"screening-mturk","missing":false,"accuracy":1},{"contexts":["blue","red","green"],"outcomes":[0,0,1],"key":37,"choice":0,"rt":358.7550000520423,"outcome":0,"trial":22,"correct":2,"trial_type":"three-arm-trial","trial_index":31,"time_elapsed":310495,"internal_node_id":"0.0-28.0-0.0","task_version":"screening-mturk","missing":false,"accuracy":0},{"contexts":["blue","red","green"],"outcomes":[0,0,1],"key":37,"choice":0,"rt":322.2299999324605,"outcome":0,"trial":23,"correct":2,"trial_type":"three-arm-trial","trial_index":32,"time_elapsed":312021,"internal_node_id":"0.0-29.0-0.0","task_version":"screening-mturk","missing":false,"accuracy":0},{"contexts":["blue","red","green"],"outcomes":[0,1,1],"key":39,"choice":2,"rt":358.61500003375113,"outcome":1,"trial":24,"correct":2,"trial_type":"three-arm-trial","trial_index":33,"time_elapsed":313582,"internal_node_id":"0.0-30.0-0.0","task_version":"screening-mturk","missing":false,"accuracy":1},{"contexts":["blue","red","green"],"outcomes":[0,0,1],"key":39,"choice":2,"rt":441.5949999820441,"outcome":1,"trial":25,"correct":2,"trial_type":"three-arm-trial","trial_index":34,"time_elapsed":315226,"internal_node_id":"0.0-31.0-0.0","task_version":"screening-mturk","missing":false,"accuracy":1},{"contexts":["blue","red","green"],"outcomes":[0,0,1],"key":39,"choice":2,"rt":463.1599999265745,"outcome":1,"trial":26,"correct":2,"trial_type":"three-arm-trial","trial_index":35,"time_elapsed":316892,"internal_node_id":"0.0-32.0-0.0","task_version":"screening-mturk","missing":false,"accuracy":1},{"contexts":["blue","red","green"],"outcomes":[0,0,0],"key":39,"choice":2,"rt":425.2400000113994,"outcome":0,"trial":27,"correct":2,"trial_type":"three-arm-trial","trial_index":36,"time_elapsed":318522,"internal_node_id":"0.0-33.0-0.0","task_version":"screening-mturk","missing":false,"accuracy":1},{"contexts":["blue","red","green"],"outcomes":[0,0,1],"key":39,"choice":2,"rt":356.8549999035895,"outcome":1,"trial":28,"correct":2,"trial_type":"three-arm-trial","trial_index":37,"time_elapsed":320089,"internal_node_id":"0.0-34.0-0.0","task_version":"screening-mturk","missing":false,"accuracy":1},{"contexts":["blue","red","green"],"outcomes":[1,0,1],"key":39,"choice":2,"rt":507.6549999648705,"outcome":1,"trial":29,"correct":2,"trial_type":"three-arm-trial","trial_index":38,"time_elapsed":321800,"internal_node_id":"0.0-35.0-0.0","task_version":"screening-mturk","missing":false,"accuracy":1},{"contexts":["blue","red","green"],"outcomes":[0,0,1],"key":39,"choice":2,"rt":530.2950000623241,"outcome":1,"trial":30,"correct":2,"trial_type":"three-arm-trial","trial_index":39,"time_elapsed":323534,"internal_node_id":"0.0-36.0-0.0","task_version":"screening-mturk","missing":false,"accuracy":1},{"contexts":["blue","red","green"],"outcomes":[0,0,0],"key":39,"choice":2,"rt":459.91000009234995,"outcome":0,"trial":31,"correct":1,"trial_type":"three-arm-trial","trial_index":40,"time_elapsed":325196,"internal_node_id":"0.0-37.0-0.0","task_version":"screening-mturk","missing":false,"accuracy":0},{"contexts":["blue","red","green"],"outcomes":[0,1,0],"key":39,"choice":2,"rt":466.6749999159947,"outcome":0,"trial":32,"correct":1,"trial_type":"three-arm-trial","trial_index":41,"time_elapsed":326865,"internal_node_id":"0.0-38.0-0.0","task_version":"screening-mturk","missing":false,"accuracy":0},{"contexts":["blue","red","green"],"outcomes":[1,0,0],"key":37,"choice":0,"rt":399.50500009581447,"outcome":1,"trial":33,"correct":1,"trial_type":"three-arm-trial","trial_index":42,"time_elapsed":328467,"internal_node_id":"0.0-39.0-0.0","task_version":"screening-mturk","missing":false,"accuracy":0},{"contexts":["blue","red","green"],"outcomes":[0,1,0],"key":37,"choice":0,"rt":490.4300000052899,"outcome":0,"trial":34,"correct":1,"trial_type":"three-arm-trial","trial_index":43,"time_elapsed":330162,"internal_node_id":"0.0-40.0-0.0","task_version":"screening-mturk","missing":false,"accuracy":0},{"contexts":["blue","red","green"],"outcomes":[1,1,0],"key":37,"choice":0,"rt":508.4550000028685,"outcome":1,"trial":35,"correct":1,"trial_type":"three-arm-trial","trial_index":44,"time_elapsed":331876,"internal_node_id":"0.0-41.0-0.0","task_version":"screening-mturk","missing":false,"accuracy":0},{"contexts":["blue","red","green"],"outcomes":[1,1,1],"key":37,"choice":0,"rt":536.0000000800937,"outcome":1,"trial":36,"correct":1,"trial_type":"three-arm-trial","trial_index":45,"time_elapsed":333615,"internal_node_id":"0.0-42.0-0.0","task_version":"screening-mturk","missing":false,"accuracy":0},{"contexts":["blue","red","green"],"outcomes":[0,1,0],"key":37,"choice":0,"rt":497.9599999496713,"outcome":0,"trial":37,"correct":1,"trial_type":"three-arm-trial","trial_index":46,"time_elapsed":335315,"internal_node_id":"0.0-43.0-0.0","task_version":"screening-mturk","missing":false,"accuracy":0},{"contexts":["blue","red","green"],"outcomes":[1,0,0],"key":37,"choice":0,"rt":556.7750000627711,"outcome":1,"trial":38,"correct":1,"trial_type":"three-arm-trial","trial_index":47,"time_elapsed":337076,"internal_node_id":"0.0-44.0-0.0","task_version":"screening-mturk","missing":false,"accuracy":0},{"contexts":["blue","red","green"],"outcomes":[0,1,0],"key":37,"choice":0,"rt":419.62999990209937,"outcome":0,"trial":39,"correct":1,"trial_type":"three-arm-trial","trial_index":48,"time_elapsed":338699,"internal_node_id":"0.0-45.0-0.0","task_version":"screening-mturk","missing":false,"accuracy":0},{"contexts":["blue","red","green"],"outcomes":[0,1,0],"key":37,"choice":0,"rt":422.80000005848706,"outcome":0,"trial":40,"correct":1,"trial_type":"three-arm-trial","trial_index":49,"time_elapsed":340327,"internal_node_id":"0.0-46.0-0.0","task_version":"screening-mturk","missing":false,"accuracy":0},{"contexts":["blue","red","green"],"outcomes":[0,1,1],"key":38,"choice":1,"rt":424.8399999924004,"outcome":1,"trial":41,"correct":1,"trial_type":"three-arm-trial","trial_index":50,"time_elapsed":341956,"internal_node_id":"0.0-47.0-0.0","task_version":"screening-mturk","missing":false,"accuracy":1},{"contexts":["blue","red","green"],"outcomes":[1,1,0],"key":38,"choice":1,"rt":419.7300000814721,"outcome":1,"trial":42,"correct":1,"trial_type":"three-arm-trial","trial_index":51,"time_elapsed":343577,"internal_node_id":"0.0-48.0-0.0","task_version":"screening-mturk","missing":false,"accuracy":1},{"contexts":["blue","red","green"],"outcomes":[0,1,0],"key":38,"choice":1,"rt":410.13999993447214,"outcome":1,"trial":43,"correct":1,"trial_type":"three-arm-trial","trial_index":52,"time_elapsed":345190,"internal_node_id":"0.0-49.0-0.0","task_version":"screening-mturk","missing":false,"accuracy":1},{"contexts":["blue","red","green"],"outcomes":[0,1,0],"key":38,"choice":1,"rt":377.8049999382347,"outcome":1,"trial":44,"correct":1,"trial_type":"three-arm-trial","trial_index":53,"time_elapsed":346772,"internal_node_id":"0.0-50.0-0.0","task_version":"screening-mturk","missing":false,"accuracy":1},{"contexts":["blue","red","green"],"outcomes":[0,1,0],"key":38,"choice":1,"rt":425.4400000208989,"outcome":1,"trial":45,"correct":1,"trial_type":"three-arm-trial","trial_index":54,"time_elapsed":348401,"internal_node_id":"0.0-51.0-0.0","task_version":"screening-mturk","missing":false,"accuracy":1},{"contexts":["blue","red","green"],"outcomes":[0,1,0],"key":38,"choice":1,"rt":300.8299999637529,"outcome":1,"trial":46,"correct":0,"trial_type":"three-arm-trial","trial_index":55,"time_elapsed":349905,"internal_node_id":"0.0-52.0-0.0","task_version":"screening-mturk","missing":false,"accuracy":0},{"contexts":["blue","red","green"],"outcomes":[1,0,1],"key":38,"choice":1,"rt":423.0149999493733,"outcome":0,"trial":47,"correct":0,"trial_type":"three-arm-trial","trial_index":56,"time_elapsed":351532,"internal_node_id":"0.0-53.0-0.0","task_version":"screening-mturk","missing":false,"accuracy":0},{"contexts":["blue","red","green"],"outcomes":[1,0,0],"key":38,"choice":1,"rt":467.75999991223216,"outcome":0,"trial":48,"correct":0,"trial_type":"three-arm-trial","trial_index":57,"time_elapsed":353203,"internal_node_id":"0.0-54.0-0.0","task_version":"screening-mturk","missing":false,"accuracy":0},{"contexts":["blue","red","green"],"outcomes":[1,0,0],"key":38,"choice":1,"rt":460.7199999736622,"outcome":0,"trial":49,"correct":0,"trial_type":"three-arm-trial","trial_index":58,"time_elapsed":354866,"internal_node_id":"0.0-55.0-0.0","task_version":"screening-mturk","missing":false,"accuracy":0},{"contexts":["blue","red","green"],"outcomes":[1,1,0],"key":39,"choice":2,"rt":487.749999971129,"outcome":0,"trial":50,"correct":0,"trial_type":"three-arm-trial","trial_index":59,"time_elapsed":356558,"internal_node_id":"0.0-56.0-0.0","task_version":"screening-mturk","missing":false,"accuracy":0},{"contexts":["blue","red","green"],"outcomes":[1,0,0],"key":37,"choice":0,"rt":308.2899999571964,"outcome":1,"trial":51,"correct":0,"trial_type":"three-arm-trial","trial_index":60,"time_elapsed":358068,"internal_node_id":"0.0-57.0-0.0","task_version":"screening-mturk","missing":false,"accuracy":1},{"contexts":["blue","red","green"],"outcomes":[1,0,0],"key":37,"choice":0,"rt":433.4550000494346,"outcome":1,"trial":52,"correct":0,"trial_type":"three-arm-trial","trial_index":61,"time_elapsed":359705,"internal_node_id":"0.0-58.0-0.0","task_version":"screening-mturk","missing":false,"accuracy":1},{"contexts":["blue","red","green"],"outcomes":[1,0,0],"key":37,"choice":0,"rt":412.72000002209097,"outcome":1,"trial":53,"correct":0,"trial_type":"three-arm-trial","trial_index":62,"time_elapsed":361320,"internal_node_id":"0.0-59.0-0.0","task_version":"screening-mturk","missing":false,"accuracy":1},{"contexts":["blue","red","green"],"outcomes":[1,0,0],"key":37,"choice":0,"rt":464.33499990962446,"outcome":1,"trial":54,"correct":0,"trial_type":"three-arm-trial","trial_index":63,"time_elapsed":362987,"internal_node_id":"0.0-60.0-0.0","task_version":"screening-mturk","missing":false,"accuracy":1},{"contexts":["blue","red","green"],"outcomes":[1,0,1],"key":37,"choice":0,"rt":409.66499992646277,"outcome":1,"trial":55,"correct":0,"trial_type":"three-arm-trial","trial_index":64,"time_elapsed":364602,"internal_node_id":"0.0-61.0-0.0","task_version":"screening-mturk","missing":false,"accuracy":1},{"contexts":["blue","red","green"],"outcomes":[1,1,0],"key":37,"choice":0,"rt":376.9500000635162,"outcome":1,"trial":56,"correct":0,"trial_type":"three-arm-trial","trial_index":65,"time_elapsed":366181,"internal_node_id":"0.0-62.0-0.0","task_version":"screening-mturk","missing":false,"accuracy":1},{"contexts":["blue","red","green"],"outcomes":[1,0,0],"key":37,"choice":0,"rt":454.12500004749745,"outcome":1,"trial":57,"correct":0,"trial_type":"three-arm-trial","trial_index":66,"time_elapsed":367838,"internal_node_id":"0.0-63.0-0.0","task_version":"screening-mturk","missing":false,"accuracy":1},{"contexts":["blue","red","green"],"outcomes":[1,0,0],"key":37,"choice":0,"rt":308.01500007510185,"outcome":1,"trial":58,"correct":0,"trial_type":"three-arm-trial","trial_index":67,"time_elapsed":369348,"internal_node_id":"0.0-64.0-0.0","task_version":"screening-mturk","missing":false,"accuracy":1},{"contexts":["blue","red","green"],"outcomes":[0,1,0],"key":37,"choice":0,"rt":346.3449999690056,"outcome":0,"trial":59,"correct":0,"trial_type":"three-arm-trial","trial_index":68,"time_elapsed":370897,"internal_node_id":"0.0-65.0-0.0","task_version":"screening-mturk","missing":false,"accuracy":1},{"contexts":["blue","red","green"],"outcomes":[1,0,0],"key":39,"choice":2,"rt":315.8650000113994,"outcome":0,"trial":60,"correct":0,"trial_type":"three-arm-trial","trial_index":69,"time_elapsed":372417,"internal_node_id":"0.0-66.0-0.0","task_version":"screening-mturk","missing":false,"accuracy":0},{"contexts":["blue","red","green"],"outcomes":[0,1,0],"key":38,"choice":1,"rt":342.53000002354383,"outcome":1,"trial":61,"correct":1,"trial_type":"three-arm-trial","trial_index":70,"time_elapsed":373962,"internal_node_id":"0.0-67.0-0.0","task_version":"screening-mturk","missing":false,"accuracy":1},{"contexts":["blue","red","green"],"outcomes":[1,1,0],"key":38,"choice":1,"rt":369.8249999433756,"outcome":1,"trial":62,"correct":1,"trial_type":"three-arm-trial","trial_index":71,"time_elapsed":375536,"internal_node_id":"0.0-68.0-0.0","task_version":"screening-mturk","missing":false,"accuracy":1},{"contexts":["blue","red","green"],"outcomes":[0,1,0],"key":38,"choice":1,"rt":391.27499994356185,"outcome":1,"trial":63,"correct":1,"trial_type":"three-arm-trial","trial_index":72,"time_elapsed":377130,"internal_node_id":"0.0-69.0-0.0","task_version":"screening-mturk","missing":false,"accuracy":1},{"contexts":["blue","red","green"],"outcomes":[0,1,0],"key":38,"choice":1,"rt":307.52999999094754,"outcome":1,"trial":64,"correct":1,"trial_type":"three-arm-trial","trial_index":73,"time_elapsed":378642,"internal_node_id":"0.0-70.0-0.0","task_version":"screening-mturk","missing":false,"accuracy":1},{"contexts":["blue","red","green"],"outcomes":[0,1,0],"key":38,"choice":1,"rt":347.2850000252947,"outcome":1,"trial":65,"correct":1,"trial_type":"three-arm-trial","trial_index":74,"time_elapsed":380192,"internal_node_id":"0.0-71.0-0.0","task_version":"screening-mturk","missing":false,"accuracy":1},{"contexts":["blue","red","green"],"outcomes":[1,1,0],"key":38,"choice":1,"rt":356.03000002447516,"outcome":1,"trial":66,"correct":1,"trial_type":"three-arm-trial","trial_index":75,"time_elapsed":381751,"internal_node_id":"0.0-72.0-0.0","task_version":"screening-mturk","missing":false,"accuracy":1},{"contexts":["blue","red","green"],"outcomes":[0,1,0],"key":38,"choice":1,"rt":331.60499995574355,"outcome":1,"trial":67,"correct":1,"trial_type":"three-arm-trial","trial_index":76,"time_elapsed":383285,"internal_node_id":"0.0-73.0-0.0","task_version":"screening-mturk","missing":false,"accuracy":1},{"contexts":["blue","red","green"],"outcomes":[1,1,0],"key":38,"choice":1,"rt":372.2850000485778,"outcome":1,"trial":68,"correct":1,"trial_type":"three-arm-trial","trial_index":77,"time_elapsed":384859,"internal_node_id":"0.0-74.0-0.0","task_version":"screening-mturk","missing":false,"accuracy":1},{"contexts":["blue","red","green"],"outcomes":[0,1,0],"key":38,"choice":1,"rt":365.8950000535697,"outcome":1,"trial":69,"correct":1,"trial_type":"three-arm-trial","trial_index":78,"time_elapsed":386429,"internal_node_id":"0.0-75.0-0.0","task_version":"screening-mturk","missing":false,"accuracy":1},{"contexts":["blue","red","green"],"outcomes":[0,1,0],"key":38,"choice":1,"rt":335.13000002130866,"outcome":1,"trial":70,"correct":1,"trial_type":"three-arm-trial","trial_index":79,"time_elapsed":387966,"internal_node_id":"0.0-76.0-0.0","task_version":"screening-mturk","missing":false,"accuracy":1},{"contexts":["blue","red","green"],"outcomes":[0,1,0],"key":38,"choice":1,"rt":304.10499998833984,"outcome":1,"trial":71,"correct":1,"trial_type":"three-arm-trial","trial_index":80,"time_elapsed":389473,"internal_node_id":"0.0-77.0-0.0","task_version":"screening-mturk","missing":false,"accuracy":1},{"contexts":["blue","red","green"],"outcomes":[0,1,0],"key":38,"choice":1,"rt":346.2649999419227,"outcome":1,"trial":72,"correct":1,"trial_type":"three-arm-trial","trial_index":81,"time_elapsed":391023,"internal_node_id":"0.0-78.0-0.0","task_version":"screening-mturk","missing":false,"accuracy":1},{"contexts":["blue","red","green"],"outcomes":[0,1,0],"key":38,"choice":1,"rt":265.9500000299886,"outcome":1,"trial":73,"correct":1,"trial_type":"three-arm-trial","trial_index":82,"time_elapsed":392492,"internal_node_id":"0.0-79.0-0.0","task_version":"screening-mturk","missing":false,"accuracy":1},{"contexts":["blue","red","green"],"outcomes":[0,0,0],"key":38,"choice":1,"rt":336.4399999845773,"outcome":0,"trial":74,"correct":1,"trial_type":"three-arm-trial","trial_index":83,"time_elapsed":394032,"internal_node_id":"0.0-80.0-0.0","task_version":"screening-mturk","missing":false,"accuracy":1},{"contexts":["blue","red","green"],"outcomes":[0,1,0],"key":39,"choice":2,"rt":272.1300000557676,"outcome":0,"trial":75,"correct":1,"trial_type":"three-arm-trial","trial_index":84,"time_elapsed":395506,"internal_node_id":"0.0-81.0-0.0","task_version":"screening-mturk","missing":false,"accuracy":0},{"contexts":["blue","red","green"],"outcomes":[1,0,0],"key":37,"choice":0,"rt":285.36500001791865,"outcome":1,"trial":76,"correct":0,"trial_type":"three-arm-trial","trial_index":85,"time_elapsed":396995,"internal_node_id":"0.0-82.0-0.0","task_version":"screening-mturk","missing":false,"accuracy":1},{"contexts":["blue","red","green"],"outcomes":[1,0,0],"key":37,"choice":0,"rt":373.69500007480383,"outcome":1,"trial":77,"correct":0,"trial_type":"three-arm-trial","trial_index":86,"time_elapsed":398572,"internal_node_id":"0.0-83.0-0.0","task_version":"screening-mturk","missing":false,"accuracy":1},{"contexts":["blue","red","green"],"outcomes":[1,0,0],"key":37,"choice":0,"rt":322.07500003278255,"outcome":1,"trial":78,"correct":0,"trial_type":"three-arm-trial","trial_index":87,"time_elapsed":400096,"internal_node_id":"0.0-84.0-0.0","task_version":"screening-mturk","missing":false,"accuracy":1},{"contexts":["blue","red","green"],"outcomes":[1,0,0],"key":37,"choice":0,"rt":302.2750000236556,"outcome":1,"trial":79,"correct":0,"trial_type":"three-arm-trial","trial_index":88,"time_elapsed":401601,"internal_node_id":"0.0-85.0-0.0","task_version":"screening-mturk","missing":false,"accuracy":1},{"contexts":["blue","red","green"],"outcomes":[1,0,0],"key":37,"choice":0,"rt":369.3499999353662,"outcome":1,"trial":80,"correct":0,"trial_type":"three-arm-trial","trial_index":89,"time_elapsed":403174,"internal_node_id":"0.0-86.0-0.0","task_version":"screening-mturk","missing":false,"accuracy":1},{"contexts":["blue","red","green"],"outcomes":[1,0,0],"key":37,"choice":0,"rt":298.18499996326864,"outcome":1,"trial":81,"correct":0,"trial_type":"three-arm-trial","trial_index":90,"time_elapsed":404675,"internal_node_id":"0.0-87.0-0.0","task_version":"screening-mturk","missing":false,"accuracy":1},{"contexts":["blue","red","green"],"outcomes":[1,0,0],"key":37,"choice":0,"rt":371.9850000925362,"outcome":1,"trial":82,"correct":0,"trial_type":"three-arm-trial","trial_index":91,"time_elapsed":406252,"internal_node_id":"0.0-88.0-0.0","task_version":"screening-mturk","missing":false,"accuracy":1},{"contexts":["blue","red","green"],"outcomes":[1,0,1],"key":37,"choice":0,"rt":387.1600000420585,"outcome":1,"trial":83,"correct":0,"trial_type":"three-arm-trial","trial_index":92,"time_elapsed":407842,"internal_node_id":"0.0-89.0-0.0","task_version":"screening-mturk","missing":false,"accuracy":1},{"contexts":["blue","red","green"],"outcomes":[1,0,0],"key":37,"choice":0,"rt":358.37499995250255,"outcome":1,"trial":84,"correct":0,"trial_type":"three-arm-trial","trial_index":93,"time_elapsed":409404,"internal_node_id":"0.0-90.0-0.0","task_version":"screening-mturk","missing":false,"accuracy":1},{"contexts":["blue","red","green"],"outcomes":[1,0,0],"key":37,"choice":0,"rt":428.40999993495643,"outcome":1,"trial":85,"correct":0,"trial_type":"three-arm-trial","trial_index":94,"time_elapsed":411035,"internal_node_id":"0.0-91.0-0.0","task_version":"screening-mturk","missing":false,"accuracy":1},{"contexts":["blue","red","green"],"outcomes":[1,0,1],"key":37,"choice":0,"rt":483.0049999291077,"outcome":1,"trial":86,"correct":0,"trial_type":"three-arm-trial","trial_index":95,"time_elapsed":412722,"internal_node_id":"0.0-92.0-0.0","task_version":"screening-mturk","missing":false,"accuracy":1},{"contexts":["blue","red","green"],"outcomes":[1,0,1],"key":37,"choice":0,"rt":488.2249999791384,"outcome":1,"trial":87,"correct":0,"trial_type":"three-arm-trial","trial_index":96,"time_elapsed":414413,"internal_node_id":"0.0-93.0-0.0","task_version":"screening-mturk","missing":false,"accuracy":1},{"contexts":["blue","red","green"],"outcomes":[1,0,1],"key":37,"choice":0,"rt":426.439999951981,"outcome":1,"trial":88,"correct":0,"trial_type":"three-arm-trial","trial_index":97,"time_elapsed":416042,"internal_node_id":"0.0-94.0-0.0","task_version":"screening-mturk","missing":false,"accuracy":1},{"contexts":["blue","red","green"],"outcomes":[1,0,0],"key":37,"choice":0,"rt":441.7350000003353,"outcome":1,"trial":89,"correct":0,"trial_type":"three-arm-trial","trial_index":98,"time_elapsed":417686,"internal_node_id":"0.0-95.0-0.0","task_version":"screening-mturk","missing":false,"accuracy":1},{"contexts":["blue","red","green"],"outcomes":[1,0,1],"key":37,"choice":0,"rt":487.82000003848225,"outcome":1,"trial":90,"correct":0,"trial_type":"three-arm-trial","trial_index":99,"time_elapsed":419377,"internal_node_id":"0.0-96.0-0.0","task_version":"screening-mturk","missing":false,"accuracy":1},{"rt":17421.33499996271,"responses":{"age":"38","gender-categorical":"Male","gender-free-response":"","ethnicity":"Not Hispanic or Latino","race":["White"],"language":"Yes","fluency":"Very well","prolific":"Yes","prolific-this-study":"No"},"survey":"demographics","trial_type":"survey-demo","trial_index":100,"time_elapsed":436803,"internal_node_id":"0.0-97.0","task_version":"screening-mturk","interactions":"[]"}]