[{"responses":{"Q02":"3","Q04":"3","Q03":"2","Q05":"2","Q07":"3","Q08":"0","Q01":"2","Q06":"1"},"rt":27218.27499999199,"survey":"gad7","trial_type":"survey-template","trial_index":0,"time_elapsed":27228,"internal_node_id":"0.0-0.0","task_version":"screening-mturk"},{"responses":{"Q03":"1","Q02":"1","Q01":"1"},"rt":16461.110000003828,"survey":"pswq","trial_type":"survey-template","trial_index":1,"time_elapsed":43716,"internal_node_id":"0.0-1.0","task_version":"screening-mturk"},{"responses":{"Q11":"1","Q12":"0","Q07":"1","Q14":"0","Q05":"0","Q10":"0","Q15":"0","Q02":"0","Q09":"1","Q13":"1","Q06":"2","Q08":"1","Q04":"1","Q03":"1","Q01":"1"},"rt":105820.39000000805,"survey":"7up7down","trial_type":"survey-template","trial_index":2,"time_elapsed":149559,"internal_node_id":"0.0-2.0","task_version":"screening-mturk"},{"responses":{"Q02":"2","Q08":"3","Q01":"2","Q04":"3","Q06":"1","Q12":"3","Q11":"3","Q05":"3","Q03":"2","Q13":"3","Q09":"3","Q07":"3","Q10":"3"},"rt":46752.189999999246,"survey":"bisbas","trial_type":"survey-template","trial_index":3,"time_elapsed":196339,"internal_node_id":"0.0-3.0","task_version":"screening-mturk"},{"responses":{"Q14":"2","Q12":"3","Q06":"3","Q13":"3","Q03":"3","Q05":"3","Q15":"3","Q07":"3","Q08":"2","Q11":"3","Q10":"3","Q01":"3","Q09":"3","Q04":"3","Q02":"3"},"rt":54447.95500001055,"survey":"shaps","trial_type":"survey-template","trial_index":4,"time_elapsed":250809,"internal_node_id":"0.0-4.0","task_version":"screening-mturk"},{"view_history":"[{\"page_index\":0,\"viewing_time\":9538.190000021132},{\"page_index\":1,\"viewing_time\":12760.199999989709},{\"page_index\":2,\"viewing_time\":17722.394999989774},{\"page_index\":3,\"viewing_time\":6982.9850000096485},{\"page_index\":4,\"viewing_time\":6867.809999996098},{\"page_index\":5,\"viewing_time\":5441.120000003139},{\"page_index\":6,\"viewing_time\":4670.795000012731},{\"page_index\":7,\"viewing_time\":3238.874999980908}]","rt":67222.9300000181,"trial_type":"instructions","trial_index":5,"time_elapsed":318052,"internal_node_id":"0.0-5.0-0.0","task_version":"screening-mturk"},{"responses":["True","True","False","False","True"],"num_errors":0,"rt":35299.74499999662,"trial_type":"three-arm-comprehension","trial_index":6,"time_elapsed":353354,"internal_node_id":"0.0-5.0-1.0","task_version":"screening-mturk"},{"view_history":"[{\"page_index\":0,\"viewing_time\":9483.715000009397}]","rt":9483.9450000145,"trial_type":"instructions","trial_index":7,"time_elapsed":362864,"internal_node_id":"0.0-6.0","task_version":"screening-mturk"},{"contexts":["red","green","blue"],"outcomes":[1,0,0],"key":null,"rt":null,"trial":1,"correct":0,"trial_type":"three-arm-trial","trial_index":8,"time_elapsed":377871,"internal_node_id":"0.0-7.0-0.0","task_version":"screening-mturk","missing":true},{"contexts":["red","green","blue"],"outcomes":[1,0,0],"key":38,"choice":1,"rt":2181.289999978617,"outcome":0,"trial":1,"correct":0,"trial_type":"three-arm-trial","trial_index":9,"time_elapsed":381259,"internal_node_id":"0.0-7.1-0.1","task_version":"screening-mturk","missing":false,"accuracy":0},{"contexts":["red","green","blue"],"outcomes":[1,1,0],"key":37,"choice":0,"rt":2113.819999998668,"outcome":1,"trial":2,"correct":0,"trial_type":"three-arm-trial","trial_index":10,"time_elapsed":384615,"internal_node_id":"0.0-8.0-0.0","task_version":"screening-mturk","missing":false,"accuracy":1},{"contexts":["red","green","blue"],"outcomes":[1,0,1],"key":37,"choice":0,"rt":1873.6750000098255,"outcome":1,"trial":3,"correct":0,"trial_type":"three-arm-trial","trial_index":11,"time_elapsed":387716,"internal_node_id":"0.0-9.0-0.0","task_version":"screening-mturk","missing":false,"accuracy":1},{"contexts":["red","green","blue"],"outcomes":[1,1,0],"key":37,"choice":0,"rt":1277.555000007851,"outcome":1,"trial":4,"correct":0,"trial_type":"three-arm-trial","trial_index":12,"time_elapsed":390231,"internal_node_id":"0.0-10.0-0.0","task_version":"screening-mturk","missing":false,"accuracy":1},{"contexts":["red","green","blue"],"outcomes":[1,1,1],"key":37,"choice":0,"rt":620.9499999822583,"outcome":1,"trial":5,"correct":0,"trial_type":"three-arm-trial","trial_index":13,"time_elapsed":392093,"internal_node_id":"0.0-11.0-0.0","task_version":"screening-mturk","missing":false,"accuracy":1},{"contexts":["red","green","blue"],"outcomes":[1,1,0],"key":37,"choice":0,"rt":612.7649999980349,"outcome":1,"trial":6,"correct":0,"trial_type":"three-arm-trial","trial_index":14,"time_elapsed":393948,"internal_node_id":"0.0-12.0-0.0","task_version":"screening-mturk","missing":false,"accuracy":1},{"contexts":["red","green","blue"],"outcomes":[1,0,1],"key":37,"choice":0,"rt":437.28499999269843,"outcome":1,"trial":7,"correct":0,"trial_type":"three-arm-trial","trial_index":15,"time_elapsed":395621,"internal_node_id":"0.0-13.0-0.0","task_version":"screening-mturk","missing":false,"accuracy":1},{"contexts":["red","green","blue"],"outcomes":[1,0,0],"key":37,"choice":0,"rt":460.3800000040792,"outcome":1,"trial":8,"correct":0,"trial_type":"three-arm-trial","trial_index":16,"time_elapsed":397323,"internal_node_id":"0.0-14.0-0.0","task_version":"screening-mturk","missing":false,"accuracy":1},{"contexts":["red","green","blue"],"outcomes":[1,0,1],"key":37,"choice":0,"rt":662.9499999980908,"outcome":1,"trial":9,"correct":0,"trial_type":"three-arm-trial","trial_index":17,"time_elapsed":399230,"internal_node_id":"0.0-15.0-0.0","task_version":"screening-mturk","missing":false,"accuracy":1},{"contexts":["red","green","blue"],"outcomes":[1,0,0],"key":37,"choice":0,"rt":416.99999998672865,"outcome":1,"trial":10,"correct":0,"trial_type":"three-arm-trial","trial_index":18,"time_elapsed":400886,"internal_node_id":"0.0-16.0-0.0","task_version":"screening-mturk","missing":false,"accuracy":1},{"contexts":["red","green","blue"],"outcomes":[1,0,0],"key":37,"choice":0,"rt":461.8450000125449,"outcome":1,"trial":11,"correct":0,"trial_type":"three-arm-trial","trial_index":19,"time_elapsed":402587,"internal_node_id":"0.0-17.0-0.0","task_version":"screening-mturk","missing":false,"accuracy":1},{"contexts":["red","green","blue"],"outcomes":[1,1,1],"key":37,"choice":0,"rt":405.0649999990128,"outcome":1,"trial":12,"correct":0,"trial_type":"three-arm-trial","trial_index":20,"time_elapsed":404222,"internal_node_id":"0.0-18.0-0.0","task_version":"screening-mturk","missing":false,"accuracy":1},{"contexts":["red","green","blue"],"outcomes":[1,0,0],"key":37,"choice":0,"rt":353.2650000124704,"outcome":1,"trial":13,"correct":0,"trial_type":"three-arm-trial","trial_index":21,"time_elapsed":405822,"internal_node_id":"0.0-19.0-0.0","task_version":"screening-mturk","missing":false,"accuracy":1},{"contexts":["red","green","blue"],"outcomes":[1,0,0],"key":37,"choice":0,"rt":365.1850000023842,"outcome":1,"trial":14,"correct":0,"trial_type":"three-arm-trial","trial_index":22,"time_elapsed":407437,"internal_node_id":"0.0-20.0-0.0","task_version":"screening-mturk","missing":false,"accuracy":1},{"contexts":["red","green","blue"],"outcomes":[1,1,0],"key":37,"choice":0,"rt":381.07999999192543,"outcome":1,"trial":15,"correct":0,"trial_type":"three-arm-trial","trial_index":23,"time_elapsed":409055,"internal_node_id":"0.0-21.0-0.0","task_version":"screening-mturk","missing":false,"accuracy":1},{"contexts":["red","green","blue"],"outcomes":[1,1,0],"key":37,"choice":0,"rt":543.1549999921117,"outcome":1,"trial":16,"correct":1,"trial_type":"three-arm-trial","trial_index":24,"time_elapsed":410854,"internal_node_id":"0.0-22.0-0.0","task_version":"screening-mturk","missing":false,"accuracy":0},{"contexts":["red","green","blue"],"outcomes":[0,1,0],"key":37,"choice":0,"rt":389.04499998898245,"outcome":0,"trial":17,"correct":1,"trial_type":"three-arm-trial","trial_index":25,"time_elapsed":412489,"internal_node_id":"0.0-23.0-0.0","task_version":"screening-mturk","missing":false,"accuracy":0},{"contexts":["red","green","blue"],"outcomes":[1,1,0],"key":39,"choice":2,"rt":514.100000000326,"outcome":0,"trial":18,"correct":1,"trial_type":"three-arm-trial","trial_index":26,"time_elapsed":414234,"internal_node_id":"0.0-24.0-0.0","task_version":"screening-mturk","missing":false,"accuracy":0},{"contexts":["red","green","blue"],"outcomes":[0,1,0],"key":37,"choice":0,"rt":917.5249999971129,"outcome":0,"trial":19,"correct":1,"trial_type":"three-arm-trial","trial_index":27,"time_elapsed":416381,"internal_node_id":"0.0-25.0-0.0","task_version":"screening-mturk","missing":false,"accuracy":0},{"contexts":["red","green","blue"],"outcomes":[0,1,0],"key":38,"choice":1,"rt":2211.2600000109524,"outcome":1,"trial":20,"correct":1,"trial_type":"three-arm-trial","trial_index":28,"time_elapsed":419830,"internal_node_id":"0.0-26.0-0.0","task_version":"screening-mturk","missing":false,"accuracy":1},{"contexts":["red","green","blue"],"outcomes":[0,1,0],"key":38,"choice":1,"rt":465.2549999882467,"outcome":1,"trial":21,"correct":1,"trial_type":"three-arm-trial","trial_index":29,"time_elapsed":421535,"internal_node_id":"0.0-27.0-0.0","task_version":"screening-mturk","missing":false,"accuracy":1},{"contexts":["red","green","blue"],"outcomes":[1,1,0],"key":38,"choice":1,"rt":401.00499999243766,"outcome":1,"trial":22,"correct":1,"trial_type":"three-arm-trial","trial_index":30,"time_elapsed":423180,"internal_node_id":"0.0-28.0-0.0","task_version":"screening-mturk","missing":false,"accuracy":1},{"contexts":["red","green","blue"],"outcomes":[0,1,0],"key":38,"choice":1,"rt":453.2900000049267,"outcome":1,"trial":23,"correct":1,"trial_type":"three-arm-trial","trial_index":31,"time_elapsed":424872,"internal_node_id":"0.0-29.0-0.0","task_version":"screening-mturk","missing":false,"accuracy":1},{"contexts":["red","green","blue"],"outcomes":[1,0,0],"key":38,"choice":1,"rt":492.99500000779517,"outcome":0,"trial":24,"correct":1,"trial_type":"three-arm-trial","trial_index":32,"time_elapsed":426611,"internal_node_id":"0.0-30.0-0.0","task_version":"screening-mturk","missing":false,"accuracy":1},{"contexts":["red","green","blue"],"outcomes":[0,1,0],"key":39,"choice":2,"rt":528.4350000147242,"outcome":0,"trial":25,"correct":1,"trial_type":"three-arm-trial","trial_index":33,"time_elapsed":428381,"internal_node_id":"0.0-31.0-0.0","task_version":"screening-mturk","missing":false,"accuracy":0},{"contexts":["red","green","blue"],"outcomes":[0,1,0],"key":37,"choice":0,"rt":461.85500000137836,"outcome":0,"trial":26,"correct":1,"trial_type":"three-arm-trial","trial_index":34,"time_elapsed":430082,"internal_node_id":"0.0-32.0-0.0","task_version":"screening-mturk","missing":false,"accuracy":0},{"contexts":["red","green","blue"],"outcomes":[1,1,0],"key":37,"choice":0,"rt":698.4600000141654,"outcome":1,"trial":27,"correct":1,"trial_type":"three-arm-trial","trial_index":35,"time_elapsed":432020,"internal_node_id":"0.0-33.0-0.0","task_version":"screening-mturk","missing":false,"accuracy":0},{"contexts":["red","green","blue"],"outcomes":[0,1,0],"key":37,"choice":0,"rt":352.61499998159707,"outcome":0,"trial":28,"correct":1,"trial_type":"three-arm-trial","trial_index":36,"time_elapsed":433615,"internal_node_id":"0.0-34.0-0.0","task_version":"screening-mturk","missing":false,"accuracy":0},{"contexts":["red","green","blue"],"outcomes":[1,1,1],"key":37,"choice":0,"rt":523.9099999889731,"outcome":1,"trial":29,"correct":1,"trial_type":"three-arm-trial","trial_index":37,"time_elapsed":435388,"internal_node_id":"0.0-35.0-0.0","task_version":"screening-mturk","missing":false,"accuracy":0},{"contexts":["red","green","blue"],"outcomes":[0,1,0],"key":37,"choice":0,"rt":428.60499999369495,"outcome":0,"trial":30,"correct":1,"trial_type":"three-arm-trial","trial_index":38,"time_elapsed":437061,"internal_node_id":"0.0-36.0-0.0","task_version":"screening-mturk","missing":false,"accuracy":0},{"contexts":["red","green","blue"],"outcomes":[0,0,1],"key":39,"choice":2,"rt":684.3149999913294,"outcome":1,"trial":31,"correct":2,"trial_type":"three-arm-trial","trial_index":39,"time_elapsed":438986,"internal_node_id":"0.0-37.0-0.0","task_version":"screening-mturk","missing":false,"accuracy":1},{"contexts":["red","green","blue"],"outcomes":[0,0,1],"key":39,"choice":2,"rt":400.0700000033248,"outcome":1,"trial":32,"correct":2,"trial_type":"three-arm-trial","trial_index":40,"time_elapsed":440630,"internal_node_id":"0.0-38.0-0.0","task_version":"screening-mturk","missing":false,"accuracy":1},{"contexts":["red","green","blue"],"outcomes":[0,1,0],"key":39,"choice":2,"rt":426.6650000063237,"outcome":0,"trial":33,"correct":2,"trial_type":"three-arm-trial","trial_index":41,"time_elapsed":442298,"internal_node_id":"0.0-39.0-0.0","task_version":"screening-mturk","missing":false,"accuracy":1},{"contexts":["red","green","blue"],"outcomes":[0,0,1],"key":37,"choice":0,"rt":1009.7149999928661,"outcome":0,"trial":34,"correct":2,"trial_type":"three-arm-trial","trial_index":42,"time_elapsed":444553,"internal_node_id":"0.0-40.0-0.0","task_version":"screening-mturk","missing":false,"accuracy":0},{"contexts":["red","green","blue"],"outcomes":[0,0,1],"key":37,"choice":0,"rt":517.7350000012666,"outcome":0,"trial":35,"correct":2,"trial_type":"three-arm-trial","trial_index":43,"time_elapsed":446297,"internal_node_id":"0.0-41.0-0.0","task_version":"screening-mturk","missing":false,"accuracy":0},{"contexts":["red","green","blue"],"outcomes":[0,0,1],"key":38,"choice":1,"rt":415.18000001087785,"outcome":0,"trial":36,"correct":2,"trial_type":"three-arm-trial","trial_index":44,"time_elapsed":447954,"internal_node_id":"0.0-42.0-0.0","task_version":"screening-mturk","missing":false,"accuracy":0},{"contexts":["red","green","blue"],"outcomes":[0,0,1],"key":38,"choice":1,"rt":349.09499998320825,"outcome":0,"trial":37,"correct":2,"trial_type":"three-arm-trial","trial_index":45,"time_elapsed":449546,"internal_node_id":"0.0-43.0-0.0","task_version":"screening-mturk","missing":false,"accuracy":0},{"contexts":["red","green","blue"],"outcomes":[1,0,1],"key":38,"choice":1,"rt":389.06499999575317,"outcome":0,"trial":38,"correct":2,"trial_type":"three-arm-trial","trial_index":46,"time_elapsed":451177,"internal_node_id":"0.0-44.0-0.0","task_version":"screening-mturk","missing":false,"accuracy":0},{"contexts":["red","green","blue"],"outcomes":[1,0,1],"key":39,"choice":2,"rt":347.77999998186715,"outcome":1,"trial":39,"correct":2,"trial_type":"three-arm-trial","trial_index":47,"time_elapsed":452766,"internal_node_id":"0.0-45.0-0.0","task_version":"screening-mturk","missing":false,"accuracy":1},{"contexts":["red","green","blue"],"outcomes":[0,1,1],"key":39,"choice":2,"rt":359.96000000159256,"outcome":1,"trial":40,"correct":2,"trial_type":"three-arm-trial","trial_index":48,"time_elapsed":454368,"internal_node_id":"0.0-46.0-0.0","task_version":"screening-mturk","missing":false,"accuracy":1},{"contexts":["red","green","blue"],"outcomes":[1,0,1],"key":39,"choice":2,"rt":378.84499999927357,"outcome":1,"trial":41,"correct":2,"trial_type":"three-arm-trial","trial_index":49,"time_elapsed":455995,"internal_node_id":"0.0-47.0-0.0","task_version":"screening-mturk","missing":false,"accuracy":1},{"contexts":["red","green","blue"],"outcomes":[0,0,1],"key":39,"choice":2,"rt":326.3450000085868,"outcome":1,"trial":42,"correct":2,"trial_type":"three-arm-trial","trial_index":50,"time_elapsed":457563,"internal_node_id":"0.0-48.0-0.0","task_version":"screening-mturk","missing":false,"accuracy":1},{"contexts":["red","green","blue"],"outcomes":[1,0,1],"key":39,"choice":2,"rt":365.86499999975786,"outcome":1,"trial":43,"correct":2,"trial_type":"three-arm-trial","trial_index":51,"time_elapsed":459170,"internal_node_id":"0.0-49.0-0.0","task_version":"screening-mturk","missing":false,"accuracy":1},{"contexts":["red","green","blue"],"outcomes":[0,0,1],"key":39,"choice":2,"rt":376.30500001250766,"outcome":1,"trial":44,"correct":2,"trial_type":"three-arm-trial","trial_index":52,"time_elapsed":460784,"internal_node_id":"0.0-50.0-0.0","task_version":"screening-mturk","missing":false,"accuracy":1},{"contexts":["red","green","blue"],"outcomes":[1,0,1],"key":39,"choice":2,"rt":392.55999997840263,"outcome":1,"trial":45,"correct":2,"trial_type":"three-arm-trial","trial_index":53,"time_elapsed":462417,"internal_node_id":"0.0-51.0-0.0","task_version":"screening-mturk","missing":false,"accuracy":1},{"contexts":["red","green","blue"],"outcomes":[0,1,0],"key":39,"choice":2,"rt":388.0749999952968,"outcome":0,"trial":46,"correct":1,"trial_type":"three-arm-trial","trial_index":54,"time_elapsed":464043,"internal_node_id":"0.0-52.0-0.0","task_version":"screening-mturk","missing":false,"accuracy":0},{"contexts":["red","green","blue"],"outcomes":[0,1,0],"key":37,"choice":0,"rt":363.36000001756474,"outcome":0,"trial":47,"correct":1,"trial_type":"three-arm-trial","trial_index":55,"time_elapsed":465645,"internal_node_id":"0.0-53.0-0.0","task_version":"screening-mturk","missing":false,"accuracy":0},{"contexts":["red","green","blue"],"outcomes":[0,1,0],"key":37,"choice":0,"rt":526.9499999994878,"outcome":0,"trial":48,"correct":1,"trial_type":"three-arm-trial","trial_index":56,"time_elapsed":467399,"internal_node_id":"0.0-54.0-0.0","task_version":"screening-mturk","missing":false,"accuracy":0},{"contexts":["red","green","blue"],"outcomes":[0,1,0],"key":37,"choice":0,"rt":375.88499998673797,"outcome":0,"trial":49,"correct":1,"trial_type":"three-arm-trial","trial_index":57,"time_elapsed":469010,"internal_node_id":"0.0-55.0-0.0","task_version":"screening-mturk","missing":false,"accuracy":0},{"contexts":["red","green","blue"],"outcomes":[0,1,0],"key":38,"choice":1,"rt":519.3900000012945,"outcome":1,"trial":50,"correct":1,"trial_type":"three-arm-trial","trial_index":58,"time_elapsed":470754,"internal_node_id":"0.0-56.0-0.0","task_version":"screening-mturk","missing":false,"accuracy":1},{"contexts":["red","green","blue"],"outcomes":[0,0,0],"key":38,"choice":1,"rt":426.2799999851268,"outcome":0,"trial":51,"correct":1,"trial_type":"three-arm-trial","trial_index":59,"time_elapsed":472417,"internal_node_id":"0.0-57.0-0.0","task_version":"screening-mturk","missing":false,"accuracy":1},{"contexts":["red","green","blue"],"outcomes":[1,1,0],"key":39,"choice":2,"rt":417.66000000643544,"outcome":0,"trial":52,"correct":1,"trial_type":"three-arm-trial","trial_index":60,"time_elapsed":474069,"internal_node_id":"0.0-58.0-0.0","task_version":"screening-mturk","missing":false,"accuracy":0},{"contexts":["red","green","blue"],"outcomes":[0,1,1],"key":39,"choice":2,"rt":374.1299999819603,"outcome":1,"trial":53,"correct":1,"trial_type":"three-arm-trial","trial_index":61,"time_elapsed":475674,"internal_node_id":"0.0-59.0-0.0","task_version":"screening-mturk","missing":false,"accuracy":0},{"contexts":["red","green","blue"],"outcomes":[1,1,0],"key":39,"choice":2,"rt":378.76999998115934,"outcome":0,"trial":54,"correct":1,"trial_type":"three-arm-trial","trial_index":62,"time_elapsed":477283,"internal_node_id":"0.0-60.0-0.0","task_version":"screening-mturk","missing":false,"accuracy":0},{"contexts":["red","green","blue"],"outcomes":[1,1,0],"key":37,"choice":0,"rt":598.3850000193343,"outcome":1,"trial":55,"correct":1,"trial_type":"three-arm-trial","trial_index":63,"time_elapsed":479126,"internal_node_id":"0.0-61.0-0.0","task_version":"screening-mturk","missing":false,"accuracy":0},{"contexts":["red","green","blue"],"outcomes":[1,1,0],"key":37,"choice":0,"rt":363.0150000099093,"outcome":1,"trial":56,"correct":1,"trial_type":"three-arm-trial","trial_index":64,"time_elapsed":480729,"internal_node_id":"0.0-62.0-0.0","task_version":"screening-mturk","missing":false,"accuracy":0},{"contexts":["red","green","blue"],"outcomes":[1,1,0],"key":37,"choice":0,"rt":415.5599999940023,"outcome":1,"trial":57,"correct":1,"trial_type":"three-arm-trial","trial_index":65,"time_elapsed":482391,"internal_node_id":"0.0-63.0-0.0","task_version":"screening-mturk","missing":false,"accuracy":0},{"contexts":["red","green","blue"],"outcomes":[0,1,0],"key":37,"choice":0,"rt":361.90499999793246,"outcome":0,"trial":58,"correct":1,"trial_type":"three-arm-trial","trial_index":66,"time_elapsed":483997,"internal_node_id":"0.0-64.0-0.0","task_version":"screening-mturk","missing":false,"accuracy":0},{"contexts":["red","green","blue"],"outcomes":[0,1,0],"key":39,"choice":2,"rt":602.0250000001397,"outcome":0,"trial":59,"correct":1,"trial_type":"three-arm-trial","trial_index":67,"time_elapsed":485842,"internal_node_id":"0.0-65.0-0.0","task_version":"screening-mturk","missing":false,"accuracy":0},{"contexts":["red","green","blue"],"outcomes":[0,1,0],"key":39,"choice":2,"rt":358.7100000004284,"outcome":0,"trial":60,"correct":1,"trial_type":"three-arm-trial","trial_index":68,"time_elapsed":487434,"internal_node_id":"0.0-66.0-0.0","task_version":"screening-mturk","missing":false,"accuracy":0},{"contexts":["red","green","blue"],"outcomes":[1,0,0],"key":39,"choice":2,"rt":343.0250000092201,"outcome":0,"trial":61,"correct":0,"trial_type":"three-arm-trial","trial_index":69,"time_elapsed":489016,"internal_node_id":"0.0-67.0-0.0","task_version":"screening-mturk","missing":false,"accuracy":0},{"contexts":["red","green","blue"],"outcomes":[1,0,0],"key":39,"choice":2,"rt":455.27999999467283,"outcome":0,"trial":62,"correct":0,"trial_type":"three-arm-trial","trial_index":70,"time_elapsed":490710,"internal_node_id":"0.0-68.0-0.0","task_version":"screening-mturk","missing":false,"accuracy":0},{"contexts":["red","green","blue"],"outcomes":[1,0,0],"key":38,"choice":1,"rt":374.9249999818858,"outcome":0,"trial":63,"correct":0,"trial_type":"three-arm-trial","trial_index":71,"time_elapsed":492324,"internal_node_id":"0.0-69.0-0.0","task_version":"screening-mturk","missing":false,"accuracy":0},{"contexts":["red","green","blue"],"outcomes":[1,1,0],"key":38,"choice":1,"rt":361.65999999502674,"outcome":1,"trial":64,"correct":0,"trial_type":"three-arm-trial","trial_index":72,"time_elapsed":493925,"internal_node_id":"0.0-70.0-0.0","task_version":"screening-mturk","missing":false,"accuracy":0},{"contexts":["red","green","blue"],"outcomes":[1,0,0],"key":38,"choice":1,"rt":356.86999998870306,"outcome":0,"trial":65,"correct":0,"trial_type":"three-arm-trial","trial_index":73,"time_elapsed":495527,"internal_node_id":"0.0-71.0-0.0","task_version":"screening-mturk","missing":false,"accuracy":0},{"contexts":["red","green","blue"],"outcomes":[1,0,0],"key":37,"choice":0,"rt":409.4899999909103,"outcome":1,"trial":66,"correct":0,"trial_type":"three-arm-trial","trial_index":74,"time_elapsed":497174,"internal_node_id":"0.0-72.0-0.0","task_version":"screening-mturk","missing":false,"accuracy":1},{"contexts":["red","green","blue"],"outcomes":[1,1,0],"key":37,"choice":0,"rt":342.5100000167731,"outcome":1,"trial":67,"correct":0,"trial_type":"three-arm-trial","trial_index":75,"time_elapsed":498760,"internal_node_id":"0.0-73.0-0.0","task_version":"screening-mturk","missing":false,"accuracy":1},{"contexts":["red","green","blue"],"outcomes":[1,0,0],"key":37,"choice":0,"rt":349.1599999833852,"outcome":1,"trial":68,"correct":0,"trial_type":"three-arm-trial","trial_index":76,"time_elapsed":500345,"internal_node_id":"0.0-74.0-0.0","task_version":"screening-mturk","missing":false,"accuracy":1},{"contexts":["red","green","blue"],"outcomes":[1,1,0],"key":37,"choice":0,"rt":328.3100000116974,"outcome":1,"trial":69,"correct":0,"trial_type":"three-arm-trial","trial_index":77,"time_elapsed":501905,"internal_node_id":"0.0-75.0-0.0","task_version":"screening-mturk","missing":false,"accuracy":1},{"contexts":["red","green","blue"],"outcomes":[0,0,0],"key":37,"choice":0,"rt":337.9549999954179,"outcome":0,"trial":70,"correct":0,"trial_type":"three-arm-trial","trial_index":78,"time_elapsed":503476,"internal_node_id":"0.0-76.0-0.0","task_version":"screening-mturk","missing":false,"accuracy":1},{"contexts":["red","green","blue"],"outcomes":[0,0,0],"key":39,"choice":2,"rt":436.75499997334555,"outcome":0,"trial":71,"correct":0,"trial_type":"three-arm-trial","trial_index":79,"time_elapsed":505150,"internal_node_id":"0.0-77.0-0.0","task_version":"screening-mturk","missing":false,"accuracy":0},{"contexts":["red","green","blue"],"outcomes":[1,0,1],"key":38,"choice":1,"rt":958.5650000080932,"outcome":0,"trial":72,"correct":0,"trial_type":"three-arm-trial","trial_index":80,"time_elapsed":507341,"internal_node_id":"0.0-78.0-0.0","task_version":"screening-mturk","missing":false,"accuracy":0},{"contexts":["red","green","blue"],"outcomes":[1,0,0],"key":37,"choice":0,"rt":342.57499998784624,"outcome":1,"trial":73,"correct":0,"trial_type":"three-arm-trial","trial_index":81,"time_elapsed":508928,"internal_node_id":"0.0-79.0-0.0","task_version":"screening-mturk","missing":false,"accuracy":1},{"contexts":["red","green","blue"],"outcomes":[1,0,0],"key":37,"choice":0,"rt":349.45500001776963,"outcome":1,"trial":74,"correct":0,"trial_type":"three-arm-trial","trial_index":82,"time_elapsed":510514,"internal_node_id":"0.0-80.0-0.0","task_version":"screening-mturk","missing":false,"accuracy":1},{"contexts":["red","green","blue"],"outcomes":[1,0,0],"key":37,"choice":0,"rt":398.64500000840053,"outcome":1,"trial":75,"correct":0,"trial_type":"three-arm-trial","trial_index":83,"time_elapsed":512149,"internal_node_id":"0.0-81.0-0.0","task_version":"screening-mturk","missing":false,"accuracy":1},{"contexts":["red","green","blue"],"outcomes":[0,1,1],"key":37,"choice":0,"rt":323.275000002468,"outcome":0,"trial":76,"correct":2,"trial_type":"three-arm-trial","trial_index":84,"time_elapsed":513716,"internal_node_id":"0.0-82.0-0.0","task_version":"screening-mturk","missing":false,"accuracy":0},{"contexts":["red","green","blue"],"outcomes":[0,0,0],"key":38,"choice":1,"rt":586.6300000052433,"outcome":0,"trial":77,"correct":2,"trial_type":"three-arm-trial","trial_index":85,"time_elapsed":515541,"internal_node_id":"0.0-83.0-0.0","task_version":"screening-mturk","missing":false,"accuracy":0},{"contexts":["red","green","blue"],"outcomes":[0,0,1],"key":39,"choice":2,"rt":369.814999983646,"outcome":1,"trial":78,"correct":2,"trial_type":"three-arm-trial","trial_index":86,"time_elapsed":517151,"internal_node_id":"0.0-84.0-0.0","task_version":"screening-mturk","missing":false,"accuracy":1},{"contexts":["red","green","blue"],"outcomes":[0,0,1],"key":39,"choice":2,"rt":336.42999999574386,"outcome":1,"trial":79,"correct":2,"trial_type":"three-arm-trial","trial_index":87,"time_elapsed":518736,"internal_node_id":"0.0-85.0-0.0","task_version":"screening-mturk","missing":false,"accuracy":1},{"contexts":["red","green","blue"],"outcomes":[1,0,1],"key":39,"choice":2,"rt":394.3649999855552,"outcome":1,"trial":80,"correct":2,"trial_type":"three-arm-trial","trial_index":88,"time_elapsed":520372,"internal_node_id":"0.0-86.0-0.0","task_version":"screening-mturk","missing":false,"accuracy":1},{"contexts":["red","green","blue"],"outcomes":[0,0,1],"key":39,"choice":2,"rt":349.9450000235811,"outcome":1,"trial":81,"correct":2,"trial_type":"three-arm-trial","trial_index":89,"time_elapsed":521965,"internal_node_id":"0.0-87.0-0.0","task_version":"screening-mturk","missing":false,"accuracy":1},{"contexts":["red","green","blue"],"outcomes":[1,0,1],"key":39,"choice":2,"rt":366.06999998912215,"outcome":1,"trial":82,"correct":2,"trial_type":"three-arm-trial","trial_index":90,"time_elapsed":523581,"internal_node_id":"0.0-88.0-0.0","task_version":"screening-mturk","missing":false,"accuracy":1},{"contexts":["red","green","blue"],"outcomes":[0,0,1],"key":39,"choice":2,"rt":400.46999999322,"outcome":1,"trial":83,"correct":2,"trial_type":"three-arm-trial","trial_index":91,"time_elapsed":525213,"internal_node_id":"0.0-89.0-0.0","task_version":"screening-mturk","missing":false,"accuracy":1},{"contexts":["red","green","blue"],"outcomes":[0,0,1],"key":39,"choice":2,"rt":384.2949999962002,"outcome":1,"trial":84,"correct":2,"trial_type":"three-arm-trial","trial_index":92,"time_elapsed":526842,"internal_node_id":"0.0-90.0-0.0","task_version":"screening-mturk","missing":false,"accuracy":1},{"contexts":["red","green","blue"],"outcomes":[0,0,1],"key":39,"choice":2,"rt":375.54999999701977,"outcome":1,"trial":85,"correct":2,"trial_type":"three-arm-trial","trial_index":93,"time_elapsed":528457,"internal_node_id":"0.0-91.0-0.0","task_version":"screening-mturk","missing":false,"accuracy":1},{"contexts":["red","green","blue"],"outcomes":[0,0,1],"key":39,"choice":2,"rt":378.9200000173878,"outcome":1,"trial":86,"correct":2,"trial_type":"three-arm-trial","trial_index":94,"time_elapsed":530088,"internal_node_id":"0.0-92.0-0.0","task_version":"screening-mturk","missing":false,"accuracy":1},{"contexts":["red","green","blue"],"outcomes":[0,1,1],"key":39,"choice":2,"rt":437.5350000045728,"outcome":1,"trial":87,"correct":2,"trial_type":"three-arm-trial","trial_index":95,"time_elapsed":531766,"internal_node_id":"0.0-93.0-0.0","task_version":"screening-mturk","missing":false,"accuracy":1},{"contexts":["red","green","blue"],"outcomes":[0,0,1],"key":39,"choice":2,"rt":379.7550000017509,"outcome":1,"trial":88,"correct":2,"trial_type":"three-arm-trial","trial_index":96,"time_elapsed":533387,"internal_node_id":"0.0-94.0-0.0","task_version":"screening-mturk","missing":false,"accuracy":1},{"contexts":["red","green","blue"],"outcomes":[0,0,0],"key":39,"choice":2,"rt":359.1149999992922,"outcome":0,"trial":89,"correct":2,"trial_type":"three-arm-trial","trial_index":97,"time_elapsed":534999,"internal_node_id":"0.0-95.0-0.0","task_version":"screening-mturk","missing":false,"accuracy":1},{"contexts":["red","green","blue"],"outcomes":[0,0,1],"key":37,"choice":0,"rt":395.89499999419786,"outcome":0,"trial":90,"correct":2,"trial_type":"three-arm-trial","trial_index":98,"time_elapsed":536624,"internal_node_id":"0.0-96.0-0.0","task_version":"screening-mturk","missing":false,"accuracy":0},{"rt":28961.47999999812,"responses":{"age":"34","gender-categorical":"Male","gender-free-response":"","ethnicity":"Not Hispanic or Latino","race":["White"],"language":"Yes","fluency":"Very well","prolific":"No","prolific-this-study":"No"},"survey":"demographics","trial_type":"survey-demo","trial_index":99,"time_elapsed":565629,"internal_node_id":"0.0-97.0","task_version":"screening-mturk","interactions":"[{\"event\":\"blur\",\"trial\":6,\"time\":328394},{\"event\":\"focus\",\"trial\":6,\"time\":331975}]"}]