[{"responses":{"Q01":"3","Q08":"3","Q02":"3","Q11":"2","Q10":"3","Q13":"3","Q07":"3","Q06":"3","Q04":"2","Q09":"3","Q03":"3","Q14":"3","Q12":"3","Q05":"3","Q15":"2"},"rt":22802.619999973103,"survey":"7up7down","trial_type":"survey-template","trial_index":0,"time_elapsed":22817,"internal_node_id":"0.0-0.0","task_version":"screening-mturk"},{"responses":{"Q05":"3","Q03":"2","Q14":"3","Q09":"3","Q07":"3","Q15":"1","Q02":"3","Q12":"3","Q01":"2","Q13":"3","Q10":"3","Q11":"3","Q06":"3","Q08":"3","Q04":"3"},"rt":22595.015000086278,"survey":"shaps","trial_type":"survey-template","trial_index":1,"time_elapsed":45422,"internal_node_id":"0.0-1.0","task_version":"screening-mturk"},{"responses":{"Q01":"1","Q03":"4","Q02":"2"},"rt":7192.295000189915,"survey":"pswq","trial_type":"survey-template","trial_index":2,"time_elapsed":52617,"internal_node_id":"0.0-2.0","task_version":"screening-mturk"},{"responses":{"Q06":"3","Q09":"3","Q04":"2","Q10":"3","Q02":"3","Q12":"2","Q05":"3","Q03":"0","Q11":"0","Q07":"3","Q13":"2","Q08":"3","Q01":"3"},"rt":16576.07499998994,"survey":"bisbas","trial_type":"survey-template","trial_index":3,"time_elapsed":69197,"internal_node_id":"0.0-3.0","task_version":"screening-mturk"},{"responses":{"Q06":"3","Q04":"0","Q01":"0","Q07":"3","Q05":"3","Q03":"1","Q02":"3","Q08":"1"},"rt":15075.429999968037,"survey":"gad7","trial_type":"survey-template","trial_index":4,"time_elapsed":84275,"internal_node_id":"0.0-4.0","task_version":"screening-mturk"},{"view_history":"[{\"page_index\":0,\"viewing_time\":13526.229999959469},{\"page_index\":1,\"viewing_time\":2609.225000021979},{\"page_index\":2,\"viewing_time\":1479.8650001175702},{\"page_index\":3,\"viewing_time\":1750.3700000233948},{\"page_index\":4,\"viewing_time\":3839.6299998275936},{\"page_index\":5,\"viewing_time\":1319.660000037402},{\"page_index\":6,\"viewing_time\":1110.3050000965595},{\"page_index\":7,\"viewing_time\":1069.4750000257045}]","rt":26705.7700001169,"trial_type":"instructions","trial_index":5,"time_elapsed":110986,"internal_node_id":"0.0-5.0-0.0","task_version":"screening-mturk"},{"responses":["True","True","True","False","True"],"num_errors":1,"rt":9215.010000159964,"trial_type":"three-arm-comprehension","trial_index":6,"time_elapsed":120206,"internal_node_id":"0.0-5.0-1.0","task_version":"screening-mturk"},{"view_history":"[{\"page_index\":0,\"viewing_time\":2426.1350000742823},{\"page_index\":1,\"viewing_time\":2309.1599999461323},{\"page_index\":2,\"viewing_time\":2500.264999922365},{\"page_index\":3,\"viewing_time\":2989.405000116676},{\"page_index\":4,\"viewing_time\":2230.005000019446},{\"page_index\":5,\"viewing_time\":2879.560000030324},{\"page_index\":6,\"viewing_time\":2210.2049998939037},{\"page_index\":7,\"viewing_time\":1659.7049999982119}]","rt":19204.8599999398,"trial_type":"instructions","trial_index":7,"time_elapsed":139413,"internal_node_id":"0.0-5.1-0.1","task_version":"screening-mturk"},{"responses":["True","False","True","True","False"],"num_errors":4,"rt":5467.984999995679,"trial_type":"three-arm-comprehension","trial_index":8,"time_elapsed":144885,"internal_node_id":"0.0-5.1-1.1","task_version":"screening-mturk"},{"view_history":"[{\"page_index\":0,\"viewing_time\":2774.089999962598},{\"page_index\":1,\"viewing_time\":1969.6649999823421},{\"page_index\":2,\"viewing_time\":1890.055000083521},{\"page_index\":3,\"viewing_time\":1820.0199999846518},{\"page_index\":4,\"viewing_time\":1869.6149999741465},{\"page_index\":5,\"viewing_time\":3039.8550000973046},{\"page_index\":6,\"viewing_time\":1390.0699999649078},{\"page_index\":7,\"viewing_time\":1409.209999954328}]","rt":16162.865000078455,"trial_type":"instructions","trial_index":9,"time_elapsed":161051,"internal_node_id":"0.0-5.2-0.2","task_version":"screening-mturk"},{"responses":["False","True","False","True","True"],"num_errors":2,"rt":3758.864999981597,"trial_type":"three-arm-comprehension","trial_index":10,"time_elapsed":164812,"internal_node_id":"0.0-5.2-1.2","task_version":"screening-mturk"},{"view_history":"[{\"page_index\":0,\"viewing_time\":1816.12000009045},{\"page_index\":1,\"viewing_time\":1330.0049998797476},{\"page_index\":2,\"viewing_time\":1560.0000000558794},{\"page_index\":3,\"viewing_time\":1849.835000000894},{\"page_index\":4,\"viewing_time\":1300.1749999821186},{\"page_index\":5,\"viewing_time\":1529.5450000558048},{\"page_index\":6,\"viewing_time\":1530.0300000235438},{\"page_index\":7,\"viewing_time\":1219.624999910593}]","rt":12135.745000094175,"trial_type":"instructions","trial_index":11,"time_elapsed":176955,"internal_node_id":"0.0-5.3-0.3","task_version":"screening-mturk"},{"responses":["False","True","True","True","True"],"num_errors":3,"rt":3738.3600000757724,"trial_type":"three-arm-comprehension","trial_index":12,"time_elapsed":180697,"internal_node_id":"0.0-5.3-1.3","task_version":"screening-mturk"},{"view_history":"[{\"page_index\":0,\"viewing_time\":3694.950000150129},{\"page_index\":1,\"viewing_time\":1600.235000019893},{\"page_index\":2,\"viewing_time\":1199.5749999769032},{\"page_index\":3,\"viewing_time\":1919.8499999474734},{\"page_index\":4,\"viewing_time\":1669.980000006035},{\"page_index\":5,\"viewing_time\":1629.6299998648465},{\"page_index\":6,\"viewing_time\":1429.9800000153482},{\"page_index\":7,\"viewing_time\":1239.9999999906868}]","rt":14384.615000104532,"trial_type":"instructions","trial_index":13,"time_elapsed":195084,"internal_node_id":"0.0-5.4-0.4","task_version":"screening-mturk"},{"responses":["True","True","True","True","True"],"num_errors":2,"rt":12427.840000018477,"trial_type":"three-arm-comprehension","trial_index":14,"time_elapsed":207515,"internal_node_id":"0.0-5.4-1.4","task_version":"screening-mturk"},{"view_history":"[{\"page_index\":0,\"viewing_time\":4934.415000025183},{\"page_index\":1,\"viewing_time\":26558.190000010654},{\"page_index\":0,\"viewing_time\":2039.820000063628},{\"page_index\":1,\"viewing_time\":989.7449999116361},{\"page_index\":0,\"viewing_time\":7524.680000031367},{\"page_index\":1,\"viewing_time\":5624.820000026375},{\"page_index\":2,\"viewing_time\":6908.890000078827},{\"page_index\":3,\"viewing_time\":7739.9299999233335},{\"page_index\":4,\"viewing_time\":8698.970000026748},{\"page_index\":5,\"viewing_time\":4719.964999938384},{\"page_index\":6,\"viewing_time\":2979.340000078082},{\"page_index\":7,\"viewing_time\":4859.92499999702}]","rt":83578.9850000292,"trial_type":"instructions","trial_index":15,"time_elapsed":291107,"internal_node_id":"0.0-5.5-0.5","task_version":"screening-mturk"},{"responses":["True","True","True","True","False"],"num_errors":3,"rt":22527.13999990374,"trial_type":"three-arm-comprehension","trial_index":16,"time_elapsed":313636,"internal_node_id":"0.0-5.5-1.5","task_version":"screening-mturk"},{"view_history":"[{\"page_index\":0,\"viewing_time\":2135.2399999741465},{\"page_index\":1,\"viewing_time\":649.5650000870228},{\"page_index\":2,\"viewing_time\":20.424999995157123},{\"page_index\":3,\"viewing_time\":339.7600001189858},{\"page_index\":4,\"viewing_time\":10.274999774992466},{\"page_index\":5,\"viewing_time\":329.65000020340085},{\"page_index\":6,\"viewing_time\":11.375000001862645},{\"page_index\":7,\"viewing_time\":348.4099998604506}]","rt":3844.990000128746,"trial_type":"instructions","trial_index":17,"time_elapsed":317484,"internal_node_id":"0.0-5.6-0.6","task_version":"screening-mturk"},{"responses":["False","True","True","True","True"],"num_errors":3,"rt":14308.145000133663,"trial_type":"three-arm-comprehension","trial_index":18,"time_elapsed":331795,"internal_node_id":"0.0-5.6-1.6","task_version":"screening-mturk"},{"view_history":"[{\"page_index\":0,\"viewing_time\":2246.1500000208616},{\"page_index\":1,\"viewing_time\":4249.880000017583},{\"page_index\":2,\"viewing_time\":920.1249999459833},{\"page_index\":3,\"viewing_time\":14.98500001616776},{\"page_index\":4,\"viewing_time\":304.5000000856817},{\"page_index\":5,\"viewing_time\":20.655000116676092},{\"page_index\":6,\"viewing_time\":321.59999990835786},{\"page_index\":7,\"viewing_time\":777.8749999124557}]","rt":8856.15500016138,"trial_type":"instructions","trial_index":19,"time_elapsed":340653,"internal_node_id":"0.0-5.7-0.7","task_version":"screening-mturk"},{"responses":["True","True","False","False","True"],"num_errors":0,"rt":21627.464999910444,"trial_type":"three-arm-comprehension","trial_index":20,"time_elapsed":362288,"internal_node_id":"0.0-5.7-1.7","task_version":"screening-mturk"},{"view_history":"[{\"page_index\":0,\"viewing_time\":2724.5650000404567}]","rt":2724.9900000169873,"trial_type":"instructions","trial_index":21,"time_elapsed":365016,"internal_node_id":"0.0-6.0","task_version":"screening-mturk"},{"contexts":["red","blue","green"],"outcomes":[1,0,0],"key":null,"rt":null,"trial":1,"correct":0,"trial_type":"three-arm-trial","trial_index":22,"time_elapsed":380022,"internal_node_id":"0.0-7.0-0.0","task_version":"screening-mturk","missing":true},{"contexts":["red","blue","green"],"outcomes":[1,0,0],"key":39,"choice":2,"rt":1492.545000044629,"outcome":0,"trial":1,"correct":0,"trial_type":"three-arm-trial","trial_index":23,"time_elapsed":382717,"internal_node_id":"0.0-7.1-0.1","task_version":"screening-mturk","missing":false,"accuracy":0},{"contexts":["red","blue","green"],"outcomes":[1,0,1],"key":37,"choice":0,"rt":785.3250000625849,"outcome":1,"trial":2,"correct":0,"trial_type":"three-arm-trial","trial_index":24,"time_elapsed":384706,"internal_node_id":"0.0-8.0-0.0","task_version":"screening-mturk","missing":false,"accuracy":1},{"contexts":["red","blue","green"],"outcomes":[1,0,0],"key":38,"choice":1,"rt":677.034999942407,"outcome":0,"trial":3,"correct":0,"trial_type":"three-arm-trial","trial_index":25,"time_elapsed":386586,"internal_node_id":"0.0-9.0-0.0","task_version":"screening-mturk","missing":false,"accuracy":0},{"contexts":["red","blue","green"],"outcomes":[1,1,0],"key":38,"choice":1,"rt":1996.4399999007583,"outcome":1,"trial":4,"correct":0,"trial_type":"three-arm-trial","trial_index":26,"time_elapsed":389785,"internal_node_id":"0.0-10.0-0.0","task_version":"screening-mturk","missing":false,"accuracy":0},{"contexts":["red","blue","green"],"outcomes":[1,0,0],"key":38,"choice":1,"rt":986.8949998635799,"outcome":0,"trial":5,"correct":0,"trial_type":"three-arm-trial","trial_index":27,"time_elapsed":391974,"internal_node_id":"0.0-11.0-0.0","task_version":"screening-mturk","missing":false,"accuracy":0},{"contexts":["red","blue","green"],"outcomes":[1,0,0],"key":39,"choice":2,"rt":1467.6999999210238,"outcome":0,"trial":6,"correct":0,"trial_type":"three-arm-trial","trial_index":28,"time_elapsed":394645,"internal_node_id":"0.0-12.0-0.0","task_version":"screening-mturk","missing":false,"accuracy":0},{"contexts":["red","blue","green"],"outcomes":[1,0,0],"key":38,"choice":1,"rt":727.974999928847,"outcome":0,"trial":7,"correct":0,"trial_type":"three-arm-trial","trial_index":29,"time_elapsed":396576,"internal_node_id":"0.0-13.0-0.0","task_version":"screening-mturk","missing":false,"accuracy":0},{"contexts":["red","blue","green"],"outcomes":[1,0,0],"key":37,"choice":0,"rt":765.4399999883026,"outcome":1,"trial":8,"correct":0,"trial_type":"three-arm-trial","trial_index":30,"time_elapsed":398544,"internal_node_id":"0.0-14.0-0.0","task_version":"screening-mturk","missing":false,"accuracy":1},{"contexts":["red","blue","green"],"outcomes":[1,1,1],"key":39,"choice":2,"rt":577.6599999517202,"outcome":1,"trial":9,"correct":0,"trial_type":"three-arm-trial","trial_index":31,"time_elapsed":400325,"internal_node_id":"0.0-15.0-0.0","task_version":"screening-mturk","missing":false,"accuracy":0},{"contexts":["red","blue","green"],"outcomes":[1,0,1],"key":38,"choice":1,"rt":286.5150000434369,"outcome":0,"trial":10,"correct":0,"trial_type":"three-arm-trial","trial_index":32,"time_elapsed":401815,"internal_node_id":"0.0-16.0-0.0","task_version":"screening-mturk","missing":false,"accuracy":0},{"contexts":["red","blue","green"],"outcomes":[1,0,0],"key":38,"choice":1,"rt":804.6900001354516,"outcome":0,"trial":11,"correct":0,"trial_type":"three-arm-trial","trial_index":33,"time_elapsed":403825,"internal_node_id":"0.0-17.0-0.0","task_version":"screening-mturk","missing":false,"accuracy":0},{"contexts":["red","blue","green"],"outcomes":[1,0,0],"key":38,"choice":1,"rt":416.7100000195205,"outcome":0,"trial":12,"correct":0,"trial_type":"three-arm-trial","trial_index":34,"time_elapsed":405444,"internal_node_id":"0.0-18.0-0.0","task_version":"screening-mturk","missing":false,"accuracy":0},{"contexts":["red","blue","green"],"outcomes":[1,0,0],"key":37,"choice":0,"rt":749.1899998858571,"outcome":1,"trial":13,"correct":0,"trial_type":"three-arm-trial","trial_index":35,"time_elapsed":407396,"internal_node_id":"0.0-19.0-0.0","task_version":"screening-mturk","missing":false,"accuracy":1},{"contexts":["red","blue","green"],"outcomes":[1,0,1],"key":39,"choice":2,"rt":634.4650001265109,"outcome":1,"trial":14,"correct":0,"trial_type":"three-arm-trial","trial_index":36,"time_elapsed":409233,"internal_node_id":"0.0-20.0-0.0","task_version":"screening-mturk","missing":false,"accuracy":0},{"contexts":["red","blue","green"],"outcomes":[1,0,0],"key":39,"choice":2,"rt":767.9399999324232,"outcome":0,"trial":15,"correct":0,"trial_type":"three-arm-trial","trial_index":37,"time_elapsed":411204,"internal_node_id":"0.0-21.0-0.0","task_version":"screening-mturk","missing":false,"accuracy":0},{"contexts":["red","blue","green"],"outcomes":[1,1,1],"key":37,"choice":0,"rt":746.8650001101196,"outcome":1,"trial":16,"correct":2,"trial_type":"three-arm-trial","trial_index":38,"time_elapsed":413154,"internal_node_id":"0.0-22.0-0.0","task_version":"screening-mturk","missing":false,"accuracy":0},{"contexts":["red","blue","green"],"outcomes":[0,1,0],"key":38,"choice":1,"rt":437.015000032261,"outcome":1,"trial":17,"correct":2,"trial_type":"three-arm-trial","trial_index":39,"time_elapsed":414793,"internal_node_id":"0.0-23.0-0.0","task_version":"screening-mturk","missing":false,"accuracy":0},{"contexts":["red","blue","green"],"outcomes":[0,0,1],"key":37,"choice":0,"rt":577.0749999210238,"outcome":0,"trial":18,"correct":2,"trial_type":"three-arm-trial","trial_index":40,"time_elapsed":416573,"internal_node_id":"0.0-24.0-0.0","task_version":"screening-mturk","missing":false,"accuracy":0},{"contexts":["red","blue","green"],"outcomes":[0,0,0],"key":39,"choice":2,"rt":307.1149999741465,"outcome":0,"trial":19,"correct":2,"trial_type":"three-arm-trial","trial_index":41,"time_elapsed":418083,"internal_node_id":"0.0-25.0-0.0","task_version":"screening-mturk","missing":false,"accuracy":1},{"contexts":["red","blue","green"],"outcomes":[1,0,1],"key":38,"choice":1,"rt":916.579999960959,"outcome":0,"trial":20,"correct":2,"trial_type":"three-arm-trial","trial_index":42,"time_elapsed":420202,"internal_node_id":"0.0-26.0-0.0","task_version":"screening-mturk","missing":false,"accuracy":0},{"contexts":["red","blue","green"],"outcomes":[0,0,1],"key":37,"choice":0,"rt":688.1550000980496,"outcome":0,"trial":21,"correct":2,"trial_type":"three-arm-trial","trial_index":43,"time_elapsed":422092,"internal_node_id":"0.0-27.0-0.0","task_version":"screening-mturk","missing":false,"accuracy":0},{"contexts":["red","blue","green"],"outcomes":[0,0,1],"key":37,"choice":0,"rt":426.31000000983477,"outcome":0,"trial":22,"correct":2,"trial_type":"three-arm-trial","trial_index":44,"time_elapsed":423727,"internal_node_id":"0.0-28.0-0.0","task_version":"screening-mturk","missing":false,"accuracy":0},{"contexts":["red","blue","green"],"outcomes":[0,0,1],"key":37,"choice":0,"rt":567.5449999980628,"outcome":0,"trial":23,"correct":2,"trial_type":"three-arm-trial","trial_index":45,"time_elapsed":425498,"internal_node_id":"0.0-29.0-0.0","task_version":"screening-mturk","missing":false,"accuracy":0},{"contexts":["red","blue","green"],"outcomes":[0,0,0],"key":39,"choice":2,"rt":547.4399998784065,"outcome":0,"trial":24,"correct":2,"trial_type":"three-arm-trial","trial_index":46,"time_elapsed":427249,"internal_node_id":"0.0-30.0-0.0","task_version":"screening-mturk","missing":false,"accuracy":1},{"contexts":["red","blue","green"],"outcomes":[0,0,1],"key":38,"choice":1,"rt":625.1600000541657,"outcome":0,"trial":25,"correct":2,"trial_type":"three-arm-trial","trial_index":47,"time_elapsed":429077,"internal_node_id":"0.0-31.0-0.0","task_version":"screening-mturk","missing":false,"accuracy":0},{"contexts":["red","blue","green"],"outcomes":[1,0,1],"key":38,"choice":1,"rt":47.06500004976988,"outcome":0,"trial":26,"correct":2,"trial_type":"three-arm-trial","trial_index":48,"time_elapsed":430327,"internal_node_id":"0.0-32.0-0.0","task_version":"screening-mturk","missing":false,"accuracy":0},{"contexts":["red","blue","green"],"outcomes":[0,1,1],"key":37,"choice":0,"rt":57.16499988920987,"outcome":0,"trial":27,"correct":2,"trial_type":"three-arm-trial","trial_index":49,"time_elapsed":431587,"internal_node_id":"0.0-33.0-0.0","task_version":"screening-mturk","missing":false,"accuracy":0},{"contexts":["red","blue","green"],"outcomes":[0,0,1],"key":39,"choice":2,"rt":338.2550000678748,"outcome":1,"trial":28,"correct":2,"trial_type":"three-arm-trial","trial_index":50,"time_elapsed":433128,"internal_node_id":"0.0-34.0-0.0","task_version":"screening-mturk","missing":false,"accuracy":1},{"contexts":["red","blue","green"],"outcomes":[1,0,1],"key":39,"choice":2,"rt":456.5500000026077,"outcome":1,"trial":29,"correct":2,"trial_type":"three-arm-trial","trial_index":51,"time_elapsed":434787,"internal_node_id":"0.0-35.0-0.0","task_version":"screening-mturk","missing":false,"accuracy":1},{"contexts":["red","blue","green"],"outcomes":[1,1,1],"key":39,"choice":2,"rt":196.29999995231628,"outcome":1,"trial":30,"correct":2,"trial_type":"three-arm-trial","trial_index":52,"time_elapsed":436187,"internal_node_id":"0.0-36.0-0.0","task_version":"screening-mturk","missing":false,"accuracy":1},{"contexts":["red","blue","green"],"outcomes":[1,0,0],"key":39,"choice":2,"rt":167.8649999666959,"outcome":0,"trial":31,"correct":0,"trial_type":"three-arm-trial","trial_index":53,"time_elapsed":437557,"internal_node_id":"0.0-37.0-0.0","task_version":"screening-mturk","missing":false,"accuracy":0},{"contexts":["red","blue","green"],"outcomes":[1,0,0],"key":37,"choice":0,"rt":276.0000000707805,"outcome":1,"trial":32,"correct":0,"trial_type":"three-arm-trial","trial_index":54,"time_elapsed":439037,"internal_node_id":"0.0-38.0-0.0","task_version":"screening-mturk","missing":false,"accuracy":1},{"contexts":["red","blue","green"],"outcomes":[1,0,0],"key":37,"choice":0,"rt":176.3450000435114,"outcome":1,"trial":33,"correct":0,"trial_type":"three-arm-trial","trial_index":55,"time_elapsed":440416,"internal_node_id":"0.0-39.0-0.0","task_version":"screening-mturk","missing":false,"accuracy":1},{"contexts":["red","blue","green"],"outcomes":[1,1,0],"key":37,"choice":0,"rt":107.62499994598329,"outcome":1,"trial":34,"correct":0,"trial_type":"three-arm-trial","trial_index":56,"time_elapsed":441726,"internal_node_id":"0.0-40.0-0.0","task_version":"screening-mturk","missing":false,"accuracy":1},{"contexts":["red","blue","green"],"outcomes":[1,0,1],"key":38,"choice":1,"rt":37.36499999649823,"outcome":0,"trial":35,"correct":0,"trial_type":"three-arm-trial","trial_index":57,"time_elapsed":442966,"internal_node_id":"0.0-41.0-0.0","task_version":"screening-mturk","missing":false,"accuracy":0},{"contexts":["red","blue","green"],"outcomes":[1,1,1],"key":38,"choice":1,"rt":157.3300000745803,"outcome":1,"trial":36,"correct":0,"trial_type":"three-arm-trial","trial_index":58,"time_elapsed":444326,"internal_node_id":"0.0-42.0-0.0","task_version":"screening-mturk","missing":false,"accuracy":0},{"contexts":["red","blue","green"],"outcomes":[1,0,0],"key":38,"choice":1,"rt":77.32499996200204,"outcome":0,"trial":37,"correct":0,"trial_type":"three-arm-trial","trial_index":59,"time_elapsed":445606,"internal_node_id":"0.0-43.0-0.0","task_version":"screening-mturk","missing":false,"accuracy":0},{"contexts":["red","blue","green"],"outcomes":[1,0,0],"key":38,"choice":1,"rt":137.3250000178814,"outcome":0,"trial":38,"correct":0,"trial_type":"three-arm-trial","trial_index":60,"time_elapsed":446947,"internal_node_id":"0.0-44.0-0.0","task_version":"screening-mturk","missing":false,"accuracy":0},{"contexts":["red","blue","green"],"outcomes":[1,0,1],"key":37,"choice":0,"rt":76.31499995477498,"outcome":1,"trial":39,"correct":0,"trial_type":"three-arm-trial","trial_index":61,"time_elapsed":448225,"internal_node_id":"0.0-45.0-0.0","task_version":"screening-mturk","missing":false,"accuracy":1},{"contexts":["red","blue","green"],"outcomes":[1,1,0],"key":37,"choice":0,"rt":157.3799999896437,"outcome":1,"trial":40,"correct":0,"trial_type":"three-arm-trial","trial_index":62,"time_elapsed":449586,"internal_node_id":"0.0-46.0-0.0","task_version":"screening-mturk","missing":false,"accuracy":1},{"contexts":["red","blue","green"],"outcomes":[1,1,0],"key":37,"choice":0,"rt":196.8649998307228,"outcome":1,"trial":41,"correct":0,"trial_type":"three-arm-trial","trial_index":63,"time_elapsed":450986,"internal_node_id":"0.0-47.0-0.0","task_version":"screening-mturk","missing":false,"accuracy":1},{"contexts":["red","blue","green"],"outcomes":[0,0,0],"key":39,"choice":2,"rt":506.83500012382865,"outcome":0,"trial":42,"correct":0,"trial_type":"three-arm-trial","trial_index":64,"time_elapsed":452695,"internal_node_id":"0.0-48.0-0.0","task_version":"screening-mturk","missing":false,"accuracy":0},{"contexts":["red","blue","green"],"outcomes":[0,0,0],"key":39,"choice":2,"rt":77.82499981112778,"outcome":0,"trial":43,"correct":0,"trial_type":"three-arm-trial","trial_index":65,"time_elapsed":453975,"internal_node_id":"0.0-49.0-0.0","task_version":"screening-mturk","missing":false,"accuracy":0},{"contexts":["red","blue","green"],"outcomes":[1,0,1],"key":38,"choice":1,"rt":57.34999990090728,"outcome":0,"trial":44,"correct":0,"trial_type":"three-arm-trial","trial_index":66,"time_elapsed":455236,"internal_node_id":"0.0-50.0-0.0","task_version":"screening-mturk","missing":false,"accuracy":0},{"contexts":["red","blue","green"],"outcomes":[1,0,0],"key":37,"choice":0,"rt":206.70500001870096,"outcome":1,"trial":45,"correct":0,"trial_type":"three-arm-trial","trial_index":67,"time_elapsed":456645,"internal_node_id":"0.0-51.0-0.0","task_version":"screening-mturk","missing":false,"accuracy":1},{"contexts":["red","blue","green"],"outcomes":[0,0,1],"key":37,"choice":0,"rt":167.46499994769692,"outcome":0,"trial":46,"correct":2,"trial_type":"three-arm-trial","trial_index":68,"time_elapsed":458015,"internal_node_id":"0.0-52.0-0.0","task_version":"screening-mturk","missing":false,"accuracy":0},{"contexts":["red","blue","green"],"outcomes":[0,0,1],"key":37,"choice":0,"rt":97.56999998353422,"outcome":0,"trial":47,"correct":2,"trial_type":"three-arm-trial","trial_index":69,"time_elapsed":459315,"internal_node_id":"0.0-53.0-0.0","task_version":"screening-mturk","missing":false,"accuracy":0},{"contexts":["red","blue","green"],"outcomes":[0,0,0],"key":37,"choice":0,"rt":57.320000138133764,"outcome":0,"trial":48,"correct":2,"trial_type":"three-arm-trial","trial_index":70,"time_elapsed":460574,"internal_node_id":"0.0-54.0-0.0","task_version":"screening-mturk","missing":false,"accuracy":0},{"contexts":["red","blue","green"],"outcomes":[0,0,1],"key":39,"choice":2,"rt":187.84500006586313,"outcome":1,"trial":49,"correct":2,"trial_type":"three-arm-trial","trial_index":71,"time_elapsed":461965,"internal_node_id":"0.0-55.0-0.0","task_version":"screening-mturk","missing":false,"accuracy":1},{"contexts":["red","blue","green"],"outcomes":[0,0,1],"key":39,"choice":2,"rt":207.05999992787838,"outcome":1,"trial":50,"correct":2,"trial_type":"three-arm-trial","trial_index":72,"time_elapsed":463375,"internal_node_id":"0.0-56.0-0.0","task_version":"screening-mturk","missing":false,"accuracy":1},{"contexts":["red","blue","green"],"outcomes":[0,1,0],"key":39,"choice":2,"rt":137.2599999886006,"outcome":0,"trial":51,"correct":2,"trial_type":"three-arm-trial","trial_index":73,"time_elapsed":464717,"internal_node_id":"0.0-57.0-0.0","task_version":"screening-mturk","missing":false,"accuracy":1},{"contexts":["red","blue","green"],"outcomes":[0,0,1],"key":38,"choice":1,"rt":6.579999811947346,"outcome":0,"trial":52,"correct":2,"trial_type":"three-arm-trial","trial_index":74,"time_elapsed":465927,"internal_node_id":"0.0-58.0-0.0","task_version":"screening-mturk","missing":false,"accuracy":0},{"contexts":["red","blue","green"],"outcomes":[0,0,1],"key":38,"choice":1,"rt":93.8750000204891,"outcome":0,"trial":53,"correct":2,"trial_type":"three-arm-trial","trial_index":75,"time_elapsed":467225,"internal_node_id":"0.0-59.0-0.0","task_version":"screening-mturk","missing":false,"accuracy":0},{"contexts":["red","blue","green"],"outcomes":[0,0,1],"key":37,"choice":0,"rt":45.64999998547137,"outcome":0,"trial":54,"correct":2,"trial_type":"three-arm-trial","trial_index":76,"time_elapsed":468475,"internal_node_id":"0.0-60.0-0.0","task_version":"screening-mturk","missing":false,"accuracy":0},{"contexts":["red","blue","green"],"outcomes":[0,0,1],"key":37,"choice":0,"rt":6.490000057965517,"outcome":0,"trial":55,"correct":2,"trial_type":"three-arm-trial","trial_index":77,"time_elapsed":469686,"internal_node_id":"0.0-61.0-0.0","task_version":"screening-mturk","missing":false,"accuracy":0},{"contexts":["red","blue","green"],"outcomes":[0,0,0],"key":37,"choice":0,"rt":7.1650000754743814,"outcome":0,"trial":56,"correct":2,"trial_type":"three-arm-trial","trial_index":78,"time_elapsed":470896,"internal_node_id":"0.0-62.0-0.0","task_version":"screening-mturk","missing":false,"accuracy":0},{"contexts":["red","blue","green"],"outcomes":[0,0,1],"key":37,"choice":0,"rt":65.85999997332692,"outcome":0,"trial":57,"correct":2,"trial_type":"three-arm-trial","trial_index":79,"time_elapsed":472165,"internal_node_id":"0.0-63.0-0.0","task_version":"screening-mturk","missing":false,"accuracy":0},{"contexts":["red","blue","green"],"outcomes":[0,1,1],"key":39,"choice":2,"rt":177.2699998691678,"outcome":1,"trial":58,"correct":2,"trial_type":"three-arm-trial","trial_index":80,"time_elapsed":473545,"internal_node_id":"0.0-64.0-0.0","task_version":"screening-mturk","missing":false,"accuracy":1},{"contexts":["red","blue","green"],"outcomes":[0,0,1],"key":39,"choice":2,"rt":7.429999997839332,"outcome":1,"trial":59,"correct":2,"trial_type":"three-arm-trial","trial_index":81,"time_elapsed":474755,"internal_node_id":"0.0-65.0-0.0","task_version":"screening-mturk","missing":false,"accuracy":1},{"contexts":["red","blue","green"],"outcomes":[1,0,1],"key":39,"choice":2,"rt":115.99000007845461,"outcome":1,"trial":60,"correct":2,"trial_type":"three-arm-trial","trial_index":82,"time_elapsed":476074,"internal_node_id":"0.0-66.0-0.0","task_version":"screening-mturk","missing":false,"accuracy":1},{"contexts":["red","blue","green"],"outcomes":[1,0,0],"key":39,"choice":2,"rt":186.07999989762902,"outcome":0,"trial":61,"correct":0,"trial_type":"three-arm-trial","trial_index":83,"time_elapsed":477464,"internal_node_id":"0.0-67.0-0.0","task_version":"screening-mturk","missing":false,"accuracy":0},{"contexts":["red","blue","green"],"outcomes":[1,0,0],"key":38,"choice":1,"rt":26.439999928697944,"outcome":0,"trial":62,"correct":0,"trial_type":"three-arm-trial","trial_index":84,"time_elapsed":478695,"internal_node_id":"0.0-68.0-0.0","task_version":"screening-mturk","missing":false,"accuracy":0},{"contexts":["red","blue","green"],"outcomes":[0,0,0],"key":38,"choice":1,"rt":25.91500012204051,"outcome":0,"trial":63,"correct":0,"trial_type":"three-arm-trial","trial_index":85,"time_elapsed":479923,"internal_node_id":"0.0-69.0-0.0","task_version":"screening-mturk","missing":false,"accuracy":0},{"contexts":["red","blue","green"],"outcomes":[1,0,0],"key":38,"choice":1,"rt":178.1649999320507,"outcome":0,"trial":64,"correct":0,"trial_type":"three-arm-trial","trial_index":86,"time_elapsed":481303,"internal_node_id":"0.0-70.0-0.0","task_version":"screening-mturk","missing":false,"accuracy":0},{"contexts":["red","blue","green"],"outcomes":[1,1,0],"key":38,"choice":1,"rt":237.4400000553578,"outcome":1,"trial":65,"correct":0,"trial_type":"three-arm-trial","trial_index":87,"time_elapsed":482744,"internal_node_id":"0.0-71.0-0.0","task_version":"screening-mturk","missing":false,"accuracy":0},{"contexts":["red","blue","green"],"outcomes":[1,0,0],"key":37,"choice":0,"rt":53.340000100433826,"outcome":1,"trial":66,"correct":0,"trial_type":"three-arm-trial","trial_index":88,"time_elapsed":484019,"internal_node_id":"0.0-72.0-0.0","task_version":"screening-mturk","missing":false,"accuracy":1},{"contexts":["red","blue","green"],"outcomes":[1,0,0],"key":37,"choice":0,"rt":74.89000004716218,"outcome":1,"trial":67,"correct":0,"trial_type":"three-arm-trial","trial_index":89,"time_elapsed":485297,"internal_node_id":"0.0-73.0-0.0","task_version":"screening-mturk","missing":false,"accuracy":1},{"contexts":["red","blue","green"],"outcomes":[1,0,0],"key":37,"choice":0,"rt":197.32500007376075,"outcome":1,"trial":68,"correct":0,"trial_type":"three-arm-trial","trial_index":90,"time_elapsed":486697,"internal_node_id":"0.0-74.0-0.0","task_version":"screening-mturk","missing":false,"accuracy":1},{"contexts":["red","blue","green"],"outcomes":[0,0,1],"key":37,"choice":0,"rt":67.54000019282103,"outcome":0,"trial":69,"correct":0,"trial_type":"three-arm-trial","trial_index":91,"time_elapsed":487968,"internal_node_id":"0.0-75.0-0.0","task_version":"screening-mturk","missing":false,"accuracy":1},{"contexts":["red","blue","green"],"outcomes":[1,1,0],"key":39,"choice":2,"rt":106.47500003688037,"outcome":0,"trial":70,"correct":0,"trial_type":"three-arm-trial","trial_index":92,"time_elapsed":489277,"internal_node_id":"0.0-76.0-0.0","task_version":"screening-mturk","missing":false,"accuracy":0},{"contexts":["red","blue","green"],"outcomes":[1,1,0],"key":39,"choice":2,"rt":6.659999955445528,"outcome":0,"trial":71,"correct":0,"trial_type":"three-arm-trial","trial_index":93,"time_elapsed":490487,"internal_node_id":"0.0-77.0-0.0","task_version":"screening-mturk","missing":false,"accuracy":0},{"contexts":["red","blue","green"],"outcomes":[0,0,0],"key":39,"choice":2,"rt":26.975000044330955,"outcome":0,"trial":72,"correct":0,"trial_type":"three-arm-trial","trial_index":94,"time_elapsed":491717,"internal_node_id":"0.0-78.0-0.0","task_version":"screening-mturk","missing":false,"accuracy":0},{"contexts":["red","blue","green"],"outcomes":[1,0,0],"key":39,"choice":2,"rt":6.47500017657876,"outcome":0,"trial":73,"correct":0,"trial_type":"three-arm-trial","trial_index":95,"time_elapsed":492926,"internal_node_id":"0.0-79.0-0.0","task_version":"screening-mturk","missing":false,"accuracy":0},{"contexts":["red","blue","green"],"outcomes":[1,0,0],"key":39,"choice":2,"rt":167.87000000476837,"outcome":0,"trial":74,"correct":0,"trial_type":"three-arm-trial","trial_index":96,"time_elapsed":494297,"internal_node_id":"0.0-80.0-0.0","task_version":"screening-mturk","missing":false,"accuracy":0},{"contexts":["red","blue","green"],"outcomes":[1,0,0],"key":39,"choice":2,"rt":136.70999999158084,"outcome":0,"trial":75,"correct":0,"trial_type":"three-arm-trial","trial_index":97,"time_elapsed":495636,"internal_node_id":"0.0-81.0-0.0","task_version":"screening-mturk","missing":false,"accuracy":0},{"contexts":["red","blue","green"],"outcomes":[0,0,0],"key":38,"choice":1,"rt":97.30999986641109,"outcome":0,"trial":76,"correct":1,"trial_type":"three-arm-trial","trial_index":98,"time_elapsed":496936,"internal_node_id":"0.0-82.0-0.0","task_version":"screening-mturk","missing":false,"accuracy":1},{"contexts":["red","blue","green"],"outcomes":[0,1,1],"key":38,"choice":1,"rt":147.5400000344962,"outcome":1,"trial":77,"correct":1,"trial_type":"three-arm-trial","trial_index":99,"time_elapsed":498286,"internal_node_id":"0.0-83.0-0.0","task_version":"screening-mturk","missing":false,"accuracy":1},{"contexts":["red","blue","green"],"outcomes":[0,1,0],"key":37,"choice":0,"rt":278.2350000925362,"outcome":0,"trial":78,"correct":1,"trial_type":"three-arm-trial","trial_index":100,"time_elapsed":499767,"internal_node_id":"0.0-84.0-0.0","task_version":"screening-mturk","missing":false,"accuracy":0},{"contexts":["red","blue","green"],"outcomes":[0,0,0],"key":37,"choice":0,"rt":168.16999996080995,"outcome":0,"trial":79,"correct":1,"trial_type":"three-arm-trial","trial_index":101,"time_elapsed":501138,"internal_node_id":"0.0-85.0-0.0","task_version":"screening-mturk","missing":false,"accuracy":0},{"contexts":["red","blue","green"],"outcomes":[0,0,1],"key":37,"choice":0,"rt":26.509999996051192,"outcome":0,"trial":80,"correct":1,"trial_type":"three-arm-trial","trial_index":102,"time_elapsed":502367,"internal_node_id":"0.0-86.0-0.0","task_version":"screening-mturk","missing":false,"accuracy":0},{"contexts":["red","blue","green"],"outcomes":[0,1,0],"key":37,"choice":0,"rt":186.09500001184642,"outcome":0,"trial":81,"correct":1,"trial_type":"three-arm-trial","trial_index":103,"time_elapsed":503756,"internal_node_id":"0.0-87.0-0.0","task_version":"screening-mturk","missing":false,"accuracy":0},{"contexts":["red","blue","green"],"outcomes":[1,1,0],"key":37,"choice":0,"rt":55.85499992594123,"outcome":1,"trial":82,"correct":1,"trial_type":"three-arm-trial","trial_index":104,"time_elapsed":505016,"internal_node_id":"0.0-88.0-0.0","task_version":"screening-mturk","missing":false,"accuracy":0},{"contexts":["red","blue","green"],"outcomes":[0,1,0],"key":37,"choice":0,"rt":1306.6950000356883,"outcome":0,"trial":83,"correct":1,"trial_type":"three-arm-trial","trial_index":105,"time_elapsed":507525,"internal_node_id":"0.0-89.0-0.0","task_version":"screening-mturk","missing":false,"accuracy":0},{"contexts":["red","blue","green"],"outcomes":[0,1,0],"key":37,"choice":0,"rt":167.33999992720783,"outcome":0,"trial":84,"correct":1,"trial_type":"three-arm-trial","trial_index":106,"time_elapsed":508895,"internal_node_id":"0.0-90.0-0.0","task_version":"screening-mturk","missing":false,"accuracy":0},{"contexts":["red","blue","green"],"outcomes":[0,1,0],"key":39,"choice":2,"rt":197.5200001616031,"outcome":0,"trial":85,"correct":1,"trial_type":"three-arm-trial","trial_index":107,"time_elapsed":510296,"internal_node_id":"0.0-91.0-0.0","task_version":"screening-mturk","missing":false,"accuracy":0},{"contexts":["red","blue","green"],"outcomes":[1,1,0],"key":39,"choice":2,"rt":125.11499994434416,"outcome":0,"trial":86,"correct":1,"trial_type":"three-arm-trial","trial_index":108,"time_elapsed":511624,"internal_node_id":"0.0-92.0-0.0","task_version":"screening-mturk","missing":false,"accuracy":0},{"contexts":["red","blue","green"],"outcomes":[0,1,0],"key":38,"choice":1,"rt":147.85499987192452,"outcome":1,"trial":87,"correct":1,"trial_type":"three-arm-trial","trial_index":109,"time_elapsed":512975,"internal_node_id":"0.0-93.0-0.0","task_version":"screening-mturk","missing":false,"accuracy":1},{"contexts":["red","blue","green"],"outcomes":[0,1,0],"key":38,"choice":1,"rt":36.820000037550926,"outcome":1,"trial":88,"correct":1,"trial_type":"three-arm-trial","trial_index":110,"time_elapsed":514216,"internal_node_id":"0.0-94.0-0.0","task_version":"screening-mturk","missing":false,"accuracy":1},{"contexts":["red","blue","green"],"outcomes":[1,1,0],"key":38,"choice":1,"rt":86.28499996848404,"outcome":1,"trial":89,"correct":1,"trial_type":"three-arm-trial","trial_index":111,"time_elapsed":515505,"internal_node_id":"0.0-95.0-0.0","task_version":"screening-mturk","missing":false,"accuracy":1},{"contexts":["red","blue","green"],"outcomes":[1,1,0],"key":38,"choice":1,"rt":127.56500020623207,"outcome":1,"trial":90,"correct":1,"trial_type":"three-arm-trial","trial_index":112,"time_elapsed":516835,"internal_node_id":"0.0-96.0-0.0","task_version":"screening-mturk","missing":false,"accuracy":1},{"rt":38909.52500002459,"responses":{"age":"32","gender-categorical":"Male","gender-free-response":" ","ethnicity":"Hispanic or Latino","race":["White"],"language":"Yes","fluency":"Very well","prolific":"No","prolific-this-study":"No"},"survey":"demographics","trial_type":"survey-demo","trial_index":113,"time_elapsed":555754,"internal_node_id":"0.0-97.0","task_version":"screening-mturk","interactions":"[{\"event\":\"blur\",\"trial\":1,\"time\":43522},{\"event\":\"focus\",\"trial\":1,\"time\":44647},{\"event\":\"blur\",\"trial\":5,\"time\":93123},{\"event\":\"focus\",\"trial\":5,\"time\":97603},{\"event\":\"focus\",\"trial\":5,\"time\":97603},{\"event\":\"blur\",\"trial\":15,\"time\":228421},{\"event\":\"focus\",\"trial\":15,\"time\":237423}]"}]