[{"responses":{"Q04":"0","Q08":"0","Q07":"0","Q01":"0","Q05":"0","Q06":"0","Q03":"0","Q02":"0"},"rt":127424.11500005983,"survey":"gad7","trial_type":"survey-template","trial_index":0,"time_elapsed":127438,"internal_node_id":"0.0-0.0","task_version":"screening-mturk"},{"responses":{"Q10":"2","Q12":"1","Q09":"0","Q13":"2","Q03":"2","Q11":"1","Q06":"2","Q05":"2","Q04":"1","Q01":"2","Q07":"2","Q08":"1","Q02":"2"},"rt":47854.090000037104,"survey":"bisbas","trial_type":"survey-template","trial_index":1,"time_elapsed":175298,"internal_node_id":"0.0-1.0","task_version":"screening-mturk"},{"responses":{"Q03":"3","Q02":"1","Q01":"4"},"rt":17635.385000146925,"survey":"pswq","trial_type":"survey-template","trial_index":2,"time_elapsed":192936,"internal_node_id":"0.0-2.0","task_version":"screening-mturk"},{"responses":{"Q01":"2","Q11":"1","Q15":"2","Q05":"2","Q06":"1","Q09":"2","Q03":"2","Q13":"3","Q02":"2","Q14":"2","Q10":"2","Q12":"2","Q08":"3","Q07":"2","Q04":"2"},"rt":37667.5999998115,"survey":"shaps","trial_type":"survey-template","trial_index":3,"time_elapsed":230609,"internal_node_id":"0.0-3.0","task_version":"screening-mturk"},{"responses":{"Q09":"2","Q03":"1","Q06":"2","Q13":"2","Q07":"2","Q14":"1","Q05":"2","Q02":"3","Q04":"2","Q08":"1","Q01":"2","Q12":"1","Q11":"2","Q15":"2","Q10":"2"},"rt":39505.52499992773,"survey":"7up7down","trial_type":"survey-template","trial_index":4,"time_elapsed":270118,"internal_node_id":"0.0-4.0","task_version":"screening-mturk"},{"view_history":"[{\"page_index\":0,\"viewing_time\":33515.39499987848},{\"page_index\":1,\"viewing_time\":7959.375000093132},{\"page_index\":2,\"viewing_time\":8429.844999918714},{\"page_index\":3,\"viewing_time\":6130.1649999804795},{\"page_index\":4,\"viewing_time\":5989.90000016056},{\"page_index\":5,\"viewing_time\":1609.6349998842925},{\"page_index\":6,\"viewing_time\":6410.605000099167},{\"page_index\":7,\"viewing_time\":2969.9549998622388}]","rt":73015.73999994434,"trial_type":"instructions","trial_index":5,"time_elapsed":343137,"internal_node_id":"0.0-5.0-0.0","task_version":"screening-mturk"},{"responses":["True","True","True","True","True"],"num_errors":2,"rt":37055.47000002116,"trial_type":"three-arm-comprehension","trial_index":6,"time_elapsed":380198,"internal_node_id":"0.0-5.0-1.0","task_version":"screening-mturk"},{"view_history":"[{\"page_index\":0,\"viewing_time\":4473.770000040531},{\"page_index\":1,\"viewing_time\":2130.284999962896},{\"page_index\":2,\"viewing_time\":2039.5149998366833},{\"page_index\":3,\"viewing_time\":6899.94000014849},{\"page_index\":4,\"viewing_time\":7489.739999873564},{\"page_index\":5,\"viewing_time\":1829.8800000920892},{\"page_index\":6,\"viewing_time\":4420.394999906421},{\"page_index\":7,\"viewing_time\":2219.4050000980496}]","rt":31503.43000004068,"trial_type":"instructions","trial_index":7,"time_elapsed":411706,"internal_node_id":"0.0-5.1-0.1","task_version":"screening-mturk"},{"responses":["True","True","False","False","True"],"num_errors":0,"rt":32108.575000194833,"trial_type":"three-arm-comprehension","trial_index":8,"time_elapsed":443817,"internal_node_id":"0.0-5.1-1.1","task_version":"screening-mturk"},{"view_history":"[{\"page_index\":0,\"viewing_time\":3866.1499998997897}]","rt":3866.470000008121,"trial_type":"instructions","trial_index":9,"time_elapsed":447686,"internal_node_id":"0.0-6.0","task_version":"screening-mturk"},{"contexts":["red","green","blue"],"outcomes":[0,0,0],"key":null,"rt":null,"trial":1,"correct":1,"trial_type":"three-arm-trial","trial_index":10,"time_elapsed":462692,"internal_node_id":"0.0-7.0-0.0","task_version":"screening-mturk","missing":true},{"contexts":["red","green","blue"],"outcomes":[0,0,0],"key":39,"choice":2,"rt":2602.7850001119077,"outcome":0,"trial":1,"correct":1,"trial_type":"three-arm-trial","trial_index":11,"time_elapsed":466499,"internal_node_id":"0.0-7.1-0.1","task_version":"screening-mturk","missing":false,"accuracy":0},{"contexts":["red","green","blue"],"outcomes":[0,1,0],"key":37,"choice":0,"rt":1864.9500000756234,"outcome":0,"trial":2,"correct":1,"trial_type":"three-arm-trial","trial_index":12,"time_elapsed":469567,"internal_node_id":"0.0-8.0-0.0","task_version":"screening-mturk","missing":false,"accuracy":0},{"contexts":["red","green","blue"],"outcomes":[0,0,1],"key":39,"choice":2,"rt":2116.6850000154227,"outcome":1,"trial":3,"correct":1,"trial_type":"three-arm-trial","trial_index":13,"time_elapsed":472887,"internal_node_id":"0.0-9.0-0.0","task_version":"screening-mturk","missing":false,"accuracy":0},{"contexts":["red","green","blue"],"outcomes":[1,1,0],"key":37,"choice":0,"rt":17.84000010229647,"outcome":1,"trial":4,"correct":1,"trial_type":"three-arm-trial","trial_index":14,"time_elapsed":474108,"internal_node_id":"0.0-10.0-0.0","task_version":"screening-mturk","missing":false,"accuracy":0},{"contexts":["red","green","blue"],"outcomes":[0,0,0],"key":37,"choice":0,"rt":39.79500010609627,"outcome":0,"trial":5,"correct":1,"trial_type":"three-arm-trial","trial_index":15,"time_elapsed":475351,"internal_node_id":"0.0-11.0-0.0","task_version":"screening-mturk","missing":false,"accuracy":0},{"contexts":["red","green","blue"],"outcomes":[1,1,0],"key":38,"choice":1,"rt":3225.205000024289,"outcome":1,"trial":6,"correct":1,"trial_type":"three-arm-trial","trial_index":16,"time_elapsed":479780,"internal_node_id":"0.0-12.0-0.0","task_version":"screening-mturk","missing":false,"accuracy":1},{"contexts":["red","green","blue"],"outcomes":[0,0,0],"key":37,"choice":0,"rt":7764.63000010699,"outcome":0,"trial":7,"correct":1,"trial_type":"three-arm-trial","trial_index":17,"time_elapsed":488747,"internal_node_id":"0.0-13.0-0.0","task_version":"screening-mturk","missing":false,"accuracy":0},{"contexts":["red","green","blue"],"outcomes":[0,1,0],"key":39,"choice":2,"rt":195.53999998606741,"outcome":0,"trial":8,"correct":1,"trial_type":"three-arm-trial","trial_index":18,"time_elapsed":490147,"internal_node_id":"0.0-14.0-0.0","task_version":"screening-mturk","missing":false,"accuracy":0},{"contexts":["red","green","blue"],"outcomes":[0,0,1],"key":37,"choice":0,"rt":766.3999998476356,"outcome":0,"trial":9,"correct":1,"trial_type":"three-arm-trial","trial_index":19,"time_elapsed":492117,"internal_node_id":"0.0-15.0-0.0","task_version":"screening-mturk","missing":false,"accuracy":0},{"contexts":["red","green","blue"],"outcomes":[1,1,0],"key":39,"choice":2,"rt":197.4049999844283,"outcome":0,"trial":10,"correct":1,"trial_type":"three-arm-trial","trial_index":20,"time_elapsed":493517,"internal_node_id":"0.0-16.0-0.0","task_version":"screening-mturk","missing":false,"accuracy":0},{"contexts":["red","green","blue"],"outcomes":[0,0,0],"key":37,"choice":0,"rt":1994.6850000414997,"outcome":0,"trial":11,"correct":1,"trial_type":"three-arm-trial","trial_index":21,"time_elapsed":496715,"internal_node_id":"0.0-17.0-0.0","task_version":"screening-mturk","missing":false,"accuracy":0},{"contexts":["red","green","blue"],"outcomes":[0,1,0],"key":39,"choice":2,"rt":988.4949999395758,"outcome":0,"trial":12,"correct":1,"trial_type":"three-arm-trial","trial_index":22,"time_elapsed":498908,"internal_node_id":"0.0-18.0-0.0","task_version":"screening-mturk","missing":false,"accuracy":0},{"contexts":["red","green","blue"],"outcomes":[0,1,0],"key":37,"choice":0,"rt":1205.820000031963,"outcome":0,"trial":13,"correct":1,"trial_type":"three-arm-trial","trial_index":23,"time_elapsed":501317,"internal_node_id":"0.0-19.0-0.0","task_version":"screening-mturk","missing":false,"accuracy":0},{"contexts":["red","green","blue"],"outcomes":[1,1,0],"key":39,"choice":2,"rt":687.3599998652935,"outcome":0,"trial":14,"correct":1,"trial_type":"three-arm-trial","trial_index":24,"time_elapsed":503206,"internal_node_id":"0.0-20.0-0.0","task_version":"screening-mturk","missing":false,"accuracy":0},{"contexts":["red","green","blue"],"outcomes":[0,1,1],"key":39,"choice":2,"rt":519.120000069961,"outcome":1,"trial":15,"correct":1,"trial_type":"three-arm-trial","trial_index":25,"time_elapsed":504928,"internal_node_id":"0.0-21.0-0.0","task_version":"screening-mturk","missing":false,"accuracy":0},{"contexts":["red","green","blue"],"outcomes":[1,0,0],"key":37,"choice":0,"rt":235.9150000847876,"outcome":1,"trial":16,"correct":0,"trial_type":"three-arm-trial","trial_index":26,"time_elapsed":506367,"internal_node_id":"0.0-22.0-0.0","task_version":"screening-mturk","missing":false,"accuracy":1},{"contexts":["red","green","blue"],"outcomes":[1,0,1],"key":37,"choice":0,"rt":2361.5600001066923,"outcome":1,"trial":17,"correct":0,"trial_type":"three-arm-trial","trial_index":27,"time_elapsed":509931,"internal_node_id":"0.0-23.0-0.0","task_version":"screening-mturk","missing":false,"accuracy":1},{"contexts":["red","green","blue"],"outcomes":[1,0,0],"key":37,"choice":0,"rt":193.0350000038743,"outcome":1,"trial":18,"correct":0,"trial_type":"three-arm-trial","trial_index":28,"time_elapsed":511327,"internal_node_id":"0.0-24.0-0.0","task_version":"screening-mturk","missing":false,"accuracy":1},{"contexts":["red","green","blue"],"outcomes":[1,0,0],"key":39,"choice":2,"rt":3496.4250000193715,"outcome":0,"trial":19,"correct":0,"trial_type":"three-arm-trial","trial_index":29,"time_elapsed":516026,"internal_node_id":"0.0-25.0-0.0","task_version":"screening-mturk","missing":false,"accuracy":0},{"contexts":["red","green","blue"],"outcomes":[1,1,0],"key":37,"choice":0,"rt":2318.19500005804,"outcome":1,"trial":20,"correct":0,"trial_type":"three-arm-trial","trial_index":30,"time_elapsed":519547,"internal_node_id":"0.0-26.0-0.0","task_version":"screening-mturk","missing":false,"accuracy":1},{"contexts":["red","green","blue"],"outcomes":[0,0,0],"key":38,"choice":1,"rt":4985.0000001024455,"outcome":0,"trial":21,"correct":0,"trial_type":"three-arm-trial","trial_index":31,"time_elapsed":525738,"internal_node_id":"0.0-27.0-0.0","task_version":"screening-mturk","missing":false,"accuracy":0},{"contexts":["red","green","blue"],"outcomes":[1,0,0],"key":38,"choice":1,"rt":1295.7349999342114,"outcome":0,"trial":22,"correct":0,"trial_type":"three-arm-trial","trial_index":32,"time_elapsed":528236,"internal_node_id":"0.0-28.0-0.0","task_version":"screening-mturk","missing":false,"accuracy":0},{"contexts":["red","green","blue"],"outcomes":[0,1,0],"key":38,"choice":1,"rt":0.19999989308416843,"outcome":1,"trial":23,"correct":0,"trial_type":"three-arm-trial","trial_index":33,"time_elapsed":529440,"internal_node_id":"0.0-29.0-0.0","task_version":"screening-mturk","missing":false,"accuracy":0},{"contexts":["red","green","blue"],"outcomes":[1,1,0],"key":39,"choice":2,"rt":1243.8950000796467,"outcome":0,"trial":24,"correct":0,"trial_type":"three-arm-trial","trial_index":34,"time_elapsed":531886,"internal_node_id":"0.0-30.0-0.0","task_version":"screening-mturk","missing":false,"accuracy":0},{"contexts":["red","green","blue"],"outcomes":[1,0,0],"key":37,"choice":0,"rt":1147.9000002145767,"outcome":1,"trial":25,"correct":0,"trial_type":"three-arm-trial","trial_index":35,"time_elapsed":534238,"internal_node_id":"0.0-31.0-0.0","task_version":"screening-mturk","missing":false,"accuracy":1},{"contexts":["red","green","blue"],"outcomes":[1,0,0],"key":38,"choice":1,"rt":3105.120000196621,"outcome":0,"trial":26,"correct":0,"trial_type":"three-arm-trial","trial_index":36,"time_elapsed":538546,"internal_node_id":"0.0-32.0-0.0","task_version":"screening-mturk","missing":false,"accuracy":0},{"contexts":["red","green","blue"],"outcomes":[1,0,0],"key":38,"choice":1,"rt":761.7299999110401,"outcome":0,"trial":27,"correct":0,"trial_type":"three-arm-trial","trial_index":37,"time_elapsed":540512,"internal_node_id":"0.0-33.0-0.0","task_version":"screening-mturk","missing":false,"accuracy":0},{"contexts":["red","green","blue"],"outcomes":[0,1,0],"key":37,"choice":0,"rt":591.1850000265986,"outcome":0,"trial":28,"correct":0,"trial_type":"three-arm-trial","trial_index":38,"time_elapsed":542306,"internal_node_id":"0.0-34.0-0.0","task_version":"screening-mturk","missing":false,"accuracy":1},{"contexts":["red","green","blue"],"outcomes":[1,0,0],"key":37,"choice":0,"rt":307.5500000268221,"outcome":1,"trial":29,"correct":0,"trial_type":"three-arm-trial","trial_index":39,"time_elapsed":543817,"internal_node_id":"0.0-35.0-0.0","task_version":"screening-mturk","missing":false,"accuracy":1},{"contexts":["red","green","blue"],"outcomes":[1,0,0],"key":37,"choice":0,"rt":196.5000000782311,"outcome":1,"trial":30,"correct":0,"trial_type":"three-arm-trial","trial_index":40,"time_elapsed":545217,"internal_node_id":"0.0-36.0-0.0","task_version":"screening-mturk","missing":false,"accuracy":1},{"contexts":["red","green","blue"],"outcomes":[0,1,0],"key":37,"choice":0,"rt":1056.3799999654293,"outcome":0,"trial":31,"correct":1,"trial_type":"three-arm-trial","trial_index":41,"time_elapsed":547476,"internal_node_id":"0.0-37.0-0.0","task_version":"screening-mturk","missing":false,"accuracy":0},{"contexts":["red","green","blue"],"outcomes":[1,1,0],"key":39,"choice":2,"rt":427.42000008001924,"outcome":0,"trial":32,"correct":1,"trial_type":"three-arm-trial","trial_index":42,"time_elapsed":549107,"internal_node_id":"0.0-38.0-0.0","task_version":"screening-mturk","missing":false,"accuracy":0},{"contexts":["red","green","blue"],"outcomes":[0,1,0],"key":39,"choice":2,"rt":2785.7299998868257,"outcome":0,"trial":33,"correct":1,"trial_type":"three-arm-trial","trial_index":43,"time_elapsed":553098,"internal_node_id":"0.0-39.0-0.0","task_version":"screening-mturk","missing":false,"accuracy":0},{"contexts":["red","green","blue"],"outcomes":[0,0,0],"key":37,"choice":0,"rt":585.5099998880178,"outcome":0,"trial":34,"correct":1,"trial_type":"three-arm-trial","trial_index":44,"time_elapsed":554887,"internal_node_id":"0.0-40.0-0.0","task_version":"screening-mturk","missing":false,"accuracy":0},{"contexts":["red","green","blue"],"outcomes":[0,1,0],"key":39,"choice":2,"rt":895.6699999980628,"outcome":0,"trial":35,"correct":1,"trial_type":"three-arm-trial","trial_index":45,"time_elapsed":556986,"internal_node_id":"0.0-41.0-0.0","task_version":"screening-mturk","missing":false,"accuracy":0},{"contexts":["red","green","blue"],"outcomes":[0,1,0],"key":37,"choice":0,"rt":1807.6849998906255,"outcome":0,"trial":36,"correct":1,"trial_type":"three-arm-trial","trial_index":46,"time_elapsed":559997,"internal_node_id":"0.0-42.0-0.0","task_version":"screening-mturk","missing":false,"accuracy":0},{"contexts":["red","green","blue"],"outcomes":[0,1,0],"key":39,"choice":2,"rt":996.5349999256432,"outcome":0,"trial":37,"correct":1,"trial_type":"three-arm-trial","trial_index":47,"time_elapsed":562197,"internal_node_id":"0.0-43.0-0.0","task_version":"screening-mturk","missing":false,"accuracy":0},{"contexts":["red","green","blue"],"outcomes":[0,1,0],"key":38,"choice":1,"rt":4336.074999999255,"outcome":1,"trial":38,"correct":1,"trial_type":"three-arm-trial","trial_index":48,"time_elapsed":567736,"internal_node_id":"0.0-44.0-0.0","task_version":"screening-mturk","missing":false,"accuracy":1},{"contexts":["red","green","blue"],"outcomes":[0,1,0],"key":37,"choice":0,"rt":4448.134999955073,"outcome":0,"trial":39,"correct":1,"trial_type":"three-arm-trial","trial_index":49,"time_elapsed":573386,"internal_node_id":"0.0-45.0-0.0","task_version":"screening-mturk","missing":false,"accuracy":0},{"contexts":["red","green","blue"],"outcomes":[0,0,0],"key":39,"choice":2,"rt":496.9699999783188,"outcome":0,"trial":40,"correct":1,"trial_type":"three-arm-trial","trial_index":50,"time_elapsed":575086,"internal_node_id":"0.0-46.0-0.0","task_version":"screening-mturk","missing":false,"accuracy":0},{"contexts":["red","green","blue"],"outcomes":[1,1,0],"key":37,"choice":0,"rt":357.4949998874217,"outcome":1,"trial":41,"correct":1,"trial_type":"three-arm-trial","trial_index":51,"time_elapsed":576646,"internal_node_id":"0.0-47.0-0.0","task_version":"screening-mturk","missing":false,"accuracy":0},{"contexts":["red","green","blue"],"outcomes":[0,1,1],"key":39,"choice":2,"rt":1136.339999968186,"outcome":1,"trial":42,"correct":1,"trial_type":"three-arm-trial","trial_index":52,"time_elapsed":578987,"internal_node_id":"0.0-48.0-0.0","task_version":"screening-mturk","missing":false,"accuracy":0},{"contexts":["red","green","blue"],"outcomes":[0,0,1],"key":39,"choice":2,"rt":1096.5650000143796,"outcome":1,"trial":43,"correct":1,"trial_type":"three-arm-trial","trial_index":53,"time_elapsed":581289,"internal_node_id":"0.0-49.0-0.0","task_version":"screening-mturk","missing":false,"accuracy":0},{"contexts":["red","green","blue"],"outcomes":[1,1,0],"key":37,"choice":0,"rt":1644.1899999044836,"outcome":1,"trial":44,"correct":1,"trial_type":"three-arm-trial","trial_index":54,"time_elapsed":584136,"internal_node_id":"0.0-50.0-0.0","task_version":"screening-mturk","missing":false,"accuracy":0},{"contexts":["red","green","blue"],"outcomes":[0,0,0],"key":37,"choice":0,"rt":816.4849998429418,"outcome":0,"trial":45,"correct":1,"trial_type":"three-arm-trial","trial_index":55,"time_elapsed":586156,"internal_node_id":"0.0-51.0-0.0","task_version":"screening-mturk","missing":false,"accuracy":0},{"contexts":["red","green","blue"],"outcomes":[0,0,1],"key":39,"choice":2,"rt":1386.6399999242276,"outcome":1,"trial":46,"correct":2,"trial_type":"three-arm-trial","trial_index":56,"time_elapsed":588747,"internal_node_id":"0.0-52.0-0.0","task_version":"screening-mturk","missing":false,"accuracy":1},{"contexts":["red","green","blue"],"outcomes":[0,0,0],"key":37,"choice":0,"rt":1426.2500000186265,"outcome":0,"trial":47,"correct":2,"trial_type":"three-arm-trial","trial_index":57,"time_elapsed":591377,"internal_node_id":"0.0-53.0-0.0","task_version":"screening-mturk","missing":false,"accuracy":0},{"contexts":["red","green","blue"],"outcomes":[0,0,1],"key":39,"choice":2,"rt":505.1199998706579,"outcome":1,"trial":48,"correct":2,"trial_type":"three-arm-trial","trial_index":58,"time_elapsed":593085,"internal_node_id":"0.0-54.0-0.0","task_version":"screening-mturk","missing":false,"accuracy":1},{"contexts":["red","green","blue"],"outcomes":[0,0,1],"key":39,"choice":2,"rt":857.8500000294298,"outcome":1,"trial":49,"correct":2,"trial_type":"three-arm-trial","trial_index":59,"time_elapsed":595146,"internal_node_id":"0.0-55.0-0.0","task_version":"screening-mturk","missing":false,"accuracy":1},{"contexts":["red","green","blue"],"outcomes":[0,0,1],"key":39,"choice":2,"rt":1320.9700000006706,"outcome":1,"trial":50,"correct":2,"trial_type":"three-arm-trial","trial_index":60,"time_elapsed":597670,"internal_node_id":"0.0-56.0-0.0","task_version":"screening-mturk","missing":false,"accuracy":1},{"contexts":["red","green","blue"],"outcomes":[0,0,1],"key":39,"choice":2,"rt":1103.8849998731166,"outcome":1,"trial":51,"correct":2,"trial_type":"three-arm-trial","trial_index":61,"time_elapsed":599976,"internal_node_id":"0.0-57.0-0.0","task_version":"screening-mturk","missing":false,"accuracy":1},{"contexts":["red","green","blue"],"outcomes":[0,1,1],"key":37,"choice":0,"rt":1326.585000148043,"outcome":0,"trial":52,"correct":2,"trial_type":"three-arm-trial","trial_index":62,"time_elapsed":602506,"internal_node_id":"0.0-58.0-0.0","task_version":"screening-mturk","missing":false,"accuracy":0},{"contexts":["red","green","blue"],"outcomes":[0,1,1],"key":38,"choice":1,"rt":2306.0800000093877,"outcome":1,"trial":53,"correct":2,"trial_type":"three-arm-trial","trial_index":63,"time_elapsed":606016,"internal_node_id":"0.0-59.0-0.0","task_version":"screening-mturk","missing":false,"accuracy":0},{"contexts":["red","green","blue"],"outcomes":[0,0,1],"key":38,"choice":1,"rt":407.2649998124689,"outcome":0,"trial":54,"correct":2,"trial_type":"three-arm-trial","trial_index":64,"time_elapsed":607629,"internal_node_id":"0.0-60.0-0.0","task_version":"screening-mturk","missing":false,"accuracy":0},{"contexts":["red","green","blue"],"outcomes":[0,0,1],"key":39,"choice":2,"rt":19.48000001721084,"outcome":1,"trial":55,"correct":2,"trial_type":"three-arm-trial","trial_index":65,"time_elapsed":608857,"internal_node_id":"0.0-61.0-0.0","task_version":"screening-mturk","missing":false,"accuracy":1},{"contexts":["red","green","blue"],"outcomes":[1,0,1],"key":39,"choice":2,"rt":775.9049998130649,"outcome":1,"trial":56,"correct":2,"trial_type":"three-arm-trial","trial_index":66,"time_elapsed":610836,"internal_node_id":"0.0-62.0-0.0","task_version":"screening-mturk","missing":false,"accuracy":1},{"contexts":["red","green","blue"],"outcomes":[0,0,1],"key":39,"choice":2,"rt":848.0299999937415,"outcome":1,"trial":57,"correct":2,"trial_type":"three-arm-trial","trial_index":67,"time_elapsed":612889,"internal_node_id":"0.0-63.0-0.0","task_version":"screening-mturk","missing":false,"accuracy":1},{"contexts":["red","green","blue"],"outcomes":[0,0,0],"key":39,"choice":2,"rt":769.2099998239428,"outcome":0,"trial":58,"correct":2,"trial_type":"three-arm-trial","trial_index":68,"time_elapsed":614865,"internal_node_id":"0.0-64.0-0.0","task_version":"screening-mturk","missing":false,"accuracy":1},{"contexts":["red","green","blue"],"outcomes":[0,0,1],"key":37,"choice":0,"rt":795.9600000176579,"outcome":0,"trial":59,"correct":2,"trial_type":"three-arm-trial","trial_index":69,"time_elapsed":616866,"internal_node_id":"0.0-65.0-0.0","task_version":"screening-mturk","missing":false,"accuracy":0},{"contexts":["red","green","blue"],"outcomes":[0,0,1],"key":37,"choice":0,"rt":759.0499999932945,"outcome":0,"trial":60,"correct":2,"trial_type":"three-arm-trial","trial_index":70,"time_elapsed":618829,"internal_node_id":"0.0-66.0-0.0","task_version":"screening-mturk","missing":false,"accuracy":0},{"contexts":["red","green","blue"],"outcomes":[0,0,0],"key":38,"choice":1,"rt":993.724999949336,"outcome":0,"trial":61,"correct":0,"trial_type":"three-arm-trial","trial_index":71,"time_elapsed":621025,"internal_node_id":"0.0-67.0-0.0","task_version":"screening-mturk","missing":false,"accuracy":0},{"contexts":["red","green","blue"],"outcomes":[0,0,0],"key":37,"choice":0,"rt":2336.8400000035763,"outcome":0,"trial":62,"correct":0,"trial_type":"three-arm-trial","trial_index":72,"time_elapsed":624573,"internal_node_id":"0.0-68.0-0.0","task_version":"screening-mturk","missing":false,"accuracy":1},{"contexts":["red","green","blue"],"outcomes":[1,1,0],"key":39,"choice":2,"rt":408.9699999894947,"outcome":0,"trial":63,"correct":0,"trial_type":"three-arm-trial","trial_index":73,"time_elapsed":626186,"internal_node_id":"0.0-69.0-0.0","task_version":"screening-mturk","missing":false,"accuracy":0},{"contexts":["red","green","blue"],"outcomes":[1,0,0],"key":37,"choice":0,"rt":816.3999998942018,"outcome":1,"trial":64,"correct":0,"trial_type":"three-arm-trial","trial_index":74,"time_elapsed":628205,"internal_node_id":"0.0-70.0-0.0","task_version":"screening-mturk","missing":false,"accuracy":1},{"contexts":["red","green","blue"],"outcomes":[1,0,0],"key":37,"choice":0,"rt":828.1150001566857,"outcome":1,"trial":65,"correct":0,"trial_type":"three-arm-trial","trial_index":75,"time_elapsed":630244,"internal_node_id":"0.0-71.0-0.0","task_version":"screening-mturk","missing":false,"accuracy":1},{"contexts":["red","green","blue"],"outcomes":[1,0,0],"key":37,"choice":0,"rt":867.9849999025464,"outcome":1,"trial":66,"correct":0,"trial_type":"three-arm-trial","trial_index":76,"time_elapsed":632317,"internal_node_id":"0.0-72.0-0.0","task_version":"screening-mturk","missing":false,"accuracy":1},{"contexts":["red","green","blue"],"outcomes":[1,0,1],"key":37,"choice":0,"rt":1065.449999878183,"outcome":1,"trial":67,"correct":0,"trial_type":"three-arm-trial","trial_index":77,"time_elapsed":634587,"internal_node_id":"0.0-73.0-0.0","task_version":"screening-mturk","missing":false,"accuracy":1},{"contexts":["red","green","blue"],"outcomes":[1,0,0],"key":37,"choice":0,"rt":865.4950000345707,"outcome":1,"trial":68,"correct":0,"trial_type":"three-arm-trial","trial_index":78,"time_elapsed":636655,"internal_node_id":"0.0-74.0-0.0","task_version":"screening-mturk","missing":false,"accuracy":1},{"contexts":["red","green","blue"],"outcomes":[1,0,0],"key":37,"choice":0,"rt":1188.5199998505414,"outcome":1,"trial":69,"correct":0,"trial_type":"three-arm-trial","trial_index":79,"time_elapsed":639047,"internal_node_id":"0.0-75.0-0.0","task_version":"screening-mturk","missing":false,"accuracy":1},{"contexts":["red","green","blue"],"outcomes":[1,0,1],"key":37,"choice":0,"rt":935.0000000558794,"outcome":1,"trial":70,"correct":0,"trial_type":"three-arm-trial","trial_index":80,"time_elapsed":641191,"internal_node_id":"0.0-76.0-0.0","task_version":"screening-mturk","missing":false,"accuracy":1},{"contexts":["red","green","blue"],"outcomes":[1,0,1],"key":37,"choice":0,"rt":1131.8250000476837,"outcome":1,"trial":71,"correct":0,"trial_type":"three-arm-trial","trial_index":81,"time_elapsed":643525,"internal_node_id":"0.0-77.0-0.0","task_version":"screening-mturk","missing":false,"accuracy":1},{"contexts":["red","green","blue"],"outcomes":[1,0,0],"key":37,"choice":0,"rt":537.1000000741333,"outcome":1,"trial":72,"correct":0,"trial_type":"three-arm-trial","trial_index":82,"time_elapsed":645267,"internal_node_id":"0.0-78.0-0.0","task_version":"screening-mturk","missing":false,"accuracy":1},{"contexts":["red","green","blue"],"outcomes":[1,0,0],"key":37,"choice":0,"rt":395.39499999955297,"outcome":1,"trial":73,"correct":0,"trial_type":"three-arm-trial","trial_index":83,"time_elapsed":646866,"internal_node_id":"0.0-79.0-0.0","task_version":"screening-mturk","missing":false,"accuracy":1},{"contexts":["red","green","blue"],"outcomes":[0,0,1],"key":37,"choice":0,"rt":87.28000009432435,"outcome":0,"trial":74,"correct":0,"trial_type":"three-arm-trial","trial_index":84,"time_elapsed":648156,"internal_node_id":"0.0-80.0-0.0","task_version":"screening-mturk","missing":false,"accuracy":1},{"contexts":["red","green","blue"],"outcomes":[1,1,0],"key":37,"choice":0,"rt":536.9850001297891,"outcome":1,"trial":75,"correct":0,"trial_type":"three-arm-trial","trial_index":85,"time_elapsed":649895,"internal_node_id":"0.0-81.0-0.0","task_version":"screening-mturk","missing":false,"accuracy":1},{"contexts":["red","green","blue"],"outcomes":[0,0,1],"key":37,"choice":0,"rt":696.9749999698251,"outcome":0,"trial":76,"correct":2,"trial_type":"three-arm-trial","trial_index":86,"time_elapsed":651797,"internal_node_id":"0.0-82.0-0.0","task_version":"screening-mturk","missing":false,"accuracy":0},{"contexts":["red","green","blue"],"outcomes":[0,0,1],"key":39,"choice":2,"rt":122.89500003680587,"outcome":1,"trial":77,"correct":2,"trial_type":"three-arm-trial","trial_index":87,"time_elapsed":653127,"internal_node_id":"0.0-83.0-0.0","task_version":"screening-mturk","missing":false,"accuracy":1},{"contexts":["red","green","blue"],"outcomes":[0,0,0],"key":39,"choice":2,"rt":346.07500000856817,"outcome":0,"trial":78,"correct":2,"trial_type":"three-arm-trial","trial_index":88,"time_elapsed":654677,"internal_node_id":"0.0-84.0-0.0","task_version":"screening-mturk","missing":false,"accuracy":1},{"contexts":["red","green","blue"],"outcomes":[0,1,1],"key":37,"choice":0,"rt":5146.070000017062,"outcome":0,"trial":79,"correct":2,"trial_type":"three-arm-trial","trial_index":89,"time_elapsed":661026,"internal_node_id":"0.0-85.0-0.0","task_version":"screening-mturk","missing":false,"accuracy":0},{"contexts":["red","green","blue"],"outcomes":[0,0,1],"key":39,"choice":2,"rt":857.0449999533594,"outcome":1,"trial":80,"correct":2,"trial_type":"three-arm-trial","trial_index":90,"time_elapsed":663086,"internal_node_id":"0.0-86.0-0.0","task_version":"screening-mturk","missing":false,"accuracy":1},{"contexts":["red","green","blue"],"outcomes":[1,0,1],"key":39,"choice":2,"rt":536.6549999453127,"outcome":1,"trial":81,"correct":2,"trial_type":"three-arm-trial","trial_index":91,"time_elapsed":664828,"internal_node_id":"0.0-87.0-0.0","task_version":"screening-mturk","missing":false,"accuracy":1},{"contexts":["red","green","blue"],"outcomes":[0,0,1],"key":39,"choice":2,"rt":944.385000038892,"outcome":1,"trial":82,"correct":2,"trial_type":"three-arm-trial","trial_index":92,"time_elapsed":666976,"internal_node_id":"0.0-88.0-0.0","task_version":"screening-mturk","missing":false,"accuracy":1},{"contexts":["red","green","blue"],"outcomes":[0,0,1],"key":39,"choice":2,"rt":897.1350002102554,"outcome":1,"trial":83,"correct":2,"trial_type":"three-arm-trial","trial_index":93,"time_elapsed":669076,"internal_node_id":"0.0-89.0-0.0","task_version":"screening-mturk","missing":false,"accuracy":1},{"contexts":["red","green","blue"],"outcomes":[0,0,1],"key":39,"choice":2,"rt":506.4300000667572,"outcome":1,"trial":84,"correct":2,"trial_type":"three-arm-trial","trial_index":94,"time_elapsed":670785,"internal_node_id":"0.0-90.0-0.0","task_version":"screening-mturk","missing":false,"accuracy":1},{"contexts":["red","green","blue"],"outcomes":[0,0,0],"key":39,"choice":2,"rt":848.4849999658763,"outcome":0,"trial":85,"correct":2,"trial_type":"three-arm-trial","trial_index":95,"time_elapsed":672836,"internal_node_id":"0.0-91.0-0.0","task_version":"screening-mturk","missing":false,"accuracy":1},{"contexts":["red","green","blue"],"outcomes":[0,1,1],"key":37,"choice":0,"rt":746.7500001657754,"outcome":0,"trial":86,"correct":2,"trial_type":"three-arm-trial","trial_index":96,"time_elapsed":674789,"internal_node_id":"0.0-92.0-0.0","task_version":"screening-mturk","missing":false,"accuracy":0},{"contexts":["red","green","blue"],"outcomes":[1,0,1],"key":37,"choice":0,"rt":3384.1899998951703,"outcome":1,"trial":87,"correct":2,"trial_type":"three-arm-trial","trial_index":97,"time_elapsed":679376,"internal_node_id":"0.0-93.0-0.0","task_version":"screening-mturk","missing":false,"accuracy":0},{"contexts":["red","green","blue"],"outcomes":[0,0,1],"key":37,"choice":0,"rt":1037.2750000096858,"outcome":0,"trial":88,"correct":2,"trial_type":"three-arm-trial","trial_index":98,"time_elapsed":681617,"internal_node_id":"0.0-94.0-0.0","task_version":"screening-mturk","missing":false,"accuracy":0},{"contexts":["red","green","blue"],"outcomes":[0,0,1],"key":39,"choice":2,"rt":75.60999994166195,"outcome":1,"trial":89,"correct":2,"trial_type":"three-arm-trial","trial_index":99,"time_elapsed":682895,"internal_node_id":"0.0-95.0-0.0","task_version":"screening-mturk","missing":false,"accuracy":1},{"contexts":["red","green","blue"],"outcomes":[0,0,0],"key":39,"choice":2,"rt":907.9350000247359,"outcome":0,"trial":90,"correct":2,"trial_type":"three-arm-trial","trial_index":100,"time_elapsed":685007,"internal_node_id":"0.0-96.0-0.0","task_version":"screening-mturk","missing":false,"accuracy":1},{"rt":48756.109999958426,"responses":{"age":"54","gender-categorical":"Male","gender-free-response":"","ethnicity":"Not Hispanic or Latino","race":["White"],"language":"Yes","fluency":"Very well","prolific":"Yes","prolific-this-study":"No"},"survey":"demographics","trial_type":"survey-demo","trial_index":101,"time_elapsed":733769,"internal_node_id":"0.0-97.0","task_version":"screening-mturk","interactions":"[{\"event\":\"blur\",\"trial\":0,\"time\":21462},{\"event\":\"focus\",\"trial\":0,\"time\":28981}]"}]