[{"success":true,"timeout":false,"failed_images":[],"failed_audio":[],"failed_video":[],"trial_type":"preload","trial_index":0,"time_elapsed":622,"internal_node_id":"0.0-0.0","task_version":"1.0","jspsych_version":"6.3.1"},{"success":true,"trial_type":"fullscreen","trial_index":1,"time_elapsed":3106,"internal_node_id":"0.0-1.0","task_version":"1.0","jspsych_version":"6.3.1"},{"view_history":[{"page_index":0,"viewing_time":1744}],"rt":1744,"trial_type":"instructions","trial_index":2,"time_elapsed":4851,"internal_node_id":"0.0-2.0","task_version":"1.0","jspsych_version":"6.3.1"},{"responses":{"Q04":"0","Q05":"0","Q02":"1","Q01":"0","Q03":"1","Q06":"0","Q07":"1","Q08":"3"},"rt":40063,"item_order":[3,4,1,0,2,5,6,7],"radio_events":[5614,13094,17222,21270,25358,28543,31782,36686],"key_events":[],"mouse_events":[0,5614,12470,13094,17222,20543,21270,25358,28543,31782,36686,40063],"straightlining":0.5,"zigzagging":0.7142857142857143,"honeypot":0,"survey":"mania","trial_type":"survey-template","trial_index":3,"time_elapsed":44928,"internal_node_id":"0.0-3.0","task_version":"1.0","jspsych_version":"6.3.1"},{"responses":{"Q06":"3","Q02":"3","Q01":"3","Q03":"3","Q05":"3","Q04":"3","Q07":"3","Q08":"0"},"rt":11226,"item_order":[5,1,0,2,4,3,6,7],"radio_events":[2433,3729,4809,5801,6817,7833,8729,9745],"key_events":[],"mouse_events":[2433,3729,4809,5801,6817,7833,8729,9745,11226],"straightlining":0.875,"zigzagging":0.14285714285714285,"honeypot":0,"survey":"anxiety","trial_type":"survey-template","trial_index":4,"time_elapsed":56157,"internal_node_id":"0.0-4.0","task_version":"1.0","jspsych_version":"6.3.1"},{"responses":{"Q06":"0","Q02":"0","Q05":"0","Q07":"6","Q01":"3","Q04":"2","Q03":"0"},"rt":14988,"item_order":[5,1,4,6,0,3,2],"radio_events":[2115,3500,6427,8035,9899,13443,14235],"key_events":[],"mouse_events":[2115,3500,6427,8035,9899,13443,14235,14988],"straightlining":0.5714285714285714,"zigzagging":0.3333333333333333,"honeypot":0,"survey":"greed","trial_type":"survey-template","trial_index":5,"time_elapsed":71149,"internal_node_id":"0.0-5.0","task_version":"1.0","jspsych_version":"6.3.1"},{"responses":{"Q02":"4","Q06":"5","Q01":"6","Q05":"5","Q03":"6","Q04":"6","Q07":"3"},"rt":12533,"item_order":[1,5,0,4,2,3,6],"radio_events":[2332,4356,5940,7508,9613,10848,11924],"key_events":[],"mouse_events":[2332,4356,5940,7508,9613,10848,11924,12533],"straightlining":0.2857142857142857,"zigzagging":0.3333333333333333,"honeypot":0,"survey":"artistic","trial_type":"survey-template","trial_index":6,"time_elapsed":83685,"internal_node_id":"0.0-6.0","task_version":"1.0","jspsych_version":"6.3.1"},{"responses":{"Q05":"3","Q01":"3","Q02":"3","Q07":"3","Q08":"1","Q04":"3","Q06":"3","Q03":"3"},"rt":16788,"item_order":[4,0,1,6,7,3,5,2],"radio_events":[2707,4171,5667,6636,11579,13196,14811,16115],"key_events":[],"mouse_events":[2707,4171,5667,6636,11579,13196,14811,16115,16788],"straightlining":0.875,"zigzagging":0,"honeypot":0,"survey":"depression","trial_type":"survey-template","trial_index":7,"time_elapsed":100477,"internal_node_id":"0.0-7.0","task_version":"1.0","jspsych_version":"6.3.1"},{"view_history":"[{\"page_index\":0,\"viewing_time\":2962},{\"page_index\":1,\"viewing_time\":1904},{\"page_index\":2,\"viewing_time\":1489},{\"page_index\":3,\"viewing_time\":4311},{\"page_index\":4,\"viewing_time\":2968},{\"page_index\":5,\"viewing_time\":1672},{\"page_index\":6,\"viewing_time\":1088},{\"page_index\":7,\"viewing_time\":4120},{\"page_index\":8,\"viewing_time\":3457},{\"page_index\":9,\"viewing_time\":4775},{\"page_index\":10,\"viewing_time\":2873}]","rt":31619,"trial_type":"two-step-instructions","trial_index":8,"time_elapsed":132100,"internal_node_id":"0.0-8.0-1.0","task_version":"1.0","jspsych_version":"6.3.1"},{"responses":["left/right arrow keys","True","True"],"num_errors":0,"rt":7982,"quiz":1,"trial_type":"two-step-comprehension","trial_index":9,"time_elapsed":140084,"internal_node_id":"0.0-8.0-2.0","task_version":"1.0","jspsych_version":"6.3.1"},{"view_history":"[{\"page_index\":0,\"viewing_time\":13891}]","rt":13891,"phase":"instructions_1b","trial_type":"two-step-instructions","trial_index":10,"time_elapsed":153979,"internal_node_id":"0.0-9.0-0.0-0.0","task_version":"1.0","jspsych_version":"6.3.1"},{"state_2_ids":[0,1],"state_2_key":1,"state_2_choice":1,"state_2_rt":744,"outcome":1,"screen_resolution":[2048,1152],"minimum_resolution":1,"trial_type":"alien-practice","trial_index":11,"time_elapsed":156938,"internal_node_id":"0.0-9.0-1.0-0.0","task_version":"1.0","jspsych_version":"6.3.1"},{"state_2_ids":[0,1],"state_2_key":0,"state_2_choice":0,"state_2_rt":645,"outcome":1,"screen_resolution":[2048,1152],"minimum_resolution":1,"trial_type":"alien-practice","trial_index":12,"time_elapsed":159798,"internal_node_id":"0.0-9.0-2.0-0.0","task_version":"1.0","jspsych_version":"6.3.1"},{"state_2_ids":[0,1],"state_2_key":0,"state_2_choice":0,"state_2_rt":430,"outcome":0,"screen_resolution":[2048,1152],"minimum_resolution":1,"trial_type":"alien-practice","trial_index":13,"time_elapsed":162447,"internal_node_id":"0.0-9.0-3.0-0.0","task_version":"1.0","jspsych_version":"6.3.1"},{"state_2_ids":[0,1],"state_2_key":1,"state_2_choice":1,"state_2_rt":231,"outcome":1,"screen_resolution":[2048,1152],"minimum_resolution":1,"trial_type":"alien-practice","trial_index":14,"time_elapsed":164897,"internal_node_id":"0.0-9.0-4.0-0.0","task_version":"1.0","jspsych_version":"6.3.1"},{"state_2_ids":[0,1],"state_2_key":1,"state_2_choice":1,"state_2_rt":710,"outcome":1,"screen_resolution":[2048,1152],"minimum_resolution":1,"trial_type":"alien-practice","trial_index":15,"time_elapsed":167824,"internal_node_id":"0.0-9.0-5.0-0.0","task_version":"1.0","jspsych_version":"6.3.1"},{"state_2_ids":[0,1],"state_2_key":1,"state_2_choice":1,"state_2_rt":435,"outcome":1,"screen_resolution":[2048,1152],"minimum_resolution":1,"trial_type":"alien-practice","trial_index":16,"time_elapsed":170480,"internal_node_id":"0.0-9.0-6.0-0.0","task_version":"1.0","jspsych_version":"6.3.1"},{"view_history":"[{\"page_index\":0,\"viewing_time\":2569},{\"page_index\":1,\"viewing_time\":1120},{\"page_index\":2,\"viewing_time\":3096},{\"page_index\":3,\"viewing_time\":3633},{\"page_index\":4,\"viewing_time\":2895},{\"page_index\":5,\"viewing_time\":1712}]","rt":15025,"trial_type":"two-step-instructions","trial_index":17,"time_elapsed":185508,"internal_node_id":"0.0-10.0-1.0","task_version":"1.0","jspsych_version":"6.3.1"},{"responses":["left/right arrow keys","False","True"],"num_errors":0,"rt":6823,"quiz":2,"trial_type":"two-step-comprehension","trial_index":18,"time_elapsed":192333,"internal_node_id":"0.0-10.0-2.0","task_version":"1.0","jspsych_version":"6.3.1"},{"view_history":"[{\"page_index\":0,\"viewing_time\":4898},{\"page_index\":1,\"viewing_time\":3713},{\"page_index\":2,\"viewing_time\":2919}]","rt":11530,"trial_type":"two-step-instructions","trial_index":19,"time_elapsed":203868,"internal_node_id":"0.0-11.0-0.0","task_version":"1.0","jspsych_version":"6.3.1"},{"state_1_ids":[1,0],"state_1_key":0,"state_1_choice":1,"state_1_rt":1038,"transition":0,"state":0,"state_2_ids":[0,1],"state_2_key":1,"state_2_choice":1,"state_2_rt":1305,"outcome":0,"rocket_colors":["#486ea7","#a75248"],"planet_colors":["#706081","#5b7c65"],"screen_resolution":[2048,1152],"minimum_resolution":1,"trial":0,"trial_type":"two-step-trial","trial_index":20,"time_elapsed":208238,"internal_node_id":"0.0-11.0-1.0-0.0","task_version":"1.0","jspsych_version":"6.3.1","missing":false},{"state_1_ids":[1,0],"state_1_key":1,"state_1_choice":0,"state_1_rt":676,"transition":1,"state":0,"state_2_ids":[0,1],"state_2_key":1,"state_2_choice":1,"state_2_rt":757,"outcome":0,"rocket_colors":["#486ea7","#a75248"],"planet_colors":["#706081","#5b7c65"],"screen_resolution":[2048,1152],"minimum_resolution":1,"trial":0,"trial_type":"two-step-trial","trial_index":21,"time_elapsed":211682,"internal_node_id":"0.0-11.0-1.0-0.1","task_version":"1.0","jspsych_version":"6.3.1","missing":false},{"state_1_ids":[0,1],"state_1_key":0,"state_1_choice":0,"state_1_rt":3073,"transition":1,"state":0,"state_2_ids":[0,1],"state_2_key":0,"state_2_choice":0,"state_2_rt":390,"outcome":1,"rocket_colors":["#486ea7","#a75248"],"planet_colors":["#706081","#5b7c65"],"screen_resolution":[2048,1152],"minimum_resolution":1,"trial":0,"trial_type":"two-step-trial","trial_index":22,"time_elapsed":217165,"internal_node_id":"0.0-11.0-1.0-0.2","task_version":"1.0","jspsych_version":"6.3.1","missing":false},{"state_1_ids":[0,1],"state_1_key":0,"state_1_choice":0,"state_1_rt":501,"transition":0,"state":1,"state_2_ids":[2,3],"state_2_key":1,"state_2_choice":3,"state_2_rt":2629,"outcome":1,"rocket_colors":["#486ea7","#a75248"],"planet_colors":["#706081","#5b7c65"],"screen_resolution":[2048,1152],"minimum_resolution":1,"trial":0,"trial_type":"two-step-trial","trial_index":23,"time_elapsed":222318,"internal_node_id":"0.0-11.0-1.0-0.3","task_version":"1.0","jspsych_version":"6.3.1","missing":false},{"state_1_ids":[0,1],"state_1_key":0,"state_1_choice":0,"state_1_rt":1037,"transition":0,"state":1,"state_2_ids":[2,3],"state_2_key":1,"state_2_choice":3,"state_2_rt":1122,"outcome":1,"rocket_colors":["#486ea7","#a75248"],"planet_colors":["#706081","#5b7c65"],"screen_resolution":[2048,1152],"minimum_resolution":1,"trial":0,"trial_type":"two-step-trial","trial_index":24,"time_elapsed":226496,"internal_node_id":"0.0-11.0-1.0-0.4","task_version":"1.0","jspsych_version":"6.3.1","missing":false},{"state_1_ids":[1,0],"state_1_key":1,"state_1_choice":0,"state_1_rt":610,"transition":1,"state":0,"state_2_ids":[0,1],"state_2_key":0,"state_2_choice":0,"state_2_rt":1840,"outcome":1,"rocket_colors":["#486ea7","#a75248"],"planet_colors":["#706081","#5b7c65"],"screen_resolution":[2048,1152],"minimum_resolution":1,"trial":0,"trial_type":"two-step-trial","trial_index":25,"time_elapsed":230965,"internal_node_id":"0.0-11.0-1.0-0.5","task_version":"1.0","jspsych_version":"6.3.1","missing":false},{"state_1_ids":[1,0],"state_1_key":1,"state_1_choice":0,"state_1_rt":494,"transition":1,"state":0,"state_2_ids":[0,1],"state_2_key":0,"state_2_choice":0,"state_2_rt":668,"outcome":1,"rocket_colors":["#486ea7","#a75248"],"planet_colors":["#706081","#5b7c65"],"screen_resolution":[2048,1152],"minimum_resolution":1,"trial":0,"trial_type":"two-step-trial","trial_index":26,"time_elapsed":234132,"internal_node_id":"0.0-11.0-1.0-0.6","task_version":"1.0","jspsych_version":"6.3.1","missing":false},{"state_1_ids":[0,1],"state_1_key":0,"state_1_choice":0,"state_1_rt":647,"transition":1,"state":0,"state_2_ids":[0,1],"state_2_key":0,"state_2_choice":0,"state_2_rt":646,"outcome":1,"rocket_colors":["#486ea7","#a75248"],"planet_colors":["#706081","#5b7c65"],"screen_resolution":[2048,1152],"minimum_resolution":1,"trial":0,"trial_type":"two-step-trial","trial_index":27,"time_elapsed":237445,"internal_node_id":"0.0-11.0-1.0-0.7","task_version":"1.0","jspsych_version":"6.3.1","missing":false},{"state_1_ids":[0,1],"state_1_key":0,"state_1_choice":0,"state_1_rt":821,"transition":1,"state":0,"state_2_ids":[0,1],"state_2_key":0,"state_2_choice":0,"state_2_rt":517,"outcome":1,"rocket_colors":["#486ea7","#a75248"],"planet_colors":["#706081","#5b7c65"],"screen_resolution":[2048,1152],"minimum_resolution":1,"trial":0,"trial_type":"two-step-trial","trial_index":28,"time_elapsed":240798,"internal_node_id":"0.0-11.0-1.0-0.8","task_version":"1.0","jspsych_version":"6.3.1","missing":false},{"state_1_ids":[0,1],"state_1_key":0,"state_1_choice":0,"state_1_rt":579,"transition":0,"state":1,"state_2_ids":[2,3],"state_2_key":1,"state_2_choice":3,"state_2_rt":845,"outcome":1,"rocket_colors":["#486ea7","#a75248"],"planet_colors":["#706081","#5b7c65"],"screen_resolution":[2048,1152],"minimum_resolution":1,"trial":0,"trial_type":"two-step-trial","trial_index":29,"time_elapsed":244238,"internal_node_id":"0.0-11.0-1.0-0.9","task_version":"1.0","jspsych_version":"6.3.1","missing":false},{"view_history":"[{\"page_index\":0,\"viewing_time\":1868},{\"page_index\":1,\"viewing_time\":2328},{\"page_index\":2,\"viewing_time\":759},{\"page_index\":3,\"viewing_time\":2472},{\"page_index\":4,\"viewing_time\":5640},{\"page_index\":5,\"viewing_time\":5625},{\"page_index\":6,\"viewing_time\":3223}]","rt":21915,"trial_type":"two-step-instructions","trial_index":30,"time_elapsed":266156,"internal_node_id":"0.0-12.0-1.0","task_version":"1.0","jspsych_version":"6.3.1"},{"responses":["True","True","True"],"num_errors":1,"rt":7383,"quiz":3,"trial_type":"two-step-comprehension","trial_index":31,"time_elapsed":273540,"internal_node_id":"0.0-12.0-2.0","task_version":"1.0","jspsych_version":"6.3.1"},{"view_history":"[{\"page_index\":0,\"viewing_time\":2782}]","rt":2782,"trial_type":"two-step-instructions","trial_index":32,"time_elapsed":276326,"internal_node_id":"0.0-12.1-0.1-0.1","task_version":"1.0","jspsych_version":"6.3.1"},{"view_history":"[{\"page_index\":0,\"viewing_time\":3379},{\"page_index\":1,\"viewing_time\":935},{\"page_index\":2,\"viewing_time\":944},{\"page_index\":3,\"viewing_time\":3112},{\"page_index\":4,\"viewing_time\":2136},{\"page_index\":5,\"viewing_time\":1009}]","rt":11515,"trial_type":"two-step-instructions","trial_index":33,"time_elapsed":287844,"internal_node_id":"0.0-12.1-1.1","task_version":"1.0","jspsych_version":"6.3.1"},{"responses":["True","False","True"],"num_errors":0,"rt":4864,"quiz":3,"trial_type":"two-step-comprehension","trial_index":34,"time_elapsed":292709,"internal_node_id":"0.0-12.1-2.1","task_version":"1.0","jspsych_version":"6.3.1"},{"view_history":"[{\"page_index\":0,\"viewing_time\":1115},{\"page_index\":1,\"viewing_time\":7272},{\"page_index\":2,\"viewing_time\":2296}]","rt":10683,"trial_type":"two-step-instructions","trial_index":35,"time_elapsed":303396,"internal_node_id":"0.0-13.0","task_version":"1.0","jspsych_version":"6.3.1"},{"state_1_ids":[0,1],"state_1_key":0,"state_1_choice":0,"state_1_rt":1364,"transition":1,"state":0,"state_2_ids":[0,1],"state_2_key":0,"state_2_choice":0,"state_2_rt":827,"outcome":0,"rocket_colors":["#955db9","#48a782"],"planet_colors":["#5f6f81","#7f5d5d"],"screen_resolution":[2048,1152],"minimum_resolution":1,"trial":1,"drifts":[0.6,0.51,0.387,0.388],"drift_ix":0,"trial_type":"two-step-trial","trial_index":36,"time_elapsed":307605,"internal_node_id":"0.0-14.0-0.0","task_version":"1.0","jspsych_version":"6.3.1","browser_interactions":0,"missing":false},{"state_1_ids":[1,0],"state_1_key":1,"state_1_choice":0,"state_1_rt":901,"transition":1,"state":0,"state_2_ids":[0,1],"state_2_key":1,"state_2_choice":1,"state_2_rt":646,"outcome":0,"rocket_colors":["#955db9","#48a782"],"planet_colors":["#5f6f81","#7f5d5d"],"screen_resolution":[2048,1152],"minimum_resolution":1,"trial":2,"drifts":[0.6,0.49,0.376,0.364],"drift_ix":0,"trial_type":"two-step-trial","trial_index":37,"time_elapsed":311174,"internal_node_id":"0.0-15.0-0.0","task_version":"1.0","jspsych_version":"6.3.1","browser_interactions":0,"missing":false},{"state_1_ids":[1,0],"state_1_key":0,"state_1_choice":1,"state_1_rt":894,"transition":1,"state":1,"state_2_ids":[2,3],"state_2_key":0,"state_2_choice":2,"state_2_rt":652,"outcome":1,"rocket_colors":["#955db9","#48a782"],"planet_colors":["#5f6f81","#7f5d5d"],"screen_resolution":[2048,1152],"minimum_resolution":1,"trial":3,"drifts":[0.612,0.488,0.376,0.385],"drift_ix":0,"trial_type":"two-step-trial","trial_index":38,"time_elapsed":314729,"internal_node_id":"0.0-16.0-0.0","task_version":"1.0","jspsych_version":"6.3.1","browser_interactions":0,"missing":false},{"state_1_ids":[1,0],"state_1_key":0,"state_1_choice":1,"state_1_rt":539,"transition":1,"state":1,"state_2_ids":[2,3],"state_2_key":0,"state_2_choice":2,"state_2_rt":431,"outcome":0,"rocket_colors":["#955db9","#48a782"],"planet_colors":["#5f6f81","#7f5d5d"],"screen_resolution":[2048,1152],"minimum_resolution":1,"trial":4,"drifts":[0.659,0.517,0.37,0.352],"drift_ix":0,"trial_type":"two-step-trial","trial_index":39,"time_elapsed":317705,"internal_node_id":"0.0-17.0-0.0","task_version":"1.0","jspsych_version":"6.3.1","browser_interactions":0,"missing":false},{"state_1_ids":[0,1],"state_1_key":1,"state_1_choice":1,"state_1_rt":626,"transition":1,"state":1,"state_2_ids":[2,3],"state_2_key":1,"state_2_choice":3,"state_2_rt":428,"outcome":0,"rocket_colors":["#955db9","#48a782"],"planet_colors":["#5f6f81","#7f5d5d"],"screen_resolution":[2048,1152],"minimum_resolution":1,"trial":5,"drifts":[0.676,0.497,0.349,0.378],"drift_ix":0,"trial_type":"two-step-trial","trial_index":40,"time_elapsed":320764,"internal_node_id":"0.0-18.0-0.0","task_version":"1.0","jspsych_version":"6.3.1","browser_interactions":0,"missing":false},{"state_1_ids":[1,0],"state_1_key":0,"state_1_choice":1,"state_1_rt":486,"transition":1,"state":1,"state_2_ids":[2,3],"state_2_key":0,"state_2_choice":2,"state_2_rt":458,"outcome":0,"rocket_colors":["#955db9","#48a782"],"planet_colors":["#5f6f81","#7f5d5d"],"screen_resolution":[2048,1152],"minimum_resolution":1,"trial":6,"drifts":[0.682,0.475,0.347,0.386],"drift_ix":0,"trial_type":"two-step-trial","trial_index":41,"time_elapsed":323723,"internal_node_id":"0.0-19.0-0.0","task_version":"1.0","jspsych_version":"6.3.1","browser_interactions":0,"missing":false},{"state_1_ids":[1,0],"state_1_key":1,"state_1_choice":0,"state_1_rt":448,"transition":1,"state":0,"state_2_ids":[0,1],"state_2_key":1,"state_2_choice":1,"state_2_rt":541,"outcome":0,"rocket_colors":["#955db9","#48a782"],"planet_colors":["#5f6f81","#7f5d5d"],"screen_resolution":[2048,1152],"minimum_resolution":1,"trial":7,"drifts":[0.65,0.473,0.346,0.344],"drift_ix":0,"trial_type":"two-step-trial","trial_index":42,"time_elapsed":326729,"internal_node_id":"0.0-20.0-0.0","task_version":"1.0","jspsych_version":"6.3.1","browser_interactions":0,"missing":false},{"state_1_ids":[0,1],"state_1_key":0,"state_1_choice":0,"state_1_rt":473,"transition":1,"state":0,"state_2_ids":[0,1],"state_2_key":0,"state_2_choice":0,"state_2_rt":749,"outcome":0,"rocket_colors":["#955db9","#48a782"],"planet_colors":["#5f6f81","#7f5d5d"],"screen_resolution":[2048,1152],"minimum_resolution":1,"trial":8,"drifts":[0.637,0.456,0.371,0.318],"drift_ix":0,"trial_type":"two-step-trial","trial_index":43,"time_elapsed":329970,"internal_node_id":"0.0-21.0-0.0","task_version":"1.0","jspsych_version":"6.3.1","browser_interactions":0,"missing":false},{"state_1_ids":[0,1],"state_1_key":0,"state_1_choice":0,"state_1_rt":674,"transition":1,"state":0,"state_2_ids":[0,1],"state_2_key":1,"state_2_choice":1,"state_2_rt":526,"outcome":1,"rocket_colors":["#955db9","#48a782"],"planet_colors":["#5f6f81","#7f5d5d"],"screen_resolution":[2048,1152],"minimum_resolution":1,"trial":9,"drifts":[0.637,0.443,0.354,0.311],"drift_ix":0,"trial_type":"two-step-trial","trial_index":44,"time_elapsed":333185,"internal_node_id":"0.0-22.0-0.0","task_version":"1.0","jspsych_version":"6.3.1","browser_interactions":0,"missing":false},{"state_1_ids":[1,0],"state_1_key":1,"state_1_choice":0,"state_1_rt":682,"transition":1,"state":0,"state_2_ids":[0,1],"state_2_key":1,"state_2_choice":1,"state_2_rt":707,"outcome":0,"rocket_colors":["#955db9","#48a782"],"planet_colors":["#5f6f81","#7f5d5d"],"screen_resolution":[2048,1152],"minimum_resolution":1,"trial":10,"drifts":[0.63,0.435,0.315,0.32],"drift_ix":0,"trial_type":"two-step-trial","trial_index":45,"time_elapsed":336597,"internal_node_id":"0.0-23.0-0.0","task_version":"1.0","jspsych_version":"6.3.1","browser_interactions":0,"missing":false},{"state_1_ids":[0,1],"state_1_key":0,"state_1_choice":0,"state_1_rt":854,"transition":1,"state":0,"state_2_ids":[0,1],"state_2_key":1,"state_2_choice":1,"state_2_rt":357,"outcome":1,"rocket_colors":["#955db9","#48a782"],"planet_colors":["#5f6f81","#7f5d5d"],"screen_resolution":[2048,1152],"minimum_resolution":1,"trial":11,"drifts":[0.599,0.48,0.291,0.32],"drift_ix":0,"trial_type":"two-step-trial","trial_index":46,"time_elapsed":339821,"internal_node_id":"0.0-24.0-0.0","task_version":"1.0","jspsych_version":"6.3.1","browser_interactions":0,"missing":false},{"state_1_ids":[0,1],"state_1_key":0,"state_1_choice":0,"state_1_rt":1112,"transition":1,"state":0,"state_2_ids":[0,1],"state_2_key":1,"state_2_choice":1,"state_2_rt":364,"outcome":1,"rocket_colors":["#955db9","#48a782"],"planet_colors":["#5f6f81","#7f5d5d"],"screen_resolution":[2048,1152],"minimum_resolution":1,"trial":12,"drifts":[0.573,0.445,0.3,0.33],"drift_ix":0,"trial_type":"two-step-trial","trial_index":47,"time_elapsed":343309,"internal_node_id":"0.0-25.0-0.0","task_version":"1.0","jspsych_version":"6.3.1","browser_interactions":0,"missing":false},{"state_1_ids":[0,1],"state_1_key":0,"state_1_choice":0,"state_1_rt":413,"transition":1,"state":0,"state_2_ids":[0,1],"state_2_key":1,"state_2_choice":1,"state_2_rt":385,"outcome":1,"rocket_colors":["#955db9","#48a782"],"planet_colors":["#5f6f81","#7f5d5d"],"screen_resolution":[2048,1152],"minimum_resolution":1,"trial":13,"drifts":[0.6,0.4,0.3,0.32],"drift_ix":0,"trial_type":"two-step-trial","trial_index":48,"time_elapsed":346139,"internal_node_id":"0.0-26.0-0.0","task_version":"1.0","jspsych_version":"6.3.1","browser_interactions":0,"missing":false},{"state_1_ids":[0,1],"state_1_key":0,"state_1_choice":0,"state_1_rt":408,"transition":1,"state":0,"state_2_ids":[0,1],"state_2_key":1,"state_2_choice":1,"state_2_rt":499,"outcome":0,"rocket_colors":["#955db9","#48a782"],"planet_colors":["#5f6f81","#7f5d5d"],"screen_resolution":[2048,1152],"minimum_resolution":1,"trial":14,"drifts":[0.601,0.428,0.308,0.274],"drift_ix":0,"trial_type":"two-step-trial","trial_index":49,"time_elapsed":349065,"internal_node_id":"0.0-27.0-0.0","task_version":"1.0","jspsych_version":"6.3.1","browser_interactions":0,"missing":false},{"state_1_ids":[1,0],"state_1_key":0,"state_1_choice":1,"state_1_rt":744,"transition":1,"state":1,"state_2_ids":[2,3],"state_2_key":0,"state_2_choice":2,"state_2_rt":732,"outcome":0,"rocket_colors":["#955db9","#48a782"],"planet_colors":["#5f6f81","#7f5d5d"],"screen_resolution":[2048,1152],"minimum_resolution":1,"trial":15,"drifts":[0.588,0.441,0.345,0.295],"drift_ix":0,"trial_type":"two-step-trial","trial_index":50,"time_elapsed":352562,"internal_node_id":"0.0-28.0-0.0","task_version":"1.0","jspsych_version":"6.3.1","browser_interactions":0,"missing":false},{"state_1_ids":[1,0],"state_1_key":1,"state_1_choice":0,"state_1_rt":449,"transition":1,"state":0,"state_2_ids":[0,1],"state_2_key":0,"state_2_choice":0,"state_2_rt":437,"outcome":1,"rocket_colors":["#955db9","#48a782"],"planet_colors":["#5f6f81","#7f5d5d"],"screen_resolution":[2048,1152],"minimum_resolution":1,"trial":16,"drifts":[0.641,0.463,0.39,0.301],"drift_ix":0,"trial_type":"two-step-trial","trial_index":51,"time_elapsed":355469,"internal_node_id":"0.0-29.0-0.0","task_version":"1.0","jspsych_version":"6.3.1","browser_interactions":0,"missing":false},{"state_1_ids":[0,1],"state_1_key":0,"state_1_choice":0,"state_1_rt":694,"transition":1,"state":0,"state_2_ids":[0,1],"state_2_key":0,"state_2_choice":0,"state_2_rt":376,"outcome":1,"rocket_colors":["#955db9","#48a782"],"planet_colors":["#5f6f81","#7f5d5d"],"screen_resolution":[2048,1152],"minimum_resolution":1,"trial":17,"drifts":[0.649,0.465,0.413,0.325],"drift_ix":0,"trial_type":"two-step-trial","trial_index":52,"time_elapsed":358562,"internal_node_id":"0.0-30.0-0.0","task_version":"1.0","jspsych_version":"6.3.1","browser_interactions":0,"missing":false},{"state_1_ids":[0,1],"state_1_key":0,"state_1_choice":0,"state_1_rt":417,"transition":1,"state":0,"state_2_ids":[0,1],"state_2_key":0,"state_2_choice":0,"state_2_rt":689,"outcome":1,"rocket_colors":["#955db9","#48a782"],"planet_colors":["#5f6f81","#7f5d5d"],"screen_resolution":[2048,1152],"minimum_resolution":1,"trial":18,"drifts":[0.627,0.478,0.397,0.324],"drift_ix":0,"trial_type":"two-step-trial","trial_index":53,"time_elapsed":361696,"internal_node_id":"0.0-31.0-0.0","task_version":"1.0","jspsych_version":"6.3.1","browser_interactions":0,"missing":false},{"state_1_ids":[0,1],"state_1_key":0,"state_1_choice":0,"state_1_rt":547,"transition":1,"state":0,"state_2_ids":[0,1],"state_2_key":0,"state_2_choice":0,"state_2_rt":483,"outcome":0,"rocket_colors":["#955db9","#48a782"],"planet_colors":["#5f6f81","#7f5d5d"],"screen_resolution":[2048,1152],"minimum_resolution":1,"trial":19,"drifts":[0.656,0.491,0.375,0.348],"drift_ix":0,"trial_type":"two-step-trial","trial_index":54,"time_elapsed":364745,"internal_node_id":"0.0-32.0-0.0","task_version":"1.0","jspsych_version":"6.3.1","browser_interactions":0,"missing":false},{"state_1_ids":[0,1],"state_1_key":0,"state_1_choice":0,"state_1_rt":443,"transition":1,"state":0,"state_2_ids":[0,1],"state_2_key":1,"state_2_choice":1,"state_2_rt":357,"outcome":1,"rocket_colors":["#955db9","#48a782"],"planet_colors":["#5f6f81","#7f5d5d"],"screen_resolution":[2048,1152],"minimum_resolution":1,"trial":20,"drifts":[0.64,0.468,0.396,0.335],"drift_ix":0,"trial_type":"two-step-trial","trial_index":55,"time_elapsed":367564,"internal_node_id":"0.0-33.0-0.0","task_version":"1.0","jspsych_version":"6.3.1","browser_interactions":0,"missing":false},{"state_1_ids":[0,1],"state_1_key":0,"state_1_choice":0,"state_1_rt":390,"transition":1,"state":0,"state_2_ids":[0,1],"state_2_key":1,"state_2_choice":1,"state_2_rt":401,"outcome":1,"rocket_colors":["#955db9","#48a782"],"planet_colors":["#5f6f81","#7f5d5d"],"screen_resolution":[2048,1152],"minimum_resolution":1,"trial":21,"drifts":[0.633,0.467,0.352,0.33],"drift_ix":0,"trial_type":"two-step-trial","trial_index":56,"time_elapsed":370366,"internal_node_id":"0.0-34.0-0.0","task_version":"1.0","jspsych_version":"6.3.1","browser_interactions":0,"missing":false},{"state_1_ids":[0,1],"state_1_key":0,"state_1_choice":0,"state_1_rt":389,"transition":1,"state":0,"state_2_ids":[0,1],"state_2_key":1,"state_2_choice":1,"state_2_rt":366,"outcome":1,"rocket_colors":["#955db9","#48a782"],"planet_colors":["#5f6f81","#7f5d5d"],"screen_resolution":[2048,1152],"minimum_resolution":1,"trial":22,"drifts":[0.591,0.462,0.379,0.373],"drift_ix":0,"trial_type":"two-step-trial","trial_index":57,"time_elapsed":373139,"internal_node_id":"0.0-35.0-0.0","task_version":"1.0","jspsych_version":"6.3.1","browser_interactions":0,"missing":false},{"state_1_ids":[0,1],"state_1_key":0,"state_1_choice":0,"state_1_rt":384,"transition":1,"state":0,"state_2_ids":[0,1],"state_2_key":1,"state_2_choice":1,"state_2_rt":370,"outcome":1,"rocket_colors":["#955db9","#48a782"],"planet_colors":["#5f6f81","#7f5d5d"],"screen_resolution":[2048,1152],"minimum_resolution":1,"trial":23,"drifts":[0.612,0.436,0.44,0.331],"drift_ix":0,"trial_type":"two-step-trial","trial_index":58,"time_elapsed":375909,"internal_node_id":"0.0-36.0-0.0","task_version":"1.0","jspsych_version":"6.3.1","browser_interactions":0,"missing":false},{"state_1_ids":[1,0],"state_1_key":0,"state_1_choice":1,"state_1_rt":294,"transition":1,"state":1,"state_2_ids":[2,3],"state_2_key":0,"state_2_choice":2,"state_2_rt":350,"outcome":1,"rocket_colors":["#955db9","#48a782"],"planet_colors":["#5f6f81","#7f5d5d"],"screen_resolution":[2048,1152],"minimum_resolution":1,"trial":24,"drifts":[0.612,0.434,0.473,0.352],"drift_ix":0,"trial_type":"two-step-trial","trial_index":59,"time_elapsed":378567,"internal_node_id":"0.0-37.0-0.0","task_version":"1.0","jspsych_version":"6.3.1","browser_interactions":0,"missing":false},{"state_1_ids":[0,1],"state_1_key":1,"state_1_choice":1,"state_1_rt":635,"transition":0,"state":0,"state_2_ids":[0,1],"state_2_key":1,"state_2_choice":1,"state_2_rt":2587,"outcome":1,"rocket_colors":["#955db9","#48a782"],"planet_colors":["#5f6f81","#7f5d5d"],"screen_resolution":[2048,1152],"minimum_resolution":1,"trial":25,"drifts":[0.568,0.394,0.47,0.342],"drift_ix":0,"trial_type":"two-step-trial","trial_index":60,"time_elapsed":383805,"internal_node_id":"0.0-38.0-0.0","task_version":"1.0","jspsych_version":"6.3.1","browser_interactions":0,"missing":false},{"state_1_ids":[1,0],"state_1_key":0,"state_1_choice":1,"state_1_rt":574,"transition":1,"state":1,"state_2_ids":[2,3],"state_2_key":0,"state_2_choice":2,"state_2_rt":1856,"outcome":1,"rocket_colors":["#955db9","#48a782"],"planet_colors":["#5f6f81","#7f5d5d"],"screen_resolution":[2048,1152],"minimum_resolution":1,"trial":26,"drifts":[0.601,0.434,0.455,0.342],"drift_ix":0,"trial_type":"two-step-trial","trial_index":61,"time_elapsed":388245,"internal_node_id":"0.0-39.0-0.0","task_version":"1.0","jspsych_version":"6.3.1","browser_interactions":0,"missing":false},{"state_1_ids":[1,0],"state_1_key":0,"state_1_choice":1,"state_1_rt":446,"transition":1,"state":1,"state_2_ids":[2,3],"state_2_key":0,"state_2_choice":2,"state_2_rt":384,"outcome":1,"rocket_colors":["#955db9","#48a782"],"planet_colors":["#5f6f81","#7f5d5d"],"screen_resolution":[2048,1152],"minimum_resolution":1,"trial":27,"drifts":[0.539,0.464,0.435,0.334],"drift_ix":0,"trial_type":"two-step-trial","trial_index":62,"time_elapsed":391083,"internal_node_id":"0.0-40.0-0.0","task_version":"1.0","jspsych_version":"6.3.1","browser_interactions":0,"missing":false},{"state_1_ids":[1,0],"state_1_key":0,"state_1_choice":1,"state_1_rt":385,"transition":1,"state":1,"state_2_ids":[2,3],"state_2_key":0,"state_2_choice":2,"state_2_rt":583,"outcome":0,"rocket_colors":["#955db9","#48a782"],"planet_colors":["#5f6f81","#7f5d5d"],"screen_resolution":[2048,1152],"minimum_resolution":1,"trial":28,"drifts":[0.523,0.476,0.415,0.352],"drift_ix":0,"trial_type":"two-step-trial","trial_index":63,"time_elapsed":394053,"internal_node_id":"0.0-41.0-0.0","task_version":"1.0","jspsych_version":"6.3.1","browser_interactions":0,"missing":false},{"state_1_ids":[0,1],"state_1_key":0,"state_1_choice":0,"state_1_rt":622,"transition":1,"state":0,"state_2_ids":[0,1],"state_2_key":1,"state_2_choice":1,"state_2_rt":503,"outcome":0,"rocket_colors":["#955db9","#48a782"],"planet_colors":["#5f6f81","#7f5d5d"],"screen_resolution":[2048,1152],"minimum_resolution":1,"trial":29,"drifts":[0.515,0.504,0.459,0.339],"drift_ix":0,"trial_type":"two-step-trial","trial_index":64,"time_elapsed":397200,"internal_node_id":"0.0-42.0-0.0","task_version":"1.0","jspsych_version":"6.3.1","browser_interactions":0,"missing":false},{"state_1_ids":[1,0],"state_1_key":1,"state_1_choice":0,"state_1_rt":914,"transition":1,"state":0,"state_2_ids":[0,1],"state_2_key":0,"state_2_choice":0,"state_2_rt":698,"outcome":0,"rocket_colors":["#955db9","#48a782"],"planet_colors":["#5f6f81","#7f5d5d"],"screen_resolution":[2048,1152],"minimum_resolution":1,"trial":30,"drifts":[0.491,0.488,0.491,0.323],"drift_ix":0,"trial_type":"two-step-trial","trial_index":65,"time_elapsed":400833,"internal_node_id":"0.0-43.0-0.0","task_version":"1.0","jspsych_version":"6.3.1","browser_interactions":0,"missing":false},{"state_1_ids":[0,1],"state_1_key":1,"state_1_choice":1,"state_1_rt":562,"transition":1,"state":1,"state_2_ids":[2,3],"state_2_key":0,"state_2_choice":2,"state_2_rt":377,"outcome":1,"rocket_colors":["#955db9","#48a782"],"planet_colors":["#5f6f81","#7f5d5d"],"screen_resolution":[2048,1152],"minimum_resolution":1,"trial":31,"drifts":[0.478,0.502,0.474,0.353],"drift_ix":0,"trial_type":"two-step-trial","trial_index":66,"time_elapsed":403794,"internal_node_id":"0.0-44.0-0.0","task_version":"1.0","jspsych_version":"6.3.1","browser_interactions":0,"missing":false},{"state_1_ids":[1,0],"state_1_key":0,"state_1_choice":1,"state_1_rt":483,"transition":1,"state":1,"state_2_ids":[2,3],"state_2_key":0,"state_2_choice":2,"state_2_rt":491,"outcome":1,"rocket_colors":["#955db9","#48a782"],"planet_colors":["#5f6f81","#7f5d5d"],"screen_resolution":[2048,1152],"minimum_resolution":1,"trial":32,"drifts":[0.459,0.453,0.457,0.338],"drift_ix":0,"trial_type":"two-step-trial","trial_index":67,"time_elapsed":406783,"internal_node_id":"0.0-45.0-0.0","task_version":"1.0","jspsych_version":"6.3.1","browser_interactions":0,"missing":false},{"state_1_ids":[1,0],"state_1_key":0,"state_1_choice":1,"state_1_rt":3284,"transition":0,"state":0,"state_2_ids":[0,1],"state_2_key":0,"state_2_choice":0,"state_2_rt":1129,"outcome":0,"rocket_colors":["#955db9","#48a782"],"planet_colors":["#5f6f81","#7f5d5d"],"screen_resolution":[2048,1152],"minimum_resolution":1,"trial":33,"drifts":[0.435,0.461,0.485,0.304],"drift_ix":0,"trial_type":"two-step-trial","trial_index":68,"time_elapsed":413209,"internal_node_id":"0.0-46.0-0.0","task_version":"1.0","jspsych_version":"6.3.1","browser_interactions":0,"missing":false},{"state_1_ids":[1,0],"state_1_key":0,"state_1_choice":1,"state_1_rt":706,"transition":1,"state":1,"state_2_ids":[2,3],"state_2_key":0,"state_2_choice":2,"state_2_rt":656,"outcome":1,"rocket_colors":["#955db9","#48a782"],"planet_colors":["#5f6f81","#7f5d5d"],"screen_resolution":[2048,1152],"minimum_resolution":1,"trial":34,"drifts":[0.425,0.445,0.448,0.302],"drift_ix":0,"trial_type":"two-step-trial","trial_index":69,"time_elapsed":416597,"internal_node_id":"0.0-47.0-0.0","task_version":"1.0","jspsych_version":"6.3.1","browser_interactions":0,"missing":false},{"state_1_ids":[1,0],"state_1_key":0,"state_1_choice":1,"state_1_rt":456,"transition":1,"state":1,"state_2_ids":[2,3],"state_2_key":0,"state_2_choice":2,"state_2_rt":445,"outcome":0,"rocket_colors":["#955db9","#48a782"],"planet_colors":["#5f6f81","#7f5d5d"],"screen_resolution":[2048,1152],"minimum_resolution":1,"trial":35,"drifts":[0.398,0.417,0.401,0.285],"drift_ix":0,"trial_type":"two-step-trial","trial_index":70,"time_elapsed":419505,"internal_node_id":"0.0-48.0-0.0","task_version":"1.0","jspsych_version":"6.3.1","browser_interactions":0,"missing":false},{"state_1_ids":[1,0],"state_1_key":0,"state_1_choice":1,"state_1_rt":410,"transition":0,"state":0,"state_2_ids":[0,1],"state_2_key":1,"state_2_choice":1,"state_2_rt":1103,"outcome":1,"rocket_colors":["#955db9","#48a782"],"planet_colors":["#5f6f81","#7f5d5d"],"screen_resolution":[2048,1152],"minimum_resolution":1,"trial":36,"drifts":[0.438,0.401,0.404,0.302],"drift_ix":0,"trial_type":"two-step-trial","trial_index":71,"time_elapsed":423024,"internal_node_id":"0.0-49.0-0.0","task_version":"1.0","jspsych_version":"6.3.1","browser_interactions":0,"missing":false},{"state_1_ids":[1,0],"state_1_key":0,"state_1_choice":1,"state_1_rt":413,"transition":1,"state":1,"state_2_ids":[2,3],"state_2_key":1,"state_2_choice":3,"state_2_rt":617,"outcome":0,"rocket_colors":["#955db9","#48a782"],"planet_colors":["#5f6f81","#7f5d5d"],"screen_resolution":[2048,1152],"minimum_resolution":1,"trial":37,"drifts":[0.446,0.383,0.396,0.273],"drift_ix":0,"trial_type":"two-step-trial","trial_index":72,"time_elapsed":426072,"internal_node_id":"0.0-50.0-0.0","task_version":"1.0","jspsych_version":"6.3.1","browser_interactions":0,"missing":false},{"state_1_ids":[1,0],"state_1_key":1,"state_1_choice":0,"state_1_rt":435,"transition":1,"state":0,"state_2_ids":[0,1],"state_2_key":0,"state_2_choice":0,"state_2_rt":719,"outcome":0,"rocket_colors":["#955db9","#48a782"],"planet_colors":["#5f6f81","#7f5d5d"],"screen_resolution":[2048,1152],"minimum_resolution":1,"trial":38,"drifts":[0.473,0.425,0.406,0.259],"drift_ix":0,"trial_type":"two-step-trial","trial_index":73,"time_elapsed":429250,"internal_node_id":"0.0-51.0-0.0","task_version":"1.0","jspsych_version":"6.3.1","browser_interactions":0,"missing":false},{"state_1_ids":[1,0],"state_1_key":1,"state_1_choice":0,"state_1_rt":370,"transition":1,"state":0,"state_2_ids":[0,1],"state_2_key":1,"state_2_choice":1,"state_2_rt":331,"outcome":0,"rocket_colors":["#955db9","#48a782"],"planet_colors":["#5f6f81","#7f5d5d"],"screen_resolution":[2048,1152],"minimum_resolution":1,"trial":39,"drifts":[0.491,0.414,0.381,0.251],"drift_ix":0,"trial_type":"two-step-trial","trial_index":74,"time_elapsed":431970,"internal_node_id":"0.0-52.0-0.0","task_version":"1.0","jspsych_version":"6.3.1","browser_interactions":0,"missing":false},{"state_1_ids":[0,1],"state_1_key":1,"state_1_choice":1,"state_1_rt":953,"transition":0,"state":0,"state_2_ids":[0,1],"state_2_key":0,"state_2_choice":0,"state_2_rt":705,"outcome":0,"rocket_colors":["#955db9","#48a782"],"planet_colors":["#5f6f81","#7f5d5d"],"screen_resolution":[2048,1152],"minimum_resolution":1,"trial":40,"drifts":[0.46,0.404,0.375,0.267],"drift_ix":0,"trial_type":"two-step-trial","trial_index":75,"time_elapsed":435644,"internal_node_id":"0.0-53.0-0.0","task_version":"1.0","jspsych_version":"6.3.1","browser_interactions":0,"missing":false},{"state_1_ids":[1,0],"state_1_key":1,"state_1_choice":0,"state_1_rt":814,"transition":1,"state":0,"state_2_ids":[0,1],"state_2_key":0,"state_2_choice":0,"state_2_rt":500,"outcome":1,"rocket_colors":["#955db9","#48a782"],"planet_colors":["#5f6f81","#7f5d5d"],"screen_resolution":[2048,1152],"minimum_resolution":1,"trial":41,"drifts":[0.47,0.46,0.37,0.279],"drift_ix":0,"trial_type":"two-step-trial","trial_index":76,"time_elapsed":438965,"internal_node_id":"0.0-54.0-0.0","task_version":"1.0","jspsych_version":"6.3.1","browser_interactions":0,"missing":false},{"state_1_ids":[1,0],"state_1_key":1,"state_1_choice":0,"state_1_rt":462,"transition":1,"state":0,"state_2_ids":[0,1],"state_2_key":0,"state_2_choice":0,"state_2_rt":761,"outcome":0,"rocket_colors":["#955db9","#48a782"],"planet_colors":["#5f6f81","#7f5d5d"],"screen_resolution":[2048,1152],"minimum_resolution":1,"trial":42,"drifts":[0.454,0.461,0.369,0.275],"drift_ix":0,"trial_type":"two-step-trial","trial_index":77,"time_elapsed":442205,"internal_node_id":"0.0-55.0-0.0","task_version":"1.0","jspsych_version":"6.3.1","browser_interactions":0,"missing":false},{"state_1_ids":[1,0],"state_1_key":1,"state_1_choice":0,"state_1_rt":406,"transition":0,"state":1,"state_2_ids":[2,3],"state_2_key":0,"state_2_choice":2,"state_2_rt":920,"outcome":0,"rocket_colors":["#955db9","#48a782"],"planet_colors":["#5f6f81","#7f5d5d"],"screen_resolution":[2048,1152],"minimum_resolution":1,"trial":43,"drifts":[0.452,0.459,0.392,0.293],"drift_ix":0,"trial_type":"two-step-trial","trial_index":78,"time_elapsed":445541,"internal_node_id":"0.0-56.0-0.0","task_version":"1.0","jspsych_version":"6.3.1","browser_interactions":0,"missing":false},{"state_1_ids":[1,0],"state_1_key":0,"state_1_choice":1,"state_1_rt":431,"transition":1,"state":1,"state_2_ids":[2,3],"state_2_key":0,"state_2_choice":2,"state_2_rt":549,"outcome":0,"rocket_colors":["#955db9","#48a782"],"planet_colors":["#5f6f81","#7f5d5d"],"screen_resolution":[2048,1152],"minimum_resolution":1,"trial":44,"drifts":[0.439,0.428,0.412,0.329],"drift_ix":0,"trial_type":"two-step-trial","trial_index":79,"time_elapsed":448538,"internal_node_id":"0.0-57.0-0.0","task_version":"1.0","jspsych_version":"6.3.1","browser_interactions":0,"missing":false},{"state_1_ids":[1,0],"state_1_key":0,"state_1_choice":1,"state_1_rt":377,"transition":1,"state":1,"state_2_ids":[2,3],"state_2_key":1,"state_2_choice":3,"state_2_rt":621,"outcome":0,"rocket_colors":["#955db9","#48a782"],"planet_colors":["#5f6f81","#7f5d5d"],"screen_resolution":[2048,1152],"minimum_resolution":1,"trial":45,"drifts":[0.455,0.384,0.41,0.354],"drift_ix":0,"trial_type":"two-step-trial","trial_index":80,"time_elapsed":451553,"internal_node_id":"0.0-58.0-0.0","task_version":"1.0","jspsych_version":"6.3.1","browser_interactions":0,"missing":false},{"state_1_ids":[1,0],"state_1_key":1,"state_1_choice":0,"state_1_rt":474,"transition":1,"state":0,"state_2_ids":[0,1],"state_2_key":0,"state_2_choice":0,"state_2_rt":1089,"outcome":0,"rocket_colors":["#955db9","#48a782"],"planet_colors":["#5f6f81","#7f5d5d"],"screen_resolution":[2048,1152],"minimum_resolution":1,"trial":46,"drifts":[0.471,0.375,0.394,0.336],"drift_ix":0,"trial_type":"two-step-trial","trial_index":81,"time_elapsed":455141,"internal_node_id":"0.0-59.0-0.0","task_version":"1.0","jspsych_version":"6.3.1","browser_interactions":0,"missing":false},{"state_1_ids":[0,1],"state_1_key":0,"state_1_choice":0,"state_1_rt":519,"transition":1,"state":0,"state_2_ids":[0,1],"state_2_key":1,"state_2_choice":1,"state_2_rt":329,"outcome":0,"rocket_colors":["#955db9","#48a782"],"planet_colors":["#5f6f81","#7f5d5d"],"screen_resolution":[2048,1152],"minimum_resolution":1,"trial":47,"drifts":[0.423,0.325,0.351,0.294],"drift_ix":0,"trial_type":"two-step-trial","trial_index":82,"time_elapsed":458010,"internal_node_id":"0.0-60.0-0.0","task_version":"1.0","jspsych_version":"6.3.1","browser_interactions":0,"missing":false},{"state_1_ids":[0,1],"state_1_key":0,"state_1_choice":0,"state_1_rt":738,"transition":1,"state":0,"state_2_ids":[0,1],"state_2_key":0,"state_2_choice":0,"state_2_rt":383,"outcome":0,"rocket_colors":["#955db9","#48a782"],"planet_colors":["#5f6f81","#7f5d5d"],"screen_resolution":[2048,1152],"minimum_resolution":1,"trial":48,"drifts":[0.458,0.334,0.355,0.324],"drift_ix":0,"trial_type":"two-step-trial","trial_index":83,"time_elapsed":461141,"internal_node_id":"0.0-61.0-0.0","task_version":"1.0","jspsych_version":"6.3.1","browser_interactions":0,"missing":false},{"state_1_ids":[0,1],"state_1_key":1,"state_1_choice":1,"state_1_rt":358,"transition":1,"state":1,"state_2_ids":[2,3],"state_2_key":0,"state_2_choice":2,"state_2_rt":341,"outcome":1,"rocket_colors":["#955db9","#48a782"],"planet_colors":["#5f6f81","#7f5d5d"],"screen_resolution":[2048,1152],"minimum_resolution":1,"trial":49,"drifts":[0.502,0.353,0.35,0.322],"drift_ix":0,"trial_type":"two-step-trial","trial_index":84,"time_elapsed":463846,"internal_node_id":"0.0-62.0-0.0","task_version":"1.0","jspsych_version":"6.3.1","browser_interactions":0,"missing":false},{"state_1_ids":[0,1],"state_1_key":1,"state_1_choice":1,"state_1_rt":469,"transition":0,"state":0,"state_2_ids":[0,1],"state_2_key":0,"state_2_choice":0,"state_2_rt":1431,"outcome":0,"rocket_colors":["#955db9","#48a782"],"planet_colors":["#5f6f81","#7f5d5d"],"screen_resolution":[2048,1152],"minimum_resolution":1,"trial":50,"drifts":[0.464,0.368,0.367,0.351],"drift_ix":0,"trial_type":"two-step-trial","trial_index":85,"time_elapsed":467766,"internal_node_id":"0.0-63.0-0.0","task_version":"1.0","jspsych_version":"6.3.1","browser_interactions":0,"missing":false},{"state_1_ids":[1,0],"state_1_key":0,"state_1_choice":1,"state_1_rt":533,"transition":1,"state":1,"state_2_ids":[2,3],"state_2_key":0,"state_2_choice":2,"state_2_rt":411,"outcome":1,"rocket_colors":["#955db9","#48a782"],"planet_colors":["#5f6f81","#7f5d5d"],"screen_resolution":[2048,1152],"minimum_resolution":1,"trial":51,"drifts":[0.459,0.421,0.341,0.301],"drift_ix":0,"trial_type":"two-step-trial","trial_index":86,"time_elapsed":470724,"internal_node_id":"0.0-64.0-0.0","task_version":"1.0","jspsych_version":"6.3.1","browser_interactions":0,"missing":false},{"state_1_ids":[1,0],"state_1_key":0,"state_1_choice":1,"state_1_rt":576,"transition":1,"state":1,"state_2_ids":[2,3],"state_2_key":0,"state_2_choice":2,"state_2_rt":577,"outcome":1,"rocket_colors":["#955db9","#48a782"],"planet_colors":["#5f6f81","#7f5d5d"],"screen_resolution":[2048,1152],"minimum_resolution":1,"trial":52,"drifts":[0.496,0.401,0.388,0.295],"drift_ix":0,"trial_type":"two-step-trial","trial_index":87,"time_elapsed":473897,"internal_node_id":"0.0-65.0-0.0","task_version":"1.0","jspsych_version":"6.3.1","browser_interactions":0,"missing":false},{"state_1_ids":[1,0],"state_1_key":0,"state_1_choice":1,"state_1_rt":619,"transition":1,"state":1,"state_2_ids":[2,3],"state_2_key":0,"state_2_choice":2,"state_2_rt":576,"outcome":1,"rocket_colors":["#955db9","#48a782"],"planet_colors":["#5f6f81","#7f5d5d"],"screen_resolution":[2048,1152],"minimum_resolution":1,"trial":53,"drifts":[0.476,0.391,0.373,0.273],"drift_ix":0,"trial_type":"two-step-trial","trial_index":88,"time_elapsed":477102,"internal_node_id":"0.0-66.0-0.0","task_version":"1.0","jspsych_version":"6.3.1","browser_interactions":0,"missing":false},{"state_1_ids":[0,1],"state_1_key":1,"state_1_choice":1,"state_1_rt":877,"transition":1,"state":1,"state_2_ids":[2,3],"state_2_key":0,"state_2_choice":2,"state_2_rt":302,"outcome":0,"rocket_colors":["#955db9","#48a782"],"planet_colors":["#5f6f81","#7f5d5d"],"screen_resolution":[2048,1152],"minimum_resolution":1,"trial":54,"drifts":[0.452,0.379,0.383,0.272],"drift_ix":0,"trial_type":"two-step-trial","trial_index":89,"time_elapsed":480302,"internal_node_id":"0.0-67.0-0.0","task_version":"1.0","jspsych_version":"6.3.1","browser_interactions":0,"missing":false},{"state_1_ids":[1,0],"state_1_key":0,"state_1_choice":1,"state_1_rt":502,"transition":1,"state":1,"state_2_ids":[2,3],"state_2_key":1,"state_2_choice":3,"state_2_rt":353,"outcome":0,"rocket_colors":["#955db9","#48a782"],"planet_colors":["#5f6f81","#7f5d5d"],"screen_resolution":[2048,1152],"minimum_resolution":1,"trial":55,"drifts":[0.448,0.393,0.401,0.289],"drift_ix":0,"trial_type":"two-step-trial","trial_index":90,"time_elapsed":483180,"internal_node_id":"0.0-68.0-0.0","task_version":"1.0","jspsych_version":"6.3.1","browser_interactions":0,"missing":false},{"state_1_ids":[0,1],"state_1_key":0,"state_1_choice":0,"state_1_rt":752,"transition":0,"state":1,"state_2_ids":[2,3],"state_2_key":0,"state_2_choice":2,"state_2_rt":981,"outcome":0,"rocket_colors":["#955db9","#48a782"],"planet_colors":["#5f6f81","#7f5d5d"],"screen_resolution":[2048,1152],"minimum_resolution":1,"trial":56,"drifts":[0.435,0.368,0.433,0.291],"drift_ix":0,"trial_type":"two-step-trial","trial_index":91,"time_elapsed":486927,"internal_node_id":"0.0-69.0-0.0","task_version":"1.0","jspsych_version":"6.3.1","browser_interactions":0,"missing":false},{"state_1_ids":[0,1],"state_1_key":1,"state_1_choice":1,"state_1_rt":741,"transition":0,"state":0,"state_2_ids":[0,1],"state_2_key":0,"state_2_choice":0,"state_2_rt":488,"outcome":0,"rocket_colors":["#955db9","#48a782"],"planet_colors":["#5f6f81","#7f5d5d"],"screen_resolution":[2048,1152],"minimum_resolution":1,"trial":57,"drifts":[0.441,0.373,0.443,0.285],"drift_ix":0,"trial_type":"two-step-trial","trial_index":92,"time_elapsed":490176,"internal_node_id":"0.0-70.0-0.0","task_version":"1.0","jspsych_version":"6.3.1","browser_interactions":0,"missing":false},{"state_1_ids":[0,1],"state_1_key":1,"state_1_choice":1,"state_1_rt":435,"transition":1,"state":1,"state_2_ids":[2,3],"state_2_key":0,"state_2_choice":2,"state_2_rt":746,"outcome":0,"rocket_colors":["#955db9","#48a782"],"planet_colors":["#5f6f81","#7f5d5d"],"screen_resolution":[2048,1152],"minimum_resolution":1,"trial":58,"drifts":[0.418,0.389,0.42,0.282],"drift_ix":0,"trial_type":"two-step-trial","trial_index":93,"time_elapsed":493375,"internal_node_id":"0.0-71.0-0.0","task_version":"1.0","jspsych_version":"6.3.1","browser_interactions":0,"missing":false},{"state_1_ids":[1,0],"state_1_key":1,"state_1_choice":0,"state_1_rt":700,"transition":1,"state":0,"state_2_ids":[0,1],"state_2_key":0,"state_2_choice":0,"state_2_rt":510,"outcome":0,"rocket_colors":["#955db9","#48a782"],"planet_colors":["#5f6f81","#7f5d5d"],"screen_resolution":[2048,1152],"minimum_resolution":1,"trial":59,"drifts":[0.41,0.383,0.392,0.255],"drift_ix":0,"trial_type":"two-step-trial","trial_index":94,"time_elapsed":496597,"internal_node_id":"0.0-72.0-0.0","task_version":"1.0","jspsych_version":"6.3.1","browser_interactions":0,"missing":false},{"state_1_ids":[1,0],"state_1_key":1,"state_1_choice":0,"state_1_rt":606,"transition":1,"state":0,"state_2_ids":[0,1],"state_2_key":1,"state_2_choice":1,"state_2_rt":416,"outcome":1,"rocket_colors":["#955db9","#48a782"],"planet_colors":["#5f6f81","#7f5d5d"],"screen_resolution":[2048,1152],"minimum_resolution":1,"trial":60,"drifts":[0.426,0.384,0.354,0.267],"drift_ix":0,"trial_type":"two-step-trial","trial_index":95,"time_elapsed":499630,"internal_node_id":"0.0-73.0-0.0","task_version":"1.0","jspsych_version":"6.3.1","browser_interactions":0,"missing":false},{"state_1_ids":[0,1],"state_1_key":0,"state_1_choice":0,"state_1_rt":685,"transition":1,"state":0,"state_2_ids":[0,1],"state_2_key":1,"state_2_choice":1,"state_2_rt":496,"outcome":0,"rocket_colors":["#955db9","#48a782"],"planet_colors":["#5f6f81","#7f5d5d"],"screen_resolution":[2048,1152],"minimum_resolution":1,"trial":61,"drifts":[0.416,0.414,0.379,0.254],"drift_ix":0,"trial_type":"two-step-trial","trial_index":96,"time_elapsed":502821,"internal_node_id":"0.0-74.0-0.0","task_version":"1.0","jspsych_version":"6.3.1","browser_interactions":0,"missing":false},{"state_1_ids":[0,1],"state_1_key":0,"state_1_choice":0,"state_1_rt":446,"transition":1,"state":0,"state_2_ids":[0,1],"state_2_key":1,"state_2_choice":1,"state_2_rt":441,"outcome":0,"rocket_colors":["#955db9","#48a782"],"planet_colors":["#5f6f81","#7f5d5d"],"screen_resolution":[2048,1152],"minimum_resolution":1,"trial":62,"drifts":[0.353,0.414,0.383,0.26],"drift_ix":0,"trial_type":"two-step-trial","trial_index":97,"time_elapsed":505733,"internal_node_id":"0.0-75.0-0.0","task_version":"1.0","jspsych_version":"6.3.1","browser_interactions":0,"missing":false},{"state_1_ids":[1,0],"state_1_key":1,"state_1_choice":0,"state_1_rt":590,"transition":1,"state":0,"state_2_ids":[0,1],"state_2_key":0,"state_2_choice":0,"state_2_rt":424,"outcome":1,"rocket_colors":["#955db9","#48a782"],"planet_colors":["#5f6f81","#7f5d5d"],"screen_resolution":[2048,1152],"minimum_resolution":1,"trial":63,"drifts":[0.293,0.383,0.425,0.266],"drift_ix":0,"trial_type":"two-step-trial","trial_index":98,"time_elapsed":508758,"internal_node_id":"0.0-76.0-0.0","task_version":"1.0","jspsych_version":"6.3.1","browser_interactions":0,"missing":false},{"state_1_ids":[1,0],"state_1_key":1,"state_1_choice":0,"state_1_rt":525,"transition":1,"state":0,"state_2_ids":[0,1],"state_2_key":0,"state_2_choice":0,"state_2_rt":543,"outcome":0,"rocket_colors":["#955db9","#48a782"],"planet_colors":["#5f6f81","#7f5d5d"],"screen_resolution":[2048,1152],"minimum_resolution":1,"trial":64,"drifts":[0.288,0.362,0.432,0.275],"drift_ix":0,"trial_type":"two-step-trial","trial_index":99,"time_elapsed":511839,"internal_node_id":"0.0-77.0-0.0","task_version":"1.0","jspsych_version":"6.3.1","browser_interactions":0,"missing":false},{"state_1_ids":[0,1],"state_1_key":0,"state_1_choice":0,"state_1_rt":468,"transition":0,"state":1,"state_2_ids":[2,3],"state_2_key":0,"state_2_choice":2,"state_2_rt":627,"outcome":0,"rocket_colors":["#955db9","#48a782"],"planet_colors":["#5f6f81","#7f5d5d"],"screen_resolution":[2048,1152],"minimum_resolution":1,"trial":65,"drifts":[0.297,0.363,0.457,0.29],"drift_ix":0,"trial_type":"two-step-trial","trial_index":100,"time_elapsed":514950,"internal_node_id":"0.0-78.0-0.0","task_version":"1.0","jspsych_version":"6.3.1","browser_interactions":0,"missing":false},{"state_1_ids":[0,1],"state_1_key":1,"state_1_choice":1,"state_1_rt":654,"transition":1,"state":1,"state_2_ids":[2,3],"state_2_key":1,"state_2_choice":3,"state_2_rt":664,"outcome":0,"rocket_colors":["#955db9","#48a782"],"planet_colors":["#5f6f81","#7f5d5d"],"screen_resolution":[2048,1152],"minimum_resolution":1,"trial":66,"drifts":[0.25,0.333,0.451,0.284],"drift_ix":0,"trial_type":"two-step-trial","trial_index":101,"time_elapsed":518278,"internal_node_id":"0.0-79.0-0.0","task_version":"1.0","jspsych_version":"6.3.1","browser_interactions":0,"missing":false},{"state_1_ids":[1,0],"state_1_key":0,"state_1_choice":1,"state_1_rt":598,"transition":1,"state":1,"state_2_ids":[2,3],"state_2_key":0,"state_2_choice":2,"state_2_rt":364,"outcome":1,"rocket_colors":["#955db9","#48a782"],"planet_colors":["#5f6f81","#7f5d5d"],"screen_resolution":[2048,1152],"minimum_resolution":1,"trial":67,"drifts":[0.255,0.331,0.425,0.278],"drift_ix":0,"trial_type":"two-step-trial","trial_index":102,"time_elapsed":521266,"internal_node_id":"0.0-80.0-0.0","task_version":"1.0","jspsych_version":"6.3.1","browser_interactions":0,"missing":false},{"state_1_ids":[0,1],"state_1_key":1,"state_1_choice":1,"state_1_rt":1154,"transition":0,"state":0,"state_2_ids":[0,1],"state_2_key":0,"state_2_choice":0,"state_2_rt":906,"outcome":0,"rocket_colors":["#955db9","#48a782"],"planet_colors":["#5f6f81","#7f5d5d"],"screen_resolution":[2048,1152],"minimum_resolution":1,"trial":68,"drifts":[0.281,0.326,0.434,0.261],"drift_ix":0,"trial_type":"two-step-trial","trial_index":103,"time_elapsed":525339,"internal_node_id":"0.0-81.0-0.0","task_version":"1.0","jspsych_version":"6.3.1","browser_interactions":0,"missing":false},{"state_1_ids":[0,1],"state_1_key":1,"state_1_choice":1,"state_1_rt":857,"transition":1,"state":1,"state_2_ids":[2,3],"state_2_key":0,"state_2_choice":2,"state_2_rt":374,"outcome":0,"rocket_colors":["#955db9","#48a782"],"planet_colors":["#5f6f81","#7f5d5d"],"screen_resolution":[2048,1152],"minimum_resolution":1,"trial":69,"drifts":[0.277,0.319,0.434,0.286],"drift_ix":0,"trial_type":"two-step-trial","trial_index":104,"time_elapsed":528580,"internal_node_id":"0.0-82.0-0.0","task_version":"1.0","jspsych_version":"6.3.1","browser_interactions":0,"missing":false},{"state_1_ids":[1,0],"state_1_key":1,"state_1_choice":0,"state_1_rt":495,"transition":0,"state":1,"state_2_ids":[2,3],"state_2_key":0,"state_2_choice":2,"state_2_rt":622,"outcome":1,"rocket_colors":["#955db9","#48a782"],"planet_colors":["#5f6f81","#7f5d5d"],"screen_resolution":[2048,1152],"minimum_resolution":1,"trial":70,"drifts":[0.318,0.351,0.474,0.272],"drift_ix":0,"trial_type":"two-step-trial","trial_index":105,"time_elapsed":531711,"internal_node_id":"0.0-83.0-0.0","task_version":"1.0","jspsych_version":"6.3.1","browser_interactions":0,"missing":false},{"state_1_ids":[0,1],"state_1_key":0,"state_1_choice":0,"state_1_rt":1372,"transition":1,"state":0,"state_2_ids":[0,1],"state_2_key":0,"state_2_choice":0,"state_2_rt":1490,"outcome":0,"rocket_colors":["#955db9","#48a782"],"planet_colors":["#5f6f81","#7f5d5d"],"screen_resolution":[2048,1152],"minimum_resolution":1,"trial":71,"drifts":[0.306,0.331,0.46,0.274],"drift_ix":0,"trial_type":"two-step-trial","trial_index":106,"time_elapsed":536582,"internal_node_id":"0.0-84.0-0.0","task_version":"1.0","jspsych_version":"6.3.1","browser_interactions":0,"missing":false},{"state_1_ids":[1,0],"state_1_key":0,"state_1_choice":1,"state_1_rt":541,"transition":1,"state":1,"state_2_ids":[2,3],"state_2_key":0,"state_2_choice":2,"state_2_rt":587,"outcome":1,"rocket_colors":["#955db9","#48a782"],"planet_colors":["#5f6f81","#7f5d5d"],"screen_resolution":[2048,1152],"minimum_resolution":1,"trial":72,"drifts":[0.35,0.329,0.432,0.251],"drift_ix":0,"trial_type":"two-step-trial","trial_index":107,"time_elapsed":539731,"internal_node_id":"0.0-85.0-0.0","task_version":"1.0","jspsych_version":"6.3.1","browser_interactions":0,"missing":false},{"state_1_ids":[1,0],"state_1_key":0,"state_1_choice":1,"state_1_rt":432,"transition":0,"state":0,"state_2_ids":[0,1],"state_2_key":1,"state_2_choice":1,"state_2_rt":967,"outcome":0,"rocket_colors":["#955db9","#48a782"],"planet_colors":["#5f6f81","#7f5d5d"],"screen_resolution":[2048,1152],"minimum_resolution":1,"trial":73,"drifts":[0.352,0.318,0.461,0.257],"drift_ix":0,"trial_type":"two-step-trial","trial_index":108,"time_elapsed":543156,"internal_node_id":"0.0-86.0-0.0","task_version":"1.0","jspsych_version":"6.3.1","browser_interactions":0,"missing":false},{"state_1_ids":[1,0],"state_1_key":0,"state_1_choice":1,"state_1_rt":519,"transition":1,"state":1,"state_2_ids":[2,3],"state_2_key":0,"state_2_choice":2,"state_2_rt":566,"outcome":1,"rocket_colors":["#955db9","#48a782"],"planet_colors":["#5f6f81","#7f5d5d"],"screen_resolution":[2048,1152],"minimum_resolution":1,"trial":74,"drifts":[0.374,0.315,0.514,0.262],"drift_ix":0,"trial_type":"two-step-trial","trial_index":109,"time_elapsed":546257,"internal_node_id":"0.0-87.0-0.0","task_version":"1.0","jspsych_version":"6.3.1","browser_interactions":0,"missing":false},{"state_1_ids":[0,1],"state_1_key":1,"state_1_choice":1,"state_1_rt":715,"transition":1,"state":1,"state_2_ids":[2,3],"state_2_key":0,"state_2_choice":2,"state_2_rt":494,"outcome":0,"rocket_colors":["#955db9","#48a782"],"planet_colors":["#5f6f81","#7f5d5d"],"screen_resolution":[2048,1152],"minimum_resolution":1,"trial":75,"drifts":[0.405,0.348,0.504,0.256],"drift_ix":0,"trial_type":"two-step-trial","trial_index":110,"time_elapsed":549478,"internal_node_id":"0.0-88.0-0.0","task_version":"1.0","jspsych_version":"6.3.1","browser_interactions":0,"missing":false},{"state_1_ids":[0,1],"state_1_key":0,"state_1_choice":0,"state_1_rt":382,"transition":0,"state":1,"state_2_ids":[2,3],"state_2_key":0,"state_2_choice":2,"state_2_rt":453,"outcome":1,"rocket_colors":["#955db9","#48a782"],"planet_colors":["#5f6f81","#7f5d5d"],"screen_resolution":[2048,1152],"minimum_resolution":1,"trial":76,"drifts":[0.43,0.367,0.513,0.251],"drift_ix":0,"trial_type":"two-step-trial","trial_index":111,"time_elapsed":552330,"internal_node_id":"0.0-89.0-0.0","task_version":"1.0","jspsych_version":"6.3.1","browser_interactions":0,"missing":false},{"state_1_ids":[0,1],"state_1_key":0,"state_1_choice":0,"state_1_rt":474,"transition":0,"state":1,"state_2_ids":[2,3],"state_2_key":0,"state_2_choice":2,"state_2_rt":515,"outcome":1,"rocket_colors":["#955db9","#48a782"],"planet_colors":["#5f6f81","#7f5d5d"],"screen_resolution":[2048,1152],"minimum_resolution":1,"trial":77,"drifts":[0.426,0.365,0.523,0.279],"drift_ix":0,"trial_type":"two-step-trial","trial_index":112,"time_elapsed":555338,"internal_node_id":"0.0-90.0-0.0","task_version":"1.0","jspsych_version":"6.3.1","browser_interactions":0,"missing":false},{"state_1_ids":[1,0],"state_1_key":1,"state_1_choice":0,"state_1_rt":642,"transition":1,"state":0,"state_2_ids":[0,1],"state_2_key":0,"state_2_choice":0,"state_2_rt":823,"outcome":0,"rocket_colors":["#955db9","#48a782"],"planet_colors":["#5f6f81","#7f5d5d"],"screen_resolution":[2048,1152],"minimum_resolution":1,"trial":78,"drifts":[0.411,0.377,0.525,0.29],"drift_ix":0,"trial_type":"two-step-trial","trial_index":113,"time_elapsed":558813,"internal_node_id":"0.0-91.0-0.0","task_version":"1.0","jspsych_version":"6.3.1","browser_interactions":0,"missing":false},{"state_1_ids":[0,1],"state_1_key":0,"state_1_choice":0,"state_1_rt":966,"transition":1,"state":0,"state_2_ids":[0,1],"state_2_key":0,"state_2_choice":0,"state_2_rt":631,"outcome":1,"rocket_colors":["#955db9","#48a782"],"planet_colors":["#5f6f81","#7f5d5d"],"screen_resolution":[2048,1152],"minimum_resolution":1,"trial":79,"drifts":[0.413,0.36,0.538,0.31],"drift_ix":0,"trial_type":"two-step-trial","trial_index":114,"time_elapsed":562495,"internal_node_id":"0.0-92.0-0.0","task_version":"1.0","jspsych_version":"6.3.1","browser_interactions":0,"missing":false},{"state_1_ids":[1,0],"state_1_key":1,"state_1_choice":0,"state_1_rt":589,"transition":0,"state":1,"state_2_ids":[2,3],"state_2_key":0,"state_2_choice":2,"state_2_rt":842,"outcome":1,"rocket_colors":["#955db9","#48a782"],"planet_colors":["#5f6f81","#7f5d5d"],"screen_resolution":[2048,1152],"minimum_resolution":1,"trial":80,"drifts":[0.394,0.383,0.524,0.282],"drift_ix":0,"trial_type":"two-step-trial","trial_index":115,"time_elapsed":565956,"internal_node_id":"0.0-93.0-0.0","task_version":"1.0","jspsych_version":"6.3.1","browser_interactions":0,"missing":false},{"state_1_ids":[1,0],"state_1_key":0,"state_1_choice":1,"state_1_rt":856,"transition":0,"state":0,"state_2_ids":[0,1],"state_2_key":0,"state_2_choice":0,"state_2_rt":639,"outcome":1,"rocket_colors":["#955db9","#48a782"],"planet_colors":["#5f6f81","#7f5d5d"],"screen_resolution":[2048,1152],"minimum_resolution":1,"trial":81,"drifts":[0.361,0.391,0.524,0.269],"drift_ix":0,"trial_type":"two-step-trial","trial_index":116,"time_elapsed":569468,"internal_node_id":"0.0-94.0-0.0","task_version":"1.0","jspsych_version":"6.3.1","browser_interactions":0,"missing":false},{"state_1_ids":[0,1],"state_1_key":1,"state_1_choice":1,"state_1_rt":607,"transition":0,"state":0,"state_2_ids":[0,1],"state_2_key":0,"state_2_choice":0,"state_2_rt":417,"outcome":1,"rocket_colors":["#955db9","#48a782"],"planet_colors":["#5f6f81","#7f5d5d"],"screen_resolution":[2048,1152],"minimum_resolution":1,"trial":82,"drifts":[0.354,0.377,0.535,0.274],"drift_ix":0,"trial_type":"two-step-trial","trial_index":117,"time_elapsed":572515,"internal_node_id":"0.0-95.0-0.0","task_version":"1.0","jspsych_version":"6.3.1","browser_interactions":0,"missing":false},{"state_1_ids":[1,0],"state_1_key":0,"state_1_choice":1,"state_1_rt":584,"transition":0,"state":0,"state_2_ids":[0,1],"state_2_key":0,"state_2_choice":0,"state_2_rt":394,"outcome":0,"rocket_colors":["#955db9","#48a782"],"planet_colors":["#5f6f81","#7f5d5d"],"screen_resolution":[2048,1152],"minimum_resolution":1,"trial":83,"drifts":[0.353,0.363,0.504,0.307],"drift_ix":0,"trial_type":"two-step-trial","trial_index":118,"time_elapsed":575517,"internal_node_id":"0.0-96.0-0.0","task_version":"1.0","jspsych_version":"6.3.1","browser_interactions":0,"missing":false},{"state_1_ids":[0,1],"state_1_key":1,"state_1_choice":1,"state_1_rt":542,"transition":1,"state":1,"state_2_ids":[2,3],"state_2_key":0,"state_2_choice":2,"state_2_rt":590,"outcome":1,"rocket_colors":["#955db9","#48a782"],"planet_colors":["#5f6f81","#7f5d5d"],"screen_resolution":[2048,1152],"minimum_resolution":1,"trial":84,"drifts":[0.361,0.317,0.485,0.273],"drift_ix":0,"trial_type":"two-step-trial","trial_index":119,"time_elapsed":578672,"internal_node_id":"0.0-97.0-0.0","task_version":"1.0","jspsych_version":"6.3.1","browser_interactions":0,"missing":false},{"state_1_ids":[0,1],"state_1_key":1,"state_1_choice":1,"state_1_rt":555,"transition":1,"state":1,"state_2_ids":[2,3],"state_2_key":0,"state_2_choice":2,"state_2_rt":498,"outcome":0,"rocket_colors":["#955db9","#48a782"],"planet_colors":["#5f6f81","#7f5d5d"],"screen_resolution":[2048,1152],"minimum_resolution":1,"trial":85,"drifts":[0.295,0.332,0.47,0.26],"drift_ix":0,"trial_type":"two-step-trial","trial_index":120,"time_elapsed":581740,"internal_node_id":"0.0-98.0-0.0","task_version":"1.0","jspsych_version":"6.3.1","browser_interactions":0,"missing":false},{"state_1_ids":[0,1],"state_1_key":0,"state_1_choice":0,"state_1_rt":1336,"transition":0,"state":1,"state_2_ids":[2,3],"state_2_key":0,"state_2_choice":2,"state_2_rt":706,"outcome":0,"rocket_colors":["#955db9","#48a782"],"planet_colors":["#5f6f81","#7f5d5d"],"screen_resolution":[2048,1152],"minimum_resolution":1,"trial":86,"drifts":[0.287,0.344,0.46,0.32],"drift_ix":0,"trial_type":"two-step-trial","trial_index":121,"time_elapsed":585807,"internal_node_id":"0.0-99.0-0.0","task_version":"1.0","jspsych_version":"6.3.1","browser_interactions":0,"missing":false},{"state_1_ids":[1,0],"state_1_key":1,"state_1_choice":0,"state_1_rt":517,"transition":1,"state":0,"state_2_ids":[0,1],"state_2_key":0,"state_2_choice":0,"state_2_rt":738,"outcome":0,"rocket_colors":["#955db9","#48a782"],"planet_colors":["#5f6f81","#7f5d5d"],"screen_resolution":[2048,1152],"minimum_resolution":1,"trial":87,"drifts":[0.278,0.373,0.46,0.351],"drift_ix":0,"trial_type":"two-step-trial","trial_index":122,"time_elapsed":589071,"internal_node_id":"0.0-100.0-0.0","task_version":"1.0","jspsych_version":"6.3.1","browser_interactions":0,"missing":false},{"state_1_ids":[1,0],"state_1_key":1,"state_1_choice":0,"state_1_rt":516,"transition":1,"state":0,"state_2_ids":[0,1],"state_2_key":1,"state_2_choice":1,"state_2_rt":411,"outcome":0,"rocket_colors":["#955db9","#48a782"],"planet_colors":["#5f6f81","#7f5d5d"],"screen_resolution":[2048,1152],"minimum_resolution":1,"trial":88,"drifts":[0.277,0.355,0.459,0.358],"drift_ix":0,"trial_type":"two-step-trial","trial_index":123,"time_elapsed":592016,"internal_node_id":"0.0-101.0-0.0","task_version":"1.0","jspsych_version":"6.3.1","browser_interactions":0,"missing":false},{"state_1_ids":[0,1],"state_1_key":1,"state_1_choice":1,"state_1_rt":635,"transition":0,"state":0,"state_2_ids":[0,1],"state_2_key":0,"state_2_choice":0,"state_2_rt":687,"outcome":1,"rocket_colors":["#955db9","#48a782"],"planet_colors":["#5f6f81","#7f5d5d"],"screen_resolution":[2048,1152],"minimum_resolution":1,"trial":89,"drifts":[0.264,0.395,0.47,0.338],"drift_ix":0,"trial_type":"two-step-trial","trial_index":124,"time_elapsed":595359,"internal_node_id":"0.0-102.0-0.0","task_version":"1.0","jspsych_version":"6.3.1","browser_interactions":0,"missing":false},{"state_1_ids":[0,1],"state_1_key":1,"state_1_choice":1,"state_1_rt":437,"transition":1,"state":1,"state_2_ids":[2,3],"state_2_key":0,"state_2_choice":2,"state_2_rt":513,"outcome":0,"rocket_colors":["#955db9","#48a782"],"planet_colors":["#5f6f81","#7f5d5d"],"screen_resolution":[2048,1152],"minimum_resolution":1,"trial":90,"drifts":[0.258,0.389,0.495,0.348],"drift_ix":0,"trial_type":"two-step-trial","trial_index":125,"time_elapsed":598316,"internal_node_id":"0.0-103.0-0.0","task_version":"1.0","jspsych_version":"6.3.1","browser_interactions":0,"missing":false},{"state_1_ids":[0,1],"state_1_key":1,"state_1_choice":1,"state_1_rt":407,"transition":1,"state":1,"state_2_ids":[2,3],"state_2_key":1,"state_2_choice":3,"state_2_rt":616,"outcome":0,"rocket_colors":["#955db9","#48a782"],"planet_colors":["#5f6f81","#7f5d5d"],"screen_resolution":[2048,1152],"minimum_resolution":1,"trial":91,"drifts":[0.325,0.363,0.524,0.356],"drift_ix":0,"trial_type":"two-step-trial","trial_index":126,"time_elapsed":601349,"internal_node_id":"0.0-104.0-0.0","task_version":"1.0","jspsych_version":"6.3.1","browser_interactions":0,"missing":false},{"state_1_ids":[1,0],"state_1_key":0,"state_1_choice":1,"state_1_rt":575,"transition":0,"state":0,"state_2_ids":[0,1],"state_2_key":0,"state_2_choice":0,"state_2_rt":558,"outcome":0,"rocket_colors":["#955db9","#48a782"],"planet_colors":["#5f6f81","#7f5d5d"],"screen_resolution":[2048,1152],"minimum_resolution":1,"trial":92,"drifts":[0.29,0.354,0.524,0.361],"drift_ix":0,"trial_type":"two-step-trial","trial_index":127,"time_elapsed":604493,"internal_node_id":"0.0-105.0-0.0","task_version":"1.0","jspsych_version":"6.3.1","browser_interactions":0,"missing":false},{"state_1_ids":[0,1],"state_1_key":0,"state_1_choice":0,"state_1_rt":463,"transition":1,"state":0,"state_2_ids":[0,1],"state_2_key":1,"state_2_choice":1,"state_2_rt":555,"outcome":1,"rocket_colors":["#955db9","#48a782"],"planet_colors":["#5f6f81","#7f5d5d"],"screen_resolution":[2048,1152],"minimum_resolution":1,"trial":93,"drifts":[0.318,0.353,0.542,0.336],"drift_ix":0,"trial_type":"two-step-trial","trial_index":128,"time_elapsed":607535,"internal_node_id":"0.0-106.0-0.0","task_version":"1.0","jspsych_version":"6.3.1","browser_interactions":0,"missing":false},{"state_1_ids":[1,0],"state_1_key":1,"state_1_choice":0,"state_1_rt":636,"transition":1,"state":0,"state_2_ids":[0,1],"state_2_key":1,"state_2_choice":1,"state_2_rt":551,"outcome":1,"rocket_colors":["#955db9","#48a782"],"planet_colors":["#5f6f81","#7f5d5d"],"screen_resolution":[2048,1152],"minimum_resolution":1,"trial":94,"drifts":[0.329,0.367,0.542,0.302],"drift_ix":0,"trial_type":"two-step-trial","trial_index":129,"time_elapsed":610728,"internal_node_id":"0.0-107.0-0.0","task_version":"1.0","jspsych_version":"6.3.1","browser_interactions":0,"missing":false},{"state_1_ids":[0,1],"state_1_key":0,"state_1_choice":0,"state_1_rt":827,"transition":0,"state":1,"state_2_ids":[2,3],"state_2_key":0,"state_2_choice":2,"state_2_rt":677,"outcome":1,"rocket_colors":["#955db9","#48a782"],"planet_colors":["#5f6f81","#7f5d5d"],"screen_resolution":[2048,1152],"minimum_resolution":1,"trial":95,"drifts":[0.348,0.33,0.586,0.265],"drift_ix":0,"trial_type":"two-step-trial","trial_index":130,"time_elapsed":614253,"internal_node_id":"0.0-108.0-0.0","task_version":"1.0","jspsych_version":"6.3.1","browser_interactions":0,"missing":false},{"state_1_ids":[0,1],"state_1_key":0,"state_1_choice":0,"state_1_rt":407,"transition":0,"state":1,"state_2_ids":[2,3],"state_2_key":0,"state_2_choice":2,"state_2_rt":435,"outcome":1,"rocket_colors":["#955db9","#48a782"],"planet_colors":["#5f6f81","#7f5d5d"],"screen_resolution":[2048,1152],"minimum_resolution":1,"trial":96,"drifts":[0.348,0.348,0.591,0.304],"drift_ix":0,"trial_type":"two-step-trial","trial_index":131,"time_elapsed":617114,"internal_node_id":"0.0-109.0-0.0","task_version":"1.0","jspsych_version":"6.3.1","browser_interactions":0,"missing":false},{"state_1_ids":[0,1],"state_1_key":0,"state_1_choice":0,"state_1_rt":416,"transition":1,"state":0,"state_2_ids":[0,1],"state_2_key":1,"state_2_choice":1,"state_2_rt":589,"outcome":1,"rocket_colors":["#955db9","#48a782"],"planet_colors":["#5f6f81","#7f5d5d"],"screen_resolution":[2048,1152],"minimum_resolution":1,"trial":97,"drifts":[0.328,0.258,0.639,0.303],"drift_ix":0,"trial_type":"two-step-trial","trial_index":132,"time_elapsed":620133,"internal_node_id":"0.0-110.0-0.0","task_version":"1.0","jspsych_version":"6.3.1","browser_interactions":0,"missing":false},{"state_1_ids":[0,1],"state_1_key":0,"state_1_choice":0,"state_1_rt":334,"transition":0,"state":1,"state_2_ids":[2,3],"state_2_key":0,"state_2_choice":2,"state_2_rt":485,"outcome":1,"rocket_colors":["#955db9","#48a782"],"planet_colors":["#5f6f81","#7f5d5d"],"screen_resolution":[2048,1152],"minimum_resolution":1,"trial":98,"drifts":[0.381,0.256,0.661,0.29],"drift_ix":0,"trial_type":"two-step-trial","trial_index":133,"time_elapsed":622970,"internal_node_id":"0.0-111.0-0.0","task_version":"1.0","jspsych_version":"6.3.1","browser_interactions":0,"missing":false},{"state_1_ids":[1,0],"state_1_key":1,"state_1_choice":0,"state_1_rt":641,"transition":1,"state":0,"state_2_ids":[0,1],"state_2_key":1,"state_2_choice":1,"state_2_rt":429,"outcome":1,"rocket_colors":["#955db9","#48a782"],"planet_colors":["#5f6f81","#7f5d5d"],"screen_resolution":[2048,1152],"minimum_resolution":1,"trial":99,"drifts":[0.423,0.312,0.659,0.319],"drift_ix":0,"trial_type":"two-step-trial","trial_index":134,"time_elapsed":626046,"internal_node_id":"0.0-112.0-0.0","task_version":"1.0","jspsych_version":"6.3.1","browser_interactions":0,"missing":false},{"state_1_ids":[1,0],"state_1_key":1,"state_1_choice":0,"state_1_rt":581,"transition":1,"state":0,"state_2_ids":[0,1],"state_2_key":1,"state_2_choice":1,"state_2_rt":548,"outcome":0,"rocket_colors":["#955db9","#48a782"],"planet_colors":["#5f6f81","#7f5d5d"],"screen_resolution":[2048,1152],"minimum_resolution":1,"trial":100,"drifts":[0.419,0.326,0.615,0.332],"drift_ix":0,"trial_type":"two-step-trial","trial_index":135,"time_elapsed":629193,"internal_node_id":"0.0-113.0-0.0","task_version":"1.0","jspsych_version":"6.3.1","browser_interactions":0,"missing":false},{"view_history":"[{\"page_index\":0,\"viewing_time\":2497},{\"page_index\":1,\"viewing_time\":984}]","rt":3481,"trial_type":"two-step-instructions","trial_index":136,"time_elapsed":632677,"internal_node_id":"0.0-114.0","task_version":"1.0","jspsych_version":"6.3.1"},{"state_1_ids":[0,1],"state_1_key":0,"state_1_choice":0,"state_1_rt":1342,"transition":1,"state":0,"state_2_ids":[0,1],"state_2_key":0,"state_2_choice":0,"state_2_rt":557,"outcome":1,"rocket_colors":["#955db9","#48a782"],"planet_colors":["#5f6f81","#7f5d5d"],"screen_resolution":[2048,1152],"minimum_resolution":1,"trial":101,"drifts":[0.406,0.305,0.562,0.356],"drift_ix":0,"trial_type":"two-step-trial","trial_index":137,"time_elapsed":636586,"internal_node_id":"0.0-115.0-0.0","task_version":"1.0","jspsych_version":"6.3.1","browser_interactions":0,"missing":false},{"state_1_ids":[1,0],"state_1_key":1,"state_1_choice":0,"state_1_rt":508,"transition":1,"state":0,"state_2_ids":[0,1],"state_2_key":0,"state_2_choice":0,"state_2_rt":464,"outcome":0,"rocket_colors":["#955db9","#48a782"],"planet_colors":["#5f6f81","#7f5d5d"],"screen_resolution":[2048,1152],"minimum_resolution":1,"trial":102,"drifts":[0.412,0.303,0.532,0.328],"drift_ix":0,"trial_type":"two-step-trial","trial_index":138,"time_elapsed":639588,"internal_node_id":"0.0-116.0-0.0","task_version":"1.0","jspsych_version":"6.3.1","browser_interactions":0,"missing":false},{"state_1_ids":[1,0],"state_1_key":1,"state_1_choice":0,"state_1_rt":456,"transition":1,"state":0,"state_2_ids":[0,1],"state_2_key":1,"state_2_choice":1,"state_2_rt":441,"outcome":0,"rocket_colors":["#955db9","#48a782"],"planet_colors":["#5f6f81","#7f5d5d"],"screen_resolution":[2048,1152],"minimum_resolution":1,"trial":103,"drifts":[0.399,0.326,0.531,0.314],"drift_ix":0,"trial_type":"two-step-trial","trial_index":139,"time_elapsed":642504,"internal_node_id":"0.0-117.0-0.0","task_version":"1.0","jspsych_version":"6.3.1","browser_interactions":0,"missing":false},{"state_1_ids":[1,0],"state_1_key":0,"state_1_choice":1,"state_1_rt":412,"transition":0,"state":0,"state_2_ids":[0,1],"state_2_key":0,"state_2_choice":0,"state_2_rt":638,"outcome":0,"rocket_colors":["#955db9","#48a782"],"planet_colors":["#5f6f81","#7f5d5d"],"screen_resolution":[2048,1152],"minimum_resolution":1,"trial":104,"drifts":[0.398,0.313,0.576,0.303],"drift_ix":0,"trial_type":"two-step-trial","trial_index":140,"time_elapsed":645557,"internal_node_id":"0.0-118.0-0.0","task_version":"1.0","jspsych_version":"6.3.1","browser_interactions":0,"missing":false},{"state_1_ids":[0,1],"state_1_key":1,"state_1_choice":1,"state_1_rt":631,"transition":1,"state":1,"state_2_ids":[2,3],"state_2_key":0,"state_2_choice":2,"state_2_rt":442,"outcome":0,"rocket_colors":["#955db9","#48a782"],"planet_colors":["#5f6f81","#7f5d5d"],"screen_resolution":[2048,1152],"minimum_resolution":1,"trial":105,"drifts":[0.41,0.34,0.593,0.316],"drift_ix":0,"trial_type":"two-step-trial","trial_index":141,"time_elapsed":648651,"internal_node_id":"0.0-119.0-0.0","task_version":"1.0","jspsych_version":"6.3.1","browser_interactions":0,"missing":false},{"state_1_ids":[1,0],"state_1_key":0,"state_1_choice":1,"state_1_rt":506,"transition":1,"state":1,"state_2_ids":[2,3],"state_2_key":1,"state_2_choice":3,"state_2_rt":383,"outcome":0,"rocket_colors":["#955db9","#48a782"],"planet_colors":["#5f6f81","#7f5d5d"],"screen_resolution":[2048,1152],"minimum_resolution":1,"trial":106,"drifts":[0.402,0.333,0.57,0.322],"drift_ix":0,"trial_type":"two-step-trial","trial_index":142,"time_elapsed":651545,"internal_node_id":"0.0-120.0-0.0","task_version":"1.0","jspsych_version":"6.3.1","browser_interactions":0,"missing":false},{"state_1_ids":[0,1],"state_1_key":0,"state_1_choice":0,"state_1_rt":643,"transition":0,"state":1,"state_2_ids":[2,3],"state_2_key":0,"state_2_choice":2,"state_2_rt":1473,"outcome":0,"rocket_colors":["#955db9","#48a782"],"planet_colors":["#5f6f81","#7f5d5d"],"screen_resolution":[2048,1152],"minimum_resolution":1,"trial":107,"drifts":[0.408,0.274,0.566,0.316],"drift_ix":0,"trial_type":"two-step-trial","trial_index":143,"time_elapsed":655680,"internal_node_id":"0.0-121.0-0.0","task_version":"1.0","jspsych_version":"6.3.1","browser_interactions":0,"missing":false},{"state_1_ids":[1,0],"state_1_key":1,"state_1_choice":0,"state_1_rt":603,"transition":0,"state":1,"state_2_ids":[2,3],"state_2_key":0,"state_2_choice":2,"state_2_rt":746,"outcome":1,"rocket_colors":["#955db9","#48a782"],"planet_colors":["#5f6f81","#7f5d5d"],"screen_resolution":[2048,1152],"minimum_resolution":1,"trial":108,"drifts":[0.426,0.262,0.552,0.283],"drift_ix":0,"trial_type":"two-step-trial","trial_index":144,"time_elapsed":659056,"internal_node_id":"0.0-122.0-0.0","task_version":"1.0","jspsych_version":"6.3.1","browser_interactions":0,"missing":false},{"state_1_ids":[0,1],"state_1_key":0,"state_1_choice":0,"state_1_rt":580,"transition":1,"state":0,"state_2_ids":[0,1],"state_2_key":0,"state_2_choice":0,"state_2_rt":860,"outcome":1,"rocket_colors":["#955db9","#48a782"],"planet_colors":["#5f6f81","#7f5d5d"],"screen_resolution":[2048,1152],"minimum_resolution":1,"trial":109,"drifts":[0.4,0.265,0.503,0.284],"drift_ix":0,"trial_type":"two-step-trial","trial_index":145,"time_elapsed":662509,"internal_node_id":"0.0-123.0-0.0","task_version":"1.0","jspsych_version":"6.3.1","browser_interactions":0,"missing":false},{"state_1_ids":[1,0],"state_1_key":1,"state_1_choice":0,"state_1_rt":552,"transition":1,"state":0,"state_2_ids":[0,1],"state_2_key":0,"state_2_choice":0,"state_2_rt":526,"outcome":0,"rocket_colors":["#955db9","#48a782"],"planet_colors":["#5f6f81","#7f5d5d"],"screen_resolution":[2048,1152],"minimum_resolution":1,"trial":110,"drifts":[0.389,0.286,0.517,0.318],"drift_ix":0,"trial_type":"two-step-trial","trial_index":146,"time_elapsed":665589,"internal_node_id":"0.0-124.0-0.0","task_version":"1.0","jspsych_version":"6.3.1","browser_interactions":0,"missing":false},{"state_1_ids":[1,0],"state_1_key":1,"state_1_choice":0,"state_1_rt":374,"transition":0,"state":1,"state_2_ids":[2,3],"state_2_key":0,"state_2_choice":2,"state_2_rt":642,"outcome":0,"rocket_colors":["#955db9","#48a782"],"planet_colors":["#5f6f81","#7f5d5d"],"screen_resolution":[2048,1152],"minimum_resolution":1,"trial":111,"drifts":[0.389,0.289,0.505,0.348],"drift_ix":0,"trial_type":"two-step-trial","trial_index":147,"time_elapsed":668625,"internal_node_id":"0.0-125.0-0.0","task_version":"1.0","jspsych_version":"6.3.1","browser_interactions":0,"missing":false},{"state_1_ids":[0,1],"state_1_key":0,"state_1_choice":0,"state_1_rt":515,"transition":0,"state":1,"state_2_ids":[2,3],"state_2_key":1,"state_2_choice":3,"state_2_rt":511,"outcome":1,"rocket_colors":["#955db9","#48a782"],"planet_colors":["#5f6f81","#7f5d5d"],"screen_resolution":[2048,1152],"minimum_resolution":1,"trial":112,"drifts":[0.387,0.265,0.506,0.329],"drift_ix":0,"trial_type":"two-step-trial","trial_index":148,"time_elapsed":671676,"internal_node_id":"0.0-126.0-0.0","task_version":"1.0","jspsych_version":"6.3.1","browser_interactions":0,"missing":false},{"state_1_ids":[0,1],"state_1_key":0,"state_1_choice":0,"state_1_rt":448,"transition":0,"state":1,"state_2_ids":[2,3],"state_2_key":1,"state_2_choice":3,"state_2_rt":388,"outcome":0,"rocket_colors":["#955db9","#48a782"],"planet_colors":["#5f6f81","#7f5d5d"],"screen_resolution":[2048,1152],"minimum_resolution":1,"trial":113,"drifts":[0.384,0.256,0.524,0.353],"drift_ix":0,"trial_type":"two-step-trial","trial_index":149,"time_elapsed":674539,"internal_node_id":"0.0-127.0-0.0","task_version":"1.0","jspsych_version":"6.3.1","browser_interactions":0,"missing":false},{"state_1_ids":[0,1],"state_1_key":0,"state_1_choice":0,"state_1_rt":368,"transition":0,"state":1,"state_2_ids":[2,3],"state_2_key":0,"state_2_choice":2,"state_2_rt":410,"outcome":0,"rocket_colors":["#955db9","#48a782"],"planet_colors":["#5f6f81","#7f5d5d"],"screen_resolution":[2048,1152],"minimum_resolution":1,"trial":114,"drifts":[0.367,0.273,0.512,0.348],"drift_ix":0,"trial_type":"two-step-trial","trial_index":150,"time_elapsed":677340,"internal_node_id":"0.0-128.0-0.0","task_version":"1.0","jspsych_version":"6.3.1","browser_interactions":0,"missing":false},{"state_1_ids":[0,1],"state_1_key":1,"state_1_choice":1,"state_1_rt":319,"transition":1,"state":1,"state_2_ids":[2,3],"state_2_key":0,"state_2_choice":2,"state_2_rt":482,"outcome":1,"rocket_colors":["#955db9","#48a782"],"planet_colors":["#5f6f81","#7f5d5d"],"screen_resolution":[2048,1152],"minimum_resolution":1,"trial":115,"drifts":[0.323,0.276,0.502,0.358],"drift_ix":0,"trial_type":"two-step-trial","trial_index":151,"time_elapsed":680171,"internal_node_id":"0.0-129.0-0.0","task_version":"1.0","jspsych_version":"6.3.1","browser_interactions":0,"missing":false},{"state_1_ids":[0,1],"state_1_key":1,"state_1_choice":1,"state_1_rt":337,"transition":0,"state":0,"state_2_ids":[0,1],"state_2_key":0,"state_2_choice":0,"state_2_rt":630,"outcome":0,"rocket_colors":["#955db9","#48a782"],"planet_colors":["#5f6f81","#7f5d5d"],"screen_resolution":[2048,1152],"minimum_resolution":1,"trial":116,"drifts":[0.327,0.301,0.482,0.366],"drift_ix":0,"trial_type":"two-step-trial","trial_index":152,"time_elapsed":683145,"internal_node_id":"0.0-130.0-0.0","task_version":"1.0","jspsych_version":"6.3.1","browser_interactions":0,"missing":false},{"state_1_ids":[1,0],"state_1_key":0,"state_1_choice":1,"state_1_rt":507,"transition":1,"state":1,"state_2_ids":[2,3],"state_2_key":1,"state_2_choice":3,"state_2_rt":510,"outcome":0,"rocket_colors":["#955db9","#48a782"],"planet_colors":["#5f6f81","#7f5d5d"],"screen_resolution":[2048,1152],"minimum_resolution":1,"trial":117,"drifts":[0.356,0.324,0.447,0.405],"drift_ix":0,"trial_type":"two-step-trial","trial_index":153,"time_elapsed":686171,"internal_node_id":"0.0-131.0-0.0","task_version":"1.0","jspsych_version":"6.3.1","browser_interactions":0,"missing":false},{"state_1_ids":[0,1],"state_1_key":0,"state_1_choice":0,"state_1_rt":280,"transition":1,"state":0,"state_2_ids":[0,1],"state_2_key":0,"state_2_choice":0,"state_2_rt":552,"outcome":0,"rocket_colors":["#955db9","#48a782"],"planet_colors":["#5f6f81","#7f5d5d"],"screen_resolution":[2048,1152],"minimum_resolution":1,"trial":118,"drifts":[0.346,0.346,0.451,0.456],"drift_ix":0,"trial_type":"two-step-trial","trial_index":154,"time_elapsed":689014,"internal_node_id":"0.0-132.0-0.0","task_version":"1.0","jspsych_version":"6.3.1","browser_interactions":0,"missing":false},{"state_1_ids":[1,0],"state_1_key":0,"state_1_choice":1,"state_1_rt":525,"transition":1,"state":1,"state_2_ids":[2,3],"state_2_key":0,"state_2_choice":2,"state_2_rt":555,"outcome":0,"rocket_colors":["#955db9","#48a782"],"planet_colors":["#5f6f81","#7f5d5d"],"screen_resolution":[2048,1152],"minimum_resolution":1,"trial":119,"drifts":[0.307,0.341,0.511,0.496],"drift_ix":0,"trial_type":"two-step-trial","trial_index":155,"time_elapsed":692112,"internal_node_id":"0.0-133.0-0.0","task_version":"1.0","jspsych_version":"6.3.1","browser_interactions":0,"missing":false},{"state_1_ids":[0,1],"state_1_key":1,"state_1_choice":1,"state_1_rt":516,"transition":1,"state":1,"state_2_ids":[2,3],"state_2_key":1,"state_2_choice":3,"state_2_rt":461,"outcome":0,"rocket_colors":["#955db9","#48a782"],"planet_colors":["#5f6f81","#7f5d5d"],"screen_resolution":[2048,1152],"minimum_resolution":1,"trial":120,"drifts":[0.301,0.307,0.523,0.5],"drift_ix":0,"trial_type":"two-step-trial","trial_index":156,"time_elapsed":695093,"internal_node_id":"0.0-134.0-0.0","task_version":"1.0","jspsych_version":"6.3.1","browser_interactions":0,"missing":false},{"state_1_ids":[1,0],"state_1_key":1,"state_1_choice":0,"state_1_rt":542,"transition":0,"state":1,"state_2_ids":[2,3],"state_2_key":0,"state_2_choice":2,"state_2_rt":519,"outcome":1,"rocket_colors":["#955db9","#48a782"],"planet_colors":["#5f6f81","#7f5d5d"],"screen_resolution":[2048,1152],"minimum_resolution":1,"trial":121,"drifts":[0.288,0.297,0.519,0.491],"drift_ix":0,"trial_type":"two-step-trial","trial_index":157,"time_elapsed":698175,"internal_node_id":"0.0-135.0-0.0","task_version":"1.0","jspsych_version":"6.3.1","browser_interactions":0,"missing":false},{"state_1_ids":[0,1],"state_1_key":0,"state_1_choice":0,"state_1_rt":532,"transition":1,"state":0,"state_2_ids":[0,1],"state_2_key":0,"state_2_choice":0,"state_2_rt":670,"outcome":0,"rocket_colors":["#955db9","#48a782"],"planet_colors":["#5f6f81","#7f5d5d"],"screen_resolution":[2048,1152],"minimum_resolution":1,"trial":122,"drifts":[0.275,0.313,0.525,0.507],"drift_ix":0,"trial_type":"two-step-trial","trial_index":158,"time_elapsed":701384,"internal_node_id":"0.0-136.0-0.0","task_version":"1.0","jspsych_version":"6.3.1","browser_interactions":0,"missing":false},{"state_1_ids":[0,1],"state_1_key":0,"state_1_choice":0,"state_1_rt":396,"transition":1,"state":0,"state_2_ids":[0,1],"state_2_key":1,"state_2_choice":1,"state_2_rt":397,"outcome":1,"rocket_colors":["#955db9","#48a782"],"planet_colors":["#5f6f81","#7f5d5d"],"screen_resolution":[2048,1152],"minimum_resolution":1,"trial":123,"drifts":[0.288,0.279,0.473,0.464],"drift_ix":0,"trial_type":"two-step-trial","trial_index":159,"time_elapsed":704187,"internal_node_id":"0.0-137.0-0.0","task_version":"1.0","jspsych_version":"6.3.1","browser_interactions":0,"missing":false},{"state_1_ids":[1,0],"state_1_key":1,"state_1_choice":0,"state_1_rt":529,"transition":1,"state":0,"state_2_ids":[0,1],"state_2_key":1,"state_2_choice":1,"state_2_rt":366,"outcome":0,"rocket_colors":["#955db9","#48a782"],"planet_colors":["#5f6f81","#7f5d5d"],"screen_resolution":[2048,1152],"minimum_resolution":1,"trial":124,"drifts":[0.287,0.296,0.496,0.443],"drift_ix":0,"trial_type":"two-step-trial","trial_index":160,"time_elapsed":707098,"internal_node_id":"0.0-138.0-0.0","task_version":"1.0","jspsych_version":"6.3.1","browser_interactions":0,"missing":false},{"state_1_ids":[1,0],"state_1_key":1,"state_1_choice":0,"state_1_rt":746,"transition":0,"state":1,"state_2_ids":[2,3],"state_2_key":0,"state_2_choice":2,"state_2_rt":339,"outcome":0,"rocket_colors":["#955db9","#48a782"],"planet_colors":["#5f6f81","#7f5d5d"],"screen_resolution":[2048,1152],"minimum_resolution":1,"trial":125,"drifts":[0.26,0.276,0.477,0.451],"drift_ix":0,"trial_type":"two-step-trial","trial_index":161,"time_elapsed":710189,"internal_node_id":"0.0-139.0-0.0","task_version":"1.0","jspsych_version":"6.3.1","browser_interactions":0,"missing":false},{"state_1_ids":[1,0],"state_1_key":1,"state_1_choice":0,"state_1_rt":455,"transition":1,"state":0,"state_2_ids":[0,1],"state_2_key":1,"state_2_choice":1,"state_2_rt":638,"outcome":0,"rocket_colors":["#955db9","#48a782"],"planet_colors":["#5f6f81","#7f5d5d"],"screen_resolution":[2048,1152],"minimum_resolution":1,"trial":126,"drifts":[0.283,0.285,0.494,0.477],"drift_ix":0,"trial_type":"two-step-trial","trial_index":162,"time_elapsed":713299,"internal_node_id":"0.0-140.0-0.0","task_version":"1.0","jspsych_version":"6.3.1","browser_interactions":0,"missing":false},{"state_1_ids":[0,1],"state_1_key":0,"state_1_choice":0,"state_1_rt":520,"transition":1,"state":0,"state_2_ids":[0,1],"state_2_key":0,"state_2_choice":0,"state_2_rt":472,"outcome":0,"rocket_colors":["#955db9","#48a782"],"planet_colors":["#5f6f81","#7f5d5d"],"screen_resolution":[2048,1152],"minimum_resolution":1,"trial":127,"drifts":[0.285,0.251,0.493,0.518],"drift_ix":0,"trial_type":"two-step-trial","trial_index":163,"time_elapsed":716307,"internal_node_id":"0.0-141.0-0.0","task_version":"1.0","jspsych_version":"6.3.1","browser_interactions":0,"missing":false},{"state_1_ids":[1,0],"state_1_key":1,"state_1_choice":0,"state_1_rt":456,"transition":1,"state":0,"state_2_ids":[0,1],"state_2_key":1,"state_2_choice":1,"state_2_rt":420,"outcome":0,"rocket_colors":["#955db9","#48a782"],"planet_colors":["#5f6f81","#7f5d5d"],"screen_resolution":[2048,1152],"minimum_resolution":1,"trial":128,"drifts":[0.285,0.278,0.495,0.479],"drift_ix":0,"trial_type":"two-step-trial","trial_index":164,"time_elapsed":719203,"internal_node_id":"0.0-142.0-0.0","task_version":"1.0","jspsych_version":"6.3.1","browser_interactions":0,"missing":false},{"state_1_ids":[0,1],"state_1_key":1,"state_1_choice":1,"state_1_rt":529,"transition":0,"state":0,"state_2_ids":[0,1],"state_2_key":0,"state_2_choice":0,"state_2_rt":604,"outcome":0,"rocket_colors":["#955db9","#48a782"],"planet_colors":["#5f6f81","#7f5d5d"],"screen_resolution":[2048,1152],"minimum_resolution":1,"trial":129,"drifts":[0.304,0.316,0.486,0.459],"drift_ix":0,"trial_type":"two-step-trial","trial_index":165,"time_elapsed":722346,"internal_node_id":"0.0-143.0-0.0","task_version":"1.0","jspsych_version":"6.3.1","browser_interactions":0,"missing":false},{"state_1_ids":[0,1],"state_1_key":0,"state_1_choice":0,"state_1_rt":521,"transition":1,"state":0,"state_2_ids":[0,1],"state_2_key":0,"state_2_choice":0,"state_2_rt":502,"outcome":0,"rocket_colors":["#955db9","#48a782"],"planet_colors":["#5f6f81","#7f5d5d"],"screen_resolution":[2048,1152],"minimum_resolution":1,"trial":130,"drifts":[0.279,0.291,0.485,0.452],"drift_ix":0,"trial_type":"two-step-trial","trial_index":166,"time_elapsed":725373,"internal_node_id":"0.0-144.0-0.0","task_version":"1.0","jspsych_version":"6.3.1","browser_interactions":0,"missing":false},{"state_1_ids":[1,0],"state_1_key":0,"state_1_choice":1,"state_1_rt":613,"transition":1,"state":1,"state_2_ids":[2,3],"state_2_key":0,"state_2_choice":2,"state_2_rt":532,"outcome":0,"rocket_colors":["#955db9","#48a782"],"planet_colors":["#5f6f81","#7f5d5d"],"screen_resolution":[2048,1152],"minimum_resolution":1,"trial":131,"drifts":[0.257,0.293,0.476,0.442],"drift_ix":0,"trial_type":"two-step-trial","trial_index":167,"time_elapsed":728537,"internal_node_id":"0.0-145.0-0.0","task_version":"1.0","jspsych_version":"6.3.1","browser_interactions":0,"missing":false},{"state_1_ids":[1,0],"state_1_key":0,"state_1_choice":1,"state_1_rt":450,"transition":1,"state":1,"state_2_ids":[2,3],"state_2_key":1,"state_2_choice":3,"state_2_rt":375,"outcome":1,"rocket_colors":["#955db9","#48a782"],"planet_colors":["#5f6f81","#7f5d5d"],"screen_resolution":[2048,1152],"minimum_resolution":1,"trial":132,"drifts":[0.267,0.335,0.408,0.456],"drift_ix":0,"trial_type":"two-step-trial","trial_index":168,"time_elapsed":731384,"internal_node_id":"0.0-146.0-0.0","task_version":"1.0","jspsych_version":"6.3.1","browser_interactions":0,"missing":false},{"state_1_ids":[1,0],"state_1_key":0,"state_1_choice":1,"state_1_rt":451,"transition":1,"state":1,"state_2_ids":[2,3],"state_2_key":1,"state_2_choice":3,"state_2_rt":398,"outcome":0,"rocket_colors":["#955db9","#48a782"],"planet_colors":["#5f6f81","#7f5d5d"],"screen_resolution":[2048,1152],"minimum_resolution":1,"trial":133,"drifts":[0.254,0.359,0.444,0.42],"drift_ix":0,"trial_type":"two-step-trial","trial_index":169,"time_elapsed":734249,"internal_node_id":"0.0-147.0-0.0","task_version":"1.0","jspsych_version":"6.3.1","browser_interactions":0,"missing":false},{"state_1_ids":[1,0],"state_1_key":0,"state_1_choice":1,"state_1_rt":442,"transition":1,"state":1,"state_2_ids":[2,3],"state_2_key":1,"state_2_choice":3,"state_2_rt":359,"outcome":0,"rocket_colors":["#955db9","#48a782"],"planet_colors":["#5f6f81","#7f5d5d"],"screen_resolution":[2048,1152],"minimum_resolution":1,"trial":134,"drifts":[0.265,0.371,0.443,0.419],"drift_ix":0,"trial_type":"two-step-trial","trial_index":170,"time_elapsed":737078,"internal_node_id":"0.0-148.0-0.0","task_version":"1.0","jspsych_version":"6.3.1","browser_interactions":0,"missing":false},{"state_1_ids":[0,1],"state_1_key":1,"state_1_choice":1,"state_1_rt":717,"transition":0,"state":0,"state_2_ids":[0,1],"state_2_key":0,"state_2_choice":0,"state_2_rt":325,"outcome":0,"rocket_colors":["#955db9","#48a782"],"planet_colors":["#5f6f81","#7f5d5d"],"screen_resolution":[2048,1152],"minimum_resolution":1,"trial":135,"drifts":[0.272,0.34,0.465,0.386],"drift_ix":0,"trial_type":"two-step-trial","trial_index":171,"time_elapsed":740141,"internal_node_id":"0.0-149.0-0.0","task_version":"1.0","jspsych_version":"6.3.1","browser_interactions":0,"missing":false},{"state_1_ids":[1,0],"state_1_key":1,"state_1_choice":0,"state_1_rt":774,"transition":1,"state":0,"state_2_ids":[0,1],"state_2_key":1,"state_2_choice":1,"state_2_rt":424,"outcome":0,"rocket_colors":["#955db9","#48a782"],"planet_colors":["#5f6f81","#7f5d5d"],"screen_resolution":[2048,1152],"minimum_resolution":1,"trial":136,"drifts":[0.291,0.34,0.503,0.372],"drift_ix":0,"trial_type":"two-step-trial","trial_index":172,"time_elapsed":743355,"internal_node_id":"0.0-150.0-0.0","task_version":"1.0","jspsych_version":"6.3.1","browser_interactions":0,"missing":false},{"state_1_ids":[0,1],"state_1_key":0,"state_1_choice":0,"state_1_rt":544,"transition":0,"state":1,"state_2_ids":[2,3],"state_2_key":0,"state_2_choice":2,"state_2_rt":777,"outcome":0,"rocket_colors":["#955db9","#48a782"],"planet_colors":["#5f6f81","#7f5d5d"],"screen_resolution":[2048,1152],"minimum_resolution":1,"trial":137,"drifts":[0.25,0.307,0.498,0.357],"drift_ix":0,"trial_type":"two-step-trial","trial_index":173,"time_elapsed":746695,"internal_node_id":"0.0-151.0-0.0","task_version":"1.0","jspsych_version":"6.3.1","browser_interactions":0,"missing":false},{"state_1_ids":[1,0],"state_1_key":1,"state_1_choice":0,"state_1_rt":461,"transition":1,"state":0,"state_2_ids":[0,1],"state_2_key":1,"state_2_choice":1,"state_2_rt":466,"outcome":1,"rocket_colors":["#955db9","#48a782"],"planet_colors":["#5f6f81","#7f5d5d"],"screen_resolution":[2048,1152],"minimum_resolution":1,"trial":138,"drifts":[0.265,0.293,0.462,0.319],"drift_ix":0,"trial_type":"two-step-trial","trial_index":174,"time_elapsed":749649,"internal_node_id":"0.0-152.0-0.0","task_version":"1.0","jspsych_version":"6.3.1","browser_interactions":0,"missing":false},{"state_1_ids":[1,0],"state_1_key":1,"state_1_choice":0,"state_1_rt":667,"transition":1,"state":0,"state_2_ids":[0,1],"state_2_key":1,"state_2_choice":1,"state_2_rt":393,"outcome":0,"rocket_colors":["#955db9","#48a782"],"planet_colors":["#5f6f81","#7f5d5d"],"screen_resolution":[2048,1152],"minimum_resolution":1,"trial":139,"drifts":[0.268,0.317,0.494,0.325],"drift_ix":0,"trial_type":"two-step-trial","trial_index":175,"time_elapsed":752728,"internal_node_id":"0.0-153.0-0.0","task_version":"1.0","jspsych_version":"6.3.1","browser_interactions":0,"missing":false},{"state_1_ids":[0,1],"state_1_key":0,"state_1_choice":0,"state_1_rt":541,"transition":0,"state":1,"state_2_ids":[2,3],"state_2_key":0,"state_2_choice":2,"state_2_rt":524,"outcome":1,"rocket_colors":["#955db9","#48a782"],"planet_colors":["#5f6f81","#7f5d5d"],"screen_resolution":[2048,1152],"minimum_resolution":1,"trial":140,"drifts":[0.276,0.319,0.471,0.343],"drift_ix":0,"trial_type":"two-step-trial","trial_index":176,"time_elapsed":755799,"internal_node_id":"0.0-154.0-0.0","task_version":"1.0","jspsych_version":"6.3.1","browser_interactions":0,"missing":false},{"state_1_ids":[0,1],"state_1_key":0,"state_1_choice":0,"state_1_rt":437,"transition":1,"state":0,"state_2_ids":[0,1],"state_2_key":0,"state_2_choice":0,"state_2_rt":495,"outcome":0,"rocket_colors":["#955db9","#48a782"],"planet_colors":["#5f6f81","#7f5d5d"],"screen_resolution":[2048,1152],"minimum_resolution":1,"trial":141,"drifts":[0.261,0.318,0.465,0.338],"drift_ix":0,"trial_type":"two-step-trial","trial_index":177,"time_elapsed":758751,"internal_node_id":"0.0-155.0-0.0","task_version":"1.0","jspsych_version":"6.3.1","browser_interactions":0,"missing":false},{"state_1_ids":[0,1],"state_1_key":1,"state_1_choice":1,"state_1_rt":540,"transition":1,"state":1,"state_2_ids":[2,3],"state_2_key":0,"state_2_choice":2,"state_2_rt":548,"outcome":1,"rocket_colors":["#955db9","#48a782"],"planet_colors":["#5f6f81","#7f5d5d"],"screen_resolution":[2048,1152],"minimum_resolution":1,"trial":142,"drifts":[0.269,0.269,0.465,0.359],"drift_ix":0,"trial_type":"two-step-trial","trial_index":178,"time_elapsed":761858,"internal_node_id":"0.0-156.0-0.0","task_version":"1.0","jspsych_version":"6.3.1","browser_interactions":0,"missing":false},{"state_1_ids":[1,0],"state_1_key":0,"state_1_choice":1,"state_1_rt":537,"transition":0,"state":0,"state_2_ids":[0,1],"state_2_key":0,"state_2_choice":0,"state_2_rt":1724,"outcome":0,"rocket_colors":["#955db9","#48a782"],"planet_colors":["#5f6f81","#7f5d5d"],"screen_resolution":[2048,1152],"minimum_resolution":1,"trial":143,"drifts":[0.288,0.255,0.464,0.364],"drift_ix":0,"trial_type":"two-step-trial","trial_index":179,"time_elapsed":766144,"internal_node_id":"0.0-157.0-0.0","task_version":"1.0","jspsych_version":"6.3.1","browser_interactions":0,"missing":false},{"state_1_ids":[1,0],"state_1_key":0,"state_1_choice":1,"state_1_rt":378,"transition":1,"state":1,"state_2_ids":[2,3],"state_2_key":0,"state_2_choice":2,"state_2_rt":387,"outcome":1,"rocket_colors":["#955db9","#48a782"],"planet_colors":["#5f6f81","#7f5d5d"],"screen_resolution":[2048,1152],"minimum_resolution":1,"trial":144,"drifts":[0.311,0.284,0.439,0.335],"drift_ix":0,"trial_type":"two-step-trial","trial_index":180,"time_elapsed":768926,"internal_node_id":"0.0-158.0-0.0","task_version":"1.0","jspsych_version":"6.3.1","browser_interactions":0,"missing":false},{"state_1_ids":[0,1],"state_1_key":1,"state_1_choice":1,"state_1_rt":542,"transition":1,"state":1,"state_2_ids":[2,3],"state_2_key":0,"state_2_choice":2,"state_2_rt":447,"outcome":0,"rocket_colors":["#955db9","#48a782"],"planet_colors":["#5f6f81","#7f5d5d"],"screen_resolution":[2048,1152],"minimum_resolution":1,"trial":145,"drifts":[0.291,0.284,0.413,0.345],"drift_ix":0,"trial_type":"two-step-trial","trial_index":181,"time_elapsed":771937,"internal_node_id":"0.0-159.0-0.0","task_version":"1.0","jspsych_version":"6.3.1","browser_interactions":0,"missing":false},{"state_1_ids":[1,0],"state_1_key":0,"state_1_choice":1,"state_1_rt":538,"transition":1,"state":1,"state_2_ids":[2,3],"state_2_key":1,"state_2_choice":3,"state_2_rt":344,"outcome":0,"rocket_colors":["#955db9","#48a782"],"planet_colors":["#5f6f81","#7f5d5d"],"screen_resolution":[2048,1152],"minimum_resolution":1,"trial":146,"drifts":[0.289,0.292,0.421,0.344],"drift_ix":0,"trial_type":"two-step-trial","trial_index":182,"time_elapsed":774832,"internal_node_id":"0.0-160.0-0.0","task_version":"1.0","jspsych_version":"6.3.1","browser_interactions":0,"missing":false},{"state_1_ids":[1,0],"state_1_key":1,"state_1_choice":0,"state_1_rt":443,"transition":1,"state":0,"state_2_ids":[0,1],"state_2_key":0,"state_2_choice":0,"state_2_rt":502,"outcome":0,"rocket_colors":["#955db9","#48a782"],"planet_colors":["#5f6f81","#7f5d5d"],"screen_resolution":[2048,1152],"minimum_resolution":1,"trial":147,"drifts":[0.299,0.296,0.457,0.356],"drift_ix":0,"trial_type":"two-step-trial","trial_index":183,"time_elapsed":777791,"internal_node_id":"0.0-161.0-0.0","task_version":"1.0","jspsych_version":"6.3.1","browser_interactions":0,"missing":false},{"state_1_ids":[1,0],"state_1_key":1,"state_1_choice":0,"state_1_rt":389,"transition":1,"state":0,"state_2_ids":[0,1],"state_2_key":1,"state_2_choice":1,"state_2_rt":338,"outcome":0,"rocket_colors":["#955db9","#48a782"],"planet_colors":["#5f6f81","#7f5d5d"],"screen_resolution":[2048,1152],"minimum_resolution":1,"trial":148,"drifts":[0.264,0.313,0.451,0.366],"drift_ix":0,"trial_type":"two-step-trial","trial_index":184,"time_elapsed":780526,"internal_node_id":"0.0-162.0-0.0","task_version":"1.0","jspsych_version":"6.3.1","browser_interactions":0,"missing":false},{"state_1_ids":[1,0],"state_1_key":0,"state_1_choice":1,"state_1_rt":526,"transition":1,"state":1,"state_2_ids":[2,3],"state_2_key":0,"state_2_choice":2,"state_2_rt":421,"outcome":0,"rocket_colors":["#955db9","#48a782"],"planet_colors":["#5f6f81","#7f5d5d"],"screen_resolution":[2048,1152],"minimum_resolution":1,"trial":149,"drifts":[0.272,0.36,0.455,0.385],"drift_ix":0,"trial_type":"two-step-trial","trial_index":185,"time_elapsed":783496,"internal_node_id":"0.0-163.0-0.0","task_version":"1.0","jspsych_version":"6.3.1","browser_interactions":0,"missing":false},{"state_1_ids":[0,1],"state_1_key":1,"state_1_choice":1,"state_1_rt":482,"transition":1,"state":1,"state_2_ids":[2,3],"state_2_key":1,"state_2_choice":3,"state_2_rt":439,"outcome":0,"rocket_colors":["#955db9","#48a782"],"planet_colors":["#5f6f81","#7f5d5d"],"screen_resolution":[2048,1152],"minimum_resolution":1,"trial":150,"drifts":[0.282,0.392,0.477,0.39],"drift_ix":0,"trial_type":"two-step-trial","trial_index":186,"time_elapsed":786432,"internal_node_id":"0.0-164.0-0.0","task_version":"1.0","jspsych_version":"6.3.1","browser_interactions":0,"missing":false},{"state_1_ids":[0,1],"state_1_key":0,"state_1_choice":0,"state_1_rt":388,"transition":1,"state":0,"state_2_ids":[0,1],"state_2_key":0,"state_2_choice":0,"state_2_rt":499,"outcome":1,"rocket_colors":["#955db9","#48a782"],"planet_colors":["#5f6f81","#7f5d5d"],"screen_resolution":[2048,1152],"minimum_resolution":1,"trial":151,"drifts":[0.287,0.367,0.491,0.353],"drift_ix":0,"trial_type":"two-step-trial","trial_index":187,"time_elapsed":789347,"internal_node_id":"0.0-165.0-0.0","task_version":"1.0","jspsych_version":"6.3.1","browser_interactions":0,"missing":false},{"state_1_ids":[1,0],"state_1_key":1,"state_1_choice":0,"state_1_rt":576,"transition":1,"state":0,"state_2_ids":[0,1],"state_2_key":0,"state_2_choice":0,"state_2_rt":591,"outcome":0,"rocket_colors":["#955db9","#48a782"],"planet_colors":["#5f6f81","#7f5d5d"],"screen_resolution":[2048,1152],"minimum_resolution":1,"trial":152,"drifts":[0.308,0.389,0.483,0.367],"drift_ix":0,"trial_type":"two-step-trial","trial_index":188,"time_elapsed":792538,"internal_node_id":"0.0-166.0-0.0","task_version":"1.0","jspsych_version":"6.3.1","browser_interactions":0,"