[{"success":true,"timeout":false,"failed_images":[],"failed_audio":[],"failed_video":[],"trial_type":"preload","trial_index":0,"time_elapsed":727,"internal_node_id":"0.0-0.0","task_version":"1.0","jspsych_version":"6.3.1"},{"success":true,"trial_type":"fullscreen","trial_index":1,"time_elapsed":4827,"internal_node_id":"0.0-1.0","task_version":"1.0","jspsych_version":"6.3.1"},{"view_history":[{"page_index":0,"viewing_time":3354.2999999821186}],"rt":3354.399999976158,"trial_type":"instructions","trial_index":2,"time_elapsed":8183,"internal_node_id":"0.0-2.0","task_version":"1.0","jspsych_version":"6.3.1"},{"responses":{"Q03":"4","Q02":"4","Q04":"4","Q05":"4","Q06":"4","Q01":"6","Q07":"0"},"rt":22960,"item_order":[2,1,3,4,5,0,6],"radio_events":[3380.7999999821186,4628.699999988079,6181.699999988079,11533.699999988079,15158.799999982119,17782.09999999404,21863.79999998212],"key_events":[],"mouse_events":[0.19999998807907104,2628.4000000059605,3380.7999999821186,4628.699999988079,6181.699999988079,11533.699999988079,15158.799999982119,17782.09999999404,20422.5,21863.79999998212,22959],"straightlining":0.7142857142857143,"zigzagging":0.16666666666666666,"honeypot":0,"survey":"greed","trial_type":"survey-template","trial_index":3,"time_elapsed":31148,"internal_node_id":"0.0-3.0","task_version":"1.0","jspsych_version":"6.3.1"},{"responses":{"Q04":"6","Q06":"6","Q02":"5","Q03":"5","Q05":"6","Q01":"0","Q07":"3"},"rt":14766.5,"item_order":[3,5,1,2,4,0,6],"radio_events":[2210.5999999940395,4099.9000000059605,5979,8971.40000000596,11643.699999988079,12492.199999988079,13925.199999988079],"key_events":[],"mouse_events":[2210.5999999940395,4099.9000000059605,5979,7931.4000000059605,8971.40000000596,11003.699999988079,11643.699999988079,12492.199999988079,13925.199999988079,14765.59999999404],"straightlining":0.42857142857142855,"zigzagging":0.3333333333333333,"honeypot":0,"survey":"artistic","trial_type":"survey-template","trial_index":4,"time_elapsed":45919,"internal_node_id":"0.0-4.0","task_version":"1.0","jspsych_version":"6.3.1"},{"responses":{"Q01":"2","Q04":"1","Q08":"0","Q02":"2","Q05":"2","Q06":"1","Q03":"1","Q07":"1"},"rt":41759.09999999404,"item_order":[0,3,7,1,4,5,2,6],"radio_events":[14004.299999982119,17892.5,24340.29999998212,30429.90000000596,31414.59999999404,37222.79999998212,39935.40000000596,41103.90000000596],"key_events":[],"mouse_events":[12410.699999988079,13459.799999982119,14004.299999982119,17892.5,24340.29999998212,28292.79999998212,30429.90000000596,31414.59999999404,37222.79999998212,39935.40000000596,41103.90000000596,41758.5],"straightlining":0.5,"zigzagging":0.42857142857142855,"honeypot":0,"survey":"depression","trial_type":"survey-template","trial_index":5,"time_elapsed":87682,"internal_node_id":"0.0-5.0","task_version":"1.0","jspsych_version":"6.3.1"},{"responses":{"Q05":"2","Q07":"3","Q04":"3","Q03":"2","Q06":"3","Q02":"3","Q01":"3","Q08":"0"},"rt":17606.100000023842,"item_order":[4,6,3,2,5,1,0,7],"radio_events":[3932.2000000178814,6924.4000000059605,8069.600000023842,10220.700000017881,12013.800000011921,13429,14374.200000017881,16638.5],"key_events":[],"mouse_events":[3932.2000000178814,6924.4000000059605,8069.600000023842,10220.700000017881,12013.800000011921,13429,14374.200000017881,16638.5,17605.5],"straightlining":0.625,"zigzagging":0.5714285714285714,"honeypot":0,"survey":"anxiety","trial_type":"survey-template","trial_index":6,"time_elapsed":105293,"internal_node_id":"0.0-6.0","task_version":"1.0","jspsych_version":"6.3.1"},{"responses":{"Q07":"3","Q03":"0","Q06":"1","Q05":"0","Q08":"3","Q04":"0","Q01":"0","Q02":"1"},"rt":63748.90000000596,"item_order":[6,2,5,4,7,3,0,1],"radio_events":[11997,20158.90000000596,26351.40000000596,30040.20000001788,36809.20000001788,42033.40000000596,44290,62636.09999999404],"key_events":[],"mouse_events":[11997,18454.70000001788,19142.70000001788,20158.90000000596,26351.40000000596,30040.20000001788,36809.20000001788,42033.40000000596,44290,62636.09999999404,63748.40000000596],"straightlining":0.5,"zigzagging":0.8571428571428571,"honeypot":0,"survey":"mania","trial_type":"survey-template","trial_index":7,"time_elapsed":169046,"internal_node_id":"0.0-7.0","task_version":"1.0","jspsych_version":"6.3.1"},{"view_history":"[{\"page_index\":0,\"viewing_time\":4154.0999999940395},{\"page_index\":1,\"viewing_time\":2792.2000000178814},{\"page_index\":2,\"viewing_time\":1904.5999999940395},{\"page_index\":3,\"viewing_time\":3872.199999988079},{\"page_index\":4,\"viewing_time\":2744.2000000178814},{\"page_index\":5,\"viewing_time\":2184.5},{\"page_index\":6,\"viewing_time\":1296},{\"page_index\":7,\"viewing_time\":5014.399999976158},{\"page_index\":8,\"viewing_time\":2222.2000000178814},{\"page_index\":9,\"viewing_time\":4952.699999988079},{\"page_index\":10,\"viewing_time\":2284.5999999940395}]","rt":33422,"trial_type":"two-step-instructions","trial_index":8,"time_elapsed":202473,"internal_node_id":"0.0-8.0-1.0","task_version":"1.0","jspsych_version":"6.3.1"},{"responses":["left/right arrow keys","True","True"],"num_errors":0,"rt":10677.800000011921,"quiz":1,"trial_type":"two-step-comprehension","trial_index":9,"time_elapsed":213155,"internal_node_id":"0.0-8.0-2.0","task_version":"1.0","jspsych_version":"6.3.1"},{"view_history":"[{\"page_index\":0,\"viewing_time\":4070.4000000059605}]","rt":4070.4000000059605,"phase":"instructions_1b","trial_type":"two-step-instructions","trial_index":10,"time_elapsed":217231,"internal_node_id":"0.0-9.0-0.0-0.0","task_version":"1.0","jspsych_version":"6.3.1"},{"state_2_ids":[0,1],"state_2_key":1,"state_2_choice":1,"state_2_rt":2612.2999999821186,"outcome":1,"screen_resolution":[1920,1080],"minimum_resolution":1,"trial_type":"alien-practice","trial_index":11,"time_elapsed":222049,"internal_node_id":"0.0-9.0-1.0-0.0","task_version":"1.0","jspsych_version":"6.3.1"},{"state_2_ids":[0,1],"state_2_key":1,"state_2_choice":1,"state_2_rt":911.1999999880791,"outcome":0,"screen_resolution":[1920,1080],"minimum_resolution":1,"trial_type":"alien-practice","trial_index":12,"time_elapsed":225178,"internal_node_id":"0.0-9.0-2.0-0.0","task_version":"1.0","jspsych_version":"6.3.1"},{"state_2_ids":[0,1],"state_2_key":1,"state_2_choice":1,"state_2_rt":746.6999999880791,"outcome":1,"screen_resolution":[1920,1080],"minimum_resolution":1,"trial_type":"alien-practice","trial_index":13,"time_elapsed":228129,"internal_node_id":"0.0-9.0-3.0-0.0","task_version":"1.0","jspsych_version":"6.3.1"},{"state_2_ids":[0,1],"state_2_key":0,"state_2_choice":0,"state_2_rt":530.8999999761581,"outcome":0,"screen_resolution":[1920,1080],"minimum_resolution":1,"trial_type":"alien-practice","trial_index":14,"time_elapsed":230865,"internal_node_id":"0.0-9.0-4.0-0.0","task_version":"1.0","jspsych_version":"6.3.1"},{"state_2_ids":[0,1],"state_2_key":1,"state_2_choice":1,"state_2_rt":1403.300000011921,"outcome":1,"screen_resolution":[1920,1080],"minimum_resolution":1,"trial_type":"alien-practice","trial_index":15,"time_elapsed":234474,"internal_node_id":"0.0-9.0-5.0-0.0","task_version":"1.0","jspsych_version":"6.3.1"},{"state_2_ids":[0,1],"state_2_key":1,"state_2_choice":1,"state_2_rt":1163.0999999940395,"outcome":1,"screen_resolution":[1920,1080],"minimum_resolution":1,"trial_type":"alien-practice","trial_index":16,"time_elapsed":237841,"internal_node_id":"0.0-9.0-6.0-0.0","task_version":"1.0","jspsych_version":"6.3.1"},{"state_2_ids":[0,1],"state_2_key":1,"state_2_choice":1,"state_2_rt":620.1999999880791,"outcome":1,"screen_resolution":[1920,1080],"minimum_resolution":1,"trial_type":"alien-practice","trial_index":17,"time_elapsed":240666,"internal_node_id":"0.0-9.0-7.0-0.0","task_version":"1.0","jspsych_version":"6.3.1"},{"view_history":"[{\"page_index\":0,\"viewing_time\":4336},{\"page_index\":1,\"viewing_time\":2080.600000023842},{\"page_index\":2,\"viewing_time\":3584.2999999821186},{\"page_index\":3,\"viewing_time\":4304.300000011921},{\"page_index\":4,\"viewing_time\":3008.7999999821186},{\"page_index\":5,\"viewing_time\":1231.800000011921}]","rt":18546,"trial_type":"two-step-instructions","trial_index":18,"time_elapsed":259217,"internal_node_id":"0.0-10.0-1.0","task_version":"1.0","jspsych_version":"6.3.1"},{"responses":["left/right arrow keys","False","True"],"num_errors":0,"rt":8437.40000000596,"quiz":2,"trial_type":"two-step-comprehension","trial_index":19,"time_elapsed":267658,"internal_node_id":"0.0-10.0-2.0","task_version":"1.0","jspsych_version":"6.3.1"},{"view_history":"[{\"page_index\":0,\"viewing_time\":3467.4000000059605},{\"page_index\":1,\"viewing_time\":3080.4000000059605},{\"page_index\":2,\"viewing_time\":7001}]","rt":13549,"trial_type":"two-step-instructions","trial_index":20,"time_elapsed":281212,"internal_node_id":"0.0-11.0-0.0","task_version":"1.0","jspsych_version":"6.3.1"},{"state_1_ids":[1,0],"state_1_key":1,"state_1_choice":0,"state_1_rt":1846.5,"transition":1,"state":0,"state_2_ids":[0,1],"state_2_key":1,"state_2_choice":1,"state_2_rt":6087.5,"outcome":0,"rocket_colors":["#a75248","#486ea7"],"planet_colors":["#706081","#5b7c65"],"screen_resolution":[1920,1080],"minimum_resolution":1,"trial":0,"trial_type":"two-step-trial","trial_index":21,"time_elapsed":291154,"internal_node_id":"0.0-11.0-1.0-0.0","task_version":"1.0","jspsych_version":"6.3.1","missing":false},{"state_1_ids":[0,1],"state_1_key":0,"state_1_choice":0,"state_1_rt":1428.300000011921,"transition":1,"state":0,"state_2_ids":[0,1],"state_2_key":1,"state_2_choice":1,"state_2_rt":1046.4000000059605,"outcome":0,"rocket_colors":["#a75248","#486ea7"],"planet_colors":["#706081","#5b7c65"],"screen_resolution":[1920,1080],"minimum_resolution":1,"trial":0,"trial_type":"two-step-trial","trial_index":22,"time_elapsed":295634,"internal_node_id":"0.0-11.0-1.0-0.1","task_version":"1.0","jspsych_version":"6.3.1","missing":false},{"state_1_ids":[0,1],"state_1_key":0,"state_1_choice":0,"state_1_rt":2020.2000000178814,"transition":1,"state":0,"state_2_ids":[0,1],"state_2_key":0,"state_2_choice":0,"state_2_rt":1375.4000000059605,"outcome":1,"rocket_colors":["#a75248","#486ea7"],"planet_colors":["#706081","#5b7c65"],"screen_resolution":[1920,1080],"minimum_resolution":1,"trial":0,"trial_type":"two-step-trial","trial_index":23,"time_elapsed":301035,"internal_node_id":"0.0-11.0-1.0-0.2","task_version":"1.0","jspsych_version":"6.3.1","missing":false},{"state_1_ids":[0,1],"state_1_key":0,"state_1_choice":0,"state_1_rt":1492.5,"transition":1,"state":0,"state_2_ids":[0,1],"state_2_key":0,"state_2_choice":0,"state_2_rt":1008.4000000059605,"outcome":0,"rocket_colors":["#a75248","#486ea7"],"planet_colors":["#706081","#5b7c65"],"screen_resolution":[1920,1080],"minimum_resolution":1,"trial":0,"trial_type":"two-step-trial","trial_index":24,"time_elapsed":305540,"internal_node_id":"0.0-11.0-1.0-0.3","task_version":"1.0","jspsych_version":"6.3.1","missing":false},{"state_1_ids":[0,1],"state_1_key":0,"state_1_choice":0,"state_1_rt":1155.199999988079,"transition":1,"state":0,"state_2_ids":[0,1],"state_2_key":0,"state_2_choice":0,"state_2_rt":767.8000000119209,"outcome":1,"rocket_colors":["#a75248","#486ea7"],"planet_colors":["#706081","#5b7c65"],"screen_resolution":[1920,1080],"minimum_resolution":1,"trial":0,"trial_type":"two-step-trial","trial_index":25,"time_elapsed":309468,"internal_node_id":"0.0-11.0-1.0-0.4","task_version":"1.0","jspsych_version":"6.3.1","missing":false},{"state_1_ids":[1,0],"state_1_key":1,"state_1_choice":0,"state_1_rt":1228,"transition":0,"state":1,"state_2_ids":[2,3],"state_2_key":1,"state_2_choice":3,"state_2_rt":2639.5999999940395,"outcome":1,"rocket_colors":["#a75248","#486ea7"],"planet_colors":["#706081","#5b7c65"],"screen_resolution":[1920,1080],"minimum_resolution":1,"trial":0,"trial_type":"two-step-trial","trial_index":26,"time_elapsed":315341,"internal_node_id":"0.0-11.0-1.0-0.5","task_version":"1.0","jspsych_version":"6.3.1","missing":false},{"state_1_ids":[0,1],"state_1_key":0,"state_1_choice":0,"state_1_rt":2676.5999999940395,"transition":1,"state":0,"state_2_ids":[0,1],"state_2_key":1,"state_2_choice":1,"state_2_rt":3335.4000000059605,"outcome":0,"rocket_colors":["#a75248","#486ea7"],"planet_colors":["#706081","#5b7c65"],"screen_resolution":[1920,1080],"minimum_resolution":1,"trial":0,"trial_type":"two-step-trial","trial_index":27,"time_elapsed":323357,"internal_node_id":"0.0-11.0-1.0-0.6","task_version":"1.0","jspsych_version":"6.3.1","missing":false},{"state_1_ids":[0,1],"state_1_key":0,"state_1_choice":0,"state_1_rt":932.3000000119209,"transition":1,"state":0,"state_2_ids":[0,1],"state_2_key":1,"state_2_choice":1,"state_2_rt":526.9000000059605,"outcome":0,"rocket_colors":["#a75248","#486ea7"],"planet_colors":["#706081","#5b7c65"],"screen_resolution":[1920,1080],"minimum_resolution":1,"trial":0,"trial_type":"two-step-trial","trial_index":28,"time_elapsed":326821,"internal_node_id":"0.0-11.0-1.0-0.7","task_version":"1.0","jspsych_version":"6.3.1","missing":false},{"state_1_ids":[0,1],"state_1_key":0,"state_1_choice":0,"state_1_rt":608.8999999761581,"transition":1,"state":0,"state_2_ids":[0,1],"state_2_key":1,"state_2_choice":1,"state_2_rt":436,"outcome":0,"rocket_colors":["#a75248","#486ea7"],"planet_colors":["#706081","#5b7c65"],"screen_resolution":[1920,1080],"minimum_resolution":1,"trial":0,"trial_type":"two-step-trial","trial_index":29,"time_elapsed":329871,"internal_node_id":"0.0-11.0-1.0-0.8","task_version":"1.0","jspsych_version":"6.3.1","missing":false},{"state_1_ids":[0,1],"state_1_key":0,"state_1_choice":0,"state_1_rt":404,"transition":1,"state":0,"state_2_ids":[0,1],"state_2_key":0,"state_2_choice":0,"state_2_rt":586.7000000178814,"outcome":0,"rocket_colors":["#a75248","#486ea7"],"planet_colors":["#706081","#5b7c65"],"screen_resolution":[1920,1080],"minimum_resolution":1,"trial":0,"trial_type":"two-step-trial","trial_index":30,"time_elapsed":332867,"internal_node_id":"0.0-11.0-1.0-0.9","task_version":"1.0","jspsych_version":"6.3.1","missing":false},{"view_history":"[{\"page_index\":0,\"viewing_time\":3180.399999976158},{\"page_index\":1,\"viewing_time\":2664.5},{\"page_index\":2,\"viewing_time\":1104.300000011921},{\"page_index\":3,\"viewing_time\":2504.0999999940395},{\"page_index\":4,\"viewing_time\":8897.09999999404},{\"page_index\":5,\"viewing_time\":12078.600000023842},{\"page_index\":6,\"viewing_time\":3536.5}]","rt":33965.59999999404,"trial_type":"two-step-instructions","trial_index":31,"time_elapsed":366837,"internal_node_id":"0.0-12.0-1.0","task_version":"1.0","jspsych_version":"6.3.1"},{"responses":["True","False","True"],"num_errors":0,"rt":7680.100000023842,"quiz":3,"trial_type":"two-step-comprehension","trial_index":32,"time_elapsed":374520,"internal_node_id":"0.0-12.0-2.0","task_version":"1.0","jspsych_version":"6.3.1"},{"view_history":"[{\"page_index\":0,\"viewing_time\":1650.9000000059605},{\"page_index\":1,\"viewing_time\":3928.4000000059605},{\"page_index\":2,\"viewing_time\":2336.4000000059605}]","rt":7915.9000000059605,"trial_type":"two-step-instructions","trial_index":33,"time_elapsed":382441,"internal_node_id":"0.0-13.0","task_version":"1.0","jspsych_version":"6.3.1"},{"state_1_ids":[1,0],"state_1_key":1,"state_1_choice":0,"state_1_rt":1812.2999999821186,"transition":1,"state":0,"state_2_ids":[0,1],"state_2_key":1,"state_2_choice":1,"state_2_rt":918.5,"outcome":0,"rocket_colors":["#955db9","#48a782"],"planet_colors":["#7f5d5d","#5f6f81"],"screen_resolution":[1920,1080],"minimum_resolution":1,"trial":1,"drifts":[0.412,0.317,0.453,0.743],"drift_ix":2,"trial_type":"two-step-trial","trial_index":34,"time_elapsed":387177,"internal_node_id":"0.0-14.0-0.0","task_version":"1.0","jspsych_version":"6.3.1","browser_interactions":0,"missing":false},{"state_1_ids":[1,0],"state_1_key":1,"state_1_choice":0,"state_1_rt":468.09999999403954,"transition":1,"state":0,"state_2_ids":[0,1],"state_2_key":0,"state_2_choice":0,"state_2_rt":958.7000000178814,"outcome":1,"rocket_colors":["#955db9","#48a782"],"planet_colors":["#7f5d5d","#5f6f81"],"screen_resolution":[1920,1080],"minimum_resolution":1,"trial":2,"drifts":[0.402,0.305,0.461,0.702],"drift_ix":2,"trial_type":"two-step-trial","trial_index":35,"time_elapsed":390610,"internal_node_id":"0.0-15.0-0.0","task_version":"1.0","jspsych_version":"6.3.1","browser_interactions":0,"missing":false},{"state_1_ids":[0,1],"state_1_key":0,"state_1_choice":0,"state_1_rt":844.0999999940395,"transition":1,"state":0,"state_2_ids":[0,1],"state_2_key":0,"state_2_choice":0,"state_2_rt":647.1000000238419,"outcome":0,"rocket_colors":["#955db9","#48a782"],"planet_colors":["#7f5d5d","#5f6f81"],"screen_resolution":[1920,1080],"minimum_resolution":1,"trial":3,"drifts":[0.373,0.327,0.445,0.732],"drift_ix":2,"trial_type":"two-step-trial","trial_index":36,"time_elapsed":394106,"internal_node_id":"0.0-16.0-0.0","task_version":"1.0","jspsych_version":"6.3.1","browser_interactions":0,"missing":false},{"state_1_ids":[0,1],"state_1_key":0,"state_1_choice":0,"state_1_rt":492.59999999403954,"transition":1,"state":0,"state_2_ids":[0,1],"state_2_key":0,"state_2_choice":0,"state_2_rt":1151,"outcome":0,"rocket_colors":["#955db9","#48a782"],"planet_colors":["#7f5d5d","#5f6f81"],"screen_resolution":[1920,1080],"minimum_resolution":1,"trial":4,"drifts":[0.381,0.303,0.418,0.736],"drift_ix":2,"trial_type":"two-step-trial","trial_index":37,"time_elapsed":397755,"internal_node_id":"0.0-17.0-0.0","task_version":"1.0","jspsych_version":"6.3.1","browser_interactions":0,"missing":false},{"state_1_ids":[0,1],"state_1_key":0,"state_1_choice":0,"state_1_rt":436.40000000596046,"transition":1,"state":0,"state_2_ids":[0,1],"state_2_key":1,"state_2_choice":1,"state_2_rt":447.80000001192093,"outcome":0,"rocket_colors":["#955db9","#48a782"],"planet_colors":["#7f5d5d","#5f6f81"],"screen_resolution":[1920,1080],"minimum_resolution":1,"trial":5,"drifts":[0.366,0.363,0.401,0.709],"drift_ix":2,"trial_type":"two-step-trial","trial_index":38,"time_elapsed":400644,"internal_node_id":"0.0-18.0-0.0","task_version":"1.0","jspsych_version":"6.3.1","browser_interactions":0,"missing":false},{"state_1_ids":[0,1],"state_1_key":1,"state_1_choice":1,"state_1_rt":2963.5,"transition":0,"state":0,"state_2_ids":[0,1],"state_2_key":1,"state_2_choice":1,"state_2_rt":816.4000000059605,"outcome":1,"rocket_colors":["#955db9","#48a782"],"planet_colors":["#7f5d5d","#5f6f81"],"screen_resolution":[1920,1080],"minimum_resolution":1,"trial":6,"drifts":[0.393,0.368,0.383,0.711],"drift_ix":2,"trial_type":"two-step-trial","trial_index":39,"time_elapsed":406429,"internal_node_id":"0.0-19.0-0.0","task_version":"1.0","jspsych_version":"6.3.1","browser_interactions":0,"missing":false},{"state_1_ids":[0,1],"state_1_key":1,"state_1_choice":1,"state_1_rt":579.2000000178814,"transition":1,"state":1,"state_2_ids":[2,3],"state_2_key":1,"state_2_choice":3,"state_2_rt":1143.9000000059605,"outcome":0,"rocket_colors":["#955db9","#48a782"],"planet_colors":["#7f5d5d","#5f6f81"],"screen_resolution":[1920,1080],"minimum_resolution":1,"trial":7,"drifts":[0.4,0.405,0.425,0.678],"drift_ix":2,"trial_type":"two-step-trial","trial_index":40,"time_elapsed":410157,"internal_node_id":"0.0-20.0-0.0","task_version":"1.0","jspsych_version":"6.3.1","browser_interactions":0,"missing":false},{"state_1_ids":[1,0],"state_1_key":0,"state_1_choice":1,"state_1_rt":835.8000000119209,"transition":1,"state":1,"state_2_ids":[2,3],"state_2_key":0,"state_2_choice":2,"state_2_rt":1031.0999999940395,"outcome":0,"rocket_colors":["#955db9","#48a782"],"planet_colors":["#7f5d5d","#5f6f81"],"screen_resolution":[1920,1080],"minimum_resolution":1,"trial":8,"drifts":[0.383,0.388,0.415,0.699],"drift_ix":2,"trial_type":"two-step-trial","trial_index":41,"time_elapsed":414028,"internal_node_id":"0.0-21.0-0.0","task_version":"1.0","jspsych_version":"6.3.1","browser_interactions":0,"missing":false},{"state_1_ids":[1,0],"state_1_key":1,"state_1_choice":0,"state_1_rt":469.40000000596046,"transition":1,"state":0,"state_2_ids":[0,1],"state_2_key":1,"state_2_choice":1,"state_2_rt":575.6999999880791,"outcome":0,"rocket_colors":["#955db9","#48a782"],"planet_colors":["#7f5d5d","#5f6f81"],"screen_resolution":[1920,1080],"minimum_resolution":1,"trial":9,"drifts":[0.347,0.439,0.405,0.713],"drift_ix":2,"trial_type":"two-step-trial","trial_index":42,"time_elapsed":417078,"internal_node_id":"0.0-22.0-0.0","task_version":"1.0","jspsych_version":"6.3.1","browser_interactions":0,"missing":false},{"state_1_ids":[0,1],"state_1_key":0,"state_1_choice":0,"state_1_rt":939.7000000178814,"transition":0,"state":1,"state_2_ids":[2,3],"state_2_key":0,"state_2_choice":2,"state_2_rt":975.4000000059605,"outcome":0,"rocket_colors":["#955db9","#48a782"],"planet_colors":["#7f5d5d","#5f6f81"],"screen_resolution":[1920,1080],"minimum_resolution":1,"trial":10,"drifts":[0.367,0.459,0.46,0.731],"drift_ix":2,"trial_type":"two-step-trial","trial_index":43,"time_elapsed":420998,"internal_node_id":"0.0-23.0-0.0","task_version":"1.0","jspsych_version":"6.3.1","browser_interactions":0,"missing":false},{"state_1_ids":[1,0],"state_1_key":1,"state_1_choice":0,"state_1_rt":1043.0999999940395,"transition":1,"state":0,"state_2_ids":[0,1],"state_2_key":1,"state_2_choice":1,"state_2_rt":671.3000000119209,"outcome":1,"rocket_colors":["#955db9","#48a782"],"planet_colors":["#7f5d5d","#5f6f81"],"screen_resolution":[1920,1080],"minimum_resolution":1,"trial":11,"drifts":[0.397,0.451,0.461,0.701],"drift_ix":2,"trial_type":"two-step-trial","trial_index":44,"time_elapsed":424719,"internal_node_id":"0.0-24.0-0.0","task_version":"1.0","jspsych_version":"6.3.1","browser_interactions":0,"missing":false},{"state_1_ids":[0,1],"state_1_key":0,"state_1_choice":0,"state_1_rt":844,"transition":0,"state":1,"state_2_ids":[2,3],"state_2_key":1,"state_2_choice":3,"state_2_rt":1808,"outcome":0,"rocket_colors":["#955db9","#48a782"],"planet_colors":["#7f5d5d","#5f6f81"],"screen_resolution":[1920,1080],"minimum_resolution":1,"trial":12,"drifts":[0.357,0.426,0.459,0.707],"drift_ix":2,"trial_type":"two-step-trial","trial_index":45,"time_elapsed":429375,"internal_node_id":"0.0-25.0-0.0","task_version":"1.0","jspsych_version":"6.3.1","browser_interactions":0,"missing":false},{"state_1_ids":[1,0],"state_1_key":1,"state_1_choice":0,"state_1_rt":955.5999999940395,"transition":1,"state":0,"state_2_ids":[0,1],"state_2_key":1,"state_2_choice":1,"state_2_rt":1311.699999988079,"outcome":0,"rocket_colors":["#955db9","#48a782"],"planet_colors":["#7f5d5d","#5f6f81"],"screen_resolution":[1920,1080],"minimum_resolution":1,"trial":13,"drifts":[0.337,0.398,0.428,0.721],"drift_ix":2,"trial_type":"two-step-trial","trial_index":46,"time_elapsed":433647,"internal_node_id":"0.0-26.0-0.0","task_version":"1.0","jspsych_version":"6.3.1","browser_interactions":0,"missing":false},{"state_1_ids":[0,1],"state_1_key":0,"state_1_choice":0,"state_1_rt":659.9000000059605,"transition":0,"state":1,"state_2_ids":[2,3],"state_2_key":0,"state_2_choice":2,"state_2_rt":831.6999999880791,"outcome":0,"rocket_colors":["#955db9","#48a782"],"planet_colors":["#7f5d5d","#5f6f81"],"screen_resolution":[1920,1080],"minimum_resolution":1,"trial":14,"drifts":[0.283,0.408,0.384,0.719],"drift_ix":2,"trial_type":"two-step-trial","trial_index":47,"time_elapsed":437143,"internal_node_id":"0.0-27.0-0.0","task_version":"1.0","jspsych_version":"6.3.1","browser_interactions":0,"missing":false},{"state_1_ids":[0,1],"state_1_key":0,"state_1_choice":0,"state_1_rt":652.5,"transition":1,"state":0,"state_2_ids":[0,1],"state_2_key":1,"state_2_choice":1,"state_2_rt":479.59999999403954,"outcome":1,"rocket_colors":["#955db9","#48a782"],"planet_colors":["#7f5d5d","#5f6f81"],"screen_resolution":[1920,1080],"minimum_resolution":1,"trial":15,"drifts":[0.295,0.37,0.375,0.738],"drift_ix":2,"trial_type":"two-step-trial","trial_index":48,"time_elapsed":440280,"internal_node_id":"0.0-28.0-0.0","task_version":"1.0","jspsych_version":"6.3.1","browser_interactions":0,"missing":false},{"state_1_ids":[0,1],"state_1_key":0,"state_1_choice":0,"state_1_rt":619.8000000119209,"transition":0,"state":1,"state_2_ids":[2,3],"state_2_key":1,"state_2_choice":3,"state_2_rt":1576,"outcome":1,"rocket_colors":["#955db9","#48a782"],"planet_colors":["#7f5d5d","#5f6f81"],"screen_resolution":[1920,1080],"minimum_resolution":1,"trial":16,"drifts":[0.305,0.343,0.325,0.713],"drift_ix":2,"trial_type":"two-step-trial","trial_index":49,"time_elapsed":444480,"internal_node_id":"0.0-29.0-0.0","task_version":"1.0","jspsych_version":"6.3.1","browser_interactions":0,"missing":false},{"state_1_ids":[0,1],"state_1_key":0,"state_1_choice":0,"state_1_rt":564,"transition":0,"state":1,"state_2_ids":[2,3],"state_2_key":1,"state_2_choice":3,"state_2_rt":719.5999999940395,"outcome":0,"rocket_colors":["#955db9","#48a782"],"planet_colors":["#7f5d5d","#5f6f81"],"screen_resolution":[1920,1080],"minimum_resolution":1,"trial":17,"drifts":[0.305,0.313,0.334,0.705],"drift_ix":2,"trial_type":"two-step-trial","trial_index":50,"time_elapsed":447768,"internal_node_id":"0.0-30.0-0.0","task_version":"1.0","jspsych_version":"6.3.1","browser_interactions":0,"missing":false},{"state_1_ids":[1,0],"state_1_key":1,"state_1_choice":0,"state_1_rt":1741.4000000059605,"transition":1,"state":0,"state_2_ids":[0,1],"state_2_key":1,"state_2_choice":1,"state_2_rt":590.5,"outcome":0,"rocket_colors":["#955db9","#48a782"],"planet_colors":["#7f5d5d","#5f6f81"],"screen_resolution":[1920,1080],"minimum_resolution":1,"trial":18,"drifts":[0.316,0.314,0.353,0.728],"drift_ix":2,"trial_type":"two-step-trial","trial_index":51,"time_elapsed":452105,"internal_node_id":"0.0-31.0-0.0","task_version":"1.0","jspsych_version":"6.3.1","browser_interactions":0,"missing":false},{"state_1_ids":[0,1],"state_1_key":0,"state_1_choice":0,"state_1_rt":1076.5,"transition":1,"state":0,"state_2_ids":[0,1],"state_2_key":1,"state_2_choice":1,"state_2_rt":486.7999999821186,"outcome":0,"rocket_colors":["#955db9","#48a782"],"planet_colors":["#7f5d5d","#5f6f81"],"screen_resolution":[1920,1080],"minimum_resolution":1,"trial":19,"drifts":[0.317,0.335,0.368,0.745],"drift_ix":2,"trial_type":"two-step-trial","trial_index":52,"time_elapsed":455673,"internal_node_id":"0.0-32.0-0.0","task_version":"1.0","jspsych_version":"6.3.1","browser_interactions":0,"missing":false},{"state_1_ids":[1,0],"state_1_key":1,"state_1_choice":0,"state_1_rt":1100.5999999940395,"transition":1,"state":0,"state_2_ids":[0,1],"state_2_key":1,"state_2_choice":1,"state_2_rt":606.6999999880791,"outcome":0,"rocket_colors":["#955db9","#48a782"],"planet_colors":["#7f5d5d","#5f6f81"],"screen_resolution":[1920,1080],"minimum_resolution":1,"trial":20,"drifts":[0.307,0.313,0.421,0.737],"drift_ix":2,"trial_type":"two-step-trial","trial_index":53,"time_elapsed":459386,"internal_node_id":"0.0-33.0-0.0","task_version":"1.0","jspsych_version":"6.3.1","browser_interactions":0,"missing":false},{"state_1_ids":[1,0],"state_1_key":0,"state_1_choice":1,"state_1_rt":1661.199999988079,"transition":1,"state":1,"state_2_ids":[2,3],"state_2_key":1,"state_2_choice":3,"state_2_rt":918.6999999880791,"outcome":1,"rocket_colors":["#955db9","#48a782"],"planet_colors":["#7f5d5d","#5f6f81"],"screen_resolution":[1920,1080],"minimum_resolution":1,"trial":21,"drifts":[0.31,0.305,0.401,0.745],"drift_ix":2,"trial_type":"two-step-trial","trial_index":54,"time_elapsed":463970,"internal_node_id":"0.0-34.0-0.0","task_version":"1.0","jspsych_version":"6.3.1","browser_interactions":0,"missing":false},{"state_1_ids":[1,0],"state_1_key":0,"state_1_choice":1,"state_1_rt":548.3999999761581,"transition":1,"state":1,"state_2_ids":[2,3],"state_2_key":1,"state_2_choice":3,"state_2_rt":552,"outcome":0,"rocket_colors":["#955db9","#48a782"],"planet_colors":["#7f5d5d","#5f6f81"],"screen_resolution":[1920,1080],"minimum_resolution":1,"trial":22,"drifts":[0.326,0.31,0.391,0.735],"drift_ix":2,"trial_type":"two-step-trial","trial_index":55,"time_elapsed":467076,"internal_node_id":"0.0-35.0-0.0","task_version":"1.0","jspsych_version":"6.3.1","browser_interactions":0,"missing":false},{"state_1_ids":[1,0],"state_1_key":0,"state_1_choice":1,"state_1_rt":555.6000000238419,"transition":1,"state":1,"state_2_ids":[2,3],"state_2_key":1,"state_2_choice":3,"state_2_rt":511.80000001192093,"outcome":0,"rocket_colors":["#955db9","#48a782"],"planet_colors":["#7f5d5d","#5f6f81"],"screen_resolution":[1920,1080],"minimum_resolution":1,"trial":23,"drifts":[0.331,0.302,0.379,0.741],"drift_ix":2,"trial_type":"two-step-trial","trial_index":56,"time_elapsed":470148,"internal_node_id":"0.0-36.0-0.0","task_version":"1.0","jspsych_version":"6.3.1","browser_interactions":0,"missing":false},{"state_1_ids":[1,0],"state_1_key":0,"state_1_choice":1,"state_1_rt":379.5,"transition":1,"state":1,"state_2_ids":[2,3],"state_2_key":1,"state_2_choice":3,"state_2_rt":1072.5999999940395,"outcome":0,"rocket_colors":["#955db9","#48a782"],"planet_colors":["#7f5d5d","#5f6f81"],"screen_resolution":[1920,1080],"minimum_resolution":1,"trial":24,"drifts":[0.358,0.323,0.393,0.738],"drift_ix":2,"trial_type":"two-step-trial","trial_index":57,"time_elapsed":473605,"internal_node_id":"0.0-37.0-0.0","task_version":"1.0","jspsych_version":"6.3.1","browser_interactions":0,"missing":false},{"state_1_ids":[0,1],"state_1_key":1,"state_1_choice":1,"state_1_rt":708,"transition":0,"state":0,"state_2_ids":[0,1],"state_2_key":0,"state_2_choice":0,"state_2_rt":1071.5,"outcome":0,"rocket_colors":["#955db9","#48a782"],"planet_colors":["#7f5d5d","#5f6f81"],"screen_resolution":[1920,1080],"minimum_resolution":1,"trial":25,"drifts":[0.342,0.299,0.368,0.724],"drift_ix":2,"trial_type":"two-step-trial","trial_index":58,"time_elapsed":477388,"internal_node_id":"0.0-38.0-0.0","task_version":"1.0","jspsych_version":"6.3.1","browser_interactions":0,"missing":false},{"state_1_ids":[0,1],"state_1_key":1,"state_1_choice":1,"state_1_rt":1308.4000000059605,"transition":0,"state":0,"state_2_ids":[0,1],"state_2_key":1,"state_2_choice":1,"state_2_rt":710.7000000178814,"outcome":0,"rocket_colors":["#955db9","#48a782"],"planet_colors":["#7f5d5d","#5f6f81"],"screen_resolution":[1920,1080],"minimum_resolution":1,"trial":26,"drifts":[0.362,0.294,0.373,0.738],"drift_ix":2,"trial_type":"two-step-trial","trial_index":59,"time_elapsed":481412,"internal_node_id":"0.0-39.0-0.0","task_version":"1.0","jspsych_version":"6.3.1","browser_interactions":0,"missing":false},{"state_1_ids":[0,1],"state_1_key":1,"state_1_choice":1,"state_1_rt":676.5999999940395,"transition":1,"state":1,"state_2_ids":[2,3],"state_2_key":0,"state_2_choice":2,"state_2_rt":1000.1000000238419,"outcome":0,"rocket_colors":["#955db9","#48a782"],"planet_colors":["#7f5d5d","#5f6f81"],"screen_resolution":[1920,1080],"minimum_resolution":1,"trial":27,"drifts":[0.332,0.286,0.389,0.683],"drift_ix":2,"trial_type":"two-step-trial","trial_index":60,"time_elapsed":485093,"internal_node_id":"0.0-40.0-0.0","task_version":"1.0","jspsych_version":"6.3.1","browser_interactions":0,"missing":false},{"state_1_ids":[1,0],"state_1_key":0,"state_1_choice":1,"state_1_rt":620,"transition":1,"state":1,"state_2_ids":[2,3],"state_2_key":0,"state_2_choice":2,"state_2_rt":687.5999999940395,"outcome":0,"rocket_colors":["#955db9","#48a782"],"planet_colors":["#7f5d5d","#5f6f81"],"screen_resolution":[1920,1080],"minimum_resolution":1,"trial":28,"drifts":[0.34,0.303,0.383,0.689],"drift_ix":2,"trial_type":"two-step-trial","trial_index":61,"time_elapsed":488406,"internal_node_id":"0.0-41.0-0.0","task_version":"1.0","jspsych_version":"6.3.1","browser_interactions":0,"missing":false},{"state_1_ids":[0,1],"state_1_key":1,"state_1_choice":1,"state_1_rt":676.8000000119209,"transition":1,"state":1,"state_2_ids":[2,3],"state_2_key":1,"state_2_choice":3,"state_2_rt":480.09999999403954,"outcome":0,"rocket_colors":["#955db9","#48a782"],"planet_colors":["#7f5d5d","#5f6f81"],"screen_resolution":[1920,1080],"minimum_resolution":1,"trial":29,"drifts":[0.317,0.302,0.385,0.679],"drift_ix":2,"trial_type":"two-step-trial","trial_index":62,"time_elapsed":491567,"internal_node_id":"0.0-42.0-0.0","task_version":"1.0","jspsych_version":"6.3.1","browser_interactions":0,"missing":false},{"state_1_ids":[1,0],"state_1_key":1,"state_1_choice":0,"state_1_rt":852.5999999940395,"transition":0,"state":1,"state_2_ids":[2,3],"state_2_key":0,"state_2_choice":2,"state_2_rt":1399.9000000059605,"outcome":1,"rocket_colors":["#955db9","#48a782"],"planet_colors":["#7f5d5d","#5f6f81"],"screen_resolution":[1920,1080],"minimum_resolution":1,"trial":30,"drifts":[0.353,0.346,0.414,0.681],"drift_ix":2,"trial_type":"two-step-trial","trial_index":63,"time_elapsed":495824,"internal_node_id":"0.0-43.0-0.0","task_version":"1.0","jspsych_version":"6.3.1","browser_interactions":0,"missing":false},{"state_1_ids":[1,0],"state_1_key":1,"state_1_choice":0,"state_1_rt":515.5999999940395,"transition":0,"state":1,"state_2_ids":[2,3],"state_2_key":0,"state_2_choice":2,"state_2_rt":503.39999997615814,"outcome":0,"rocket_colors":["#955db9","#48a782"],"planet_colors":["#7f5d5d","#5f6f81"],"screen_resolution":[1920,1080],"minimum_resolution":1,"trial":31,"drifts":[0.325,0.331,0.414,0.647],"drift_ix":2,"trial_type":"two-step-trial","trial_index":64,"time_elapsed":498847,"internal_node_id":"0.0-44.0-0.0","task_version":"1.0","jspsych_version":"6.3.1","browser_interactions":0,"missing":false},{"state_1_ids":[1,0],"state_1_key":1,"state_1_choice":0,"state_1_rt":444.80000001192093,"transition":0,"state":1,"state_2_ids":[2,3],"state_2_key":0,"state_2_choice":2,"state_2_rt":495.2000000178814,"outcome":1,"rocket_colors":["#955db9","#48a782"],"planet_colors":["#7f5d5d","#5f6f81"],"screen_resolution":[1920,1080],"minimum_resolution":1,"trial":32,"drifts":[0.328,0.33,0.383,0.663],"drift_ix":2,"trial_type":"two-step-trial","trial_index":65,"time_elapsed":501793,"internal_node_id":"0.0-45.0-0.0","task_version":"1.0","jspsych_version":"6.3.1","browser_interactions":0,"missing":false},{"state_1_ids":[1,0],"state_1_key":1,"state_1_choice":0,"state_1_rt":411.5,"transition":1,"state":0,"state_2_ids":[0,1],"state_2_key":1,"state_2_choice":1,"state_2_rt":1247.199999988079,"outcome":0,"rocket_colors":["#955db9","#48a782"],"planet_colors":["#7f5d5d","#5f6f81"],"screen_resolution":[1920,1080],"minimum_resolution":1,"trial":33,"drifts":[0.322,0.332,0.362,0.633],"drift_ix":2,"trial_type":"two-step-trial","trial_index":66,"time_elapsed":505456,"internal_node_id":"0.0-46.0-0.0","task_version":"1.0","jspsych_version":"6.3.1","browser_interactions":0,"missing":false},{"state_1_ids":[0,1],"state_1_key":0,"state_1_choice":0,"state_1_rt":1045,"transition":1,"state":0,"state_2_ids":[0,1],"state_2_key":0,"state_2_choice":0,"state_2_rt":1079.2000000178814,"outcome":0,"rocket_colors":["#955db9","#48a782"],"planet_colors":["#7f5d5d","#5f6f81"],"screen_resolution":[1920,1080],"minimum_resolution":1,"trial":34,"drifts":[0.322,0.307,0.363,0.617],"drift_ix":2,"trial_type":"two-step-trial","trial_index":67,"time_elapsed":509585,"internal_node_id":"0.0-47.0-0.0","task_version":"1.0","jspsych_version":"6.3.1","browser_interactions":0,"missing":false},{"state_1_ids":[1,0],"state_1_key":1,"state_1_choice":0,"state_1_rt":1117.0999999940395,"transition":0,"state":1,"state_2_ids":[2,3],"state_2_key":0,"state_2_choice":2,"state_2_rt":1048,"outcome":1,"rocket_colors":["#955db9","#48a782"],"planet_colors":["#7f5d5d","#5f6f81"],"screen_resolution":[1920,1080],"minimum_resolution":1,"trial":35,"drifts":[0.297,0.336,0.333,0.65],"drift_ix":2,"trial_type":"two-step-trial","trial_index":68,"time_elapsed":513755,"internal_node_id":"0.0-48.0-0.0","task_version":"1.0","jspsych_version":"6.3.1","browser_interactions":0,"missing":false},{"state_1_ids":[1,0],"state_1_key":1,"state_1_choice":0,"state_1_rt":395.19999998807907,"transition":1,"state":0,"state_2_ids":[0,1],"state_2_key":1,"state_2_choice":1,"state_2_rt":991.8000000119209,"outcome":0,"rocket_colors":["#955db9","#48a782"],"planet_colors":["#7f5d5d","#5f6f81"],"screen_resolution":[1920,1080],"minimum_resolution":1,"trial":36,"drifts":[0.326,0.343,0.331,0.633],"drift_ix":2,"trial_type":"two-step-trial","trial_index":69,"time_elapsed":517146,"internal_node_id":"0.0-49.0-0.0","task_version":"1.0","jspsych_version":"6.3.1","browser_interactions":0,"missing":false},{"state_1_ids":[1,0],"state_1_key":1,"state_1_choice":0,"state_1_rt":981.4000000059605,"transition":1,"state":0,"state_2_ids":[0,1],"state_2_key":1,"state_2_choice":1,"state_2_rt":1951.2000000178814,"outcome":0,"rocket_colors":["#955db9","#48a782"],"planet_colors":["#7f5d5d","#5f6f81"],"screen_resolution":[1920,1080],"minimum_resolution":1,"trial":37,"drifts":[0.318,0.324,0.327,0.612],"drift_ix":2,"trial_type":"two-step-trial","trial_index":70,"time_elapsed":522083,"internal_node_id":"0.0-50.0-0.0","task_version":"1.0","jspsych_version":"6.3.1","browser_interactions":0,"missing":false},{"state_1_ids":[0,1],"state_1_key":0,"state_1_choice":0,"state_1_rt":588.0999999940395,"transition":0,"state":1,"state_2_ids":[2,3],"state_2_key":0,"state_2_choice":2,"state_2_rt":975.1999999880791,"outcome":0,"rocket_colors":["#955db9","#48a782"],"planet_colors":["#7f5d5d","#5f6f81"],"screen_resolution":[1920,1080],"minimum_resolution":1,"trial":38,"drifts":[0.304,0.324,0.319,0.591],"drift_ix":2,"trial_type":"two-step-trial","trial_index":71,"time_elapsed":525665,"internal_node_id":"0.0-51.0-0.0","task_version":"1.0","jspsych_version":"6.3.1","browser_interactions":0,"missing":false},{"state_1_ids":[1,0],"state_1_key":0,"state_1_choice":1,"state_1_rt":1591.0999999940395,"transition":1,"state":1,"state_2_ids":[2,3],"state_2_key":0,"state_2_choice":2,"state_2_rt":591.0999999940395,"outcome":1,"rocket_colors":["#955db9","#48a782"],"planet_colors":["#7f5d5d","#5f6f81"],"screen_resolution":[1920,1080],"minimum_resolution":1,"trial":39,"drifts":[0.283,0.362,0.351,0.561],"drift_ix":2,"trial_type":"two-step-trial","trial_index":72,"time_elapsed":529852,"internal_node_id":"0.0-52.0-0.0","task_version":"1.0","jspsych_version":"6.3.1","browser_interactions":0,"missing":false},{"state_1_ids":[1,0],"state_1_key":0,"state_1_choice":1,"state_1_rt":355.39999997615814,"transition":0,"state":0,"state_2_ids":[0,1],"state_2_key":1,"state_2_choice":1,"state_2_rt":911.6999999880791,"outcome":1,"rocket_colors":["#955db9","#48a782"],"planet_colors":["#7f5d5d","#5f6f81"],"screen_resolution":[1920,1080],"minimum_resolution":1,"trial":40,"drifts":[0.295,0.387,0.331,0.546],"drift_ix":2,"trial_type":"two-step-trial","trial_index":73,"time_elapsed":533124,"internal_node_id":"0.0-53.0-0.0","task_version":"1.0","jspsych_version":"6.3.1","browser_interactions":0,"missing":false},{"state_1_ids":[1,0],"state_1_key":0,"state_1_choice":1,"state_1_rt":516.7999999821186,"transition":1,"state":1,"state_2_ids":[2,3],"state_2_key":0,"state_2_choice":2,"state_2_rt":639,"outcome":1,"rocket_colors":["#955db9","#48a782"],"planet_colors":["#7f5d5d","#5f6f81"],"screen_resolution":[1920,1080],"minimum_resolution":1,"trial":41,"drifts":[0.293,0.385,0.33,0.584],"drift_ix":2,"trial_type":"two-step-trial","trial_index":74,"time_elapsed":536284,"internal_node_id":"0.0-54.0-0.0","task_version":"1.0","jspsych_version":"6.3.1","browser_interactions":0,"missing":false},{"state_1_ids":[1,0],"state_1_key":0,"state_1_choice":1,"state_1_rt":531.6999999880791,"transition":0,"state":0,"state_2_ids":[0,1],"state_2_key":1,"state_2_choice":1,"state_2_rt":664.2999999821186,"outcome":0,"rocket_colors":["#955db9","#48a782"],"planet_colors":["#7f5d5d","#5f6f81"],"screen_resolution":[1920,1080],"minimum_resolution":1,"trial":42,"drifts":[0.304,0.383,0.318,0.562],"drift_ix":2,"trial_type":"two-step-trial","trial_index":75,"time_elapsed":539485,"internal_node_id":"0.0-55.0-0.0","task_version":"1.0","jspsych_version":"6.3.1","browser_interactions":0,"missing":false},{"state_1_ids":[1,0],"state_1_key":0,"state_1_choice":1,"state_1_rt":428.59999999403954,"transition":0,"state":0,"state_2_ids":[0,1],"state_2_key":1,"state_2_choice":1,"state_2_rt":671,"outcome":1,"rocket_colors":["#955db9","#48a782"],"planet_colors":["#7f5d5d","#5f6f81"],"screen_resolution":[1920,1080],"minimum_resolution":1,"trial":43,"drifts":[0.318,0.398,0.315,0.576],"drift_ix":2,"trial_type":"two-step-trial","trial_index":76,"time_elapsed":542589,"internal_node_id":"0.0-56.0-0.0","task_version":"1.0","jspsych_version":"6.3.1","browser_interactions":0,"missing":false},{"state_1_ids":[0,1],"state_1_key":0,"state_1_choice":0,"state_1_rt":460.10000002384186,"transition":1,"state":0,"state_2_ids":[0,1],"state_2_key":1,"state_2_choice":1,"state_2_rt":567.5,"outcome":0,"rocket_colors":["#955db9","#48a782"],"planet_colors":["#7f5d5d","#5f6f81"],"screen_resolution":[1920,1080],"minimum_resolution":1,"trial":44,"drifts":[0.321,0.371,0.348,0.616],"drift_ix":2,"trial_type":"two-step-trial","trial_index":77,"time_elapsed":545621,"internal_node_id":"0.0-57.0-0.0","task_version":"1.0","jspsych_version":"6.3.1","browser_interactions":0,"missing":false},{"state_1_ids":[1,0],"state_1_key":0,"state_1_choice":1,"state_1_rt":532.8000000119209,"transition":1,"state":1,"state_2_ids":[2,3],"state_2_key":0,"state_2_choice":2,"state_2_rt":775.2999999821186,"outcome":0,"rocket_colors":["#955db9","#48a782"],"planet_colors":["#7f5d5d","#5f6f81"],"screen_resolution":[1920,1080],"minimum_resolution":1,"trial":45,"drifts":[0.319,0.418,0.367,0.598],"drift_ix":2,"trial_type":"two-step-trial","trial_index":78,"time_elapsed":548934,"internal_node_id":"0.0-58.0-0.0","task_version":"1.0","jspsych_version":"6.3.1","browser_interactions":0,"missing":false},{"state_1_ids":[1,0],"state_1_key":0,"state_1_choice":1,"state_1_rt":1093.0999999940395,"transition":0,"state":0,"state_2_ids":[0,1],"state_2_key":1,"state_2_choice":1,"state_2_rt":718.3999999761581,"outcome":1,"rocket_colors":["#955db9","#48a782"],"planet_colors":["#7f5d5d","#5f6f81"],"screen_resolution":[1920,1080],"minimum_resolution":1,"trial":46,"drifts":[0.326,0.44,0.366,0.588],"drift_ix":2,"trial_type":"two-step-trial","trial_index":79,"time_elapsed":552750,"internal_node_id":"0.0-59.0-0.0","task_version":"1.0","jspsych_version":"6.3.1","browser_interactions":0,"missing":false},{"state_1_ids":[0,1],"state_1_key":1,"state_1_choice":1,"state_1_rt":1756.6000000238419,"transition":1,"state":1,"state_2_ids":[2,3],"state_2_key":0,"state_2_choice":2,"state_2_rt":1759.8999999761581,"outcome":0,"rocket_colors":["#955db9","#48a782"],"planet_colors":["#7f5d5d","#5f6f81"],"screen_resolution":[1920,1080],"minimum_resolution":1,"trial":47,"drifts":[0.315,0.46,0.378,0.597],"drift_ix":2,"trial_type":"two-step-trial","trial_index":80,"time_elapsed":558271,"internal_node_id":"0.0-60.0-0.0","task_version":"1.0","jspsych_version":"6.3.1","browser_interactions":0,"missing":false},{"state_1_ids":[0,1],"state_1_key":1,"state_1_choice":1,"state_1_rt":660.5,"transition":1,"state":1,"state_2_ids":[2,3],"state_2_key":1,"state_2_choice":3,"state_2_rt":391.90000000596046,"outcome":1,"rocket_colors":["#955db9","#48a782"],"planet_colors":["#7f5d5d","#5f6f81"],"screen_resolution":[1920,1080],"minimum_resolution":1,"trial":48,"drifts":[0.281,0.476,0.36,0.571],"drift_ix":2,"trial_type":"two-step-trial","trial_index":81,"time_elapsed":561328,"internal_node_id":"0.0-61.0-0.0","task_version":"1.0","jspsych_version":"6.3.1","browser_interactions":0,"missing":false},{"state_1_ids":[1,0],"state_1_key":0,"state_1_choice":1,"state_1_rt":636.6000000238419,"transition":1,"state":1,"state_2_ids":[2,3],"state_2_key":1,"state_2_choice":3,"state_2_rt":471.30000001192093,"outcome":0,"rocket_colors":["#955db9","#48a782"],"planet_colors":["#7f5d5d","#5f6f81"],"screen_resolution":[1920,1080],"minimum_resolution":1,"trial":49,"drifts":[0.254,0.439,0.383,0.579],"drift_ix":2,"trial_type":"two-step-trial","trial_index":82,"time_elapsed":564441,"internal_node_id":"0.0-62.0-0.0","task_version":"1.0","jspsych_version":"6.3.1","browser_interactions":0,"missing":false},{"state_1_ids":[1,0],"state_1_key":0,"state_1_choice":1,"state_1_rt":507.59999999403954,"transition":1,"state":1,"state_2_ids":[2,3],"state_2_key":1,"state_2_choice":3,"state_2_rt":463.09999999403954,"outcome":0,"rocket_colors":["#955db9","#48a782"],"planet_colors":["#7f5d5d","#5f6f81"],"screen_resolution":[1920,1080],"minimum_resolution":1,"trial":50,"drifts":[0.303,0.471,0.392,0.592],"drift_ix":2,"trial_type":"two-step-trial","trial_index":83,"time_elapsed":567416,"internal_node_id":"0.0-63.0-0.0","task_version":"1.0","jspsych_version":"6.3.1","browser_interactions":0,"missing":false},{"state_1_ids":[0,1],"state_1_key":1,"state_1_choice":1,"state_1_rt":1309,"transition":0,"state":0,"state_2_ids":[0,1],"state_2_key":1,"state_2_choice":1,"state_2_rt":824.0999999940395,"outcome":0,"rocket_colors":["#955db9","#48a782"],"planet_colors":["#7f5d5d","#5f6f81"],"screen_resolution":[1920,1080],"minimum_resolution":1,"trial":51,"drifts":[0.274,0.41,0.377,0.587],"drift_ix":2,"trial_type":"two-step-trial","trial_index":84,"time_elapsed":571554,"internal_node_id":"0.0-64.0-0.0","task_version":"1.0","jspsych_version":"6.3.1","browser_interactions":0,"missing":false},{"state_1_ids":[0,1],"state_1_key":0,"state_1_choice":0,"state_1_rt":819.9000000059605,"transition":1,"state":0,"state_2_ids":[0,1],"state_2_key":1,"state_2_choice":1,"state_2_rt":615,"outcome":0,"rocket_colors":["#955db9","#48a782"],"planet_colors":["#7f5d5d","#5f6f81"],"screen_resolution":[1920,1080],"minimum_resolution":1,"trial":52,"drifts":[0.29,0.413,0.363,0.572],"drift_ix":2,"trial_type":"two-step-trial","trial_index":85,"time_elapsed":574993,"internal_node_id":"0.0-65.0-0.0","task_version":"1.0","jspsych_version":"6.3.1","browser_interactions":0,"missing":false},{"state_1_ids":[1,0],"state_1_key":1,"state_1_choice":0,"state_1_rt":756.1999999880791,"transition":0,"state":1,"state_2_ids":[2,3],"state_2_key":0,"state_2_choice":2,"state_2_rt":1927,"outcome":0,"rocket_colors":["#955db9","#48a782"],"planet_colors":["#7f5d5d","#5f6f81"],"screen_resolution":[1920,1080],"minimum_resolution":1,"trial":53,"drifts":[0.292,0.425,0.318,0.522],"drift_ix":2,"trial_type":"two-step-trial","trial_index":86,"time_elapsed":579682,"internal_node_id":"0.0-66.0-0.0","task_version":"1.0","jspsych_version":"6.3.1","browser_interactions":0,"missing":false},{"state_1_ids":[0,1],"state_1_key":0,"state_1_choice":0,"state_1_rt":548.1999999880791,"transition":1,"state":0,"state_2_ids":[0,1],"state_2_key":0,"state_2_choice":0,"state_2_rt":960.1000000238419,"outcome":0,"rocket_colors":["#955db9","#48a782"],"planet_colors":["#7f5d5d","#5f6f81"],"screen_resolution":[1920,1080],"minimum_resolution":1,"trial":54,"drifts":[0.284,0.449,0.332,0.552],"drift_ix":2,"trial_type":"two-step-trial","trial_index":87,"time_elapsed":583196,"internal_node_id":"0.0-67.0-0.0","task_version":"1.0","jspsych_version":"6.3.1","browser_interactions":0,"missing":false},{"state_1_ids":[1,0],"state_1_key":1,"state_1_choice":0,"state_1_rt":579.5,"transition":0,"state":1,"state_2_ids":[2,3],"state_2_key":1,"state_2_choice":3,"state_2_rt":959.2000000178814,"outcome":1,"rocket_colors":["#955db9","#48a782"],"planet_colors":["#7f5d5d","#5f6f81"],"screen_resolution":[1920,1080],"minimum_resolution":1,"trial":55,"drifts":[0.253,0.41,0.344,0.579],"drift_ix":2,"trial_type":"two-step-trial","trial_index":88,"time_elapsed":586739,"internal_node_id":"0.0-68.0-0.0","task_version":"1.0","jspsych_version":"6.3.1","browser_interactions":0,"missing":false},{"state_1_ids":[1,0],"state_1_key":1,"state_1_choice":0,"state_1_rt":484.59999999403954,"transition":0,"state":1,"state_2_ids":[2,3],"state_2_key":1,"state_2_choice":3,"state_2_rt":398.7000000178814,"outcome":0,"rocket_colors":["#955db9","#48a782"],"planet_colors":["#7f5d5d","#5f6f81"],"screen_resolution":[1920,1080],"minimum_resolution":1,"trial":56,"drifts":[0.277,0.408,0.373,0.526],"drift_ix":2,"trial_type":"two-step-trial","trial_index":89,"time_elapsed":589627,"internal_node_id":"0.0-69.0-0.0","task_version":"1.0","jspsych_version":"6.3.1","browser_interactions":0,"missing":false},{"state_1_ids":[1,0],"state_1_key":0,"state_1_choice":1,"state_1_rt":636.5999999940395,"transition":1,"state":1,"state_2_ids":[2,3],"state_2_key":1,"state_2_choice":3,"state_2_rt":431.40000000596046,"outcome":0,"rocket_colors":["#955db9","#48a782"],"planet_colors":["#7f5d5d","#5f6f81"],"screen_resolution":[1920,1080],"minimum_resolution":1,"trial":57,"drifts":[0.252,0.418,0.356,0.521],"drift_ix":2,"trial_type":"two-step-trial","trial_index":90,"time_elapsed":592700,"internal_node_id":"0.0-70.0-0.0","task_version":"1.0","jspsych_version":"6.3.1","browser_interactions":0,"missing":false},{"state_1_ids":[1,0],"state_1_key":0,"state_1_choice":1,"state_1_rt":500.7000000178814,"transition":1,"state":1,"state_2_ids":[2,3],"state_2_key":1,"state_2_choice":3,"state_2_rt":550.8000000119209,"outcome":1,"rocket_colors":["#955db9","#48a782"],"planet_colors":["#7f5d5d","#5f6f81"],"screen_resolution":[1920,1080],"minimum_resolution":1,"trial":58,"drifts":[0.282,0.462,0.395,0.504],"drift_ix":2,"trial_type":"two-step-trial","trial_index":91,"time_elapsed":595756,"internal_node_id":"0.0-71.0-0.0","task_version":"1.0","jspsych_version":"6.3.1","browser_interactions":0,"missing":false},{"state_1_ids":[1,0],"state_1_key":0,"state_1_choice":1,"state_1_rt":428.19999998807907,"transition":0,"state":0,"state_2_ids":[0,1],"state_2_key":1,"state_2_choice":1,"state_2_rt":1463.0999999940395,"outcome":0,"rocket_colors":["#955db9","#48a782"],"planet_colors":["#7f5d5d","#5f6f81"],"screen_resolution":[1920,1080],"minimum_resolution":1,"trial":59,"drifts":[0.297,0.475,0.39,0.498],"drift_ix":2,"trial_type":"two-step-trial","trial_index":92,"time_elapsed":599653,"internal_node_id":"0.0-72.0-0.0","task_version":"1.0","jspsych_version":"6.3.1","browser_interactions":0,"missing":false},{"state_1_ids":[1,0],"state_1_key":0,"state_1_choice":1,"state_1_rt":412.5,"transition":1,"state":1,"state_2_ids":[2,3],"state_2_key":1,"state_2_choice":3,"state_2_rt":565.8000000119209,"outcome":1,"rocket_colors":["#955db9","#48a782"],"planet_colors":["#7f5d5d","#5f6f81"],"screen_resolution":[1920,1080],"minimum_resolution":1,"trial":60,"drifts":[0.295,0.463,0.364,0.52],"drift_ix":2,"trial_type":"two-step-trial","trial_index":93,"time_elapsed":602637,"internal_node_id":"0.0-73.0-0.0","task_version":"1.0","jspsych_version":"6.3.1","browser_interactions":0,"missing":false},{"state_1_ids":[0,1],"state_1_key":0,"state_1_choice":0,"state_1_rt":669.5999999940395,"transition":1,"state":0,"state_2_ids":[0,1],"state_2_key":0,"state_2_choice":0,"state_2_rt":646.8000000119209,"outcome":1,"rocket_colors":["#955db9","#48a782"],"planet_colors":["#7f5d5d","#5f6f81"],"screen_resolution":[1920,1080],"minimum_resolution":1,"trial":61,"drifts":[0.295,0.433,0.355,0.543],"drift_ix":2,"trial_type":"two-step-trial","trial_index":94,"time_elapsed":605957,"internal_node_id":"0.0-74.0-0.0","task_version":"1.0","jspsych_version":"6.3.1","browser_interactions":0,"missing":false},{"state_1_ids":[0,1],"state_1_key":0,"state_1_choice":0,"state_1_rt":580.3000000119209,"transition":0,"state":1,"state_2_ids":[2,3],"state_2_key":1,"state_2_choice":3,"state_2_rt":863.1000000238419,"outcome":1,"rocket_colors":["#955db9","#48a782"],"planet_colors":["#7f5d5d","#5f6f81"],"screen_resolution":[1920,1080],"minimum_resolution":1,"trial":62,"drifts":[0.307,0.43,0.353,0.543],"drift_ix":2,"trial_type":"two-step-trial","trial_index":95,"time_elapsed":609406,"internal_node_id":"0.0-75.0-0.0","task_version":"1.0","jspsych_version":"6.3.1","browser_interactions":0,"missing":false},{"state_1_ids":[0,1],"state_1_key":0,"state_1_choice":0,"state_1_rt":732.1999999880791,"transition":1,"state":0,"state_2_ids":[0,1],"state_2_key":0,"state_2_choice":0,"state_2_rt":503.40000000596046,"outcome":0,"rocket_colors":["#955db9","#48a782"],"planet_colors":["#7f5d5d","#5f6f81"],"screen_resolution":[1920,1080],"minimum_resolution":1,"trial":63,"drifts":[0.353,0.426,0.367,0.529],"drift_ix":2,"trial_type":"two-step-trial","trial_index":96,"time_elapsed":612647,"internal_node_id":"0.0-76.0-0.0","task_version":"1.0","jspsych_version":"6.3.1","browser_interactions":0,"missing":false},{"state_1_ids":[1,0],"state_1_key":0,"state_1_choice":1,"state_1_rt":843.6999999880791,"transition":1,"state":1,"state_2_ids":[2,3],"state_2_key":1,"state_2_choice":3,"state_2_rt":462.90000000596046,"outcome":0,"rocket_colors":["#955db9","#48a782"],"planet_colors":["#7f5d5d","#5f6f81"],"screen_resolution":[1920,1080],"minimum_resolution":1,"trial":64,"drifts":[0.37,0.432,0.33,0.47],"drift_ix":2,"trial_type":"two-step-trial","trial_index":97,"time_elapsed":615959,"internal_node_id":"0.0-77.0-0.0","task_version":"1.0","jspsych_version":"6.3.1","browser_interactions":0,"missing":false},{"state_1_ids":[1,0],"state_1_key":0,"state_1_choice":1,"state_1_rt":884.3000000119209,"transition":1,"state":1,"state_2_ids":[2,3],"state_2_key":1,"state_2_choice":3,"state_2_rt":543.5999999940395,"outcome":1,"rocket_colors":["#955db9","#48a782"],"planet_colors":["#7f5d5d","#5f6f81"],"screen_resolution":[1920,1080],"minimum_resolution":1,"trial":65,"drifts":[0.377,0.393,0.348,0.501],"drift_ix":2,"trial_type":"two-step-trial","trial_index":98,"time_elapsed":619390,"internal_node_id":"0.0-78.0-0.0","task_version":"1.0","jspsych_version":"6.3.1","browser_interactions":0,"missing":false},{"state_1_ids":[0,1],"state_1_key":0,"state_1_choice":0,"state_1_rt":1493,"transition":1,"state":0,"state_2_ids":[0,1],"state_2_key":0,"state_2_choice":0,"state_2_rt":672.1999999880791,"outcome":0,"rocket_colors":["#955db9","#48a782"],"planet_colors":["#7f5d5d","#5f6f81"],"screen_resolution":[1920,1080],"minimum_resolution":1,"trial":66,"drifts":[0.345,0.371,0.258,0.459],"drift_ix":2,"trial_type":"two-step-trial","trial_index":99,"time_elapsed":623560,"internal_node_id":"0.0-79.0-0.0","task_version":"1.0","jspsych_version":"6.3.1","browser_interactions":0,"missing":false},{"state_1_ids":[0,1],"state_1_key":0,"state_1_choice":0,"state_1_rt":596.5999999940395,"transition":0,"state":1,"state_2_ids":[2,3],"state_2_key":1,"state_2_choice":3,"state_2_rt":557.8000000119209,"outcome":0,"rocket_colors":["#955db9","#48a782"],"planet_colors":["#7f5d5d","#5f6f81"],"screen_resolution":[1920,1080],"minimum_resolution":1,"trial":67,"drifts":[0.332,0.355,0.256,0.426],"drift_ix":2,"trial_type":"two-step-trial","trial_index":100,"time_elapsed":626720,"internal_node_id":"0.0-80.0-0.0","task_version":"1.0","jspsych_version":"6.3.1","browser_interactions":0,"missing":false},{"state_1_ids":[0,1],"state_1_key":1,"state_1_choice":1,"state_1_rt":780.4000000059605,"transition":0,"state":0,"state_2_ids":[0,1],"state_2_key":1,"state_2_choice":1,"state_2_rt":847.4000000059605,"outcome":0,"rocket_colors":["#955db9","#48a782"],"planet_colors":["#7f5d5d","#5f6f81"],"screen_resolution":[1920,1080],"minimum_resolution":1,"trial":68,"drifts":[0.331,0.398,0.311,0.426],"drift_ix":2,"trial_type":"two-step-trial","trial_index":101,"time_elapsed":630353,"internal_node_id":"0.0-81.0-0.0","task_version":"1.0","jspsych_version":"6.3.1","browser_interactions":0,"missing":false},{"state_1_ids":[0,1],"state_1_key":1,"state_1_choice":1,"state_1_rt":531.8999999761581,"transition":1,"state":1,"state_2_ids":[2,3],"state_2_key":1,"state_2_choice":3,"state_2_rt":511.80000001192093,"outcome":0,"rocket_colors":["#955db9","#48a782"],"planet_colors":["#7f5d5d","#5f6f81"],"screen_resolution":[1920,1080],"minimum_resolution":1,"trial":69,"drifts":[0.325,0.426,0.326,0.384],"drift_ix":2,"trial_type":"two-step-trial","trial_index":102,"time_elapsed":633411,"internal_node_id":"0.0-82.0-0.0","task_version":"1.0","jspsych_version":"6.3.1","browser_interactions":0,"missing":false},{"state_1_ids":[1,0],"state_1_key":1,"state_1_choice":0,"state_1_rt":538.8000000119209,"transition":1,"state":0,"state_2_ids":[0,1],"state_2_key":1,"state_2_choice":1,"state_2_rt":431.2000000178814,"outcome":0,"rocket_colors":["#955db9","#48a782"],"planet_colors":["#7f5d5d","#5f6f81"],"screen_resolution":[1920,1080],"minimum_resolution":1,"trial":70,"drifts":[0.293,0.475,0.305,0.375],"drift_ix":2,"trial_type":"two-step-trial","trial_index":103,"time_elapsed":636385,"internal_node_id":"0.0-83.0-0.0","task_version":"1.0","jspsych_version":"6.3.1","browser_interactions":0,"missing":false},{"state_1_ids":[1,0],"state_1_key":1,"state_1_choice":0,"state_1_rt":460.60000002384186,"transition":0,"state":1,"state_2_ids":[2,3],"state_2_key":1,"state_2_choice":3,"state_2_rt":590.9000000059605,"outcome":1,"rocket_colors":["#955db9","#48a782"],"planet_colors":["#7f5d5d","#5f6f81"],"screen_resolution":[1920,1080],"minimum_resolution":1,"trial":71,"drifts":[0.268,0.51,0.303,0.365],"drift_ix":2,"trial_type":"two-step-trial","trial_index":104,"time_elapsed":639441,"internal_node_id":"0.0-84.0-0.0","task_version":"1.0","jspsych_version":"6.3.1","browser_interactions":0,"missing":false},{"state_1_ids":[0,1],"state_1_key":0,"state_1_choice":0,"state_1_rt":612.3999999761581,"transition":1,"state":0,"state_2_ids":[0,1],"state_2_key":0,"state_2_choice":0,"state_2_rt":935.2999999821186,"outcome":1,"rocket_colors":["#955db9","#48a782"],"planet_colors":["#7f5d5d","#5f6f81"],"screen_resolution":[1920,1080],"minimum_resolution":1,"trial":72,"drifts":[0.294,0.507,0.326,0.359],"drift_ix":2,"trial_type":"two-step-trial","trial_index":105,"time_elapsed":642994,"internal_node_id":"0.0-85.0-0.0","task_version":"1.0","jspsych_version":"6.3.1","browser_interactions":0,"missing":false},{"state_1_ids":[1,0],"state_1_key":0,"state_1_choice":1,"state_1_rt":580.1000000238419,"transition":1,"state":1,"state_2_ids":[2,3],"state_2_key":1,"state_2_choice":3,"state_2_rt":600,"outcome":1,"rocket_colors":["#955db9","#48a782"],"planet_colors":["#7f5d5d","#5f6f81"],"screen_resolution":[1920,1080],"minimum_resolution":1,"trial":73,"drifts":[0.296,0.541,0.313,0.367],"drift_ix":2,"trial_type":"two-step-trial","trial_index":106,"time_elapsed":646180,"internal_node_id":"0.0-86.0-0.0","task_version":"1.0","jspsych_version":"6.3.1","browser_interactions":0,"missing":false},{"state_1_ids":[0,1],"state_1_key":0,"state_1_choice":0,"state_1_rt":347.59999999403954,"transition":1,"state":0,"state_2_ids":[0,1],"state_2_key":0,"state_2_choice":0,"state_2_rt":847.5,"outcome":1,"rocket_colors":["#955db9","#48a782"],"planet_colors":["#7f5d5d","#5f6f81"],"screen_resolution":[1920,1080],"minimum_resolution":1,"trial":74,"drifts":[0.282,0.491,0.339,0.374],"drift_ix":2,"trial_type":"two-step-trial","trial_index":107,"time_elapsed":649379,"internal_node_id":"0.0-87.0-0.0","task_version":"1.0","jspsych_version":"6.3.1","browser_interactions":0,"missing":false},{"state_1_ids":[0,1],"state_1_key":0,"state_1_choice":0,"state_1_rt":468.19999998807907,"transition":1,"state":0,"state_2_ids":[0,1],"state_2_key":0,"state_2_choice":0,"state_2_rt":479,"outcome":0,"rocket_colors":["#955db9","#48a782"],"planet_colors":["#7f5d5d","#5f6f81"],"screen_resolution":[1920,1080],"minimum_resolution":1,"trial":75,"drifts":[0.336,0.513,0.333,0.367],"drift_ix":2,"trial_type":"two-step-trial","trial_index":108,"time_elapsed":652331,"internal_node_id":"0.0-88.0-0.0","task_version":"1.0","jspsych_version":"6.3.1","browser_interactions":0,"missing":false},{"state_1_ids":[1,0],"state_1_key":0,"state_1_choice":1,"state_1_rt":524.5999999940395,"transition":1,"state":1,"state_2_ids":[2,3],"state_2_key":1,"state_2_choice":3,"state_2_rt":439.69999998807907,"outcome":1,"rocket_colors":["#955db9","#48a782"],"planet_colors":["#7f5d5d","#5f6f81"],"screen_resolution":[1920,1080],"minimum_resolution":1,"trial":76,"drifts":[0.344,0.538,0.274,0.339],"drift_ix":2,"trial_type":"two-step-trial","trial_index":109,"time_elapsed":655300,"internal_node_id":"0.0-89.0-0.0","task_version":"1.0","jspsych_version":"6.3.1","browser_interactions":0,"missing":false},{"state_1_ids":[1,0],"state_1_key":1,"state_1_choice":0,"state_1_rt":1508.5,"transition":0,"state":1,"state_2_ids":[2,3],"state_2_key":1,"state_2_choice":3,"state_2_rt":790.9000000059605,"outcome":0,"rocket_colors":["#955db9","#48a782"],"planet_colors":["#7f5d5d","#5f6f81"],"screen_resolution":[1920,1080],"minimum_resolution":1,"trial":77,"drifts":[0.322,0.54,0.262,0.343],"drift_ix":2,"trial_type":"two-step-trial","trial_index":110,"time_elapsed":659604,"internal_node_id":"0.0-90.0-0.0","task_version":"1.0","jspsych_version":"6.3.1","browser_interactions":0,"missing":false},{"state_1_ids":[1,0],"state_1_key":1,"state_1_choice":0,"state_1_rt":652.4000000059605,"transition":0,"state":1,"state_2_ids":[2,3],"state_2_key":1,"state_2_choice":3,"state_2_rt":719.1999999880791,"outcome":0,"rocket_colors":["#955db9","#48a782"],"planet_colors":["#7f5d5d","#5f6f81"],"screen_resolution":[1920,1080],"minimum_resolution":1,"trial":78,"drifts":[0.351,0.561,0.265,0.342],"drift_ix":2,"trial_type":"two-step-trial","trial_index":111,"time_elapsed":662980,"internal_node_id":"0.0-91.0-0.0","task_version":"1.0","jspsych_version":"6.3.1","browser_interactions":0,"missing":false},{"state_1_ids":[0,1],"state_1_key":0,"state_1_choice":0,"state_1_rt":540.5999999940395,"transition":1,"state":0,"state_2_ids":[0,1],"state_2_key":0,"state_2_choice":0,"state_2_rt":639.1999999880791,"outcome":0,"rocket_colors":["#955db9","#48a782"],"planet_colors":["#7f5d5d","#5f6f81"],"screen_resolution":[1920,1080],"minimum_resolution":1,"trial":79,"drifts":[0.335,0.543,0.286,0.35],"drift_ix":2,"trial_type":"two-step-trial","trial_index":112,"time_elapsed":666165,"internal_node_id":"0.0-92.0-0.0","task_version":"1.0","jspsych_version":"6.3.1","browser_interactions":0,"missing":false},{"state_1_ids":[0,1],"state_1_key":0,"state_1_choice":0,"state_1_rt":765.0999999940395,"transition":1,"state":0,"state_2_ids":[0,1],"state_2_key":0,"state_2_choice":0,"state_2_rt":862.4000000059605,"outcome":1,"rocket_colors":["#955db9","#48a782"],"planet_colors":["#7f5d5d","#5f6f81"],"screen_resolution":[1920,1080],"minimum_resolution":1,"trial":80,"drifts":[0.328,0.536,0.289,0.405],"drift_ix":2,"trial_type":"two-step-trial","trial_index":113,"time_elapsed":669798,"internal_node_id":"0.0-93.0-0.0","task_version":"1.0","jspsych_version":"6.3.1","browser_interactions":0,"missing":false},{"state_1_ids":[1,0],"state_1_key":0,"state_1_choice":1,"state_1_rt":964.3000000119209,"transition":1,"state":1,"state_2_ids":[2,3],"state_2_key":1,"state_2_choice":3,"state_2_rt":470.7000000178814,"outcome":0,"rocket_colors":["#955db9","#48a782"],"planet_colors":["#7f5d5d","#5f6f81"],"screen_resolution":[1920,1080],"minimum_resolution":1,"trial":81,"drifts":[0.286,0.534,0.265,0.391],"drift_ix":2,"trial_type":"two-step-trial","trial_index":114,"time_elapsed":673238,"internal_node_id":"0.0-94.0-0.0","task_version":"1.0","jspsych_version":"6.3.1","browser_interactions":0,"missing":false},{"state_1_ids":[0,1],"state_1_key":1,"state_1_choice":1,"state_1_rt":861,"transition":1,"state":1,"state_2_ids":[2,3],"state_2_key":1,"state_2_choice":3,"state_2_rt":447.30000001192093,"outcome":0,"rocket_colors":["#955db9","#48a782"],"planet_colors":["#7f5d5d","#5f6f81"],"screen_resolution":[1920,1080],"minimum_resolution":1,"trial":82,"drifts":[0.307,0.553,0.256,0.373],"drift_ix":2,"trial_type":"two-step-trial","trial_index":115,"time_elapsed":676550,"internal_node_id":"0.0-95.0-0.0","task_version":"1.0","jspsych_version":"6.3.1","browser_interactions":0,"missing":false},{"state_1_ids":[1,0],"state_1_key":0,"state_1_choice":1,"state_1_rt":765.1999999880791,"transition":1,"state":1,"state_2_ids":[2,3],"state_2_key":1,"state_2_choice":3,"state_2_rt":399.19999998807907,"outcome":0,"rocket_colors":["#955db9","#48a782"],"planet_colors":["#7f5d5d","#5f6f81"],"screen_resolution":[1920,1080],"minimum_resolution":1,"trial":83,"drifts":[0.306,0.564,0.273,0.38],"drift_ix":2,"trial_type":"two-step-trial","trial_index":116,"time_elapsed":679734,"internal_node_id":"0.0-96.0-0.0","task_version":"1.0","jspsych_version":"6.3.1","browser_interactions":0,"missing":false},{"state_1_ids":[0,1],"state_1_key":1,"state_1_choice":1,"state_1_rt":636.9000000059605,"transition":1,"state":1,"state_2_ids":[2,3],"state_2_key":1,"state_2_choice":3,"state_2_rt":447,"outcome":0,"rocket_colors":["#955db9","#48a782"],"planet_colors":["#7f5d5d","#5f6f81"],"screen_resolution":[1920,1080],"minimum_resolution":1,"trial":84,"drifts":[0.263,0.564,0.275,0.397],"drift_ix":2,"trial_type":"two-step-trial","trial_index":117,"time_elapsed":682823,"internal_node_id":"0.0-97.0-0.0","task_version":"1.0","jspsych_version":"6.3.1","browser_interactions":0,"missing":false},{"state_1_ids":[0,1],"state_1_key":0,"state_1_choice":0,"state_1_rt":380.39999997615814,"transition":1,"state":0,"state_2_ids":[0,1],"state_2_key":0,"state_2_choice":0,"state_2_rt":807.3000000119209,"outcome":0,"rocket_colors":["#955db9","#48a782"],"planet_colors":["#7f5d5d","#5f6f81"],"screen_resolution":[1920,1080],"minimum_resolution":1,"trial":85,"drifts":[0.295,0.592,0.3,0.406],"drift_ix":2,"trial_type":"two-step-trial","trial_index":118,"time_elapsed":686015,"internal_node_id":"0.0-98.0-0.0","task_version":"1.0","jspsych_version":"6.3.1","browser_interactions":0,"missing":false},{"state_1_ids":[1,0],"state_1_key":1,"state_1_choice":0,"state_1_rt":693,"transition":1,"state":0,"state_2_ids":[0,1],"state_2_key":0,"state_2_choice":0,"state_2_rt":495.5,"outcome":1,"rocket_colors":["#955db9","#48a782"],"planet_colors":["#7f5d5d","#5f6f81"],"screen_resolution":[1920,1080],"minimum_resolution":1,"trial":86,"drifts":[0.266,0.571,0.324,0.417],"drift_ix":2,"trial_type":"two-step-trial","trial_index":119,"time_elapsed":689209,"internal_node_id":"0.0-99.0-0.0","task_version":"1.0","jspsych_version":"6.3.1","browser_interactions":0,"missing":false},{"state_1_ids":[1,0],"state_1_key":1,"state_1_choice":0,"state_1_rt":531.7999999821186,"transition":1,"state":0,"state_2_ids":[0,1],"state_2_key":0,"state_2_choice":0,"state_2_rt":423,"outcome":0,"rocket_colors":["#955db9","#48a782"],"planet_colors":["#7f5d5d","#5f6f81"],"screen_resolution":[1920,1080],"minimum_resolution":1,"trial":87,"drifts":[0.25,0.532,0.345,0.39],"drift_ix":2,"trial_type":"two-step-trial","trial_index":120,"time_elapsed":692169,"internal_node_id":"0.0-100.0-0.0","task_version":"1.0","jspsych_version":"6.3.1","browser_interactions":0,"missing":false},{"state_1_ids":[1,0],"state_1_key":1,"state_1_choice":0,"state_1_rt":371.69999998807907,"transition":1,"state":0,"state_2_ids":[0,1],"state_2_key":0,"state_2_choice":0,"state_2_rt":470.59999999403954,"outcome":0,"rocket_colors":["#955db9","#48a782"],"planet_colors":["#7f5d5d","#5f6f81"],"screen_resolution":[1920,1080],"minimum_resolution":1,"trial":88,"drifts":[0.258,0.529,0.341,0.378],"drift_ix":2,"trial_type":"two-step-trial","trial_index":121,"time_elapsed":695017,"internal_node_id":"0.0-101.0-0.0","task_version":"1.0","jspsych_version":"6.3.1","browser_interactions":0,"missing":false},{"state_1_ids":[1,0],"state_1_key":1,"state_1_choice":0,"state_1_rt":404.09999999403954,"transition":1,"state":0,"state_2_ids":[0,1],"state_2_key":0,"state_2_choice":0,"state_2_rt":526.9000000059605,"outcome":1,"rocket_colors":["#955db9","#48a782"],"planet_colors":["#7f5d5d","#5f6f81"],"screen_resolution":[1920,1080],"minimum_resolution":1,"trial":89,"drifts":[0.266,0.533,0.306,0.41],"drift_ix":2,"trial_type":"two-step-trial","trial_index":122,"time_elapsed":697953,"internal_node_id":"0.0-102.0-0.0","task_version":"1.0","jspsych_version":"6.3.1","browser_interactions":0,"missing":false},{"state_1_ids":[0,1],"state_1_key":0,"state_1_choice":0,"state_1_rt":917.1000000238419,"transition":0,"state":1,"state_2_ids":[2,3],"state_2_key":1,"state_2_choice":3,"state_2_rt":918.7999999821186,"outcome":0,"rocket_colors":["#955db9","#48a782"],"planet_colors":["#7f5d5d","#5f6f81"],"screen_resolution":[1920,1080],"minimum_resolution":1,"trial":90,"drifts":[0.254,0.554,0.297,0.382],"drift_ix":2,"trial_type":"two-step-trial","trial_index":123,"time_elapsed":701794,"internal_node_id":"0.0-103.0-0.0","task_version":"1.0","jspsych_version":"6.3.1","browser_interactions":0,"missing":false},{"state_1_ids":[1,0],"state_1_key":0,"state_1_choice":1,"state_1_rt":1364.4000000059605,"transition":1,"state":1,"state_2_ids":[2,3],"state_2_key":1,"state_2_choice":3,"state_2_rt":454.90000000596046,"outcome":0,"rocket_colors":["#955db9","#48a782"],"planet_colors":["#7f5d5d","#5f6f81"],"screen_resolution":[1920,1080],"minimum_resolution":1,"trial":91,"drifts":[0.265,0.543,0.313,0.38],"drift_ix":2,"trial_type":"two-step-trial","trial_index":124,"time_elapsed":705618,"internal_node_id":"0.0-104.0-0.0","task_version":"1.0","jspsych_version":"6.3.1","browser_interactions":0,"missing":false},{"state_1_ids":[1,0],"state_1_key":0,"state_1_choice":1,"state_1_rt":484.7999999821186,"transition":1,"state":1,"state_2_ids":[2,3],"state_2_key":1,"state_2_choice":3,"state_2_rt":543.4000000059605,"outcome":0,"rocket_colors":["#955db9","#48a782"],"planet_colors":["#7f5d5d","#5f6f81"],"screen_resolution":[1920,1080],"minimum_resolution":1,"trial":92,"drifts":[0.259,0.54,0.279,0.363],"drift_ix":2,"trial_type":"two-step-trial","trial_index":125,"time_elapsed":708650,"internal_node_id":"0.0-105.0-0.0","task_version":"1.0","jspsych_version":"6.3.1","browser_interactions":0,"missing":false},{"state_1_ids":[0,1],"state_1_key":0,"state_1_choice":0,"state_1_rt":901,"transition":1,"state":0,"state_2_ids":[0,1],"state_2_key":0,"state_2_choice":0,"state_2_rt":383.2000000178814,"outcome":0,"rocket_colors":["#955db9","#48a782"],"planet_colors":["#7f5d5d","#5f6f81"],"screen_resolution":[1920,1080],"minimum_resolution":1,"trial":93,"drifts":[0.251,0.565,0.296,0.35],"drift_ix":2,"trial_type":"two-step-trial","trial_index":126,"time_elapsed":711938,"internal_node_id":"0.0-106.0-0.0","task_version":"1.0","jspsych_version":"6.3.1","browser_interactions":0,"missing":false},{"state_1_ids":[1,0],"state_1_key":0,"state_1_choice":1,"state_1_rt":1005,"transition":1,"state":1,"state_2_ids":[2,3],"state_2_key":0,"state_2_choice":2,"state_2_rt":494.90000000596046,"outcome":0,"rocket_colors":["#955db9","#48a782"],"planet_colors":["#7f5d5d","#5f6f81"],"screen_resolution":[1920,1080],"minimum_resolution":1,"trial":94,"drifts":[0.276,0.543,0.275,0.322],"drift_ix":2,"trial_type":"two-step-trial","trial_index":127,"time_elapsed":715443,"internal_node_id":"0.0-107.0-0.0","task_version":"1.0","jspsych_version":"6.3.1","browser_interactions":0,"missing":false},{"state_1_ids":[1,0],"state_1_key":0,"state_1_choice":1,"state_1_rt":428.40000000596046,"transition":1,"state":1,"state_2_ids":[2,3],"state_2_key":0,"state_2_choice":2,"state_2_rt":382.90000000596046,"outcome":0,"rocket_colors":["#955db9","#48a782"],"planet_colors":["#7f5d5d","#5f6f81"],"screen_resolution":[1920,1080],"minimum_resolution":1,"trial":95,"drifts":[0.317,0.539,0.285,0.291],"drift_ix":2,"trial_type":"two-step-trial","trial_index":128,"time_elapsed":718260,"internal_node_id":"0.0-108.0-0.0","task_version":"1.0","jspsych_version":"6.3.1","browser_interactions":0,"missing":false},{"state_1_ids":[1,0],"state_1_key":0,"state_1_choice":1,"state_1_rt":452.30000001192093,"transition":1,"state":1,"state_2_ids":[2,3],"state_2_key":0,"state_2_choice":2,"state_2_rt":406.30000001192093,"outcome":1,"rocket_colors":["#955db9","#48a782"],"planet_colors":["#7f5d5d","#5f6f81"],"screen_resolution":[1920,1080],"minimum_resolution":1,"trial":96,"drifts":[0.325,0.583,0.251,0.276],"drift_ix":2,"trial_type":"two-step-trial","trial_index":129,"time_elapsed":721124,"internal_node_id":"0.0-109.0-0.0","task_version":"1.0","jspsych_version":"6.3.1","browser_interactions":0,"missing":false},{"state_1_ids":[1,0],"state_1_key":0,"state_1_choice":1,"state_1_rt":396.59999999403954,"transition":1,"state":1,"state_2_ids":[2,3],"state_2_key":0,"state_2_choice":2,"state_2_rt":366.90000000596046,"outcome":0,"rocket_colors":["#955db9","#48a782"],"planet_colors":["#7f5d5d","#5f6f81"],"screen_resolution":[1920,1080],"minimum_resolution":1,"trial":97,"drifts":[0.352,0.597,0.278,0.336],"drift_ix":2,"trial_type":"two-step-trial","trial_index":130,"time_elapsed":723893,"internal_node_id":"0.0-110.0-0.0","task_version":"1.0","jspsych_version":"6.3.1","browser_interactions":0,"missing":false},{"state_1_ids":[0,1],"state_1_key":1,"state_1_choice":1,"state_1_rt":772.0999999940395,"transition":1,"state":1,"state_2_ids":[2,3],"state_2_key":0,"state_2_choice":2,"state_2_rt":399.59999999403954,"outcome":1,"rocket_colors":["#955db9","#48a782"],"planet_colors":["#7f5d5d","#5f6f81"],"screen_resolution":[1920,1080],"minimum_resolution":1,"trial":98,"drifts":[0.369,0.601,0.316,0.324],"drift_ix":2,"trial_type":"two-step-trial","trial_index":131,"time_elapsed":727069,"internal_node_id":"0.0-111.0-0.0","task_version":"1.0","jspsych_version":"6.3.1","browser_interactions":0,"missing":false},{"state_1_ids":[1,0],"state_1_key":0,"state_1_choice":1,"state_1_rt":412.09999999403954,"transition":1,"state":1,"state_2_ids":[2,3],"state_2_key":0,"state_2_choice":2,"state_2_rt":455.69999998807907,"outcome":1,"rocket_colors":["#955db9","#48a782"],"planet_colors":["#7f5d5d","#5f6f81"],"screen_resolution":[1920,1080],"minimum_resolution":1,"trial":99,"drifts":[0.338,0.574,0.29,0.307],"drift_ix":2,"trial_type":"two-step-trial","trial_index":132,"time_elapsed":729942,"internal_node_id":"0.0-112.0-0.0","task_version":"1.0","jspsych_version":"6.3.1","browser_interactions":0,"missing":false},{"state_1_ids":[1,0],"state_1_key":0,"state_1_choice":1,"state_1_rt":444.30000001192093,"transition":1,"state":1,"state_2_ids":[2,3],"state_2_key":0,"state_2_choice":2,"state_2_rt":613.5999999940395,"outcome":0,"rocket_colors":["#955db9","#48a782"],"planet_colors":["#7f5d5d","#5f6f81"],"screen_resolution":[1920,1080],"minimum_resolution":1,"trial":100,"drifts":[0.348,0.567,0.294,0.264],"drift_ix":2,"trial_type":"two-step-trial","trial_index":133,"time_elapsed":733005,"internal_node_id":"0.0-113.0-0.0","task_version":"1.0","jspsych_version":"6.3.1","browser_interactions":0,"missing":false},{"view_history":"[{\"page_index\":0,\"viewing_time\":15527.90000000596},{\"page_index\":1,\"viewing_time\":4643.4000000059605}]","rt":20171.59999999404,"trial_type":"two-step-instructions","trial_index":134,"time_elapsed":753180,"internal_node_id":"0.0-114.0","task_version":"1.0","jspsych_version":"6.3.1"},{"state_1_ids":[1,0],"state_1_key":0,"state_1_choice":1,"state_1_rt":907.4000000059605,"transition":0,"state":0,"state_2_ids":[0,1],"state_2_key":0,"state_2_choice":0,"state_2_rt":607.1999999880791,"outcome":1,"rocket_colors":["#955db9","#48a782"],"planet_colors":["#7f5d5d","#5f6f81"],"screen_resolution":[1920,1080],"minimum_resolution":1,"trial":101,"drifts":[0.332,0.536,0.335,0.261],"drift_ix":2,"trial_type":"two-step-trial","trial_index":135,"time_elapsed":756701,"internal_node_id":"0.0-115.0-0.0","task_version":"1.0","jspsych_version":"6.3.1","browser_interactions":0,"missing":false},{"state_1_ids":[0,1],"state_1_key":0,"state_1_choice":0,"state_1_rt":436.2000000178814,"transition":1,"state":0,"state_2_ids":[0,1],"state_2_key":0,"state_2_choice":0,"state_2_rt":535.2999999821186,"outcome":1,"rocket_colors":["#955db9","#48a782"],"planet_colors":["#7f5d5d","#5f6f81"],"screen_resolution":[1920,1080],"minimum_resolution":1,"trial":102,"drifts":[0.331,0.521,0.359,0.268],"drift_ix":2,"trial_type":"two-step-trial","trial_index":136,"time_elapsed":759677,"internal_node_id":"0.0-116.0-0.0","task_version":"1.0","jspsych_version":"6.3.1","browser_interactions":0,"missing":false},{"state_1_ids":[1,0],"state_1_key":0,"state_1_choice":1,"state_1_rt":460.5,"transition":0,"state":0,"state_2_ids":[0,1],"state_2_key":0,"state_2_choice":0,"state_2_rt":447.10000002384186,"outcome":0,"rocket_colors":["#955db9","#48a782"],"planet_colors":["#7f5d5d","#5f6f81"],"screen_resolution":[1920,1080],"minimum_resolution":1,"trial":103,"drifts":[0.317,0.518,0.371,0.309],"drift_ix":2,"trial_type":"two-step-trial","trial_index":137,"time_elapsed":762590,"internal_node_id":"0.0-117.0-0.0","task_version":"1.0","jspsych_version":"6.3.1","browser_interactions":0,"missing":false},{"state_1_ids":[0,1],"state_1_key":0,"state_1_choice":0,"state_1_rt":412.09999999403954,"transition":1,"state":0,"state_2_ids":[0,1],"state_2_key":1,"state_2_choice":1,"state_2_rt":455.09999999403954,"outcome":0,"rocket_colors":["#955db9","#48a782"],"planet_colors":["#7f5d5d","#5f6f81"],"screen_resolution":[1920,1080],"minimum_resolution":1,"trial":104,"drifts":[0.334,0.493,0.341,0.296],"drift_ix":2,"trial_type":"two-step-trial","trial_index":138,"time_elapsed":765462,"internal_node_id":"0.0-118.0-0.0","task_version":"1.0","jspsych_version":"6.3.1","browser_interactions":0,"missing":false},{"state_1_ids":[0,1],"state_1_key":0,"state_1_choice":0,"state_1_rt":436,"transition":0,"state":1,"state_2_ids":[2,3],"state_2_key":0,"state_2_choice":2,"state_2_rt":1011.5999999940395,"outcome":0,"rocket_colors":["#955db9","#48a782"],"planet_colors":["#7f5d5d","#5f6f81"],"screen_resolution":[1920,1080],"minimum_resolution":1,"trial":105,"drifts":[0.349,0.494,0.34,0.27],"drift_ix":2,"trial_type":"two-step-trial","trial_index":139,"time_elapsed":768915,"internal_node_id":"0.0-119.0-0.0","task_version":"1.0","jspsych_version":"6.3.1","browser_interactions":0,"missing":false},{"state_1_ids":[0,1],"state_1_key":0,"state_1_choice":0,"state_1_rt":388.09999999403954,"transition":1,"state":0,"state_2_ids":[0,1],"state_2_key":0,"state_2_choice":0,"state_2_rt":831.8000000119209,"outcome":0,"rocket_colors":["#955db9","#48a782"],"planet_colors":["#7f5d5d","#5f6f81"],"screen_resolution":[1920,1080],"minimum_resolution":1,"trial":106,"drifts":[0.302,0.497,0.307,0.282],"drift_ix":2,"trial_type":"two-step-trial","trial_index":140,"time_elapsed":772139,"internal_node_id":"0.0-120.0-0.0","task_version":"1.0","jspsych_version":"6.3.1","browser_interactions":0,"missing":false},{"state_1_ids":[0,1],"state_1_key":0,"state_1_choice":0,"state_1_rt":515.8000000119209,"transition":1,"state":0,"state_2_ids":[0,1],"state_2_key":0,"state_2_choice":0,"state_2_rt":591.5999999940395,"outcome":1,"rocket_colors":["#955db9","#48a782"],"planet_colors":["#7f5d5d","#5f6f81"],"screen_resolution":[1920,1080],"minimum_resolution":1,"trial":107,"drifts":[0.336,0.523,0.294,0.315],"drift_ix":2,"trial_type":"two-step-trial","trial_index":141,"time_elapsed":775251,"internal_node_id":"0.0-121.0-0.0","task_version":"1.0","jspsych_version":"6.3.1","browser_interactions":0,"missing":false},{"state_1_ids":[0,1],"state_1_key":0,"state_1_choice":0,"state_1_rt":412.09999999403954,"transition":1,"state":0,"state_2_ids":[0,1],"state_2_key":0,"state_2_choice":0,"state_2_rt":527,"outcome":0,"rocket_colors":["#955db9","#48a782"],"planet_colors":["#7f5d5d","#5f6f81"],"screen_resolution":[1920,1080],"minimum_resolution":1,"trial":108,"drifts":[0.381,0.482,0.317,0.324],"drift_ix":2,"trial_type":"two-step-trial","trial_index":142,"time_elapsed":778196,"internal_node_id":"0.0-122.0-0.0","task_version":"1.0","jspsych_version":"6.3.1","browser_interactions":0,"missing":false},{"state_1_ids":[0,1],"state_1_key":0,"state_1_choice":0,"state_1_rt":523.9000000059605,"transition":1,"state":0,"state_2_ids":[0,1],"state_2_key":0,"state_2_choice":0,"state_2_rt":495.7999999821186,"outcome":1,"rocket_colors":["#955db9","#48a782"],"planet_colors":["#7f5d5d","#5f6f81"],"screen_resolution":[1920,1080],"minimum_resolution":1,"trial":109,"drifts":[0.342,0.505,0.32,0.33],"drift_ix":2,"trial_type":"two-step-trial","trial_index":143,"time_elapsed":781220,"internal_node_id":"0.0-123.0-0.0","task_version":"1.0","jspsych_version":"6.3.1","browser_interactions":0,"missing":false},{"state_1_ids":[1,0],"state_1_key":0,"state_1_choice":1,"state_1_rt":413.10000002384186,"transition":1,"state":1,"state_2_ids":[2,3],"state_2_key":1,"state_2_choice":3,"state_2_rt":1359.2999999821186,"outcome":1,"rocket_colors":["#955db9","#48a782"],"planet_colors":["#7f5d5d","#5f6f81"],"screen_resolution":[1920,1080],"minimum_resolution":1,"trial":110,"drifts":[0.337,0.526,0.318,0.349],"drift_ix":2,"trial_type":"two-step-trial","trial_index":144,"time_elapsed":784997,"internal_node_id":"0.0-124.0-0.0","task_version":"1.0","jspsych_version":"6.3.1","browser_interactions":0,"missing":false},{"state_1_ids":[0,1],"state_1_key":1,"state_1_choice":1,"state_1_rt":548.0999999940395,"transition":1,"state":1,"state_2_ids":[2,3],"state_2_key":1,"state_2_choice":3,"state_2_rt":487.59999999403954,"outcome":0,"rocket_colors":["#955db9","#48a782"],"planet_colors":["#7f5d5d","#5f6f81"],"screen_resolution":[1920,1080],"minimum_resolution":1,"trial":111,"drifts":[0.374,0.551,0.269,0.35],"drift_ix":2,"trial_type":"two-step-trial","trial_index":145,"time_elapsed":788037,"internal_node_id":"0.0-125.0-0.0","task_version":"1.0","jspsych_version":"6.3.1","browser_interactions":0,"missing":false},{"state_1_ids":[0,1],"state_1_key":1,"state_1_choice":1,"state_1_rt":403.7000000178814,"transition":1,"state":1,"state_2_ids":[2,3],"state_2_key":1,"state_2_choice":3,"state_2_rt":407.7000000178814,"outcome":0,"rocket_colors":["#955db9","#48a782"],"planet_colors":["#7f5d5d","#5f6f81"],"screen_resolution":[1920,1080],"minimum_resolution":1,"trial":112,"drifts":[0.355,0.517,0.255,0.331],"drift_ix":2,"trial_type":"two-step-trial","trial_index":146,"time_elapsed":790854,"internal_node_id":"0.0-126.0-0.0","task_version":"1.0","jspsych_version":"6.3.1","browser_interactions":0,"missing":false},{"state_1_ids":[0,1],"state_1_key":1,"state_1_choice":1,"state_1_rt":435.7999999821186,"transition":1,"state":1,"state_2_ids":[2,3],"state_2_key":1,"state_2_choice":3,"state_2_rt":415.40000000596046,"outcome":0,"rocket_colors":["#955db9","#48a782"],"planet_colors":["#7f5d5d","#5f6f81"],"screen_resolution":[1920,1080],"minimum_resolution":1,"trial":113,"drifts":[0.331,0.507,0.283,0.271],"drift_ix":2,"trial_type":"two-step-trial","trial_index":147,"time_elapsed":793710,"internal_node_id":"0.0-127.0-0.0","task_version":"1.0","jspsych_version":"6.3.1","browser_interactions":0,"missing":false},{"state_1_ids":[0,1],"state_1_key":1,"state_1_choice":1,"state_1_rt":299.59999999403954,"transition":1,"state":1,"state_2_ids":[2,3],"state_2_key":0,"state_2_choice":2,"state_2_rt":519.1000000238419,"outcome":1,"rocket_colors":["#955db9","#48a782"],"planet_colors":["#7f5d5d","#5f6f81"],"screen_resolution":[1920,1080],"minimum_resolution":1,"trial":114,"drifts":[0.326,0.467,0.284,0.267],"drift_ix":2,"trial_type":"two-step-trial","trial_index":148,"time_elapsed":796534,"internal_node_id":"0.0-128.0-0.0","task_version":"1.0","jspsych_version":"6.3.1","browser_interactions":0,"missing":false},{"state_1_ids":[1,0],"state_1_key":1,"state_1_choice":0,"state_1_rt":388.2999999821186,"transition":1,"state":0,"state_2_ids":[0,1],"state_2_key":1,"state_2_choice":1,"state_2_rt":1504.0999999940395,"outcome":1,"rocket_colors":["#955db9","#48a782"],"planet_colors":["#7f5d5d","#5f6f81"],"screen_resolution":[1920,1080],"minimum_resolution":1,"trial":115,"drifts":[0.313,0.494,0.291,0.251],"drift_ix":2,"trial_type":"two-step-trial","trial_index":149,"time_elapsed":800431,"internal_node_id":"0.0-129.0-0.0","task_version":"1.0","jspsych_version":"6.3.1","browser_interactions":0,"missing":false},{"state_1_ids":[1,0],"state_1_key":0,"state_1_choice":1,"state_1_rt":643.7999999821186,"transition":1,"state":1,"state_2_ids":[2,3],"state_2_key":0,"state_2_choice":2,"state_2_rt":550.5999999940395,"outcome":1,"rocket_colors":["#955db9","#48a782"],"planet_colors":["#7f5d5d","#5f6f81"],"screen_resolution":[1920,1080],"minimum_resolution":1,"trial":116,"drifts":[0.319,0.494,0.296,0.273],"drift_ix":2,"trial_type":"two-step-trial","trial_index":150,"time_elapsed":803630,"internal_node_id":"0.0-130.0-0.0","task_version":"1.0","jspsych_version":"6.3.1","browser_interactions":0,"missing":false},{"state_1_ids":[0,1],"state_1_key":0,"state_1_choice":0,"state_1_rt":693.5,"transition":1,"state":0,"state_2_ids":[0,1],"state_2_key":1,"state_2_choice":1,"state_2_rt":566.5999999940395,"outcome":0,"rocket_colors":["#955db9","#48a782"],"planet_colors":["#7f5d5d","#5f6f81"],"screen_resolution":[1920,1080],"minimum_resolution":1,"trial":117,"drifts":[0.297,0.492,0.312,0.277],"drift_ix":2,"trial_type":"two-step-trial","trial_index":151,"time_elapsed":806895,"internal_node_id":"0.0-131.0-0.0","task_version":"1.0","jspsych_version":"6.3.1","browser_interactions":0,"missing":false},{"state_1_ids":[0,1],"state_1_key":0,"state_1_choice":0,"state_1_rt":484.39999997615814,"transition":1,"state":0,"state_2_ids":[0,1],"state_2_key":1,"state_2_choice":1,"state_2_rt":415.7000000178814,"outcome":1,"rocket_colors":["#955db9","#48a782"],"planet_colors":["#7f5d5d","#5f6f81"],"screen_resolution":[1920,1080],"minimum_resolution":1,"trial":118,"drifts":[0.288,0.513,0.36,0.275],"drift_ix":2,"trial_type":"two-step-trial","trial_index":152,"time_elapsed":809799,"internal_node_id":"0.0-132.0-0.0","task_version":"1.0","jspsych_version":"6.3.1","browser_interactions":0,"missing":false},{"state_1_ids":[0,1],"state_1_key":1,"state_1_choice":1,"state_1_rt":773.1000000238419,"transition":0,"state":0,"state_2_ids":[0,1],"state_2_key":1,"state_2_choice":1,"state_2_rt":1183.199999988079,"outcome":1,"rocket_colors":["#955db9","#48a782"],"planet_colors":["#7f5d5d","#5f6f81"],"screen_resolution":[1920,1080],"minimum_resolution":1,"trial":119,"drifts":[0.304,0.552,0.392,0.266],"drift_ix":2,"trial_type":"two-step-trial","trial_index":153,"time_elapsed":813761,"internal_node_id":"0.0-133.0-0.0","task_version":"1.0","jspsych_version":"6.3.1","browser_interactions":0,"missing":false},{"state_1_ids":[1,0],"state_1_key":0,"state_1_choice":1,"state_1_rt":684.4000000059605,"transition":1,"state":1,"state_2_ids":[2,3],"state_2_key":0,"state_2_choice":2,"state_2_rt":1583,"outcome":0,"rocket_colors":["#955db9","#48a782"],"planet_colors":["#7f5d5d","#5f6f81"],"screen_resolution":[1920,1080],"minimum_resolution":1,"trial":120,"drifts":[0.295,0.538,0.367,0.253],"drift_ix":2,"trial_type":"two-step-trial","trial_index":154,"time_elapsed":818033,"internal_node_id":"0.0-134.0-0.0","task_version":"1.0","jspsych_version":"6.3.1","browser_interactions":0,"missing":false},{"state_1_ids":[1,0],"state_1_key":0,"state_1_choice":1,"state_1_rt":828.2000000178814,"transition":1,"state":1,"state_2_ids":[2,3],"state_2_key":1,"state_2_choice":3,"state_2_rt":447.69999998807907,"outcome":0,"rocket_colors":["#955db9","#48a782"],"planet_colors":["#7f5d5d","#5f6f81"],"screen_resolution":[1920,1080],"minimum_resolution":1,"trial":121,"drifts":[0.268,0.49,0.389,0.267],"drift_ix":2,"trial_type":"two-step-trial","trial_index":155,"time_elapsed":821313,"internal_node_id":"0.0-135.0-0.0","task_version":"1.0","jspsych_version":"6.3.1","browser_interactions":0,"missing":false},{"state_1_ids":[0,1],"state_1_key":1,"state_1_choice":1,"state_1_rt":1021,"transition":1,"state":1,"state_2_ids":[2,3],"state_2_key":1,"state_2_choice":3,"state_2_rt":359,"outcome":0,"rocket_colors":["#955db9","#48a782"],"planet_colors":["#7f5d5d","#5f6f81"],"screen_resolution":[1920,1080],"minimum_resolution":1,"trial":122,"drifts":[0.292,0.548,0.366,0.262],"drift_ix":2,"trial_type":"two-step-trial","trial_index":156,"time_elapsed":824697,"internal_node_id":"0.0-136.0-0.0","task_version":"1.0","jspsych_version":"6.3.1","browser_interactions":0,"missing":false},{"state_1_ids":[1,0],"state_1_key":0,"state_1_choice":1,"state_1_rt":509.5,"transition":0,"state":0,"state_2_ids":[0,1],"state_2_key":1,"state_2_choice":1,"state_2_rt":1646.4000000059605,"outcome":1,"rocket_colors":["#955db9","#48a782"],"planet_colors":["#7f5d5d","#5f6f81"],"screen_resolution":[1920,1080],"minimum_resolution":1,"trial":123,"drifts":[0.287,0.579,0.38,0.276],"drift_ix":2,"trial_type":"two-step-trial","trial_index":157,"time_elapsed":828858,"internal_node_id":"0.0-137.0-0.0","task_version":"1.0","jspsych_version":"6.3.1","browser_interactions":0,"missing":false},{"state_1_ids":[0,1],"state_1_key":1,"state_1_choice":1,"state_1_rt":564.5,"transition":0,"state":0,"state_2_ids":[0,1],"state_2_key":1,"state_2_choice":1,"state_2_rt":399.69999998807907,"outcome":1,"rocket_colors":["#955db9","#48a782"],"planet_colors":["#7f5d5d","#5f6f81"],"screen_resolution":[1920,1080],"minimum_resolution":1,"trial":124,"drifts":[0.296,0.64,0.405,0.262],"drift_ix":2,"trial_type":"two-step-trial","trial_index":158,"time_elapsed":831827,"internal_node_id":"0.0-138.0-0.0","task_version":"1.0","jspsych_version":"6.3.1","browser_interactions":0,"missing":false},{"state_1_ids":[0,1],"state_1_key":1,"state_1_choice":1,"state_1_rt":403.60000002384186,"transition":1,"state":1,"state_2_ids":[2,3],"state_2_key":0,"state_2_choice":2,"state_2_rt":1127.2999999821186,"outcome":0,"rocket_colors":["#955db9","#48a782"],"planet_colors":["#7f5d5d","#5f6f81"],"screen_resolution":[1920,1080],"minimum_resolution":1,"trial":125,"drifts":[0.25,0.637,0.448,0.25],"drift_ix":2,"trial_type":"two-step-trial","trial_index":159,"time_elapsed":835363,"internal_node_id":"0.0-139.0-0.0","task_version":"1.0","jspsych_version":"6.3.1","browser_interactions":0,"missing":false},{"state_1_ids":[1,0],"state_1_key":0,"state_1_choice":1,"state_1_rt":973.3000000119209,"transition":0,"state":0,"state_2_ids":[0,1],"state_2_key":1,"state_2_choice":1,"state_2_rt":439.90000000596046,"outcome":1,"rocket_colors":["#955db9","#48a782"],"planet_colors":["#7f5d5d","#5f6f81"],"screen_resolution":[1920,1080],"minimum_resolution":1,"trial":126,"drifts":[0.255,0.666,0.447,0.257],"drift_ix":2,"trial_type":"two-step-trial","trial_index":160,"time_elapsed":838796,"internal_node_id":"0.0-140.0-0.0","task_version":"1.0","jspsych_version":"6.3.1","browser_interactions":0,"missing":false},{"state_1_ids":[0,1],"state_1_key":0,"state_1_choice":0,"state_1_rt":507.90000000596046,"transition":1,"state":0,"state_2_ids":[0,1],"state_2_key":1,"state_2_choice":1,"state_2_rt":423.7000000178814,"outcome":1,"rocket_colors":["#955db9","#48a782"],"planet_colors":["#7f5d5d","#5f6f81"],"screen_resolution":[1920,1080],"minimum_resolution":1,"trial":127,"drifts":[0.281,0.695,0.433,0.272],"drift_ix":2,"trial_type":"two-step-trial","trial_index":161,"time_elapsed":841732,"internal_node_id":"0.0-141.0-0.0","task_version":"1.0","jspsych_version":"6.3.1","browser_interactions":0,"missing":false},{"state_1_ids":[0,1],"state_1_key":0,"state_1_choice":0,"state_1_rt":420.59999999403954,"transition":0,"state":1,"state_2_ids":[2,3],"state_2_key":1,"state_2_choice":3,"state_2_rt":1174.9000000059605,"outcome":0,"rocket_colors":["#955db9","#48a782"],"planet_colors":["#7f5d5d","#5f6f81"],"screen_resolution":[1920,1080],"minimum_resolution":1,"trial":128,"drifts":[0.277,0.667,0.42,0.278],"drift_ix":2,"trial_type":"two-step-trial","trial_index":162,"time_elapsed":845332,"internal_node_id":"0.0-142.0-0.0","task_version":"1.0","jspsych_version":"6.3.1","browser_interactions":0,"missing":false},{"state_1_ids":[0,1],"state_1_key":0,"state_1_choice":0,"state_1_rt":404.59999999403954,"transition":1,"state":0,"state_2_ids":[0,1],"state_2_key":1,"state_2_choice":1,"state_2_rt":431.7000000178814,"outcome":0,"rocket_colors":["#955db9","#48a782"],"planet_colors":["#7f5d5d","#5f6f81"],"screen_resolution":[1920,1080],"minimum_resolution":1,"trial":129,"drifts":[0.318,0.661,0.46,0.294],"drift_ix":2,"trial_type":"two-step-trial","trial_index":163,"time_elapsed":848173,"internal_node_id":"0.0-143.0-0.0","task_version":"1.0","jspsych_version":"6.3.1","browser_interactions":0,"missing":false},{"state_1_ids":[1,0],"state_1_key":0,"state_1_choice":1,"state_1_rt":571.5,"transition":1,"state":1,"state_2_ids":[2,3],"state_2_key":0,"state_2_choice":2,"state_2_rt":727.8000000119209,"outcome":1,"rocket_colors":["#955db9","#48a782"],"planet_colors":["#7f5d5d","#5f6f81"],"screen_resolution":[1920,1080],"minimum_resolution":1,"trial":130,"drifts":[0.306,0.677,0.461,0.259],"drift_ix":2,"trial_type":"two-step-trial","trial_index":164,"time_elapsed":851477,"internal_node_id":"0.0-144.0-0.0","task_version":"1.0","jspsych_version":"6.3.1","browser_interactions":0,"missing":false},{"state_1_ids":[1,0],"state_1_key":0,"state_1_choice":1,"state_1_rt":660.5999999940395,"transition":1,"state":1,"state_2_ids":[2,3],"state_2_key":0,"state_2_choice":2,"state_2_rt":407.40000000596046,"outcome":0,"rocket_colors":["#955db9","#48a782"],"planet_colors":["#7f5d5d","#5f6f81"],"screen_resolution":[1920,1080],"minimum_resolution":1,"trial":131,"drifts":[0.35,0.655,0.474,0.278],"drift_ix":2,"trial_type":"two-step-trial","trial_index":165,"time_elapsed":854551,"internal_node_id":"0.0-145.0-0.0","task_version":"1.0","jspsych_version":"6.3.1","browser_interactions":0,"missing":false},{"state_1_ids":[1,0],"state_1_key":1,"state_1_choice":0,"state_1_rt":491.40000000596046,"transition":1,"state":0,"state_2_ids":[0,1],"state_2_key":0,"state_2_choice":0,"state_2_rt":454.90000000596046,"outcome":0,"rocket_colors":["#955db9","#48a782"],"planet_colors":["#7f5d5d","#5f6f81"],"screen_resolution":[1920,1080],"minimum_resolution":1,"trial":132,"drifts":[0.352,0.663,0.445,0.297],"drift_ix":2,"trial_type":"two-step-trial","trial_index":166,"time_elapsed":857502,"internal_node_id":"0.0-146.0-0.0","task_version":"1.0","jspsych_version":"6.3.1","browser_interactions":0,"missing":false},{"state_1_ids":[0,1],"state_1_key":1,"state_1_choice":1,"state_1_rt":557.0999999940395,"transition":0,"state":0,"state_2_ids":[0,1],"state_2_key":0,"state_2_choice":0,"state_2_rt":446.60000002384186,"outcome":1,"rocket_colors":["#955db9","#48a782"],"planet_colors":["#7f5d5d","#5f6f81"],"screen_resolution":[1920,1080],"minimum_resolution":1,"trial":133,"drifts":[0.374,0.662,0.412,0.314],"drift_ix":2,"trial_type":"two-step-trial","trial_index":167,"time_elapsed":860510,"internal_node_id":"0.0-147.0-0.0","task_version":"1.0","jspsych_version":"6.3.1","browser_interactions":0,"missing":false},{"state_1_ids":[1,0],"state_1_key":1,"state_1_choice":0,"state_1_rt":1140.4000000059605,"transition":1,"state":0,"state_2_ids":[0,1],"state_2_key":0,"state_2_choice":0,"state_2_rt":446.7000000178814,"outcome":1,"rocket_colors":["#955db9","#48a782"],"planet_colors":["#7f5d5d","#5f6f81"],"screen_resolution":[1920,1080],"minimum_resolution":1,"trial":134,"drifts":[0.405,0.666,0.424,0.315],"drift_ix":2,"trial_type":"two-step-trial","trial_index":168,"time_elapsed":864102,"internal_node_id":"0.0-148.0-0.0","task_version":"1.0","jspsych_version":"6.3.1","browser_interactions":0,"missing":false},{"state_1_ids":[1,0],"state_1_key":1,"state_1_choice":0,"state_1_rt":348.69999998807907,"transition":0,"state":1,"state_2_ids":[2,3],"state_2_key":0,"state_2_choice":2,"state_2_rt":854.9000000059605,"outcome":1,"rocket_colors":["#955db9","#48a782"],"planet_colors":["#7f5d5d","#5f6f81"],"screen_resolution":[1920,1080],"minimum_resolution":1,"trial":135,"drifts":[0.43,0.696,0.452,0.345],"drift_ix":2,"trial_type":"two-step-trial","trial_index":169,"time_elapsed":867311,"internal_node_id":"0.0-149.0-0.0","task_version":"1.0","jspsych_version":"6.3.1","browser_interactions":0,"missing":false},{"state_1_ids":[1,0],"state_1_key":1,"state_1_choice":0,"state_1_rt":420.90000000596046,"transition":0,"state":1,"state_2_ids":[2,3],"state_2_key":0,"state_2_choice":2,"state_2_rt":560.0999999940395,"outcome":0,"rocket_colors":["#955db9","#48a782"],"planet_colors":["#7f5d5d","#5f6f81"],"screen_resolution":[1920,1080],"minimum_resolution":1,"trial":136,"drifts":[0.426,0.681,0.444,0.337],"drift_ix":2,"trial_type":"two-step-trial","trial_index":170,"time_elapsed":870296,"internal_node_id":"0.0-150.0-0.0","task_version":"1.0","jspsych_version":"6.3.1","browser_interactions":0,"missing":false},{"state_1_ids":[0,1],"state_1_key":1,"state_1_choice":1,"state_1_rt":763.4000000059605,"transition":1,"state":1,"state_2_ids":[2,3],"state_2_key":0,"state_2_choice":2,"state_2_rt":391.19999998807907,"outcome":0,"rocket_colors":["#955db9","#48a782"],"planet_colors":["#7f5d5d","#5f6f81"],"screen_resolution":[1920,1080],"minimum_resolution":1,"trial":137,"drifts":[0.411,0.674,0.45,0.299],"drift_ix":2,"trial_type":"two-step-trial","trial_index":171,"time_elapsed":873455,"internal_node_id":"0.0-151.0-0.0","task_version":"1.0","jspsych_version":"6.3.1","browser_interactions":0,"missing":false},{"state_1_ids":[0,1],"state_1_key":1,"state_1_choice":1,"state_1_rt":317,"transition":0,"state":0,"state_2_ids":[0,1],"state_2_key":0,"state_2_choice":0,"state_2_rt":767.5,"outcome":0,"rocket_colors":["#955db9","#48a782"],"planet_colors":["#7f5d5d","#5f6f81"],"screen_resolution":[1920,1080],"minimum_resolution":1,"trial":138,"drifts":[0.414,0.699,0.459,0.339],"drift_ix":2,"trial_type":"two-step-trial","trial_index":172,"time_elapsed":876544,"internal_node_id":"0.0-152.0-0.0","task_version":"1.0","jspsych_version":"6.3.1","browser_interactions":0,"missing":false},{"state_1_ids":[0,1],"state_1_key":1,"state_1_choice":1,"state_1_rt":700.9000000059605,"transition":1,"state":1,"state_2_ids":[2,3],"state_2_key":1,"state_2_choice":3,"state_2_rt":631.2999999821186,"outcome":0,"rocket_colors":["#955db9","#48a782"],"planet_colors":["#7f5d5d","#5f6f81"],"screen_resolution":[1920,1080],"minimum_resolution":1,"trial":139,"drifts":[0.394,0.734,0.462,0.307],"drift_ix":2,"trial_type":"two-step-trial","trial_index":173,"time_elapsed":879881,"internal_node_id":"0.0-153.0-0.0","task_version":"1.0","jspsych_version":"6.3.1","browser_interactions":0,"missing":false},{"state_1_ids":[1,0],"state_1_key":1,"state_1_choice":0,"state_1_rt":397.09999999403954,"transition":1,"state":0,"state_2_ids":[0,1],"state_2_key":1,"state_2_choice":1,"state_2_rt":518.9000000059605,"outcome":1,"rocket_colors":["#955db9","#48a782"],"planet_colors":["#7f5d5d","#5f6f81"],"screen_resolution":[1920,1080],"minimum_resolution":1,"trial":140,"drifts":[0.361,0.693,0.467,0.292],"drift_ix":2,"trial_type":"two-step-trial","trial_index":174,"time_elapsed":882801,"internal_node_id":"0.0-154.0-0.0","task_version":"1.0","jspsych_version":"6.3.1","browser_interactions":0,"missing":false},{"state_1_ids":[1,0],"state_1_key":1,"state_1_choice":0,"state_1_rt":412.5,"transition":1,"state":0,"state_2_ids":[0,1],"state_2_key":1,"state_2_choice":1,"state_2_rt":414.90000000596046,"outcome":1,"rocket_colors":["#955db9","#48a782"],"planet_colors":["#7f5d5d","#5f6f81"],"screen_resolution":[1920,1080],"minimum_resolution":1,"trial":141,"drifts":[0.354,0.722,0.46,0.26],"drift_ix":2,"trial_type":"two-step-trial","trial_index":175,"time_elapsed":885634,"internal_node_id":"0.0-155.0-0.0","task_version":"1.0","jspsych_version":"6.3.1","browser_interactions":0,"missing":false},{"state_1_ids":[1,0],"state_1_key":1,"state_1_choice":0,"state_1_rt":403.90000000596046,"transition":1,"state":0,"state_2_ids":[0,1],"state_2_key":1,"state_2_choice":1,"state_2_rt":407.80000001192093,"outcome":1,"rocket_colors":["#955db9","#48a782"],"planet_colors":["#7f5d5d","#5f6f81"],"screen_resolution":[1920,1080],"minimum_resolution":1,"trial":142,"drifts":[0.353,0.749,0.428,0.301],"drift_ix":2,"trial_type":"two-step-trial","trial_index":176,"time_elapsed":888451,"internal_node_id":"0.0-156.0-0.0","task_version":"1.0","jspsych_version":"6.3.1","browser_interactions":0,"missing":false},{"state_1_ids":[1,0],"state_1_key":1,"state_1_choice":0,"state_1_rt":379.30000001192093,"transition":1,"state":0,"state_2_ids":[0,1],"state_2_key":1,"state_2_choice":1,"state_2_rt":479.7000000178814,"outcome":1,"rocket_colors":["#955db9","#48a782"],"planet_colors":["#7f5d5d","#5f6f81"],"screen_resolution":[1920,1080],"minimum_resolution":1,"trial":143,"drifts":[0.361,0.73,0.409,0.316],"drift_ix":2,"trial_type":"two-step-trial","trial_index":177,"time_elapsed":891314,"internal_node_id":"0.0-157.0-0.0","task_version":"1.0","jspsych_version":"6.3.1","browser_interactions":0,"missing":false},{"state_1_ids":[1,0],"state_1_key":1,"state_1_choice":0,"state_1_rt":348.89999997615814,"transition":0,"state":1,"state_2_ids":[2,3],"state_2_key":1,"state_2_choice":3,"state_2_rt":2022.9000000059605,"outcome":1,"rocket_colors":["#955db9","#48a782"],"planet_colors":["#7f5d5d","#5f6f81"],"screen_resolution":[1920,1080],"minimum_resolution":1,"trial":144,"drifts":[0