[{"responses":{"Q02":"3","Q01":"2","Q10":"1","Q06":"2","Q11":"3","Q03":"2","Q04":"1","Q09":"2","Q12":"2","Q15":"1","Q14":"3","Q13":"2","Q08":"3","Q05":"1","Q07":"2"},"rt":35830.73499985039,"survey":"shaps","trial_type":"survey-template","trial_index":0,"time_elapsed":35842,"internal_node_id":"0.0-0.0","task_version":"screening-mturk"},{"responses":{"Q12":"1","Q06":"2","Q05":"1","Q09":"2","Q08":"3","Q02":"2","Q10":"1","Q07":"2","Q11":"2","Q03":"1","Q13":"2","Q01":"3","Q14":"2","Q15":"1","Q04":"2"},"rt":30858.364999992773,"survey":"7up7down","trial_type":"survey-template","trial_index":1,"time_elapsed":66704,"internal_node_id":"0.0-1.0","task_version":"screening-mturk"},{"responses":{"Q02":"2","Q01":"1","Q03":"0"},"rt":12532.610000111163,"survey":"pswq","trial_type":"survey-template","trial_index":2,"time_elapsed":79239,"internal_node_id":"0.0-2.0","task_version":"screening-mturk"},{"responses":{"Q07":"1","Q01":"2","Q02":"3","Q04":"2","Q05":"1","Q08":"2","Q03":"1","Q06":"2"},"rt":9755.95000013709,"survey":"gad7","trial_type":"survey-template","trial_index":3,"time_elapsed":88998,"internal_node_id":"0.0-3.0","task_version":"screening-mturk"},{"responses":{"Q08":"2","Q05":"1","Q07":"3","Q13":"2","Q04":"1","Q02":"0","Q11":"1","Q06":"1","Q10":"2","Q01":"1","Q09":"3","Q03":"2","Q12":"1"},"rt":14766.469999914989,"survey":"bisbas","trial_type":"survey-template","trial_index":4,"time_elapsed":103770,"internal_node_id":"0.0-4.0","task_version":"screening-mturk"},{"view_history":"[{\"page_index\":0,\"viewing_time\":5758.7000001221895},{\"page_index\":1,\"viewing_time\":5455.134999938309},{\"page_index\":2,\"viewing_time\":4231.124999932945},{\"page_index\":3,\"viewing_time\":5205.945000052452},{\"page_index\":4,\"viewing_time\":1889.2200000118464},{\"page_index\":5,\"viewing_time\":997.8650000412017},{\"page_index\":6,\"viewing_time\":1672.454999992624},{\"page_index\":7,\"viewing_time\":2046.6999998316169}]","rt":27257.925000041723,"trial_type":"instructions","trial_index":5,"time_elapsed":131030,"internal_node_id":"0.0-5.0-0.0","task_version":"screening-mturk"},{"responses":["True","False","True","True","True"],"num_errors":3,"rt":10941.229999996722,"trial_type":"three-arm-comprehension","trial_index":6,"time_elapsed":141974,"internal_node_id":"0.0-5.0-1.0","task_version":"screening-mturk"},{"view_history":"[{\"page_index\":0,\"viewing_time\":1478.7099999375641},{\"page_index\":1,\"viewing_time\":1257.1250000037253},{\"page_index\":2,\"viewing_time\":498.1500001158565},{\"page_index\":3,\"viewing_time\":1005.1949999760836},{\"page_index\":4,\"viewing_time\":779.8999999649823},{\"page_index\":5,\"viewing_time\":1301.2900000903755},{\"page_index\":6,\"viewing_time\":1087.6700000371784},{\"page_index\":7,\"viewing_time\":1774.744999827817}]","rt":9183.070000028238,"trial_type":"instructions","trial_index":7,"time_elapsed":151160,"internal_node_id":"0.0-5.1-0.1","task_version":"screening-mturk"},{"responses":["False","False","True","False","True"],"num_errors":3,"rt":11064.199999906123,"trial_type":"three-arm-comprehension","trial_index":8,"time_elapsed":162227,"internal_node_id":"0.0-5.1-1.1","task_version":"screening-mturk"},{"view_history":"[{\"page_index\":0,\"viewing_time\":5397.584999911487},{\"page_index\":1,\"viewing_time\":6919.450000161305},{\"page_index\":2,\"viewing_time\":1872.2249998245388},{\"page_index\":3,\"viewing_time\":2600.0600000843406},{\"page_index\":4,\"viewing_time\":1239.7749999072403},{\"page_index\":5,\"viewing_time\":1110.1550001185387},{\"page_index\":6,\"viewing_time\":729.7950000502169},{\"page_index\":7,\"viewing_time\":1094.939999980852}]","rt":20964.254999998957,"trial_type":"instructions","trial_index":9,"time_elapsed":183195,"internal_node_id":"0.0-5.2-0.2","task_version":"screening-mturk"},{"responses":["True","True","True","True","False"],"num_errors":3,"rt":16341.84499992989,"trial_type":"three-arm-comprehension","trial_index":10,"time_elapsed":199539,"internal_node_id":"0.0-5.2-1.2","task_version":"screening-mturk"},{"view_history":"[{\"page_index\":0,\"viewing_time\":15477.734999964014},{\"page_index\":1,\"viewing_time\":7447.919999947771},{\"page_index\":2,\"viewing_time\":8174.450000049546},{\"page_index\":3,\"viewing_time\":7336.919999914244},{\"page_index\":4,\"viewing_time\":6842.970000114292},{\"page_index\":5,\"viewing_time\":4217.604999896139},{\"page_index\":6,\"viewing_time\":7134.099999908358},{\"page_index\":7,\"viewing_time\":5553.185000084341}]","rt":62185.184999834746,"trial_type":"instructions","trial_index":11,"time_elapsed":261728,"internal_node_id":"0.0-5.3-0.3","task_version":"screening-mturk"},{"responses":["True","True","True","True","True"],"num_errors":2,"rt":9873.935000039637,"trial_type":"three-arm-comprehension","trial_index":12,"time_elapsed":271605,"internal_node_id":"0.0-5.3-1.3","task_version":"screening-mturk"},{"view_history":"[{\"page_index\":0,\"viewing_time\":1603.605000069365},{\"page_index\":1,\"viewing_time\":491.0599999129772},{\"page_index\":2,\"viewing_time\":459.11499997600913},{\"page_index\":3,\"viewing_time\":200.53000003099442},{\"page_index\":4,\"viewing_time\":195.34999993629754},{\"page_index\":5,\"viewing_time\":270.1100001577288},{\"page_index\":6,\"viewing_time\":912.0499999262393},{\"page_index\":7,\"viewing_time\":944.080000044778}]","rt":5076.249999925494,"trial_type":"instructions","trial_index":13,"time_elapsed":276684,"internal_node_id":"0.0-5.4-0.4","task_version":"screening-mturk"},{"responses":["True","True","True","True","False"],"num_errors":3,"rt":6657.150000100955,"trial_type":"three-arm-comprehension","trial_index":14,"time_elapsed":283343,"internal_node_id":"0.0-5.4-1.4","task_version":"screening-mturk"},{"view_history":"[{\"page_index\":0,\"viewing_time\":1573.5700000077486},{\"page_index\":1,\"viewing_time\":8579.20500007458},{\"page_index\":2,\"viewing_time\":1556.0749999713153},{\"page_index\":3,\"viewing_time\":3333.2099998369813},{\"page_index\":4,\"viewing_time\":988.1500001065433},{\"page_index\":5,\"viewing_time\":910.5750001035631},{\"page_index\":6,\"viewing_time\":3221.194999990985},{\"page_index\":7,\"viewing_time\":79968.7799999956}]","rt":100131.04999996722,"trial_type":"instructions","trial_index":15,"time_elapsed":383479,"internal_node_id":"0.0-5.5-0.5","task_version":"screening-mturk"},{"responses":["False","False","False","False","False"],"num_errors":3,"rt":9264.224999817088,"trial_type":"three-arm-comprehension","trial_index":16,"time_elapsed":392746,"internal_node_id":"0.0-5.5-1.5","task_version":"screening-mturk"},{"view_history":"[{\"page_index\":0,\"viewing_time\":2970.374999800697},{\"page_index\":1,\"viewing_time\":919.6650001686066},{\"page_index\":2,\"viewing_time\":681.4449999947101},{\"page_index\":3,\"viewing_time\":198.87500000186265},{\"page_index\":4,\"viewing_time\":389.8899999912828},{\"page_index\":5,\"viewing_time\":889.9349998682737},{\"page_index\":6,\"viewing_time\":1159.9449999630451},{\"page_index\":7,\"viewing_time\":945.2349999919534}]","rt":8155.669999774545,"trial_type":"instructions","trial_index":17,"time_elapsed":400904,"internal_node_id":"0.0-5.6-0.6","task_version":"screening-mturk"},{"responses":["True","False","True","True","False"],"num_errors":4,"rt":18853.48999989219,"trial_type":"three-arm-comprehension","trial_index":18,"time_elapsed":419760,"internal_node_id":"0.0-5.6-1.6","task_version":"screening-mturk"},{"view_history":"[{\"page_index\":0,\"viewing_time\":2572.9150001425296},{\"page_index\":1,\"viewing_time\":1063.1699999794364},{\"page_index\":2,\"viewing_time\":800.004999851808},{\"page_index\":3,\"viewing_time\":1902.150000212714},{\"page_index\":4,\"viewing_time\":8.86999978683889},{\"page_index\":5,\"viewing_time\":1034.070000052452},{\"page_index\":6,\"viewing_time\":924.7449999675155},{\"page_index\":7,\"viewing_time\":1705.165000166744}]","rt":10011.415000073612,"trial_type":"instructions","trial_index":19,"time_elapsed":429774,"internal_node_id":"0.0-5.7-0.7","task_version":"screening-mturk"},{"responses":["False","True","False","True","False"],"num_errors":3,"rt":7977.655000053346,"trial_type":"three-arm-comprehension","trial_index":20,"time_elapsed":437754,"internal_node_id":"0.0-5.7-1.7","task_version":"screening-mturk"},{"view_history":"[{\"page_index\":0,\"viewing_time\":5826.13499998115},{\"page_index\":1,\"viewing_time\":81936.92000000738},{\"page_index\":2,\"viewing_time\":1732.8849998302758},{\"page_index\":3,\"viewing_time\":3513.160000089556},{\"page_index\":4,\"viewing_time\":1014.9799999780953},{\"page_index\":5,\"viewing_time\":1182.065000059083},{\"page_index\":6,\"viewing_time\":838.8749998994172},{\"page_index\":7,\"viewing_time\":1544.1000000573695}]","rt":97589.47999984957,"trial_type":"instructions","trial_index":21,"time_elapsed":535347,"internal_node_id":"0.0-5.8-0.8","task_version":"screening-mturk"},{"responses":["True","True","False","True","True"],"num_errors":1,"rt":8297.504999907687,"trial_type":"three-arm-comprehension","trial_index":22,"time_elapsed":543646,"internal_node_id":"0.0-5.8-1.8","task_version":"screening-mturk"},{"view_history":"[{\"page_index\":0,\"viewing_time\":1423.1650000438094},{\"page_index\":1,\"viewing_time\":1479.0999998804182},{\"page_index\":2,\"viewing_time\":782.7600000891834},{\"page_index\":3,\"viewing_time\":555.0700000021607},{\"page_index\":4,\"viewing_time\":870.2249999623746},{\"page_index\":5,\"viewing_time\":709.3750000931323},{\"page_index\":6,\"viewing_time\":761.4649999886751},{\"page_index\":7,\"viewing_time\":899.669999955222}]","rt":7481.069999979809,"trial_type":"instructions","trial_index":23,"time_elapsed":551130,"internal_node_id":"0.0-5.9-0.9","task_version":"screening-mturk"},{"responses":["True","False","True","True","False"],"num_errors":4,"rt":11384.730000048876,"trial_type":"three-arm-comprehension","trial_index":24,"time_elapsed":562517,"internal_node_id":"0.0-5.9-1.9","task_version":"screening-mturk"},{"view_history":"[{\"page_index\":0,\"viewing_time\":22774.43500002846},{\"page_index\":1,\"viewing_time\":29191.34999997914},{\"page_index\":2,\"viewing_time\":3398.160000098869},{\"page_index\":3,\"viewing_time\":3422.8199999779463},{\"page_index\":4,\"viewing_time\":1145.859999815002},{\"page_index\":5,\"viewing_time\":1061.1750001553446},{\"page_index\":6,\"viewing_time\":2580.19999996759},{\"page_index\":7,\"viewing_time\":2270.835000090301}]","rt":65845.11000011116,"trial_type":"instructions","trial_index":25,"time_elapsed":628367,"internal_node_id":"0.0-5.10-0.10","task_version":"screening-mturk"},{"responses":["False","True","False","True","True"],"num_errors":2,"rt":9469.925000099465,"trial_type":"three-arm-comprehension","trial_index":26,"time_elapsed":637839,"internal_node_id":"0.0-5.10-1.10","task_version":"screening-mturk"},{"view_history":"[{\"page_index\":0,\"viewing_time\":1535.3700001724064},{\"page_index\":1,\"viewing_time\":760.4749999009073},{\"page_index\":2,\"viewing_time\":672.9900001082569},{\"page_index\":3,\"viewing_time\":956.1399999074638},{\"page_index\":4,\"viewing_time\":978.9150001015514},{\"page_index\":5,\"viewing_time\":834.1849998105317},{\"page_index\":6,\"viewing_time\":2062.4300001654774},{\"page_index\":7,\"viewing_time\":1047.3399998154491}]","rt":8848.135000094771,"trial_type":"instructions","trial_index":27,"time_elapsed":646690,"internal_node_id":"0.0-5.11-0.11","task_version":"screening-mturk"},{"responses":["False","True","True","True","True"],"num_errors":3,"rt":10229.199999943376,"trial_type":"three-arm-comprehension","trial_index":28,"time_elapsed":656921,"internal_node_id":"0.0-5.11-1.11","task_version":"screening-mturk"},{"view_history":"[{\"page_index\":0,\"viewing_time\":1411.1800000537187},{\"page_index\":1,\"viewing_time\":810.8049998991191},{\"page_index\":2,\"viewing_time\":740.6150000169873},{\"page_index\":3,\"viewing_time\":424.6100001037121},{\"page_index\":4,\"viewing_time\":645.0499999336898},{\"page_index\":5,\"viewing_time\":659.734999993816},{\"page_index\":6,\"viewing_time\":820.0799999758601},{\"page_index\":7,\"viewing_time\":790.0000000372529}]","rt":6302.350000012666,"trial_type":"instructions","trial_index":29,"time_elapsed":663226,"internal_node_id":"0.0-5.12-0.12","task_version":"screening-mturk"},{"responses":["True","False","False","False","False"],"num_errors":2,"rt":17483.88999979943,"trial_type":"three-arm-comprehension","trial_index":30,"time_elapsed":680712,"internal_node_id":"0.0-5.12-1.12","task_version":"screening-mturk"},{"view_history":"[{\"page_index\":0,\"viewing_time\":1281.4899999648333},{\"page_index\":1,\"viewing_time\":1084.1449999716133},{\"page_index\":2,\"viewing_time\":864.9100000038743},{\"page_index\":3,\"viewing_time\":728.1450000591576},{\"page_index\":4,\"viewing_time\":733.7400000542402},{\"page_index\":5,\"viewing_time\":1134.1349999420345},{\"page_index\":6,\"viewing_time\":904.7949998639524},{\"page_index\":7,\"viewing_time\":940.0300001725554}]","rt":7671.670000068843,"trial_type":"instructions","trial_index":31,"time_elapsed":688388,"internal_node_id":"0.0-5.13-0.13","task_version":"screening-mturk"},{"responses":["False","True","True","False","True"],"num_errors":2,"rt":7118.619999848306,"trial_type":"three-arm-comprehension","trial_index":32,"time_elapsed":695508,"internal_node_id":"0.0-5.13-1.13","task_version":"screening-mturk"},{"view_history":"[{\"page_index\":0,\"viewing_time\":92149.96000006795},{\"page_index\":1,\"viewing_time\":28157.959999982268},{\"page_index\":0,\"viewing_time\":46579.69000004232},{\"page_index\":1,\"viewing_time\":33405.57499998249},{\"page_index\":2,\"viewing_time\":116471.98999999091},{\"page_index\":3,\"viewing_time\":4891.25999994576},{\"page_index\":2,\"viewing_time\":2510.8600000385195},{\"page_index\":3,\"viewing_time\":117.83499992452562},{\"page_index\":4,\"viewing_time\":2419.9950001202524},{\"page_index\":5,\"viewing_time\":1900.229999795556},{\"page_index\":6,\"viewing_time\":4469.91500002332},{\"page_index\":7,\"viewing_time\":17495.390000054613}]","rt":350570.9999999963,"trial_type":"instructions","trial_index":33,"time_elapsed":1046085,"internal_node_id":"0.0-5.14-0.14","task_version":"screening-mturk"},{"responses":["True","True","False","False","True"],"num_errors":0,"rt":46011.865000007674,"trial_type":"three-arm-comprehension","trial_index":34,"time_elapsed":1092101,"internal_node_id":"0.0-5.14-1.14","task_version":"screening-mturk"},{"view_history":"[{\"page_index\":0,\"viewing_time\":8275.265000062063}]","rt":8275.5350000225,"trial_type":"instructions","trial_index":35,"time_elapsed":1100379,"internal_node_id":"0.0-6.0","task_version":"screening-mturk"},{"contexts":["blue","green","red"],"outcomes":[1,0,0],"key":null,"rt":null,"trial":1,"correct":0,"trial_type":"three-arm-trial","trial_index":36,"time_elapsed":1116316,"internal_node_id":"0.0-7.0-0.0","task_version":"screening-mturk","missing":true},{"contexts":["blue","green","red"],"outcomes":[1,0,0],"key":null,"rt":null,"trial":1,"correct":0,"trial_type":"three-arm-trial","trial_index":37,"time_elapsed":1131325,"internal_node_id":"0.0-7.1-0.1","task_version":"screening-mturk","missing":true},{"contexts":["blue","green","red"],"outcomes":[1,0,0],"key":null,"rt":null,"trial":1,"correct":0,"trial_type":"three-arm-trial","trial_index":38,"time_elapsed":1146328,"internal_node_id":"0.0-7.2-0.2","task_version":"screening-mturk","missing":true},{"contexts":["blue","green","red"],"outcomes":[1,0,0],"key":null,"rt":null,"trial":1,"correct":0,"trial_type":"three-arm-trial","trial_index":39,"time_elapsed":1161332,"internal_node_id":"0.0-7.3-0.3","task_version":"screening-mturk","missing":true},{"contexts":["blue","green","red"],"outcomes":[1,0,0],"key":37,"choice":0,"rt":1145.3299999702722,"outcome":1,"trial":1,"correct":0,"trial_type":"three-arm-trial","trial_index":40,"time_elapsed":1163680,"internal_node_id":"0.0-7.4-0.4","task_version":"screening-mturk","missing":false,"accuracy":1},{"contexts":["blue","green","red"],"outcomes":[1,0,0],"key":39,"choice":2,"rt":25.649999966844916,"outcome":0,"trial":2,"correct":0,"trial_type":"three-arm-trial","trial_index":41,"time_elapsed":1164907,"internal_node_id":"0.0-8.0-0.0","task_version":"screening-mturk","missing":false,"accuracy":0},{"contexts":["blue","green","red"],"outcomes":[0,1,0],"key":37,"choice":0,"rt":4983.050000155345,"outcome":0,"trial":3,"correct":0,"trial_type":"three-arm-trial","trial_index":42,"time_elapsed":1171093,"internal_node_id":"0.0-9.0-0.0","task_version":"screening-mturk","missing":false,"accuracy":1},{"contexts":["blue","green","red"],"outcomes":[1,0,0],"key":37,"choice":0,"rt":1202.724999981001,"outcome":1,"trial":4,"correct":0,"trial_type":"three-arm-trial","trial_index":43,"time_elapsed":1173499,"internal_node_id":"0.0-10.0-0.0","task_version":"screening-mturk","missing":false,"accuracy":1},{"contexts":["blue","green","red"],"outcomes":[1,0,0],"key":37,"choice":0,"rt":721.750000026077,"outcome":1,"trial":5,"correct":0,"trial_type":"three-arm-trial","trial_index":44,"time_elapsed":1175423,"internal_node_id":"0.0-11.0-0.0","task_version":"screening-mturk","missing":false,"accuracy":1},{"contexts":["blue","green","red"],"outcomes":[0,0,0],"key":37,"choice":0,"rt":92.29999990202487,"outcome":0,"trial":6,"correct":0,"trial_type":"three-arm-trial","trial_index":45,"time_elapsed":1176718,"internal_node_id":"0.0-12.0-0.0","task_version":"screening-mturk","missing":false,"accuracy":1},{"contexts":["blue","green","red"],"outcomes":[1,1,0],"key":39,"choice":2,"rt":537.914999993518,"outcome":0,"trial":7,"correct":0,"trial_type":"three-arm-trial","trial_index":46,"time_elapsed":1178458,"internal_node_id":"0.0-13.0-0.0","task_version":"screening-mturk","missing":false,"accuracy":0},{"contexts":["blue","green","red"],"outcomes":[1,0,0],"key":37,"choice":0,"rt":837.1250000782311,"outcome":1,"trial":8,"correct":0,"trial_type":"three-arm-trial","trial_index":47,"time_elapsed":1180499,"internal_node_id":"0.0-14.0-0.0","task_version":"screening-mturk","missing":false,"accuracy":1},{"contexts":["blue","green","red"],"outcomes":[1,0,0],"key":37,"choice":0,"rt":631.7350000608712,"outcome":1,"trial":9,"correct":0,"trial_type":"three-arm-trial","trial_index":48,"time_elapsed":1182333,"internal_node_id":"0.0-15.0-0.0","task_version":"screening-mturk","missing":false,"accuracy":1},{"contexts":["blue","green","red"],"outcomes":[1,1,0],"key":37,"choice":0,"rt":452.5999999605119,"outcome":1,"trial":10,"correct":0,"trial_type":"three-arm-trial","trial_index":49,"time_elapsed":1183988,"internal_node_id":"0.0-16.0-0.0","task_version":"screening-mturk","missing":false,"accuracy":1},{"contexts":["blue","green","red"],"outcomes":[1,0,0],"key":37,"choice":0,"rt":336.3749999552965,"outcome":1,"trial":11,"correct":0,"trial_type":"three-arm-trial","trial_index":50,"time_elapsed":1185527,"internal_node_id":"0.0-17.0-0.0","task_version":"screening-mturk","missing":false,"accuracy":1},{"contexts":["blue","green","red"],"outcomes":[1,0,0],"key":37,"choice":0,"rt":678.8949999026954,"outcome":1,"trial":12,"correct":0,"trial_type":"three-arm-trial","trial_index":51,"time_elapsed":1187409,"internal_node_id":"0.0-18.0-0.0","task_version":"screening-mturk","missing":false,"accuracy":1},{"contexts":["blue","green","red"],"outcomes":[1,0,0],"key":37,"choice":0,"rt":246.70999986119568,"outcome":1,"trial":13,"correct":0,"trial_type":"three-arm-trial","trial_index":52,"time_elapsed":1188859,"internal_node_id":"0.0-19.0-0.0","task_version":"screening-mturk","missing":false,"accuracy":1},{"contexts":["blue","green","red"],"outcomes":[1,0,0],"key":37,"choice":0,"rt":337.2700000181794,"outcome":1,"trial":14,"correct":0,"trial_type":"three-arm-trial","trial_index":53,"time_elapsed":1190401,"internal_node_id":"0.0-20.0-0.0","task_version":"screening-mturk","missing":false,"accuracy":1},{"contexts":["blue","green","red"],"outcomes":[0,0,1],"key":37,"choice":0,"rt":335.48000012524426,"outcome":0,"trial":15,"correct":0,"trial_type":"three-arm-trial","trial_index":54,"time_elapsed":1191940,"internal_node_id":"0.0-21.0-0.0","task_version":"screening-mturk","missing":false,"accuracy":1},{"contexts":["blue","green","red"],"outcomes":[0,1,1],"key":37,"choice":0,"rt":266.03499986231327,"outcome":0,"trial":16,"correct":1,"trial_type":"three-arm-trial","trial_index":55,"time_elapsed":1193409,"internal_node_id":"0.0-22.0-0.0","task_version":"screening-mturk","missing":false,"accuracy":0},{"contexts":["blue","green","red"],"outcomes":[0,1,0],"key":37,"choice":0,"rt":787.19999990426,"outcome":0,"trial":17,"correct":1,"trial_type":"three-arm-trial","trial_index":56,"time_elapsed":1195399,"internal_node_id":"0.0-23.0-0.0","task_version":"screening-mturk","missing":false,"accuracy":0},{"contexts":["blue","green","red"],"outcomes":[1,1,0],"key":37,"choice":0,"rt":257.21499999053776,"outcome":1,"trial":18,"correct":1,"trial_type":"three-arm-trial","trial_index":57,"time_elapsed":1196859,"internal_node_id":"0.0-24.0-0.0","task_version":"screening-mturk","missing":false,"accuracy":0},{"contexts":["blue","green","red"],"outcomes":[1,1,1],"key":37,"choice":0,"rt":107.29499999433756,"outcome":1,"trial":19,"correct":1,"trial_type":"three-arm-trial","trial_index":58,"time_elapsed":1198170,"internal_node_id":"0.0-25.0-0.0","task_version":"screening-mturk","missing":false,"accuracy":0},{"contexts":["blue","green","red"],"outcomes":[0,1,0],"key":37,"choice":0,"rt":654.5200000982732,"outcome":0,"trial":20,"correct":1,"trial_type":"three-arm-trial","trial_index":59,"time_elapsed":1200028,"internal_node_id":"0.0-26.0-0.0","task_version":"screening-mturk","missing":false,"accuracy":0},{"contexts":["blue","green","red"],"outcomes":[0,1,1],"key":37,"choice":0,"rt":1027.9300000984222,"outcome":0,"trial":21,"correct":1,"trial_type":"three-arm-trial","trial_index":60,"time_elapsed":1202259,"internal_node_id":"0.0-27.0-0.0","task_version":"screening-mturk","missing":false,"accuracy":0},{"contexts":["blue","green","red"],"outcomes":[0,1,0],"key":37,"choice":0,"rt":756.9850001018494,"outcome":0,"trial":22,"correct":1,"trial_type":"three-arm-trial","trial_index":61,"time_elapsed":1204219,"internal_node_id":"0.0-28.0-0.0","task_version":"screening-mturk","missing":false,"accuracy":0},{"contexts":["blue","green","red"],"outcomes":[0,1,0],"key":37,"choice":0,"rt":556.9150000810623,"outcome":0,"trial":23,"correct":1,"trial_type":"three-arm-trial","trial_index":62,"time_elapsed":1205979,"internal_node_id":"0.0-29.0-0.0","task_version":"screening-mturk","missing":false,"accuracy":0},{"contexts":["blue","green","red"],"outcomes":[1,1,0],"key":39,"choice":2,"rt":396.3299999013543,"outcome":0,"trial":24,"correct":1,"trial_type":"three-arm-trial","trial_index":63,"time_elapsed":1207579,"internal_node_id":"0.0-30.0-0.0","task_version":"screening-mturk","missing":false,"accuracy":0},{"contexts":["blue","green","red"],"outcomes":[0,1,0],"key":37,"choice":0,"rt":366.829999955371,"outcome":0,"trial":25,"correct":1,"trial_type":"three-arm-trial","trial_index":64,"time_elapsed":1209149,"internal_node_id":"0.0-31.0-0.0","task_version":"screening-mturk","missing":false,"accuracy":0},{"contexts":["blue","green","red"],"outcomes":[0,1,0],"key":37,"choice":0,"rt":766.8749999720603,"outcome":0,"trial":26,"correct":1,"trial_type":"three-arm-trial","trial_index":65,"time_elapsed":1211118,"internal_node_id":"0.0-32.0-0.0","task_version":"screening-mturk","missing":false,"accuracy":0},{"contexts":["blue","green","red"],"outcomes":[0,1,0],"key":39,"choice":2,"rt":418.559999903664,"outcome":0,"trial":27,"correct":1,"trial_type":"three-arm-trial","trial_index":66,"time_elapsed":1212740,"internal_node_id":"0.0-33.0-0.0","task_version":"screening-mturk","missing":false,"accuracy":0},{"contexts":["blue","green","red"],"outcomes":[0,1,0],"key":37,"choice":0,"rt":1055.9299997985363,"outcome":0,"trial":28,"correct":1,"trial_type":"three-arm-trial","trial_index":67,"time_elapsed":1214998,"internal_node_id":"0.0-34.0-0.0","task_version":"screening-mturk","missing":false,"accuracy":0},{"contexts":["blue","green","red"],"outcomes":[0,0,0],"key":39,"choice":2,"rt":132.40500004030764,"outcome":0,"trial":29,"correct":1,"trial_type":"three-arm-trial","trial_index":68,"time_elapsed":1216333,"internal_node_id":"0.0-35.0-0.0","task_version":"screening-mturk","missing":false,"accuracy":0},{"contexts":["blue","green","red"],"outcomes":[1,1,0],"key":37,"choice":0,"rt":795.1350000221282,"outcome":1,"trial":30,"correct":1,"trial_type":"three-arm-trial","trial_index":69,"time_elapsed":1218339,"internal_node_id":"0.0-36.0-0.0","task_version":"screening-mturk","missing":false,"accuracy":0},{"contexts":["blue","green","red"],"outcomes":[1,0,0],"key":39,"choice":2,"rt":41.57000011764467,"outcome":0,"trial":31,"correct":0,"trial_type":"three-arm-trial","trial_index":70,"time_elapsed":1219584,"internal_node_id":"0.0-37.0-0.0","task_version":"screening-mturk","missing":false,"accuracy":0},{"contexts":["blue","green","red"],"outcomes":[1,0,0],"key":37,"choice":0,"rt":131.47999998182058,"outcome":1,"trial":32,"correct":0,"trial_type":"three-arm-trial","trial_index":71,"time_elapsed":1220918,"internal_node_id":"0.0-38.0-0.0","task_version":"screening-mturk","missing":false,"accuracy":1},{"contexts":["blue","green","red"],"outcomes":[0,0,0],"key":39,"choice":2,"rt":977.7049999684095,"outcome":0,"trial":33,"correct":0,"trial_type":"three-arm-trial","trial_index":72,"time_elapsed":1223098,"internal_node_id":"0.0-39.0-0.0","task_version":"screening-mturk","missing":false,"accuracy":0},{"contexts":["blue","green","red"],"outcomes":[1,1,0],"key":37,"choice":0,"rt":397.30499987490475,"outcome":1,"trial":34,"correct":0,"trial_type":"three-arm-trial","trial_index":73,"time_elapsed":1224698,"internal_node_id":"0.0-40.0-0.0","task_version":"screening-mturk","missing":false,"accuracy":1},{"contexts":["blue","green","red"],"outcomes":[1,1,0],"key":39,"choice":2,"rt":483.2850000821054,"outcome":0,"trial":35,"correct":0,"trial_type":"three-arm-trial","trial_index":74,"time_elapsed":1226384,"internal_node_id":"0.0-41.0-0.0","task_version":"screening-mturk","missing":false,"accuracy":0},{"contexts":["blue","green","red"],"outcomes":[0,1,0],"key":37,"choice":0,"rt":490.7450000755489,"outcome":0,"trial":36,"correct":0,"trial_type":"three-arm-trial","trial_index":75,"time_elapsed":1228079,"internal_node_id":"0.0-42.0-0.0","task_version":"screening-mturk","missing":false,"accuracy":1},{"contexts":["blue","green","red"],"outcomes":[1,0,0],"key":39,"choice":2,"rt":161.63500002585351,"outcome":0,"trial":37,"correct":0,"trial_type":"three-arm-trial","trial_index":76,"time_elapsed":1229444,"internal_node_id":"0.0-43.0-0.0","task_version":"screening-mturk","missing":false,"accuracy":0},{"contexts":["blue","green","red"],"outcomes":[0,0,0],"key":37,"choice":0,"rt":413.22499979287386,"outcome":0,"trial":38,"correct":0,"trial_type":"three-arm-trial","trial_index":77,"time_elapsed":1231059,"internal_node_id":"0.0-44.0-0.0","task_version":"screening-mturk","missing":false,"accuracy":1},{"contexts":["blue","green","red"],"outcomes":[1,0,0],"key":39,"choice":2,"rt":266.5649999398738,"outcome":0,"trial":39,"correct":0,"trial_type":"three-arm-trial","trial_index":78,"time_elapsed":1232528,"internal_node_id":"0.0-45.0-0.0","task_version":"screening-mturk","missing":false,"accuracy":0},{"contexts":["blue","green","red"],"outcomes":[0,0,0],"key":37,"choice":0,"rt":196.95000001229346,"outcome":0,"trial":40,"correct":0,"trial_type":"three-arm-trial","trial_index":79,"time_elapsed":1233929,"internal_node_id":"0.0-46.0-0.0","task_version":"screening-mturk","missing":false,"accuracy":1},{"contexts":["blue","green","red"],"outcomes":[1,0,0],"key":37,"choice":0,"rt":1025.934999808669,"outcome":1,"trial":41,"correct":0,"trial_type":"three-arm-trial","trial_index":80,"time_elapsed":1236160,"internal_node_id":"0.0-47.0-0.0","task_version":"screening-mturk","missing":false,"accuracy":1},{"contexts":["blue","green","red"],"outcomes":[1,1,0],"key":39,"choice":2,"rt":205.85999987088144,"outcome":0,"trial":42,"correct":0,"trial_type":"three-arm-trial","trial_index":81,"time_elapsed":1237568,"internal_node_id":"0.0-48.0-0.0","task_version":"screening-mturk","missing":false,"accuracy":0},{"contexts":["blue","green","red"],"outcomes":[1,0,1],"key":37,"choice":0,"rt":762.0999999344349,"outcome":1,"trial":43,"correct":0,"trial_type":"three-arm-trial","trial_index":82,"time_elapsed":1239533,"internal_node_id":"0.0-49.0-0.0","task_version":"screening-mturk","missing":false,"accuracy":1},{"contexts":["blue","green","red"],"outcomes":[1,0,0],"key":39,"choice":2,"rt":284.0549999382347,"outcome":0,"trial":44,"correct":0,"trial_type":"three-arm-trial","trial_index":83,"time_elapsed":1241020,"internal_node_id":"0.0-50.0-0.0","task_version":"screening-mturk","missing":false,"accuracy":0},{"contexts":["blue","green","red"],"outcomes":[1,0,0],"key":37,"choice":0,"rt":594.6049999911338,"outcome":1,"trial":45,"correct":0,"trial_type":"three-arm-trial","trial_index":84,"time_elapsed":1242819,"internal_node_id":"0.0-51.0-0.0","task_version":"screening-mturk","missing":false,"accuracy":1},{"contexts":["blue","green","red"],"outcomes":[0,0,1],"key":39,"choice":2,"rt":498.5249999444932,"outcome":1,"trial":46,"correct":2,"trial_type":"three-arm-trial","trial_index":85,"time_elapsed":1244519,"internal_node_id":"0.0-52.0-0.0","task_version":"screening-mturk","missing":false,"accuracy":1},{"contexts":["blue","green","red"],"outcomes":[0,0,1],"key":37,"choice":0,"rt":538.084999890998,"outcome":0,"trial":47,"correct":2,"trial_type":"three-arm-trial","trial_index":86,"time_elapsed":1246261,"internal_node_id":"0.0-53.0-0.0","task_version":"screening-mturk","missing":false,"accuracy":0},{"contexts":["blue","green","red"],"outcomes":[0,0,1],"key":39,"choice":2,"rt":193.98500001989305,"outcome":1,"trial":48,"correct":2,"trial_type":"three-arm-trial","trial_index":87,"time_elapsed":1247659,"internal_node_id":"0.0-54.0-0.0","task_version":"screening-mturk","missing":false,"accuracy":1},{"contexts":["blue","green","red"],"outcomes":[0,1,1],"key":37,"choice":0,"rt":166.45499994046986,"outcome":0,"trial":49,"correct":2,"trial_type":"three-arm-trial","trial_index":88,"time_elapsed":1249027,"internal_node_id":"0.0-55.0-0.0","task_version":"screening-mturk","missing":false,"accuracy":0},{"contexts":["blue","green","red"],"outcomes":[0,1,1],"key":39,"choice":2,"rt":102.95500000938773,"outcome":1,"trial":50,"correct":2,"trial_type":"three-arm-trial","trial_index":89,"time_elapsed":1250334,"internal_node_id":"0.0-56.0-0.0","task_version":"screening-mturk","missing":false,"accuracy":1},{"contexts":["blue","green","red"],"outcomes":[0,0,0],"key":37,"choice":0,"rt":40.96499993465841,"outcome":0,"trial":51,"correct":2,"trial_type":"three-arm-trial","trial_index":90,"time_elapsed":1251577,"internal_node_id":"0.0-57.0-0.0","task_version":"screening-mturk","missing":false,"accuracy":0},{"contexts":["blue","green","red"],"outcomes":[0,1,1],"key":39,"choice":2,"rt":1207.054999889806,"outcome":1,"trial":52,"correct":2,"trial_type":"three-arm-trial","trial_index":91,"time_elapsed":1253988,"internal_node_id":"0.0-58.0-0.0","task_version":"screening-mturk","missing":false,"accuracy":1},{"contexts":["blue","green","red"],"outcomes":[0,0,1],"key":37,"choice":0,"rt":832.0550001226366,"outcome":0,"trial":53,"correct":2,"trial_type":"three-arm-trial","trial_index":92,"time_elapsed":1256023,"internal_node_id":"0.0-59.0-0.0","task_version":"screening-mturk","missing":false,"accuracy":0},{"contexts":["blue","green","red"],"outcomes":[0,0,1],"key":39,"choice":2,"rt":267.4249999690801,"outcome":1,"trial":54,"correct":2,"trial_type":"three-arm-trial","trial_index":93,"time_elapsed":1257493,"internal_node_id":"0.0-60.0-0.0","task_version":"screening-mturk","missing":false,"accuracy":1},{"contexts":["blue","green","red"],"outcomes":[0,0,1],"key":37,"choice":0,"rt":521.8049997929484,"outcome":0,"trial":55,"correct":2,"trial_type":"three-arm-trial","trial_index":94,"time_elapsed":1259218,"internal_node_id":"0.0-61.0-0.0","task_version":"screening-mturk","missing":false,"accuracy":0},{"contexts":["blue","green","red"],"outcomes":[0,0,1],"key":39,"choice":2,"rt":237.3899999074638,"outcome":1,"trial":56,"correct":2,"trial_type":"three-arm-trial","trial_index":95,"time_elapsed":1260658,"internal_node_id":"0.0-62.0-0.0","task_version":"screening-mturk","missing":false,"accuracy":1},{"contexts":["blue","green","red"],"outcomes":[1,0,1],"key":37,"choice":0,"rt":252.10500019602478,"outcome":1,"trial":57,"correct":2,"trial_type":"three-arm-trial","trial_index":96,"time_elapsed":1262113,"internal_node_id":"0.0-63.0-0.0","task_version":"screening-mturk","missing":false,"accuracy":0},{"contexts":["blue","green","red"],"outcomes":[0,0,1],"key":39,"choice":2,"rt":47.52000002190471,"outcome":1,"trial":58,"correct":2,"trial_type":"three-arm-trial","trial_index":97,"time_elapsed":1263363,"internal_node_id":"0.0-64.0-0.0","task_version":"screening-mturk","missing":false,"accuracy":1},{"contexts":["blue","green","red"],"outcomes":[0,0,1],"key":37,"choice":0,"rt":12.014999985694885,"outcome":0,"trial":59,"correct":2,"trial_type":"three-arm-trial","trial_index":98,"time_elapsed":1264579,"internal_node_id":"0.0-65.0-0.0","task_version":"screening-mturk","missing":false,"accuracy":0},{"contexts":["blue","green","red"],"outcomes":[1,0,1],"key":39,"choice":2,"rt":921.1399999912828,"outcome":1,"trial":60,"correct":2,"trial_type":"three-arm-trial","trial_index":99,"time_elapsed":1266703,"internal_node_id":"0.0-66.0-0.0","task_version":"screening-mturk","missing":false,"accuracy":1},{"contexts":["blue","green","red"],"outcomes":[1,0,0],"key":37,"choice":0,"rt":451.63000002503395,"outcome":1,"trial":61,"correct":0,"trial_type":"three-arm-trial","trial_index":100,"time_elapsed":1268357,"internal_node_id":"0.0-67.0-0.0","task_version":"screening-mturk","missing":false,"accuracy":1},{"contexts":["blue","green","red"],"outcomes":[1,0,0],"key":39,"choice":2,"rt":427.5300002191216,"outcome":0,"trial":62,"correct":0,"trial_type":"three-arm-trial","trial_index":101,"time_elapsed":1269988,"internal_node_id":"0.0-68.0-0.0","task_version":"screening-mturk","missing":false,"accuracy":0},{"contexts":["blue","green","red"],"outcomes":[1,0,0],"key":37,"choice":0,"rt":625.6849998608232,"outcome":1,"trial":63,"correct":0,"trial_type":"three-arm-trial","trial_index":102,"time_elapsed":1271816,"internal_node_id":"0.0-69.0-0.0","task_version":"screening-mturk","missing":false,"accuracy":1},{"contexts":["blue","green","red"],"outcomes":[1,0,0],"key":39,"choice":2,"rt":604.2549998965114,"outcome":0,"trial":64,"correct":0,"trial_type":"three-arm-trial","trial_index":103,"time_elapsed":1273623,"internal_node_id":"0.0-70.0-0.0","task_version":"screening-mturk","missing":false,"accuracy":0},{"contexts":["blue","green","red"],"outcomes":[1,0,0],"key":37,"choice":0,"rt":446.9899998512119,"outcome":1,"trial":65,"correct":0,"trial_type":"three-arm-trial","trial_index":104,"time_elapsed":1275273,"internal_node_id":"0.0-71.0-0.0","task_version":"screening-mturk","missing":false,"accuracy":1},{"contexts":["blue","green","red"],"outcomes":[1,0,0],"key":39,"choice":2,"rt":181.3350000884384,"outcome":0,"trial":66,"correct":0,"trial_type":"three-arm-trial","trial_index":105,"time_elapsed":1276658,"internal_node_id":"0.0-72.0-0.0","task_version":"screening-mturk","missing":false,"accuracy":0},{"contexts":["blue","green","red"],"outcomes":[0,1,0],"key":37,"choice":0,"rt":468.7000000849366,"outcome":0,"trial":67,"correct":0,"trial_type":"three-arm-trial","trial_index":106,"time_elapsed":1278329,"internal_node_id":"0.0-73.0-0.0","task_version":"screening-mturk","missing":false,"accuracy":1},{"contexts":["blue","green","red"],"outcomes":[1,0,0],"key":39,"choice":2,"rt":106.01499979384243,"outcome":0,"trial":68,"correct":0,"trial_type":"three-arm-trial","trial_index":107,"time_elapsed":1279637,"internal_node_id":"0.0-74.0-0.0","task_version":"screening-mturk","missing":false,"accuracy":0},{"contexts":["blue","green","red"],"outcomes":[1,0,0],"key":37,"choice":0,"rt":587.2250001411885,"outcome":1,"trial":69,"correct":0,"trial_type":"three-arm-trial","trial_index":108,"time_elapsed":1281427,"internal_node_id":"0.0-75.0-0.0","task_version":"screening-mturk","missing":false,"accuracy":1},{"contexts":["blue","green","red"],"outcomes":[1,0,1],"key":39,"choice":2,"rt":487.8750001080334,"outcome":1,"trial":70,"correct":0,"trial_type":"three-arm-trial","trial_index":109,"time_elapsed":1283117,"internal_node_id":"0.0-76.0-0.0","task_version":"screening-mturk","missing":false,"accuracy":0},{"contexts":["blue","green","red"],"outcomes":[1,0,0],"key":37,"choice":0,"rt":367.54499981179833,"outcome":1,"trial":71,"correct":0,"trial_type":"three-arm-trial","trial_index":110,"time_elapsed":1284687,"internal_node_id":"0.0-77.0-0.0","task_version":"screening-mturk","missing":false,"accuracy":1},{"contexts":["blue","green","red"],"outcomes":[1,1,0],"key":39,"choice":2,"rt":168.18999988026917,"outcome":0,"trial":72,"correct":0,"trial_type":"three-arm-trial","trial_index":111,"time_elapsed":1286057,"internal_node_id":"0.0-78.0-0.0","task_version":"screening-mturk","missing":false,"accuracy":0},{"contexts":["blue","green","red"],"outcomes":[1,0,0],"key":37,"choice":0,"rt":468.1649999693036,"outcome":1,"trial":73,"correct":0,"trial_type":"three-arm-trial","trial_index":112,"time_elapsed":1287728,"internal_node_id":"0.0-79.0-0.0","task_version":"screening-mturk","missing":false,"accuracy":1},{"contexts":["blue","green","red"],"outcomes":[1,1,0],"key":39,"choice":2,"rt":147.04499999061227,"outcome":0,"trial":74,"correct":0,"trial_type":"three-arm-trial","trial_index":113,"time_elapsed":1289077,"internal_node_id":"0.0-80.0-0.0","task_version":"screening-mturk","missing":false,"accuracy":0},{"contexts":["blue","green","red"],"outcomes":[1,0,0],"key":37,"choice":0,"rt":437.30499991215765,"outcome":1,"trial":75,"correct":0,"trial_type":"three-arm-trial","trial_index":114,"time_elapsed":1290720,"internal_node_id":"0.0-81.0-0.0","task_version":"screening-mturk","missing":false,"accuracy":1},{"contexts":["blue","green","red"],"outcomes":[0,1,0],"key":39,"choice":2,"rt":264.8999998345971,"outcome":0,"trial":76,"correct":1,"trial_type":"three-arm-trial","trial_index":115,"time_elapsed":1292187,"internal_node_id":"0.0-82.0-0.0","task_version":"screening-mturk","missing":false,"accuracy":0},{"contexts":["blue","green","red"],"outcomes":[0,0,0],"key":37,"choice":0,"rt":377.64499988406897,"outcome":0,"trial":77,"correct":1,"trial_type":"three-arm-trial","trial_index":116,"time_elapsed":1293770,"internal_node_id":"0.0-83.0-0.0","task_version":"screening-mturk","missing":false,"accuracy":0},{"contexts":["blue","green","red"],"outcomes":[0,1,0],"key":39,"choice":2,"rt":95.11999995447695,"outcome":0,"trial":78,"correct":1,"trial_type":"three-arm-trial","trial_index":117,"time_elapsed":1295067,"internal_node_id":"0.0-84.0-0.0","task_version":"screening-mturk","missing":false,"accuracy":0},{"contexts":["blue","green","red"],"outcomes":[0,1,0],"key":37,"choice":0,"rt":392.83000002615154,"outcome":0,"trial":79,"correct":1,"trial_type":"three-arm-trial","trial_index":118,"time_elapsed":1296662,"internal_node_id":"0.0-85.0-0.0","task_version":"screening-mturk","missing":false,"accuracy":0},{"contexts":["blue","green","red"],"outcomes":[0,1,0],"key":39,"choice":2,"rt":1112.459999974817,"outcome":0,"trial":80,"correct":1,"trial_type":"three-arm-trial","trial_index":119,"time_elapsed":1298978,"internal_node_id":"0.0-86.0-0.0","task_version":"screening-mturk","missing":false,"accuracy":0},{"contexts":["blue","green","red"],"outcomes":[1,0,0],"key":37,"choice":0,"rt":297.0600000116974,"outcome":1,"trial":81,"correct":1,"trial_type":"three-arm-trial","trial_index":120,"time_elapsed":1300477,"internal_node_id":"0.0-87.0-0.0","task_version":"screening-mturk","missing":false,"accuracy":0},{"contexts":["blue","green","red"],"outcomes":[0,1,1],"key":39,"choice":2,"rt":413.6850000359118,"outcome":1,"trial":82,"correct":1,"trial_type":"three-arm-trial","trial_index":121,"time_elapsed":1302093,"internal_node_id":"0.0-88.0-0.0","task_version":"screening-mturk","missing":false,"accuracy":0},{"contexts":["blue","green","red"],"outcomes":[0,1,0],"key":37,"choice":0,"rt":521.6749999672174,"outcome":0,"trial":83,"correct":1,"trial_type":"three-arm-trial","trial_index":122,"time_elapsed":1303817,"internal_node_id":"0.0-89.0-0.0","task_version":"screening-mturk","missing":false,"accuracy":0},{"contexts":["blue","green","red"],"outcomes":[1,1,0],"key":39,"choice":2,"rt":298.4400000423193,"outcome":0,"trial":84,"correct":1,"trial_type":"three-arm-trial","trial_index":123,"time_elapsed":1305320,"internal_node_id":"0.0-90.0-0.0","task_version":"screening-mturk","missing":false,"accuracy":0},{"contexts":["blue","green","red"],"outcomes":[0,1,0],"key":37,"choice":0,"rt":315.6849998049438,"outcome":0,"trial":85,"correct":1,"trial_type":"three-arm-trial","trial_index":124,"time_elapsed":1306838,"internal_node_id":"0.0-91.0-0.0","task_version":"screening-mturk","missing":false,"accuracy":0},{"contexts":["blue","green","red"],"outcomes":[0,1,0],"key":39,"choice":2,"rt":857.6350000221282,"outcome":0,"trial":86,"correct":1,"trial_type":"three-arm-trial","trial_index":125,"time_elapsed":1308897,"internal_node_id":"0.0-92.0-0.0","task_version":"screening-mturk","missing":false,"accuracy":0},{"contexts":["blue","green","red"],"outcomes":[0,1,0],"key":37,"choice":0,"rt":178.12500009313226,"outcome":0,"trial":87,"correct":1,"trial_type":"three-arm-trial","trial_index":126,"time_elapsed":1310279,"internal_node_id":"0.0-93.0-0.0","task_version":"screening-mturk","missing":false,"accuracy":0},{"contexts":["blue","green","red"],"outcomes":[0,1,1],"key":39,"choice":2,"rt":996.3050000369549,"outcome":1,"trial":88,"correct":1,"trial_type":"three-arm-trial","trial_index":127,"time_elapsed":1312478,"internal_node_id":"0.0-94.0-0.0","task_version":"screening-mturk","missing":false,"accuracy":0},{"contexts":["blue","green","red"],"outcomes":[1,1,0],"key":37,"choice":0,"rt":371.9000001437962,"outcome":1,"trial":89,"correct":1,"trial_type":"three-arm-trial","trial_index":128,"time_elapsed":1314057,"internal_node_id":"0.0-95.0-0.0","task_version":"screening-mturk","missing":false,"accuracy":0},{"contexts":["blue","green","red"],"outcomes":[0,1,0],"key":39,"choice":2,"rt":478.2149998936802,"outcome":0,"trial":90,"correct":1,"trial_type":"three-arm-trial","trial_index":129,"time_elapsed":1315739,"internal_node_id":"0.0-96.0-0.0","task_version":"screening-mturk","missing":false,"accuracy":0},{"rt":42675.15000002459,"responses":{"age":"30","gender-categorical":"Female","gender-free-response":"","ethnicity":"Not Hispanic or Latino","race":["White"],"language":"Yes","fluency":"Very well","prolific":"Yes","prolific-this-study":"No"},"survey":"demographics","trial_type":"survey-demo","trial_index":130,"time_elapsed":1358419,"internal_node_id":"0.0-97.0","task_version":"screening-mturk","interactions":"[{\"event\":\"blur\",\"trial\":1,\"time\":50756},{\"event\":\"focus\",\"trial\":1,\"time\":50982},{\"event\":\"blur\",\"trial\":1,\"time\":64260},{\"event\":\"focus\",\"trial\":1,\"time\":64575},{\"event\":\"blur\",\"trial\":11,\"time\":203423},{\"event\":\"focus\",\"trial\":11,\"time\":207976},{\"event\":\"blur\",\"trial\":15,\"time\":304312},{\"event\":\"focus\",\"trial\":15,\"time\":380146},{\"event\":\"blur\",\"trial\":21,\"time\":439726},{\"event\":\"focus\",\"trial\":21,\"time\":441680},{\"event\":\"blur\",\"trial\":21,\"time\":450700},{\"event\":\"focus\",\"trial\":21,\"time\":467507},{\"event\":\"blur\",\"trial\":21,\"time\":485783},{\"event\":\"focus\",\"trial\":21,\"time\":495763},{\"event\":\"blur\",\"trial\":21,\"time\":496053},{\"event\":\"focus\",\"trial\":21,\"time\":500120},{\"event\":\"blur\",\"trial\":21,\"time\":500127},{\"event\":\"focus\",\"trial\":21,\"time\":524099},{\"event\":\"blur\",\"trial\":25,\"time\":564378},{\"event\":\"focus\",\"trial\":25,\"time\":581562},{\"event\":\"blur\",\"trial\":25,\"time\":591572},{\"event\":\"focus\",\"trial\":25,\"time\":591942},{\"event\":\"blur\",\"trial\":25,\"time\":593562},{\"event\":\"focus\",\"trial\":25,\"time\":608724},{\"event\":\"blur\",\"trial\":30,\"time\":667210},{\"event\":\"focus\",\"trial\":30,\"time\":670660},{\"event\":\"blur\",\"trial\":33,\"time\":701052},{\"event\":\"focus\",\"trial\":33,\"time\":769551},{\"event\":\"blur\",\"trial\":33,\"time\":771364},{\"event\":\"focus\",\"trial\":33,\"time\":784800},{\"event\":\"blur\",\"trial\":33,\"time\":789800},{\"event\":\"focus\",\"trial\":33,\"time\":814125},{\"event\":\"blur\",\"trial\":33,\"time\":818130},{\"event\":\"focus\",\"trial\":33,\"time\":818449},{\"event\":\"blur\",\"trial\":33,\"time\":819145},{\"event\":\"focus\",\"trial\":33,\"time\":838840},{\"event\":\"blur\",\"trial\":33,\"time\":929059},{\"event\":\"focus\",\"trial\":33,\"time\":1004054},{\"event\":\"blur\",\"trial\":36,\"time\":1103020},{\"event\":\"focus\",\"trial\":36,\"time\":1115450},{\"event\":\"blur\",\"trial\":37,\"time\":1127991},{\"event\":\"focus\",\"trial\":37,\"time\":1128312},{\"event\":\"blur\",\"trial\":130,\"time\":1318378},{\"event\":\"focus\",\"trial\":130,\"time\":1340149}]"}]