[{"responses":{"Q01":"3","Q14":"2","Q11":"3","Q09":"2","Q12":"3","Q07":"3","Q05":"2","Q10":"3","Q04":"3","Q15":"3","Q02":"3","Q03":"2","Q13":"3","Q08":"3","Q06":"3"},"rt":53823.08999999805,"survey":"shaps","trial_type":"survey-template","trial_index":0,"time_elapsed":53843,"internal_node_id":"0.0-0.0","task_version":"screening-mturk"},{"responses":{"Q11":"1","Q02":"1","Q09":"0","Q03":"0","Q08":"0","Q01":"0","Q05":"1","Q12":"1","Q14":"0","Q07":"0","Q04":"0","Q15":"0","Q06":"0","Q13":"0","Q10":"1"},"rt":118639.92000000144,"survey":"7up7down","trial_type":"survey-template","trial_index":1,"time_elapsed":172505,"internal_node_id":"0.0-1.0","task_version":"screening-mturk"},{"responses":{"Q03":"2","Q02":"2","Q01":"2"},"rt":8551.989999999932,"survey":"pswq","trial_type":"survey-template","trial_index":2,"time_elapsed":181064,"internal_node_id":"0.0-2.0","task_version":"screening-mturk"},{"responses":{"Q11":"1","Q13":"3","Q05":"2","Q09":"1","Q03":"2","Q01":"2","Q02":"1","Q10":"1","Q06":"2","Q08":"1","Q07":"3","Q04":"3","Q12":"1"},"rt":43525.43499999592,"survey":"bisbas","trial_type":"survey-template","trial_index":3,"time_elapsed":224606,"internal_node_id":"0.0-3.0","task_version":"screening-mturk"},{"responses":{"Q05":"0","Q04":"0","Q01":"0","Q06":"0","Q08":"0","Q07":"0","Q03":"1","Q02":"0"},"rt":19067.119999999704,"survey":"gad7","trial_type":"survey-template","trial_index":4,"time_elapsed":243680,"internal_node_id":"0.0-4.0","task_version":"screening-mturk"},{"view_history":"[{\"page_index\":0,\"viewing_time\":7505.089999998745},{\"page_index\":1,\"viewing_time\":9513.500000000931},{\"page_index\":2,\"viewing_time\":5405.590000002121},{\"page_index\":3,\"viewing_time\":6545.194999998785},{\"page_index\":4,\"viewing_time\":7361.31999999634},{\"page_index\":5,\"viewing_time\":5501.270000000659},{\"page_index\":6,\"viewing_time\":5299.555000005057},{\"page_index\":7,\"viewing_time\":5413.354999996955}]","rt":52545.68999999901,"trial_type":"instructions","trial_index":5,"time_elapsed":296239,"internal_node_id":"0.0-5.0-0.0","task_version":"screening-mturk"},{"responses":["True","True","False","False","True"],"num_errors":0,"rt":15304.639999994833,"trial_type":"three-arm-comprehension","trial_index":6,"time_elapsed":311546,"internal_node_id":"0.0-5.0-1.0","task_version":"screening-mturk"},{"view_history":"[{\"page_index\":0,\"viewing_time\":2035.104999995383}]","rt":2035.6249999967986,"trial_type":"instructions","trial_index":7,"time_elapsed":313590,"internal_node_id":"0.0-6.0","task_version":"screening-mturk"},{"contexts":["green","red","blue"],"outcomes":[1,0,0],"key":38,"choice":1,"rt":1701.6450000010082,"outcome":0,"trial":1,"correct":0,"trial_type":"three-arm-trial","trial_index":8,"time_elapsed":316495,"internal_node_id":"0.0-7.0-0.0","task_version":"screening-mturk","missing":false,"accuracy":0},{"contexts":["green","red","blue"],"outcomes":[1,0,0],"key":37,"choice":0,"rt":759.2249999943306,"outcome":1,"trial":2,"correct":0,"trial_type":"three-arm-trial","trial_index":9,"time_elapsed":318464,"internal_node_id":"0.0-8.0-0.0","task_version":"screening-mturk","missing":false,"accuracy":1},{"contexts":["green","red","blue"],"outcomes":[1,0,1],"key":37,"choice":0,"rt":473.8800000050105,"outcome":1,"trial":3,"correct":0,"trial_type":"three-arm-trial","trial_index":10,"time_elapsed":320143,"internal_node_id":"0.0-9.0-0.0","task_version":"screening-mturk","missing":false,"accuracy":1},{"contexts":["green","red","blue"],"outcomes":[1,0,0],"key":37,"choice":0,"rt":383.00499999604654,"outcome":1,"trial":4,"correct":0,"trial_type":"three-arm-trial","trial_index":11,"time_elapsed":321732,"internal_node_id":"0.0-10.0-0.0","task_version":"screening-mturk","missing":false,"accuracy":1},{"contexts":["green","red","blue"],"outcomes":[0,1,1],"key":37,"choice":0,"rt":370.969999996305,"outcome":0,"trial":5,"correct":0,"trial_type":"three-arm-trial","trial_index":12,"time_elapsed":323310,"internal_node_id":"0.0-11.0-0.0","task_version":"screening-mturk","missing":false,"accuracy":1},{"contexts":["green","red","blue"],"outcomes":[0,0,0],"key":37,"choice":0,"rt":314.76999999722466,"outcome":0,"trial":6,"correct":0,"trial_type":"three-arm-trial","trial_index":13,"time_elapsed":324832,"internal_node_id":"0.0-12.0-0.0","task_version":"screening-mturk","missing":false,"accuracy":1},{"contexts":["green","red","blue"],"outcomes":[1,0,0],"key":37,"choice":0,"rt":356.8599999998696,"outcome":1,"trial":7,"correct":0,"trial_type":"three-arm-trial","trial_index":14,"time_elapsed":326396,"internal_node_id":"0.0-13.0-0.0","task_version":"screening-mturk","missing":false,"accuracy":1},{"contexts":["green","red","blue"],"outcomes":[1,1,0],"key":37,"choice":0,"rt":346.53000000253087,"outcome":1,"trial":8,"correct":0,"trial_type":"three-arm-trial","trial_index":15,"time_elapsed":327950,"internal_node_id":"0.0-14.0-0.0","task_version":"screening-mturk","missing":false,"accuracy":1},{"contexts":["green","red","blue"],"outcomes":[1,0,0],"key":37,"choice":0,"rt":301.3599999976577,"outcome":1,"trial":9,"correct":0,"trial_type":"three-arm-trial","trial_index":16,"time_elapsed":329457,"internal_node_id":"0.0-15.0-0.0","task_version":"screening-mturk","missing":false,"accuracy":1},{"contexts":["green","red","blue"],"outcomes":[1,0,0],"key":37,"choice":0,"rt":280.29999999853317,"outcome":1,"trial":10,"correct":0,"trial_type":"three-arm-trial","trial_index":17,"time_elapsed":330943,"internal_node_id":"0.0-16.0-0.0","task_version":"screening-mturk","missing":false,"accuracy":1},{"contexts":["green","red","blue"],"outcomes":[1,0,0],"key":37,"choice":0,"rt":305.48999999882653,"outcome":1,"trial":11,"correct":0,"trial_type":"three-arm-trial","trial_index":18,"time_elapsed":332456,"internal_node_id":"0.0-17.0-0.0","task_version":"screening-mturk","missing":false,"accuracy":1},{"contexts":["green","red","blue"],"outcomes":[1,0,0],"key":37,"choice":0,"rt":303.025000001071,"outcome":1,"trial":12,"correct":0,"trial_type":"three-arm-trial","trial_index":19,"time_elapsed":333973,"internal_node_id":"0.0-18.0-0.0","task_version":"screening-mturk","missing":false,"accuracy":1},{"contexts":["green","red","blue"],"outcomes":[1,1,0],"key":37,"choice":0,"rt":316.7350000003353,"outcome":1,"trial":13,"correct":0,"trial_type":"three-arm-trial","trial_index":20,"time_elapsed":335496,"internal_node_id":"0.0-19.0-0.0","task_version":"screening-mturk","missing":false,"accuracy":1},{"contexts":["green","red","blue"],"outcomes":[1,0,1],"key":37,"choice":0,"rt":330.8049999977811,"outcome":1,"trial":14,"correct":0,"trial_type":"three-arm-trial","trial_index":21,"time_elapsed":337033,"internal_node_id":"0.0-20.0-0.0","task_version":"screening-mturk","missing":false,"accuracy":1},{"contexts":["green","red","blue"],"outcomes":[1,0,0],"key":37,"choice":0,"rt":223.91999999672407,"outcome":1,"trial":15,"correct":0,"trial_type":"three-arm-trial","trial_index":22,"time_elapsed":338464,"internal_node_id":"0.0-21.0-0.0","task_version":"screening-mturk","missing":false,"accuracy":1},{"contexts":["green","red","blue"],"outcomes":[1,1,0],"key":37,"choice":0,"rt":300.19000000174856,"outcome":1,"trial":16,"correct":1,"trial_type":"three-arm-trial","trial_index":23,"time_elapsed":339971,"internal_node_id":"0.0-22.0-0.0","task_version":"screening-mturk","missing":false,"accuracy":0},{"contexts":["green","red","blue"],"outcomes":[0,1,0],"key":37,"choice":0,"rt":312.04499999876134,"outcome":0,"trial":17,"correct":1,"trial_type":"three-arm-trial","trial_index":24,"time_elapsed":341491,"internal_node_id":"0.0-23.0-0.0","task_version":"screening-mturk","missing":false,"accuracy":0},{"contexts":["green","red","blue"],"outcomes":[0,1,0],"key":37,"choice":0,"rt":292.01499999908265,"outcome":0,"trial":18,"correct":1,"trial_type":"three-arm-trial","trial_index":25,"time_elapsed":342989,"internal_node_id":"0.0-24.0-0.0","task_version":"screening-mturk","missing":false,"accuracy":0},{"contexts":["green","red","blue"],"outcomes":[0,0,0],"key":37,"choice":0,"rt":295.429999998305,"outcome":0,"trial":19,"correct":1,"trial_type":"three-arm-trial","trial_index":26,"time_elapsed":344491,"internal_node_id":"0.0-25.0-0.0","task_version":"screening-mturk","missing":false,"accuracy":0},{"contexts":["green","red","blue"],"outcomes":[1,1,0],"key":39,"choice":2,"rt":146.93000000261236,"outcome":0,"trial":20,"correct":1,"trial_type":"three-arm-trial","trial_index":27,"time_elapsed":345845,"internal_node_id":"0.0-26.0-0.0","task_version":"screening-mturk","missing":false,"accuracy":0},{"contexts":["green","red","blue"],"outcomes":[0,0,0],"key":38,"choice":1,"rt":337.7200000031735,"outcome":0,"trial":21,"correct":1,"trial_type":"three-arm-trial","trial_index":28,"time_elapsed":347391,"internal_node_id":"0.0-27.0-0.0","task_version":"screening-mturk","missing":false,"accuracy":1},{"contexts":["green","red","blue"],"outcomes":[0,1,0],"key":39,"choice":2,"rt":215.2799999967101,"outcome":0,"trial":22,"correct":1,"trial_type":"three-arm-trial","trial_index":29,"time_elapsed":348814,"internal_node_id":"0.0-28.0-0.0","task_version":"screening-mturk","missing":false,"accuracy":0},{"contexts":["green","red","blue"],"outcomes":[0,0,0],"key":37,"choice":0,"rt":317.6400000011199,"outcome":0,"trial":23,"correct":1,"trial_type":"three-arm-trial","trial_index":30,"time_elapsed":350339,"internal_node_id":"0.0-29.0-0.0","task_version":"screening-mturk","missing":false,"accuracy":0},{"contexts":["green","red","blue"],"outcomes":[0,1,0],"key":38,"choice":1,"rt":311.8400000021211,"outcome":1,"trial":24,"correct":1,"trial_type":"three-arm-trial","trial_index":31,"time_elapsed":351857,"internal_node_id":"0.0-30.0-0.0","task_version":"screening-mturk","missing":false,"accuracy":1},{"contexts":["green","red","blue"],"outcomes":[0,1,0],"key":38,"choice":1,"rt":254.4350000025588,"outcome":1,"trial":25,"correct":1,"trial_type":"three-arm-trial","trial_index":32,"time_elapsed":353318,"internal_node_id":"0.0-31.0-0.0","task_version":"screening-mturk","missing":false,"accuracy":1},{"contexts":["green","red","blue"],"outcomes":[0,1,1],"key":38,"choice":1,"rt":289.3899999980931,"outcome":1,"trial":26,"correct":1,"trial_type":"three-arm-trial","trial_index":33,"time_elapsed":354813,"internal_node_id":"0.0-32.0-0.0","task_version":"screening-mturk","missing":false,"accuracy":1},{"contexts":["green","red","blue"],"outcomes":[0,1,0],"key":38,"choice":1,"rt":293.02499999903375,"outcome":1,"trial":27,"correct":1,"trial_type":"three-arm-trial","trial_index":34,"time_elapsed":356314,"internal_node_id":"0.0-33.0-0.0","task_version":"screening-mturk","missing":false,"accuracy":1},{"contexts":["green","red","blue"],"outcomes":[0,1,1],"key":38,"choice":1,"rt":292.780000003404,"outcome":1,"trial":28,"correct":1,"trial_type":"three-arm-trial","trial_index":35,"time_elapsed":357815,"internal_node_id":"0.0-34.0-0.0","task_version":"screening-mturk","missing":false,"accuracy":1},{"contexts":["green","red","blue"],"outcomes":[0,1,0],"key":38,"choice":1,"rt":288.88000000006286,"outcome":1,"trial":29,"correct":1,"trial_type":"three-arm-trial","trial_index":36,"time_elapsed":359311,"internal_node_id":"0.0-35.0-0.0","task_version":"screening-mturk","missing":false,"accuracy":1},{"contexts":["green","red","blue"],"outcomes":[0,1,0],"key":38,"choice":1,"rt":331.51500000531087,"outcome":1,"trial":30,"correct":1,"trial_type":"three-arm-trial","trial_index":37,"time_elapsed":360850,"internal_node_id":"0.0-36.0-0.0","task_version":"screening-mturk","missing":false,"accuracy":1},{"contexts":["green","red","blue"],"outcomes":[1,1,1],"key":38,"choice":1,"rt":235.14499999873806,"outcome":1,"trial":31,"correct":0,"trial_type":"three-arm-trial","trial_index":38,"time_elapsed":362291,"internal_node_id":"0.0-37.0-0.0","task_version":"screening-mturk","missing":false,"accuracy":0},{"contexts":["green","red","blue"],"outcomes":[1,0,0],"key":38,"choice":1,"rt":290.0549999976647,"outcome":0,"trial":32,"correct":0,"trial_type":"three-arm-trial","trial_index":39,"time_elapsed":363788,"internal_node_id":"0.0-38.0-0.0","task_version":"screening-mturk","missing":false,"accuracy":0},{"contexts":["green","red","blue"],"outcomes":[0,0,0],"key":38,"choice":1,"rt":269.61000000301283,"outcome":0,"trial":33,"correct":0,"trial_type":"three-arm-trial","trial_index":40,"time_elapsed":365266,"internal_node_id":"0.0-39.0-0.0","task_version":"screening-mturk","missing":false,"accuracy":0},{"contexts":["green","red","blue"],"outcomes":[0,0,0],"key":38,"choice":1,"rt":296.78500000591157,"outcome":0,"trial":34,"correct":0,"trial_type":"three-arm-trial","trial_index":41,"time_elapsed":366770,"internal_node_id":"0.0-40.0-0.0","task_version":"screening-mturk","missing":false,"accuracy":0},{"contexts":["green","red","blue"],"outcomes":[0,1,0],"key":39,"choice":2,"rt":39.544999999634456,"outcome":0,"trial":35,"correct":0,"trial_type":"three-arm-trial","trial_index":42,"time_elapsed":368016,"internal_node_id":"0.0-41.0-0.0","task_version":"screening-mturk","missing":false,"accuracy":0},{"contexts":["green","red","blue"],"outcomes":[1,1,0],"key":37,"choice":0,"rt":43.310000000928994,"outcome":1,"trial":36,"correct":0,"trial_type":"three-arm-trial","trial_index":43,"time_elapsed":369269,"internal_node_id":"0.0-42.0-0.0","task_version":"screening-mturk","missing":false,"accuracy":1},{"contexts":["green","red","blue"],"outcomes":[1,1,0],"key":37,"choice":0,"rt":277.43000000191387,"outcome":1,"trial":37,"correct":0,"trial_type":"three-arm-trial","trial_index":44,"time_elapsed":370753,"internal_node_id":"0.0-43.0-0.0","task_version":"screening-mturk","missing":false,"accuracy":1},{"contexts":["green","red","blue"],"outcomes":[1,0,0],"key":37,"choice":0,"rt":159.91500000382075,"outcome":1,"trial":38,"correct":0,"trial_type":"three-arm-trial","trial_index":45,"time_elapsed":372118,"internal_node_id":"0.0-44.0-0.0","task_version":"screening-mturk","missing":false,"accuracy":1},{"contexts":["green","red","blue"],"outcomes":[1,0,0],"key":37,"choice":0,"rt":60.33500000194181,"outcome":1,"trial":39,"correct":0,"trial_type":"three-arm-trial","trial_index":46,"time_elapsed":373385,"internal_node_id":"0.0-45.0-0.0","task_version":"screening-mturk","missing":false,"accuracy":1},{"contexts":["green","red","blue"],"outcomes":[1,0,0],"key":37,"choice":0,"rt":162.8100000016275,"outcome":1,"trial":40,"correct":0,"trial_type":"three-arm-trial","trial_index":47,"time_elapsed":374754,"internal_node_id":"0.0-46.0-0.0","task_version":"screening-mturk","missing":false,"accuracy":1},{"contexts":["green","red","blue"],"outcomes":[0,0,0],"key":37,"choice":0,"rt":403.80000000004657,"outcome":0,"trial":41,"correct":0,"trial_type":"three-arm-trial","trial_index":48,"time_elapsed":376366,"internal_node_id":"0.0-47.0-0.0","task_version":"screening-mturk","missing":false,"accuracy":1},{"contexts":["green","red","blue"],"outcomes":[1,0,0],"key":37,"choice":0,"rt":122.67500000598375,"outcome":1,"trial":42,"correct":0,"trial_type":"three-arm-trial","trial_index":49,"time_elapsed":377695,"internal_node_id":"0.0-48.0-0.0","task_version":"screening-mturk","missing":false,"accuracy":1},{"contexts":["green","red","blue"],"outcomes":[1,0,0],"key":37,"choice":0,"rt":745.5450000052224,"outcome":1,"trial":43,"correct":0,"trial_type":"three-arm-trial","trial_index":50,"time_elapsed":379647,"internal_node_id":"0.0-49.0-0.0","task_version":"screening-mturk","missing":false,"accuracy":1},{"contexts":["green","red","blue"],"outcomes":[1,0,0],"key":37,"choice":0,"rt":433.6849999963306,"outcome":1,"trial":44,"correct":0,"trial_type":"three-arm-trial","trial_index":51,"time_elapsed":381286,"internal_node_id":"0.0-50.0-0.0","task_version":"screening-mturk","missing":false,"accuracy":1},{"contexts":["green","red","blue"],"outcomes":[0,0,0],"key":37,"choice":0,"rt":241.4649999991525,"outcome":0,"trial":45,"correct":0,"trial_type":"three-arm-trial","trial_index":52,"time_elapsed":382736,"internal_node_id":"0.0-51.0-0.0","task_version":"screening-mturk","missing":false,"accuracy":1},{"contexts":["green","red","blue"],"outcomes":[0,0,1],"key":37,"choice":0,"rt":299.4500000058906,"outcome":0,"trial":46,"correct":1,"trial_type":"three-arm-trial","trial_index":53,"time_elapsed":384243,"internal_node_id":"0.0-52.0-0.0","task_version":"screening-mturk","missing":false,"accuracy":0},{"contexts":["green","red","blue"],"outcomes":[0,1,1],"key":39,"choice":2,"rt":18.729999996139668,"outcome":1,"trial":47,"correct":1,"trial_type":"three-arm-trial","trial_index":54,"time_elapsed":385472,"internal_node_id":"0.0-53.0-0.0","task_version":"screening-mturk","missing":false,"accuracy":0},{"contexts":["green","red","blue"],"outcomes":[0,1,0],"key":39,"choice":2,"rt":130.154999998922,"outcome":0,"trial":48,"correct":1,"trial_type":"three-arm-trial","trial_index":55,"time_elapsed":386809,"internal_node_id":"0.0-54.0-0.0","task_version":"screening-mturk","missing":false,"accuracy":0},{"contexts":["green","red","blue"],"outcomes":[0,1,0],"key":39,"choice":2,"rt":42.405000000144355,"outcome":0,"trial":49,"correct":1,"trial_type":"three-arm-trial","trial_index":56,"time_elapsed":388060,"internal_node_id":"0.0-55.0-0.0","task_version":"screening-mturk","missing":false,"accuracy":0},{"contexts":["green","red","blue"],"outcomes":[0,1,1],"key":39,"choice":2,"rt":938.9999999984866,"outcome":1,"trial":50,"correct":1,"trial_type":"three-arm-trial","trial_index":57,"time_elapsed":390207,"internal_node_id":"0.0-56.0-0.0","task_version":"screening-mturk","missing":false,"accuracy":0},{"contexts":["green","red","blue"],"outcomes":[1,1,0],"key":39,"choice":2,"rt":653.3899999994901,"outcome":0,"trial":51,"correct":1,"trial_type":"three-arm-trial","trial_index":58,"time_elapsed":392067,"internal_node_id":"0.0-57.0-0.0","task_version":"screening-mturk","missing":false,"accuracy":0},{"contexts":["green","red","blue"],"outcomes":[0,1,1],"key":39,"choice":2,"rt":188.8249999974505,"outcome":1,"trial":52,"correct":1,"trial_type":"three-arm-trial","trial_index":59,"time_elapsed":393468,"internal_node_id":"0.0-58.0-0.0","task_version":"screening-mturk","missing":false,"accuracy":0},{"contexts":["green","red","blue"],"outcomes":[0,1,0],"key":39,"choice":2,"rt":389.2850000047474,"outcome":0,"trial":53,"correct":1,"trial_type":"three-arm-trial","trial_index":60,"time_elapsed":395064,"internal_node_id":"0.0-59.0-0.0","task_version":"screening-mturk","missing":false,"accuracy":0},{"contexts":["green","red","blue"],"outcomes":[0,0,0],"key":38,"choice":1,"rt":313.0699999965145,"outcome":0,"trial":54,"correct":1,"trial_type":"three-arm-trial","trial_index":61,"time_elapsed":396586,"internal_node_id":"0.0-60.0-0.0","task_version":"screening-mturk","missing":false,"accuracy":1},{"contexts":["green","red","blue"],"outcomes":[0,1,0],"key":37,"choice":0,"rt":192.26000000344357,"outcome":0,"trial":55,"correct":1,"trial_type":"three-arm-trial","trial_index":62,"time_elapsed":397985,"internal_node_id":"0.0-61.0-0.0","task_version":"screening-mturk","missing":false,"accuracy":0},{"contexts":["green","red","blue"],"outcomes":[0,1,0],"key":39,"choice":2,"rt":70.09000000107335,"outcome":0,"trial":56,"correct":1,"trial_type":"three-arm-trial","trial_index":63,"time_elapsed":399273,"internal_node_id":"0.0-62.0-0.0","task_version":"screening-mturk","missing":false,"accuracy":0},{"contexts":["green","red","blue"],"outcomes":[0,1,1],"key":39,"choice":2,"rt":310.78499999421183,"outcome":1,"trial":57,"correct":1,"trial_type":"three-arm-trial","trial_index":64,"time_elapsed":400792,"internal_node_id":"0.0-63.0-0.0","task_version":"screening-mturk","missing":false,"accuracy":0},{"contexts":["green","red","blue"],"outcomes":[0,1,0],"key":39,"choice":2,"rt":320.1349999944796,"outcome":0,"trial":58,"correct":1,"trial_type":"three-arm-trial","trial_index":65,"time_elapsed":402320,"internal_node_id":"0.0-64.0-0.0","task_version":"screening-mturk","missing":false,"accuracy":0},{"contexts":["green","red","blue"],"outcomes":[0,1,1],"key":38,"choice":1,"rt":14.075000006414484,"outcome":1,"trial":59,"correct":1,"trial_type":"three-arm-trial","trial_index":66,"time_elapsed":403540,"internal_node_id":"0.0-65.0-0.0","task_version":"screening-mturk","missing":false,"accuracy":1},{"contexts":["green","red","blue"],"outcomes":[0,1,1],"key":38,"choice":1,"rt":274.7850000014296,"outcome":1,"trial":60,"correct":1,"trial_type":"three-arm-trial","trial_index":67,"time_elapsed":405022,"internal_node_id":"0.0-66.0-0.0","task_version":"screening-mturk","missing":false,"accuracy":1},{"contexts":["green","red","blue"],"outcomes":[1,0,1],"key":38,"choice":1,"rt":248.39499999507098,"outcome":0,"trial":61,"correct":2,"trial_type":"three-arm-trial","trial_index":68,"time_elapsed":406477,"internal_node_id":"0.0-67.0-0.0","task_version":"screening-mturk","missing":false,"accuracy":0},{"contexts":["green","red","blue"],"outcomes":[0,0,1],"key":38,"choice":1,"rt":346.4650000023539,"outcome":0,"trial":62,"correct":2,"trial_type":"three-arm-trial","trial_index":69,"time_elapsed":408029,"internal_node_id":"0.0-68.0-0.0","task_version":"screening-mturk","missing":false,"accuracy":0},{"contexts":["green","red","blue"],"outcomes":[0,0,1],"key":37,"choice":0,"rt":509.4200000021374,"outcome":0,"trial":63,"correct":2,"trial_type":"three-arm-trial","trial_index":70,"time_elapsed":409746,"internal_node_id":"0.0-69.0-0.0","task_version":"screening-mturk","missing":false,"accuracy":0},{"contexts":["green","red","blue"],"outcomes":[0,0,1],"key":39,"choice":2,"rt":537.2200000056182,"outcome":1,"trial":64,"correct":2,"trial_type":"three-arm-trial","trial_index":71,"time_elapsed":411490,"internal_node_id":"0.0-70.0-0.0","task_version":"screening-mturk","missing":false,"accuracy":1},{"contexts":["green","red","blue"],"outcomes":[0,0,0],"key":39,"choice":2,"rt":344.18499999446794,"outcome":0,"trial":65,"correct":2,"trial_type":"three-arm-trial","trial_index":72,"time_elapsed":413040,"internal_node_id":"0.0-71.0-0.0","task_version":"screening-mturk","missing":false,"accuracy":1},{"contexts":["green","red","blue"],"outcomes":[0,0,1],"key":39,"choice":2,"rt":690.3700000038953,"outcome":1,"trial":66,"correct":2,"trial_type":"three-arm-trial","trial_index":73,"time_elapsed":414937,"internal_node_id":"0.0-72.0-0.0","task_version":"screening-mturk","missing":false,"accuracy":1},{"contexts":["green","red","blue"],"outcomes":[1,0,1],"key":39,"choice":2,"rt":317.0849999951315,"outcome":1,"trial":67,"correct":2,"trial_type":"three-arm-trial","trial_index":74,"time_elapsed":416460,"internal_node_id":"0.0-73.0-0.0","task_version":"screening-mturk","missing":false,"accuracy":1},{"contexts":["green","red","blue"],"outcomes":[0,0,1],"key":39,"choice":2,"rt":516.8400000038673,"outcome":1,"trial":68,"correct":2,"trial_type":"three-arm-trial","trial_index":75,"time_elapsed":418183,"internal_node_id":"0.0-74.0-0.0","task_version":"screening-mturk","missing":false,"accuracy":1},{"contexts":["green","red","blue"],"outcomes":[0,0,1],"key":39,"choice":2,"rt":178.05999999836786,"outcome":1,"trial":69,"correct":2,"trial_type":"three-arm-trial","trial_index":76,"time_elapsed":419569,"internal_node_id":"0.0-75.0-0.0","task_version":"screening-mturk","missing":false,"accuracy":1},{"contexts":["green","red","blue"],"outcomes":[0,0,1],"key":39,"choice":2,"rt":129.1449999989709,"outcome":1,"trial":70,"correct":2,"trial_type":"three-arm-trial","trial_index":77,"time_elapsed":420904,"internal_node_id":"0.0-76.0-0.0","task_version":"screening-mturk","missing":false,"accuracy":1},{"contexts":["green","red","blue"],"outcomes":[0,0,1],"key":39,"choice":2,"rt":873.9300000015646,"outcome":1,"trial":71,"correct":2,"trial_type":"three-arm-trial","trial_index":78,"time_elapsed":422985,"internal_node_id":"0.0-77.0-0.0","task_version":"screening-mturk","missing":false,"accuracy":1},{"contexts":["green","red","blue"],"outcomes":[0,0,0],"key":39,"choice":2,"rt":999.0150000012363,"outcome":0,"trial":72,"correct":2,"trial_type":"three-arm-trial","trial_index":79,"time_elapsed":425191,"internal_node_id":"0.0-78.0-0.0","task_version":"screening-mturk","missing":false,"accuracy":1},{"contexts":["green","red","blue"],"outcomes":[0,0,1],"key":39,"choice":2,"rt":304.470000002766,"outcome":1,"trial":73,"correct":2,"trial_type":"three-arm-trial","trial_index":80,"time_elapsed":426702,"internal_node_id":"0.0-79.0-0.0","task_version":"screening-mturk","missing":false,"accuracy":1},{"contexts":["green","red","blue"],"outcomes":[1,0,1],"key":39,"choice":2,"rt":719.9399999954039,"outcome":1,"trial":74,"correct":2,"trial_type":"three-arm-trial","trial_index":81,"time_elapsed":428631,"internal_node_id":"0.0-80.0-0.0","task_version":"screening-mturk","missing":false,"accuracy":1},{"contexts":["green","red","blue"],"outcomes":[0,0,1],"key":39,"choice":2,"rt":472.9650000008405,"outcome":1,"trial":75,"correct":2,"trial_type":"three-arm-trial","trial_index":82,"time_elapsed":430311,"internal_node_id":"0.0-81.0-0.0","task_version":"screening-mturk","missing":false,"accuracy":1},{"contexts":["green","red","blue"],"outcomes":[0,1,0],"key":39,"choice":2,"rt":7.299999997485429,"outcome":0,"trial":76,"correct":0,"trial_type":"three-arm-trial","trial_index":83,"time_elapsed":431529,"internal_node_id":"0.0-82.0-0.0","task_version":"screening-mturk","missing":false,"accuracy":0},{"contexts":["green","red","blue"],"outcomes":[1,0,0],"key":39,"choice":2,"rt":738.6849999966216,"outcome":0,"trial":77,"correct":0,"trial_type":"three-arm-trial","trial_index":84,"time_elapsed":433474,"internal_node_id":"0.0-83.0-0.0","task_version":"screening-mturk","missing":false,"accuracy":0},{"contexts":["green","red","blue"],"outcomes":[1,0,0],"key":39,"choice":2,"rt":1448.884999997972,"outcome":0,"trial":78,"correct":0,"trial_type":"three-arm-trial","trial_index":85,"time_elapsed":436130,"internal_node_id":"0.0-84.0-0.0","task_version":"screening-mturk","missing":false,"accuracy":0},{"contexts":["green","red","blue"],"outcomes":[1,0,0],"key":37,"choice":0,"rt":392.23499999934575,"outcome":1,"trial":79,"correct":0,"trial_type":"three-arm-trial","trial_index":86,"time_elapsed":437728,"internal_node_id":"0.0-85.0-0.0","task_version":"screening-mturk","missing":false,"accuracy":1},{"contexts":["green","red","blue"],"outcomes":[1,0,0],"key":37,"choice":0,"rt":287.8049999999348,"outcome":1,"trial":80,"correct":0,"trial_type":"three-arm-trial","trial_index":87,"time_elapsed":439224,"internal_node_id":"0.0-86.0-0.0","task_version":"screening-mturk","missing":false,"accuracy":1},{"contexts":["green","red","blue"],"outcomes":[1,0,0],"key":37,"choice":0,"rt":419.51500000141095,"outcome":1,"trial":81,"correct":0,"trial_type":"three-arm-trial","trial_index":88,"time_elapsed":440850,"internal_node_id":"0.0-87.0-0.0","task_version":"screening-mturk","missing":false,"accuracy":1},{"contexts":["green","red","blue"],"outcomes":[1,0,0],"key":37,"choice":0,"rt":739.3549999978859,"outcome":1,"trial":82,"correct":0,"trial_type":"three-arm-trial","trial_index":89,"time_elapsed":442798,"internal_node_id":"0.0-88.0-0.0","task_version":"screening-mturk","missing":false,"accuracy":1},{"contexts":["green","red","blue"],"outcomes":[0,0,0],"key":37,"choice":0,"rt":1509.8199999993085,"outcome":0,"trial":83,"correct":0,"trial_type":"three-arm-trial","trial_index":90,"time_elapsed":445514,"internal_node_id":"0.0-89.0-0.0","task_version":"screening-mturk","missing":false,"accuracy":1},{"contexts":["green","red","blue"],"outcomes":[0,0,0],"key":37,"choice":0,"rt":306.5599999972619,"outcome":0,"trial":84,"correct":0,"trial_type":"three-arm-trial","trial_index":91,"time_elapsed":447027,"internal_node_id":"0.0-90.0-0.0","task_version":"screening-mturk","missing":false,"accuracy":1},{"contexts":["green","red","blue"],"outcomes":[0,0,0],"key":38,"choice":1,"rt":99.71999999834225,"outcome":0,"trial":85,"correct":0,"trial_type":"three-arm-trial","trial_index":92,"time_elapsed":448333,"internal_node_id":"0.0-91.0-0.0","task_version":"screening-mturk","missing":false,"accuracy":0},{"contexts":["green","red","blue"],"outcomes":[1,0,0],"key":39,"choice":2,"rt":478.93000000476604,"outcome":0,"trial":86,"correct":0,"trial_type":"three-arm-trial","trial_index":93,"time_elapsed":450021,"internal_node_id":"0.0-92.0-0.0","task_version":"screening-mturk","missing":false,"accuracy":0},{"contexts":["green","red","blue"],"outcomes":[0,1,0],"key":37,"choice":0,"rt":297.09499999444233,"outcome":0,"trial":87,"correct":0,"trial_type":"three-arm-trial","trial_index":94,"time_elapsed":451526,"internal_node_id":"0.0-93.0-0.0","task_version":"screening-mturk","missing":false,"accuracy":1},{"contexts":["green","red","blue"],"outcomes":[1,0,0],"key":38,"choice":1,"rt":7.100000002537854,"outcome":0,"trial":88,"correct":0,"trial_type":"three-arm-trial","trial_index":95,"time_elapsed":452739,"internal_node_id":"0.0-94.0-0.0","task_version":"screening-mturk","missing":false,"accuracy":0},{"contexts":["green","red","blue"],"outcomes":[1,0,0],"key":39,"choice":2,"rt":504.24500000372063,"outcome":0,"trial":89,"correct":0,"trial_type":"three-arm-trial","trial_index":96,"time_elapsed":454456,"internal_node_id":"0.0-95.0-0.0","task_version":"screening-mturk","missing":false,"accuracy":0},{"contexts":["green","red","blue"],"outcomes":[0,1,0],"key":37,"choice":0,"rt":341.9499999945401,"outcome":0,"trial":90,"correct":0,"trial_type":"three-arm-trial","trial_index":97,"time_elapsed":456005,"internal_node_id":"0.0-96.0-0.0","task_version":"screening-mturk","missing":false,"accuracy":1},{"rt":28499.26499999856,"responses":{"age":"30","gender-categorical":"Female","gender-free-response":"","ethnicity":"Not Hispanic or Latino","race":["White"],"language":"Yes","fluency":"Very well","prolific":"Yes","prolific-this-study":"No"},"survey":"demographics","trial_type":"survey-demo","trial_index":98,"time_elapsed":484516,"internal_node_id":"0.0-97.0","task_version":"screening-mturk","interactions":"[]"}]