[{"responses":{"Q07":"1","Q04":"0","Q03":"1","Q06":"0","Q08":"0","Q01":"1","Q02":"0","Q05":"2"},"rt":43866.99999999837,"survey":"gad7","trial_type":"survey-template","trial_index":0,"time_elapsed":43891,"internal_node_id":"0.0-0.0","task_version":"screening-mturk"},{"responses":{"Q08":"2","Q10":"1","Q09":"3","Q06":"2","Q12":"0","Q13":"3","Q02":"1","Q03":"1","Q01":"2","Q07":"3","Q11":"3","Q04":"1","Q05":"3"},"rt":114987.99999999756,"survey":"bisbas","trial_type":"survey-template","trial_index":1,"time_elapsed":158884,"internal_node_id":"0.0-1.0","task_version":"screening-mturk"},{"responses":{"Q14":"2","Q10":"3","Q07":"2","Q01":"2","Q11":"2","Q08":"3","Q15":"3","Q03":"2","Q09":"2","Q13":"2","Q06":"3","Q05":"2","Q12":"3","Q02":"3","Q04":"2"},"rt":103361.00000000442,"survey":"shaps","trial_type":"survey-template","trial_index":2,"time_elapsed":262252,"internal_node_id":"0.0-2.0","task_version":"screening-mturk"},{"responses":{"Q03":"1","Q11":"0","Q01":"2","Q15":"0","Q08":"2","Q07":"3","Q05":"0","Q12":"1","Q04":"0","Q06":"2","Q02":"0","Q13":"1","Q14":"0","Q10":"0","Q09":"0"},"rt":171701.99999999022,"survey":"7up7down","trial_type":"survey-template","trial_index":3,"time_elapsed":433961,"internal_node_id":"0.0-3.0","task_version":"screening-mturk"},{"responses":{"Q03":"0","Q01":"0","Q02":"1"},"rt":11032.00000000652,"survey":"pswq","trial_type":"survey-template","trial_index":4,"time_elapsed":444996,"internal_node_id":"0.0-4.0","task_version":"screening-mturk"},{"view_history":"[{\"page_index\":0,\"viewing_time\":7646.999999997206},{\"page_index\":1,\"viewing_time\":18065.999999991618},{\"page_index\":2,\"viewing_time\":22682.0000000007},{\"page_index\":3,\"viewing_time\":10752.000000007683},{\"page_index\":4,\"viewing_time\":13735.999999989872},{\"page_index\":5,\"viewing_time\":13285.000000003492},{\"page_index\":6,\"viewing_time\":8009.0000000054715},{\"page_index\":7,\"viewing_time\":6599.999999991269}]","rt":100776.99999998731,"trial_type":"instructions","trial_index":5,"time_elapsed":545774,"internal_node_id":"0.0-5.0-0.0","task_version":"screening-mturk"},{"responses":["True","False","False","False","True"],"num_errors":1,"rt":50775.99999999802,"trial_type":"three-arm-comprehension","trial_index":6,"time_elapsed":596556,"internal_node_id":"0.0-5.0-1.0","task_version":"screening-mturk"},{"view_history":"[{\"page_index\":0,\"viewing_time\":6711.999999999534},{\"page_index\":1,\"viewing_time\":12968.999999997322},{\"page_index\":2,\"viewing_time\":5153.000000005704},{\"page_index\":3,\"viewing_time\":5479.000000006636},{\"page_index\":4,\"viewing_time\":5488.999999986845},{\"page_index\":5,\"viewing_time\":4864.000000001397},{\"page_index\":6,\"viewing_time\":4915.000000008149},{\"page_index\":7,\"viewing_time\":4942.9999999993015}]","rt":50524.00000000489,"trial_type":"instructions","trial_index":7,"time_elapsed":647087,"internal_node_id":"0.0-5.1-0.1","task_version":"screening-mturk"},{"responses":["True","True","True","True","True"],"num_errors":2,"rt":257721.000000005,"trial_type":"three-arm-comprehension","trial_index":8,"time_elapsed":904811,"internal_node_id":"0.0-5.1-1.1","task_version":"screening-mturk"},{"view_history":"[{\"page_index\":0,\"viewing_time\":2334.999999991851},{\"page_index\":1,\"viewing_time\":673.9999999990687},{\"page_index\":2,\"viewing_time\":309.9999999976717},{\"page_index\":3,\"viewing_time\":254.0000000008149},{\"page_index\":4,\"viewing_time\":676.0000000067521},{\"page_index\":5,\"viewing_time\":648.0000000010477},{\"page_index\":6,\"viewing_time\":658.9999999996508},{\"page_index\":7,\"viewing_time\":614.000000001397}]","rt":6169.999999998254,"trial_type":"instructions","trial_index":9,"time_elapsed":910985,"internal_node_id":"0.0-5.2-0.2","task_version":"screening-mturk"},{"responses":["True","True","True","False","True"],"num_errors":1,"rt":7370.000000009895,"trial_type":"three-arm-comprehension","trial_index":10,"time_elapsed":918358,"internal_node_id":"0.0-5.2-1.2","task_version":"screening-mturk"},{"view_history":"[{\"page_index\":0,\"viewing_time\":1432.0000000006985},{\"page_index\":1,\"viewing_time\":864.000000001397},{\"page_index\":2,\"viewing_time\":486.9999999937136},{\"page_index\":3,\"viewing_time\":716.0000000003492},{\"page_index\":4,\"viewing_time\":913.0000000004657},{\"page_index\":5,\"viewing_time\":641.0000000032596},{\"page_index\":6,\"viewing_time\":528.0000000057044},{\"page_index\":7,\"viewing_time\":596.9999999942956}]","rt":6177.999999999884,"trial_type":"instructions","trial_index":11,"time_elapsed":924540,"internal_node_id":"0.0-5.3-0.3","task_version":"screening-mturk"},{"responses":["True","True","False","False","True"],"num_errors":0,"rt":6236.999999993714,"trial_type":"three-arm-comprehension","trial_index":12,"time_elapsed":930777,"internal_node_id":"0.0-5.3-1.3","task_version":"screening-mturk"},{"view_history":"[{\"page_index\":0,\"viewing_time\":3048.9999999990687}]","rt":3050.0000000029104,"trial_type":"instructions","trial_index":13,"time_elapsed":933827,"internal_node_id":"0.0-6.0","task_version":"screening-mturk"},{"contexts":["red","blue","green"],"outcomes":[1,0,1],"key":39,"choice":2,"rt":4355.999999999767,"outcome":1,"trial":1,"correct":0,"trial_type":"three-arm-trial","trial_index":14,"time_elapsed":939387,"internal_node_id":"0.0-7.0-0.0","task_version":"screening-mturk","missing":false,"accuracy":0},{"contexts":["red","blue","green"],"outcomes":[1,1,1],"key":37,"choice":0,"rt":2391.9999999925494,"outcome":1,"trial":2,"correct":0,"trial_type":"three-arm-trial","trial_index":15,"time_elapsed":942995,"internal_node_id":"0.0-8.0-0.0","task_version":"screening-mturk","missing":false,"accuracy":1},{"contexts":["red","blue","green"],"outcomes":[1,0,0],"key":37,"choice":0,"rt":1248.0000000068685,"outcome":1,"trial":3,"correct":0,"trial_type":"three-arm-trial","trial_index":16,"time_elapsed":945449,"internal_node_id":"0.0-9.0-0.0","task_version":"screening-mturk","missing":false,"accuracy":1},{"contexts":["red","blue","green"],"outcomes":[1,1,1],"key":38,"choice":1,"rt":1304.999999993015,"outcome":1,"trial":4,"correct":0,"trial_type":"three-arm-trial","trial_index":17,"time_elapsed":947959,"internal_node_id":"0.0-10.0-0.0","task_version":"screening-mturk","missing":false,"accuracy":0},{"contexts":["red","blue","green"],"outcomes":[1,0,0],"key":39,"choice":2,"rt":816.00000000617,"outcome":0,"trial":5,"correct":0,"trial_type":"three-arm-trial","trial_index":18,"time_elapsed":949978,"internal_node_id":"0.0-11.0-0.0","task_version":"screening-mturk","missing":false,"accuracy":0},{"contexts":["red","blue","green"],"outcomes":[1,1,0],"key":38,"choice":1,"rt":313.9999999984866,"outcome":1,"trial":6,"correct":0,"trial_type":"three-arm-trial","trial_index":19,"time_elapsed":951498,"internal_node_id":"0.0-12.0-0.0","task_version":"screening-mturk","missing":false,"accuracy":0},{"contexts":["red","blue","green"],"outcomes":[0,0,0],"key":38,"choice":1,"rt":485.0000000005821,"outcome":0,"trial":7,"correct":0,"trial_type":"three-arm-trial","trial_index":20,"time_elapsed":953194,"internal_node_id":"0.0-13.0-0.0","task_version":"screening-mturk","missing":false,"accuracy":0},{"contexts":["red","blue","green"],"outcomes":[1,0,0],"key":38,"choice":1,"rt":415.99999999743886,"outcome":0,"trial":8,"correct":0,"trial_type":"three-arm-trial","trial_index":21,"time_elapsed":954819,"internal_node_id":"0.0-14.0-0.0","task_version":"screening-mturk","missing":false,"accuracy":0},{"contexts":["red","blue","green"],"outcomes":[0,1,0],"key":37,"choice":0,"rt":493.0000000022119,"outcome":0,"trial":9,"correct":0,"trial_type":"three-arm-trial","trial_index":22,"time_elapsed":956515,"internal_node_id":"0.0-15.0-0.0","task_version":"screening-mturk","missing":false,"accuracy":1},{"contexts":["red","blue","green"],"outcomes":[1,0,0],"key":39,"choice":2,"rt":342.00000000419095,"outcome":0,"trial":10,"correct":0,"trial_type":"three-arm-trial","trial_index":23,"time_elapsed":958058,"internal_node_id":"0.0-16.0-0.0","task_version":"screening-mturk","missing":false,"accuracy":0},{"contexts":["red","blue","green"],"outcomes":[0,0,0],"key":39,"choice":2,"rt":474.00000000197906,"outcome":0,"trial":11,"correct":0,"trial_type":"three-arm-trial","trial_index":24,"time_elapsed":959735,"internal_node_id":"0.0-17.0-0.0","task_version":"screening-mturk","missing":false,"accuracy":0},{"contexts":["red","blue","green"],"outcomes":[1,0,0],"key":39,"choice":2,"rt":479.0000000066357,"outcome":0,"trial":12,"correct":0,"trial_type":"three-arm-trial","trial_index":25,"time_elapsed":961420,"internal_node_id":"0.0-18.0-0.0","task_version":"screening-mturk","missing":false,"accuracy":0},{"contexts":["red","blue","green"],"outcomes":[1,0,0],"key":38,"choice":1,"rt":20.000000004074536,"outcome":0,"trial":13,"correct":0,"trial_type":"three-arm-trial","trial_index":26,"time_elapsed":962650,"internal_node_id":"0.0-19.0-0.0","task_version":"screening-mturk","missing":false,"accuracy":0},{"contexts":["red","blue","green"],"outcomes":[1,0,0],"key":37,"choice":0,"rt":605.9999999997672,"outcome":1,"trial":14,"correct":0,"trial_type":"three-arm-trial","trial_index":27,"time_elapsed":964460,"internal_node_id":"0.0-20.0-0.0","task_version":"screening-mturk","missing":false,"accuracy":1},{"contexts":["red","blue","green"],"outcomes":[0,0,0],"key":37,"choice":0,"rt":524.9999999941792,"outcome":0,"trial":15,"correct":0,"trial_type":"three-arm-trial","trial_index":28,"time_elapsed":966189,"internal_node_id":"0.0-21.0-0.0","task_version":"screening-mturk","missing":false,"accuracy":1},{"contexts":["red","blue","green"],"outcomes":[1,0,0],"key":39,"choice":2,"rt":694.0000000031432,"outcome":0,"trial":16,"correct":2,"trial_type":"three-arm-trial","trial_index":29,"time_elapsed":968090,"internal_node_id":"0.0-22.0-0.0","task_version":"screening-mturk","missing":false,"accuracy":1},{"contexts":["red","blue","green"],"outcomes":[0,0,1],"key":37,"choice":0,"rt":1432.0000000006985,"outcome":0,"trial":17,"correct":2,"trial_type":"three-arm-trial","trial_index":30,"time_elapsed":970723,"internal_node_id":"0.0-23.0-0.0","task_version":"screening-mturk","missing":false,"accuracy":0},{"contexts":["red","blue","green"],"outcomes":[0,0,1],"key":37,"choice":0,"rt":563.0000000091968,"outcome":0,"trial":18,"correct":2,"trial_type":"three-arm-trial","trial_index":31,"time_elapsed":972490,"internal_node_id":"0.0-24.0-0.0","task_version":"screening-mturk","missing":false,"accuracy":0},{"contexts":["red","blue","green"],"outcomes":[0,0,1],"key":39,"choice":2,"rt":486.0000000044238,"outcome":1,"trial":19,"correct":2,"trial_type":"three-arm-trial","trial_index":32,"time_elapsed":974181,"internal_node_id":"0.0-25.0-0.0","task_version":"screening-mturk","missing":false,"accuracy":1},{"contexts":["red","blue","green"],"outcomes":[0,0,0],"key":39,"choice":2,"rt":770.9999999933643,"outcome":0,"trial":20,"correct":2,"trial_type":"three-arm-trial","trial_index":33,"time_elapsed":976155,"internal_node_id":"0.0-26.0-0.0","task_version":"screening-mturk","missing":false,"accuracy":1},{"contexts":["red","blue","green"],"outcomes":[0,0,1],"key":37,"choice":0,"rt":525.9999999980209,"outcome":0,"trial":21,"correct":2,"trial_type":"three-arm-trial","trial_index":34,"time_elapsed":977887,"internal_node_id":"0.0-27.0-0.0","task_version":"screening-mturk","missing":false,"accuracy":0},{"contexts":["red","blue","green"],"outcomes":[0,0,1],"key":38,"choice":1,"rt":519.0000000002328,"outcome":0,"trial":22,"correct":2,"trial_type":"three-arm-trial","trial_index":35,"time_elapsed":979608,"internal_node_id":"0.0-28.0-0.0","task_version":"screening-mturk","missing":false,"accuracy":0},{"contexts":["red","blue","green"],"outcomes":[1,0,0],"key":38,"choice":1,"rt":504.0000000008149,"outcome":0,"trial":23,"correct":2,"trial_type":"three-arm-trial","trial_index":36,"time_elapsed":981316,"internal_node_id":"0.0-29.0-0.0","task_version":"screening-mturk","missing":false,"accuracy":0},{"contexts":["red","blue","green"],"outcomes":[0,0,1],"key":38,"choice":1,"rt":457.99999999871943,"outcome":0,"trial":24,"correct":2,"trial_type":"three-arm-trial","trial_index":37,"time_elapsed":982977,"internal_node_id":"0.0-30.0-0.0","task_version":"screening-mturk","missing":false,"accuracy":0},{"contexts":["red","blue","green"],"outcomes":[0,0,1],"key":38,"choice":1,"rt":593.0000000080327,"outcome":0,"trial":25,"correct":2,"trial_type":"three-arm-trial","trial_index":38,"time_elapsed":984776,"internal_node_id":"0.0-31.0-0.0","task_version":"screening-mturk","missing":false,"accuracy":0},{"contexts":["red","blue","green"],"outcomes":[0,0,1],"key":37,"choice":0,"rt":350.99999999511056,"outcome":0,"trial":26,"correct":2,"trial_type":"three-arm-trial","trial_index":39,"time_elapsed":986337,"internal_node_id":"0.0-32.0-0.0","task_version":"screening-mturk","missing":false,"accuracy":0},{"contexts":["red","blue","green"],"outcomes":[0,0,1],"key":39,"choice":2,"rt":528.0000000057044,"outcome":1,"trial":27,"correct":2,"trial_type":"three-arm-trial","trial_index":40,"time_elapsed":988072,"internal_node_id":"0.0-33.0-0.0","task_version":"screening-mturk","missing":false,"accuracy":1},{"contexts":["red","blue","green"],"outcomes":[1,0,0],"key":37,"choice":0,"rt":641.0000000032596,"outcome":1,"trial":28,"correct":2,"trial_type":"three-arm-trial","trial_index":41,"time_elapsed":989914,"internal_node_id":"0.0-34.0-0.0","task_version":"screening-mturk","missing":false,"accuracy":0},{"contexts":["red","blue","green"],"outcomes":[0,1,1],"key":39,"choice":2,"rt":667.0000000012806,"outcome":1,"trial":29,"correct":2,"trial_type":"three-arm-trial","trial_index":42,"time_elapsed":991784,"internal_node_id":"0.0-35.0-0.0","task_version":"screening-mturk","missing":false,"accuracy":1},{"contexts":["red","blue","green"],"outcomes":[0,0,1],"key":38,"choice":1,"rt":490.0000000052387,"outcome":0,"trial":30,"correct":2,"trial_type":"three-arm-trial","trial_index":43,"time_elapsed":993485,"internal_node_id":"0.0-36.0-0.0","task_version":"screening-mturk","missing":false,"accuracy":0},{"contexts":["red","blue","green"],"outcomes":[1,0,0],"key":37,"choice":0,"rt":527.0000000018626,"outcome":1,"trial":31,"correct":0,"trial_type":"three-arm-trial","trial_index":44,"time_elapsed":995215,"internal_node_id":"0.0-37.0-0.0","task_version":"screening-mturk","missing":false,"accuracy":1},{"contexts":["red","blue","green"],"outcomes":[1,1,1],"key":38,"choice":1,"rt":506.0000000084983,"outcome":1,"trial":32,"correct":0,"trial_type":"three-arm-trial","trial_index":45,"time_elapsed":996932,"internal_node_id":"0.0-38.0-0.0","task_version":"screening-mturk","missing":false,"accuracy":0},{"contexts":["red","blue","green"],"outcomes":[1,0,0],"key":38,"choice":1,"rt":530.9999999881256,"outcome":0,"trial":33,"correct":0,"trial_type":"three-arm-trial","trial_index":46,"time_elapsed":998678,"internal_node_id":"0.0-39.0-0.0","task_version":"screening-mturk","missing":false,"accuracy":0},{"contexts":["red","blue","green"],"outcomes":[0,0,0],"key":37,"choice":0,"rt":517.0000000071013,"outcome":0,"trial":34,"correct":0,"trial_type":"three-arm-trial","trial_index":47,"time_elapsed":1000400,"internal_node_id":"0.0-40.0-0.0","task_version":"screening-mturk","missing":false,"accuracy":1},{"contexts":["red","blue","green"],"outcomes":[1,0,1],"key":39,"choice":2,"rt":509.9999999947613,"outcome":1,"trial":35,"correct":0,"trial_type":"three-arm-trial","trial_index":48,"time_elapsed":1002118,"internal_node_id":"0.0-41.0-0.0","task_version":"screening-mturk","missing":false,"accuracy":0},{"contexts":["red","blue","green"],"outcomes":[1,0,0],"key":37,"choice":0,"rt":585.0000000064028,"outcome":1,"trial":36,"correct":0,"trial_type":"three-arm-trial","trial_index":49,"time_elapsed":1003910,"internal_node_id":"0.0-42.0-0.0","task_version":"screening-mturk","missing":false,"accuracy":1},{"contexts":["red","blue","green"],"outcomes":[0,0,0],"key":39,"choice":2,"rt":384.9999999947613,"outcome":0,"trial":37,"correct":0,"trial_type":"three-arm-trial","trial_index":50,"time_elapsed":1005501,"internal_node_id":"0.0-43.0-0.0","task_version":"screening-mturk","missing":false,"accuracy":0},{"contexts":["red","blue","green"],"outcomes":[1,0,0],"key":38,"choice":1,"rt":634.9999999947613,"outcome":0,"trial":38,"correct":0,"trial_type":"three-arm-trial","trial_index":51,"time_elapsed":1007339,"internal_node_id":"0.0-44.0-0.0","task_version":"screening-mturk","missing":false,"accuracy":0},{"contexts":["red","blue","green"],"outcomes":[1,1,0],"key":37,"choice":0,"rt":503.999999986263,"outcome":1,"trial":39,"correct":0,"trial_type":"three-arm-trial","trial_index":52,"time_elapsed":1009073,"internal_node_id":"0.0-45.0-0.0","task_version":"screening-mturk","missing":false,"accuracy":1},{"contexts":["red","blue","green"],"outcomes":[1,0,0],"key":38,"choice":1,"rt":480.99999999976717,"outcome":0,"trial":40,"correct":0,"trial_type":"three-arm-trial","trial_index":53,"time_elapsed":1010758,"internal_node_id":"0.0-46.0-0.0","task_version":"screening-mturk","missing":false,"accuracy":0},{"contexts":["red","blue","green"],"outcomes":[1,0,1],"key":37,"choice":0,"rt":508.0000000016298,"outcome":1,"trial":41,"correct":0,"trial_type":"three-arm-trial","trial_index":54,"time_elapsed":1012468,"internal_node_id":"0.0-47.0-0.0","task_version":"screening-mturk","missing":false,"accuracy":1},{"contexts":["red","blue","green"],"outcomes":[0,0,0],"key":39,"choice":2,"rt":464.99999999650754,"outcome":0,"trial":42,"correct":0,"trial_type":"three-arm-trial","trial_index":55,"time_elapsed":1014140,"internal_node_id":"0.0-48.0-0.0","task_version":"screening-mturk","missing":false,"accuracy":0},{"contexts":["red","blue","green"],"outcomes":[1,0,0],"key":37,"choice":0,"rt":443.9999999885913,"outcome":1,"trial":43,"correct":0,"trial_type":"three-arm-trial","trial_index":56,"time_elapsed":1015791,"internal_node_id":"0.0-49.0-0.0","task_version":"screening-mturk","missing":false,"accuracy":1},{"contexts":["red","blue","green"],"outcomes":[1,0,1],"key":37,"choice":0,"rt":432.0000000006985,"outcome":1,"trial":44,"correct":0,"trial_type":"three-arm-trial","trial_index":57,"time_elapsed":1017425,"internal_node_id":"0.0-50.0-0.0","task_version":"screening-mturk","missing":false,"accuracy":1},{"contexts":["red","blue","green"],"outcomes":[1,0,0],"key":37,"choice":0,"rt":376.9999999931315,"outcome":1,"trial":45,"correct":0,"trial_type":"three-arm-trial","trial_index":58,"time_elapsed":1019007,"internal_node_id":"0.0-51.0-0.0","task_version":"screening-mturk","missing":false,"accuracy":1},{"contexts":["red","blue","green"],"outcomes":[0,0,1],"key":37,"choice":0,"rt":434.0000000083819,"outcome":0,"trial":46,"correct":2,"trial_type":"three-arm-trial","trial_index":59,"time_elapsed":1020645,"internal_node_id":"0.0-52.0-0.0","task_version":"screening-mturk","missing":false,"accuracy":0},{"contexts":["red","blue","green"],"outcomes":[0,0,1],"key":37,"choice":0,"rt":452.9999999940628,"outcome":0,"trial":47,"correct":2,"trial_type":"three-arm-trial","trial_index":60,"time_elapsed":1022304,"internal_node_id":"0.0-53.0-0.0","task_version":"screening-mturk","missing":false,"accuracy":0},{"contexts":["red","blue","green"],"outcomes":[0,0,1],"key":38,"choice":1,"rt":387.0000000024447,"outcome":0,"trial":48,"correct":2,"trial_type":"three-arm-trial","trial_index":61,"time_elapsed":1023895,"internal_node_id":"0.0-54.0-0.0","task_version":"screening-mturk","missing":false,"accuracy":0},{"contexts":["red","blue","green"],"outcomes":[0,0,1],"key":39,"choice":2,"rt":563.0000000091968,"outcome":1,"trial":49,"correct":2,"trial_type":"three-arm-trial","trial_index":62,"time_elapsed":1025666,"internal_node_id":"0.0-55.0-0.0","task_version":"screening-mturk","missing":false,"accuracy":1},{"contexts":["red","blue","green"],"outcomes":[0,1,1],"key":39,"choice":2,"rt":353.00000000279397,"outcome":1,"trial":50,"correct":2,"trial_type":"three-arm-trial","trial_index":63,"time_elapsed":1027224,"internal_node_id":"0.0-56.0-0.0","task_version":"screening-mturk","missing":false,"accuracy":1},{"contexts":["red","blue","green"],"outcomes":[0,0,0],"key":39,"choice":2,"rt":529.000000009546,"outcome":0,"trial":51,"correct":2,"trial_type":"three-arm-trial","trial_index":64,"time_elapsed":1028961,"internal_node_id":"0.0-57.0-0.0","task_version":"screening-mturk","missing":false,"accuracy":1},{"contexts":["red","blue","green"],"outcomes":[0,0,0],"key":37,"choice":0,"rt":96.00000000500586,"outcome":0,"trial":52,"correct":2,"trial_type":"three-arm-trial","trial_index":65,"time_elapsed":1030260,"internal_node_id":"0.0-58.0-0.0","task_version":"screening-mturk","missing":false,"accuracy":0},{"contexts":["red","blue","green"],"outcomes":[1,0,0],"key":38,"choice":1,"rt":291.0000000119908,"outcome":0,"trial":53,"correct":2,"trial_type":"three-arm-trial","trial_index":66,"time_elapsed":1031754,"internal_node_id":"0.0-59.0-0.0","task_version":"screening-mturk","missing":false,"accuracy":0},{"contexts":["red","blue","green"],"outcomes":[0,0,1],"key":37,"choice":0,"rt":186.9999999908032,"outcome":0,"trial":54,"correct":2,"trial_type":"three-arm-trial","trial_index":67,"time_elapsed":1033153,"internal_node_id":"0.0-60.0-0.0","task_version":"screening-mturk","missing":false,"accuracy":0},{"contexts":["red","blue","green"],"outcomes":[0,0,1],"key":39,"choice":2,"rt":54.99999999301508,"outcome":1,"trial":55,"correct":2,"trial_type":"three-arm-trial","trial_index":68,"time_elapsed":1034412,"internal_node_id":"0.0-61.0-0.0","task_version":"screening-mturk","missing":false,"accuracy":1},{"contexts":["red","blue","green"],"outcomes":[0,0,1],"key":37,"choice":0,"rt":188.0000000091968,"outcome":0,"trial":56,"correct":2,"trial_type":"three-arm-trial","trial_index":69,"time_elapsed":1035806,"internal_node_id":"0.0-62.0-0.0","task_version":"screening-mturk","missing":false,"accuracy":0},{"contexts":["red","blue","green"],"outcomes":[1,1,1],"key":39,"choice":2,"rt":255.9999999939464,"outcome":1,"trial":57,"correct":2,"trial_type":"three-arm-trial","trial_index":70,"time_elapsed":1037265,"internal_node_id":"0.0-63.0-0.0","task_version":"screening-mturk","missing":false,"accuracy":1},{"contexts":["red","blue","green"],"outcomes":[0,0,0],"key":37,"choice":0,"rt":326.0000000009313,"outcome":0,"trial":58,"correct":2,"trial_type":"three-arm-trial","trial_index":71,"time_elapsed":1038797,"internal_node_id":"0.0-64.0-0.0","task_version":"screening-mturk","missing":false,"accuracy":0},{"contexts":["red","blue","green"],"outcomes":[0,1,0],"key":37,"choice":0,"rt":376.0000000039581,"outcome":0,"trial":59,"correct":2,"trial_type":"three-arm-trial","trial_index":72,"time_elapsed":1040377,"internal_node_id":"0.0-65.0-0.0","task_version":"screening-mturk","missing":false,"accuracy":0},{"contexts":["red","blue","green"],"outcomes":[0,0,1],"key":39,"choice":2,"rt":355.99999999976717,"outcome":1,"trial":60,"correct":2,"trial_type":"three-arm-trial","trial_index":73,"time_elapsed":1041936,"internal_node_id":"0.0-66.0-0.0","task_version":"screening-mturk","missing":false,"accuracy":1},{"contexts":["red","blue","green"],"outcomes":[0,0,0],"key":38,"choice":1,"rt":540.0000000081491,"outcome":0,"trial":61,"correct":1,"trial_type":"three-arm-trial","trial_index":74,"time_elapsed":1043682,"internal_node_id":"0.0-67.0-0.0","task_version":"screening-mturk","missing":false,"accuracy":1},{"contexts":["red","blue","green"],"outcomes":[0,1,0],"key":39,"choice":2,"rt":501.0000000039581,"outcome":0,"trial":62,"correct":1,"trial_type":"three-arm-trial","trial_index":75,"time_elapsed":1045388,"internal_node_id":"0.0-68.0-0.0","task_version":"screening-mturk","missing":false,"accuracy":0},{"contexts":["red","blue","green"],"outcomes":[0,0,0],"key":37,"choice":0,"rt":361.00000000419095,"outcome":0,"trial":63,"correct":1,"trial_type":"three-arm-trial","trial_index":76,"time_elapsed":1046956,"internal_node_id":"0.0-69.0-0.0","task_version":"screening-mturk","missing":false,"accuracy":0},{"contexts":["red","blue","green"],"outcomes":[0,1,0],"key":38,"choice":1,"rt":368.0000000023283,"outcome":1,"trial":64,"correct":1,"trial_type":"three-arm-trial","trial_index":77,"time_elapsed":1048527,"internal_node_id":"0.0-70.0-0.0","task_version":"screening-mturk","missing":false,"accuracy":1},{"contexts":["red","blue","green"],"outcomes":[0,1,0],"key":38,"choice":1,"rt":479.99999999580905,"outcome":1,"trial":65,"correct":1,"trial_type":"three-arm-trial","trial_index":78,"time_elapsed":1050211,"internal_node_id":"0.0-71.0-0.0","task_version":"screening-mturk","missing":false,"accuracy":1},{"contexts":["red","blue","green"],"outcomes":[0,1,1],"key":38,"choice":1,"rt":384.9999999946449,"outcome":1,"trial":66,"correct":1,"trial_type":"three-arm-trial","trial_index":79,"time_elapsed":1051799,"internal_node_id":"0.0-72.0-0.0","task_version":"screening-mturk","missing":false,"accuracy":1},{"contexts":["red","blue","green"],"outcomes":[1,1,0],"key":37,"choice":0,"rt":338.99999999278225,"outcome":1,"trial":67,"correct":1,"trial_type":"three-arm-trial","trial_index":80,"time_elapsed":1053345,"internal_node_id":"0.0-73.0-0.0","task_version":"screening-mturk","missing":false,"accuracy":0},{"contexts":["red","blue","green"],"outcomes":[0,0,0],"key":39,"choice":2,"rt":535.0000000037253,"outcome":0,"trial":68,"correct":1,"trial_type":"three-arm-trial","trial_index":81,"time_elapsed":1055086,"internal_node_id":"0.0-74.0-0.0","task_version":"screening-mturk","missing":false,"accuracy":0},{"contexts":["red","blue","green"],"outcomes":[0,1,0],"key":37,"choice":0,"rt":325.00000001164153,"outcome":0,"trial":69,"correct":1,"trial_type":"three-arm-trial","trial_index":82,"time_elapsed":1056615,"internal_node_id":"0.0-75.0-0.0","task_version":"screening-mturk","missing":false,"accuracy":0},{"contexts":["red","blue","green"],"outcomes":[1,1,0],"key":38,"choice":1,"rt":426.99999999580905,"outcome":1,"trial":70,"correct":1,"trial_type":"three-arm-trial","trial_index":83,"time_elapsed":1058246,"internal_node_id":"0.0-76.0-0.0","task_version":"screening-mturk","missing":false,"accuracy":1},{"contexts":["red","blue","green"],"outcomes":[0,1,0],"key":38,"choice":1,"rt":307.0000000006985,"outcome":1,"trial":71,"correct":1,"trial_type":"three-arm-trial","trial_index":84,"time_elapsed":1059757,"internal_node_id":"0.0-77.0-0.0","task_version":"screening-mturk","missing":false,"accuracy":1},{"contexts":["red","blue","green"],"outcomes":[0,1,0],"key":38,"choice":1,"rt":471.99999999417923,"outcome":1,"trial":72,"correct":1,"trial_type":"three-arm-trial","trial_index":85,"time_elapsed":1061435,"internal_node_id":"0.0-78.0-0.0","task_version":"screening-mturk","missing":false,"accuracy":1},{"contexts":["red","blue","green"],"outcomes":[0,0,0],"key":39,"choice":2,"rt":487.99999999743886,"outcome":0,"trial":73,"correct":1,"trial_type":"three-arm-trial","trial_index":86,"time_elapsed":1063127,"internal_node_id":"0.0-79.0-0.0","task_version":"screening-mturk","missing":false,"accuracy":0},{"contexts":["red","blue","green"],"outcomes":[0,1,1],"key":38,"choice":1,"rt":475.00000000582077,"outcome":1,"trial":74,"correct":1,"trial_type":"three-arm-trial","trial_index":87,"time_elapsed":1064811,"internal_node_id":"0.0-80.0-0.0","task_version":"screening-mturk","missing":false,"accuracy":1},{"contexts":["red","blue","green"],"outcomes":[1,1,0],"key":38,"choice":1,"rt":489.000000001397,"outcome":1,"trial":75,"correct":1,"trial_type":"three-arm-trial","trial_index":88,"time_elapsed":1066506,"internal_node_id":"0.0-81.0-0.0","task_version":"screening-mturk","missing":false,"accuracy":1},{"contexts":["red","blue","green"],"outcomes":[1,0,0],"key":37,"choice":0,"rt":305.0000000074506,"outcome":1,"trial":76,"correct":0,"trial_type":"three-arm-trial","trial_index":89,"time_elapsed":1068027,"internal_node_id":"0.0-82.0-0.0","task_version":"screening-mturk","missing":false,"accuracy":1},{"contexts":["red","blue","green"],"outcomes":[1,1,0],"key":38,"choice":1,"rt":464.00000000721775,"outcome":1,"trial":77,"correct":0,"trial_type":"three-arm-trial","trial_index":90,"time_elapsed":1069693,"internal_node_id":"0.0-83.0-0.0","task_version":"screening-mturk","missing":false,"accuracy":0},{"contexts":["red","blue","green"],"outcomes":[1,1,1],"key":37,"choice":0,"rt":328.00000000884756,"outcome":1,"trial":78,"correct":0,"trial_type":"three-arm-trial","trial_index":91,"time_elapsed":1071224,"internal_node_id":"0.0-84.0-0.0","task_version":"screening-mturk","missing":false,"accuracy":1},{"contexts":["red","blue","green"],"outcomes":[1,0,1],"key":37,"choice":0,"rt":468.00000000791624,"outcome":1,"trial":79,"correct":0,"trial_type":"three-arm-trial","trial_index":92,"time_elapsed":1072900,"internal_node_id":"0.0-85.0-0.0","task_version":"screening-mturk","missing":false,"accuracy":1},{"contexts":["red","blue","green"],"outcomes":[1,0,0],"key":38,"choice":1,"rt":381.9999999979045,"outcome":0,"trial":80,"correct":0,"trial_type":"three-arm-trial","trial_index":93,"time_elapsed":1074486,"internal_node_id":"0.0-86.0-0.0","task_version":"screening-mturk","missing":false,"accuracy":0},{"contexts":["red","blue","green"],"outcomes":[0,1,1],"key":37,"choice":0,"rt":320.9999999962747,"outcome":0,"trial":81,"correct":0,"trial_type":"three-arm-trial","trial_index":94,"time_elapsed":1076009,"internal_node_id":"0.0-87.0-0.0","task_version":"screening-mturk","missing":false,"accuracy":1},{"contexts":["red","blue","green"],"outcomes":[1,1,1],"key":39,"choice":2,"rt":244.9999999953434,"outcome":1,"trial":82,"correct":0,"trial_type":"three-arm-trial","trial_index":95,"time_elapsed":1077460,"internal_node_id":"0.0-88.0-0.0","task_version":"screening-mturk","missing":false,"accuracy":0},{"contexts":["red","blue","green"],"outcomes":[1,0,1],"key":39,"choice":2,"rt":531.9999999918509,"outcome":1,"trial":83,"correct":0,"trial_type":"three-arm-trial","trial_index":96,"time_elapsed":1079195,"internal_node_id":"0.0-89.0-0.0","task_version":"screening-mturk","missing":false,"accuracy":0},{"contexts":["red","blue","green"],"outcomes":[1,1,1],"key":38,"choice":1,"rt":534.9999999888241,"outcome":1,"trial":84,"correct":0,"trial_type":"three-arm-trial","trial_index":97,"time_elapsed":1080936,"internal_node_id":"0.0-90.0-0.0","task_version":"screening-mturk","missing":false,"accuracy":0},{"contexts":["red","blue","green"],"outcomes":[0,0,1],"key":38,"choice":1,"rt":524.0000000046566,"outcome":0,"trial":85,"correct":0,"trial_type":"three-arm-trial","trial_index":98,"time_elapsed":1082665,"internal_node_id":"0.0-91.0-0.0","task_version":"screening-mturk","missing":false,"accuracy":0},{"contexts":["red","blue","green"],"outcomes":[1,0,0],"key":37,"choice":0,"rt":408.99999999953434,"outcome":1,"trial":86,"correct":0,"trial_type":"three-arm-trial","trial_index":99,"time_elapsed":1084276,"internal_node_id":"0.0-92.0-0.0","task_version":"screening-mturk","missing":false,"accuracy":1},{"contexts":["red","blue","green"],"outcomes":[1,0,1],"key":39,"choice":2,"rt":559.0000000083819,"outcome":1,"trial":87,"correct":0,"trial_type":"three-arm-trial","trial_index":100,"time_elapsed":1086047,"internal_node_id":"0.0-93.0-0.0","task_version":"screening-mturk","missing":false,"accuracy":0},{"contexts":["red","blue","green"],"outcomes":[1,0,0],"key":37,"choice":0,"rt":182.99999998975545,"outcome":1,"trial":88,"correct":0,"trial_type":"three-arm-trial","trial_index":101,"time_elapsed":1087434,"internal_node_id":"0.0-94.0-0.0","task_version":"screening-mturk","missing":false,"accuracy":1},{"contexts":["red","blue","green"],"outcomes":[1,1,1],"key":38,"choice":1,"rt":413.00000000046566,"outcome":1,"trial":89,"correct":0,"trial_type":"three-arm-trial","trial_index":102,"time_elapsed":1089057,"internal_node_id":"0.0-95.0-0.0","task_version":"screening-mturk","missing":false,"accuracy":0},{"contexts":["red","blue","green"],"outcomes":[1,0,1],"key":39,"choice":2,"rt":348.99999998742715,"outcome":1,"trial":90,"correct":0,"trial_type":"three-arm-trial","trial_index":103,"time_elapsed":1090609,"internal_node_id":"0.0-96.0-0.0","task_version":"screening-mturk","missing":false,"accuracy":0},{"rt":110418.99999999441,"responses":{"age":"32","gender-categorical":"Female","gender-free-response":"","ethnicity":"Not Hispanic or Latino","race":["White"],"language":"Yes","fluency":"Very well","prolific":"No","prolific-this-study":"No"},"survey":"demographics","trial_type":"survey-demo","trial_index":104,"time_elapsed":1201043,"internal_node_id":"0.0-97.0","task_version":"screening-mturk","interactions":"[{\"event\":\"blur\",\"trial\":3,\"time\":269817},{\"event\":\"focus\",\"trial\":3,\"time\":272780}]"}]