[{"responses":{"Q09":"2","Q14":"1","Q02":"2","Q04":"2","Q07":"2","Q11":"2","Q15":"1","Q10":"2","Q01":"2","Q13":"2","Q08":"1","Q05":"2","Q06":"1","Q03":"2","Q12":"2"},"rt":148499.21999988146,"survey":"shaps","trial_type":"survey-template","trial_index":0,"time_elapsed":148525,"internal_node_id":"0.0-0.0","task_version":"screening-mturk"},{"responses":{"Q03":"2","Q01":"2","Q02":"1"},"rt":22181.52999994345,"survey":"pswq","trial_type":"survey-template","trial_index":1,"time_elapsed":170714,"internal_node_id":"0.0-1.0","task_version":"screening-mturk"},{"responses":{"Q01":"1","Q08":"0","Q03":"2","Q07":"2","Q04":"1","Q02":"2","Q06":"2","Q05":"1"},"rt":41114.65000011958,"survey":"gad7","trial_type":"survey-template","trial_index":2,"time_elapsed":211832,"internal_node_id":"0.0-2.0","task_version":"screening-mturk"},{"responses":{"Q11":"2","Q01":"1","Q05":"1","Q15":"2","Q12":"2","Q14":"1","Q13":"1","Q04":"2","Q07":"2","Q09":"2","Q02":"1","Q06":"2","Q08":"2","Q10":"1","Q03":"1"},"rt":48005.219999933615,"survey":"7up7down","trial_type":"survey-template","trial_index":3,"time_elapsed":259844,"internal_node_id":"0.0-3.0","task_version":"screening-mturk"},{"responses":{"Q13":"2","Q08":"1","Q09":"2","Q07":"2","Q03":"1","Q01":"1","Q05":"2","Q11":"3","Q06":"2","Q04":"1","Q12":"1","Q02":"2","Q10":"2"},"rt":34592.85999997519,"survey":"bisbas","trial_type":"survey-template","trial_index":4,"time_elapsed":294444,"internal_node_id":"0.0-4.0","task_version":"screening-mturk"},{"view_history":"[{\"page_index\":0,\"viewing_time\":9480.680000036955},{\"page_index\":1,\"viewing_time\":9323.789999820292},{\"page_index\":2,\"viewing_time\":9209.355000173673},{\"page_index\":3,\"viewing_time\":3785.9649998135865},{\"page_index\":2,\"viewing_time\":8863.720000023022},{\"page_index\":3,\"viewing_time\":7314.275000011548},{\"page_index\":4,\"viewing_time\":14043.985000113025},{\"page_index\":5,\"viewing_time\":3449.915000004694},{\"page_index\":6,\"viewing_time\":3464.7099999710917},{\"page_index\":7,\"viewing_time\":2274.3199998512864}]","rt":71211.20000001974,"trial_type":"instructions","trial_index":5,"time_elapsed":365663,"internal_node_id":"0.0-5.0-0.0","task_version":"screening-mturk"},{"responses":["True","False","True","True","False"],"num_errors":4,"rt":26256.52499985881,"trial_type":"three-arm-comprehension","trial_index":6,"time_elapsed":391923,"internal_node_id":"0.0-5.0-1.0","task_version":"screening-mturk"},{"view_history":"[{\"page_index\":0,\"viewing_time\":7009.695000015199},{\"page_index\":1,\"viewing_time\":3794.2699999548495},{\"page_index\":2,\"viewing_time\":12774.514999939129},{\"page_index\":3,\"viewing_time\":10038.855000166222},{\"page_index\":4,\"viewing_time\":3075.084999902174},{\"page_index\":5,\"viewing_time\":925.5300001241267},{\"page_index\":6,\"viewing_time\":2599.0299999248236},{\"page_index\":7,\"viewing_time\":1079.8700000159442}]","rt":41297.31500009075,"trial_type":"instructions","trial_index":7,"time_elapsed":433227,"internal_node_id":"0.0-5.1-0.1","task_version":"screening-mturk"},{"responses":["True","True","False","False","True"],"num_errors":0,"rt":19237.604999914765,"trial_type":"three-arm-comprehension","trial_index":8,"time_elapsed":452467,"internal_node_id":"0.0-5.1-1.1","task_version":"screening-mturk"},{"view_history":"[{\"page_index\":0,\"viewing_time\":3940.310000209138}]","rt":3940.775000024587,"trial_type":"instructions","trial_index":9,"time_elapsed":456410,"internal_node_id":"0.0-6.0","task_version":"screening-mturk"},{"contexts":["red","blue","green"],"outcomes":[0,1,0],"key":38,"choice":1,"rt":4779.464999912307,"outcome":1,"trial":1,"correct":1,"trial_type":"three-arm-trial","trial_index":10,"time_elapsed":462396,"internal_node_id":"0.0-7.0-0.0","task_version":"screening-mturk","missing":false,"accuracy":1},{"contexts":["red","blue","green"],"outcomes":[1,1,0],"key":38,"choice":1,"rt":2072.5150001235306,"outcome":1,"trial":2,"correct":1,"trial_type":"three-arm-trial","trial_index":11,"time_elapsed":465672,"internal_node_id":"0.0-8.0-0.0","task_version":"screening-mturk","missing":false,"accuracy":1},{"contexts":["red","blue","green"],"outcomes":[1,1,0],"key":37,"choice":0,"rt":2274.6749999932945,"outcome":1,"trial":3,"correct":1,"trial_type":"three-arm-trial","trial_index":12,"time_elapsed":469149,"internal_node_id":"0.0-9.0-0.0","task_version":"screening-mturk","missing":false,"accuracy":0},{"contexts":["red","blue","green"],"outcomes":[0,0,1],"key":38,"choice":1,"rt":1674.3999999016523,"outcome":0,"trial":4,"correct":1,"trial_type":"three-arm-trial","trial_index":13,"time_elapsed":472028,"internal_node_id":"0.0-10.0-0.0","task_version":"screening-mturk","missing":false,"accuracy":1},{"contexts":["red","blue","green"],"outcomes":[0,1,0],"key":37,"choice":0,"rt":1775.8950002025813,"outcome":0,"trial":5,"correct":1,"trial_type":"three-arm-trial","trial_index":14,"time_elapsed":475007,"internal_node_id":"0.0-11.0-0.0","task_version":"screening-mturk","missing":false,"accuracy":0},{"contexts":["red","blue","green"],"outcomes":[0,0,0],"key":38,"choice":1,"rt":849.6199999935925,"outcome":0,"trial":6,"correct":1,"trial_type":"three-arm-trial","trial_index":15,"time_elapsed":477064,"internal_node_id":"0.0-12.0-0.0","task_version":"screening-mturk","missing":false,"accuracy":1},{"contexts":["red","blue","green"],"outcomes":[0,1,0],"key":39,"choice":2,"rt":896.5449999086559,"outcome":0,"trial":7,"correct":1,"trial_type":"three-arm-trial","trial_index":16,"time_elapsed":479164,"internal_node_id":"0.0-13.0-0.0","task_version":"screening-mturk","missing":false,"accuracy":0},{"contexts":["red","blue","green"],"outcomes":[0,1,0],"key":38,"choice":1,"rt":1771.584999980405,"outcome":1,"trial":8,"correct":1,"trial_type":"three-arm-trial","trial_index":17,"time_elapsed":482138,"internal_node_id":"0.0-14.0-0.0","task_version":"screening-mturk","missing":false,"accuracy":1},{"contexts":["red","blue","green"],"outcomes":[0,0,1],"key":39,"choice":2,"rt":1453.789999941364,"outcome":1,"trial":9,"correct":1,"trial_type":"three-arm-trial","trial_index":18,"time_elapsed":484796,"internal_node_id":"0.0-15.0-0.0","task_version":"screening-mturk","missing":false,"accuracy":0},{"contexts":["red","blue","green"],"outcomes":[0,1,0],"key":38,"choice":1,"rt":1386.824999935925,"outcome":1,"trial":10,"correct":1,"trial_type":"three-arm-trial","trial_index":19,"time_elapsed":487397,"internal_node_id":"0.0-16.0-0.0","task_version":"screening-mturk","missing":false,"accuracy":1},{"contexts":["red","blue","green"],"outcomes":[0,1,0],"key":39,"choice":2,"rt":1417.3049998935312,"outcome":0,"trial":11,"correct":1,"trial_type":"three-arm-trial","trial_index":20,"time_elapsed":490021,"internal_node_id":"0.0-17.0-0.0","task_version":"screening-mturk","missing":false,"accuracy":0},{"contexts":["red","blue","green"],"outcomes":[1,1,1],"key":37,"choice":0,"rt":1044.1550000105053,"outcome":1,"trial":12,"correct":1,"trial_type":"three-arm-trial","trial_index":21,"time_elapsed":492273,"internal_node_id":"0.0-18.0-0.0","task_version":"screening-mturk","missing":false,"accuracy":0},{"contexts":["red","blue","green"],"outcomes":[0,1,0],"key":38,"choice":1,"rt":936.3000001758337,"outcome":1,"trial":13,"correct":1,"trial_type":"three-arm-trial","trial_index":22,"time_elapsed":494412,"internal_node_id":"0.0-19.0-0.0","task_version":"screening-mturk","missing":false,"accuracy":1},{"contexts":["red","blue","green"],"outcomes":[1,1,0],"key":38,"choice":1,"rt":1674.3099999148399,"outcome":1,"trial":14,"correct":1,"trial_type":"three-arm-trial","trial_index":23,"time_elapsed":497290,"internal_node_id":"0.0-20.0-0.0","task_version":"screening-mturk","missing":false,"accuracy":1},{"contexts":["red","blue","green"],"outcomes":[0,1,0],"key":37,"choice":0,"rt":1149.8749998863786,"outcome":0,"trial":15,"correct":1,"trial_type":"three-arm-trial","trial_index":24,"time_elapsed":499643,"internal_node_id":"0.0-21.0-0.0","task_version":"screening-mturk","missing":false,"accuracy":0},{"contexts":["red","blue","green"],"outcomes":[0,0,0],"key":39,"choice":2,"rt":1716.0499999299645,"outcome":0,"trial":16,"correct":0,"trial_type":"three-arm-trial","trial_index":25,"time_elapsed":502562,"internal_node_id":"0.0-22.0-0.0","task_version":"screening-mturk","missing":false,"accuracy":0},{"contexts":["red","blue","green"],"outcomes":[1,0,0],"key":38,"choice":1,"rt":1047.1200000029057,"outcome":0,"trial":17,"correct":0,"trial_type":"three-arm-trial","trial_index":26,"time_elapsed":504814,"internal_node_id":"0.0-23.0-0.0","task_version":"screening-mturk","missing":false,"accuracy":0},{"contexts":["red","blue","green"],"outcomes":[1,0,0],"key":38,"choice":1,"rt":1030.2600001450628,"outcome":0,"trial":18,"correct":0,"trial_type":"three-arm-trial","trial_index":27,"time_elapsed":507046,"internal_node_id":"0.0-24.0-0.0","task_version":"screening-mturk","missing":false,"accuracy":0},{"contexts":["red","blue","green"],"outcomes":[1,0,0],"key":38,"choice":1,"rt":1405.9800000395626,"outcome":0,"trial":19,"correct":0,"trial_type":"three-arm-trial","trial_index":28,"time_elapsed":509656,"internal_node_id":"0.0-25.0-0.0","task_version":"screening-mturk","missing":false,"accuracy":0},{"contexts":["red","blue","green"],"outcomes":[1,0,0],"key":38,"choice":1,"rt":1582.9999998677522,"outcome":0,"trial":20,"correct":0,"trial_type":"three-arm-trial","trial_index":29,"time_elapsed":512442,"internal_node_id":"0.0-26.0-0.0","task_version":"screening-mturk","missing":false,"accuracy":0},{"contexts":["red","blue","green"],"outcomes":[1,0,0],"key":37,"choice":0,"rt":1382.7899999450892,"outcome":1,"trial":21,"correct":0,"trial_type":"three-arm-trial","trial_index":30,"time_elapsed":515027,"internal_node_id":"0.0-27.0-0.0","task_version":"screening-mturk","missing":false,"accuracy":1},{"contexts":["red","blue","green"],"outcomes":[1,0,0],"key":37,"choice":0,"rt":1031.0750000644475,"outcome":1,"trial":22,"correct":0,"trial_type":"three-arm-trial","trial_index":31,"time_elapsed":517261,"internal_node_id":"0.0-28.0-0.0","task_version":"screening-mturk","missing":false,"accuracy":1},{"contexts":["red","blue","green"],"outcomes":[1,1,0],"key":39,"choice":2,"rt":999.5049999561161,"outcome":0,"trial":23,"correct":0,"trial_type":"three-arm-trial","trial_index":32,"time_elapsed":519463,"internal_node_id":"0.0-29.0-0.0","task_version":"screening-mturk","missing":false,"accuracy":0},{"contexts":["red","blue","green"],"outcomes":[1,0,0],"key":37,"choice":0,"rt":719.8000000789762,"outcome":1,"trial":24,"correct":0,"trial_type":"three-arm-trial","trial_index":33,"time_elapsed":521386,"internal_node_id":"0.0-30.0-0.0","task_version":"screening-mturk","missing":false,"accuracy":1},{"contexts":["red","blue","green"],"outcomes":[1,0,0],"key":38,"choice":1,"rt":781.4950000029057,"outcome":0,"trial":25,"correct":0,"trial_type":"three-arm-trial","trial_index":34,"time_elapsed":523372,"internal_node_id":"0.0-31.0-0.0","task_version":"screening-mturk","missing":false,"accuracy":0},{"contexts":["red","blue","green"],"outcomes":[1,0,0],"key":37,"choice":0,"rt":637.8849998582155,"outcome":1,"trial":26,"correct":0,"trial_type":"three-arm-trial","trial_index":35,"time_elapsed":525220,"internal_node_id":"0.0-32.0-0.0","task_version":"screening-mturk","missing":false,"accuracy":1},{"contexts":["red","blue","green"],"outcomes":[1,0,1],"key":38,"choice":1,"rt":1667.6049998495728,"outcome":0,"trial":27,"correct":0,"trial_type":"three-arm-trial","trial_index":36,"time_elapsed":528094,"internal_node_id":"0.0-33.0-0.0","task_version":"screening-mturk","missing":false,"accuracy":0},{"contexts":["red","blue","green"],"outcomes":[1,0,0],"key":37,"choice":0,"rt":897.9199999012053,"outcome":1,"trial":28,"correct":0,"trial_type":"three-arm-trial","trial_index":37,"time_elapsed":530199,"internal_node_id":"0.0-34.0-0.0","task_version":"screening-mturk","missing":false,"accuracy":1},{"contexts":["red","blue","green"],"outcomes":[1,0,0],"key":37,"choice":0,"rt":1793.5600001364946,"outcome":1,"trial":29,"correct":0,"trial_type":"three-arm-trial","trial_index":38,"time_elapsed":533195,"internal_node_id":"0.0-35.0-0.0","task_version":"screening-mturk","missing":false,"accuracy":1},{"contexts":["red","blue","green"],"outcomes":[1,0,0],"key":37,"choice":0,"rt":1949.0200001746416,"outcome":1,"trial":30,"correct":0,"trial_type":"three-arm-trial","trial_index":39,"time_elapsed":536347,"internal_node_id":"0.0-36.0-0.0","task_version":"screening-mturk","missing":false,"accuracy":1},{"contexts":["red","blue","green"],"outcomes":[0,0,1],"key":37,"choice":0,"rt":5814.864999847487,"outcome":0,"trial":31,"correct":2,"trial_type":"three-arm-trial","trial_index":40,"time_elapsed":543374,"internal_node_id":"0.0-37.0-0.0","task_version":"screening-mturk","missing":false,"accuracy":0},{"contexts":["red","blue","green"],"outcomes":[0,0,1],"key":38,"choice":1,"rt":1229.9900001380593,"outcome":0,"trial":32,"correct":2,"trial_type":"three-arm-trial","trial_index":41,"time_elapsed":545807,"internal_node_id":"0.0-38.0-0.0","task_version":"screening-mturk","missing":false,"accuracy":0},{"contexts":["red","blue","green"],"outcomes":[1,0,1],"key":37,"choice":0,"rt":854.2450000531971,"outcome":1,"trial":33,"correct":2,"trial_type":"three-arm-trial","trial_index":42,"time_elapsed":547864,"internal_node_id":"0.0-39.0-0.0","task_version":"screening-mturk","missing":false,"accuracy":0},{"contexts":["red","blue","green"],"outcomes":[0,0,1],"key":38,"choice":1,"rt":2159.8050000611693,"outcome":0,"trial":34,"correct":2,"trial_type":"three-arm-trial","trial_index":43,"time_elapsed":551227,"internal_node_id":"0.0-40.0-0.0","task_version":"screening-mturk","missing":false,"accuracy":0},{"contexts":["red","blue","green"],"outcomes":[1,0,1],"key":37,"choice":0,"rt":1124.165000161156,"outcome":1,"trial":35,"correct":2,"trial_type":"three-arm-trial","trial_index":44,"time_elapsed":553555,"internal_node_id":"0.0-41.0-0.0","task_version":"screening-mturk","missing":false,"accuracy":0},{"contexts":["red","blue","green"],"outcomes":[0,0,0],"key":38,"choice":1,"rt":3450.7299999240786,"outcome":0,"trial":36,"correct":2,"trial_type":"three-arm-trial","trial_index":45,"time_elapsed":558208,"internal_node_id":"0.0-42.0-0.0","task_version":"screening-mturk","missing":false,"accuracy":0},{"contexts":["red","blue","green"],"outcomes":[1,1,1],"key":37,"choice":0,"rt":1113.199999788776,"outcome":1,"trial":37,"correct":2,"trial_type":"three-arm-trial","trial_index":46,"time_elapsed":560527,"internal_node_id":"0.0-43.0-0.0","task_version":"screening-mturk","missing":false,"accuracy":0},{"contexts":["red","blue","green"],"outcomes":[0,0,1],"key":37,"choice":0,"rt":3373.050000052899,"outcome":0,"trial":38,"correct":2,"trial_type":"three-arm-trial","trial_index":47,"time_elapsed":565112,"internal_node_id":"0.0-44.0-0.0","task_version":"screening-mturk","missing":false,"accuracy":0},{"contexts":["red","blue","green"],"outcomes":[0,1,1],"key":39,"choice":2,"rt":1583.4800000302494,"outcome":1,"trial":39,"correct":2,"trial_type":"three-arm-trial","trial_index":48,"time_elapsed":567898,"internal_node_id":"0.0-45.0-0.0","task_version":"screening-mturk","missing":false,"accuracy":1},{"contexts":["red","blue","green"],"outcomes":[0,0,0],"key":39,"choice":2,"rt":6261.910000117496,"outcome":0,"trial":40,"correct":2,"trial_type":"three-arm-trial","trial_index":49,"time_elapsed":575364,"internal_node_id":"0.0-46.0-0.0","task_version":"screening-mturk","missing":false,"accuracy":1},{"contexts":["red","blue","green"],"outcomes":[1,0,1],"key":38,"choice":1,"rt":2400.7049999199808,"outcome":0,"trial":41,"correct":2,"trial_type":"three-arm-trial","trial_index":50,"time_elapsed":578968,"internal_node_id":"0.0-47.0-0.0","task_version":"screening-mturk","missing":false,"accuracy":0},{"contexts":["red","blue","green"],"outcomes":[0,0,1],"key":37,"choice":0,"rt":2740.0350000243634,"outcome":0,"trial":42,"correct":2,"trial_type":"three-arm-trial","trial_index":51,"time_elapsed":582911,"internal_node_id":"0.0-48.0-0.0","task_version":"screening-mturk","missing":false,"accuracy":0},{"contexts":["red","blue","green"],"outcomes":[0,0,1],"key":38,"choice":1,"rt":4207.780000055209,"outcome":0,"trial":43,"correct":2,"trial_type":"three-arm-trial","trial_index":52,"time_elapsed":588322,"internal_node_id":"0.0-49.0-0.0","task_version":"screening-mturk","missing":false,"accuracy":0},{"contexts":["red","blue","green"],"outcomes":[0,0,1],"key":37,"choice":0,"rt":2961.4650001749396,"outcome":0,"trial":44,"correct":2,"trial_type":"three-arm-trial","trial_index":53,"time_elapsed":592486,"internal_node_id":"0.0-50.0-0.0","task_version":"screening-mturk","missing":false,"accuracy":0},{"contexts":["red","blue","green"],"outcomes":[0,0,1],"key":38,"choice":1,"rt":937.3349999077618,"outcome":0,"trial":45,"correct":2,"trial_type":"three-arm-trial","trial_index":54,"time_elapsed":594626,"internal_node_id":"0.0-51.0-0.0","task_version":"screening-mturk","missing":false,"accuracy":0},{"contexts":["red","blue","green"],"outcomes":[0,1,0],"key":39,"choice":2,"rt":992.3249999992549,"outcome":0,"trial":46,"correct":1,"trial_type":"three-arm-trial","trial_index":55,"time_elapsed":596822,"internal_node_id":"0.0-52.0-0.0","task_version":"screening-mturk","missing":false,"accuracy":0},{"contexts":["red","blue","green"],"outcomes":[0,1,1],"key":38,"choice":1,"rt":1461.5749998483807,"outcome":1,"trial":47,"correct":1,"trial_type":"three-arm-trial","trial_index":56,"time_elapsed":599487,"internal_node_id":"0.0-53.0-0.0","task_version":"screening-mturk","missing":false,"accuracy":1},{"contexts":["red","blue","green"],"outcomes":[0,0,1],"key":38,"choice":1,"rt":2910.4750000406057,"outcome":0,"trial":48,"correct":1,"trial_type":"three-arm-trial","trial_index":57,"time_elapsed":603606,"internal_node_id":"0.0-54.0-0.0","task_version":"screening-mturk","missing":false,"accuracy":1},{"contexts":["red","blue","green"],"outcomes":[0,0,0],"key":37,"choice":0,"rt":1535.7250000815839,"outcome":0,"trial":49,"correct":1,"trial_type":"three-arm-trial","trial_index":58,"time_elapsed":606345,"internal_node_id":"0.0-55.0-0.0","task_version":"screening-mturk","missing":false,"accuracy":0},{"contexts":["red","blue","green"],"outcomes":[0,1,0],"key":38,"choice":1,"rt":1663.6500000022352,"outcome":1,"trial":50,"correct":1,"trial_type":"three-arm-trial","trial_index":59,"time_elapsed":609214,"internal_node_id":"0.0-56.0-0.0","task_version":"screening-mturk","missing":false,"accuracy":1},{"contexts":["red","blue","green"],"outcomes":[0,0,0],"key":38,"choice":1,"rt":4147.279999917373,"outcome":0,"trial":51,"correct":1,"trial_type":"three-arm-trial","trial_index":60,"time_elapsed":614565,"internal_node_id":"0.0-57.0-0.0","task_version":"screening-mturk","missing":false,"accuracy":1},{"contexts":["red","blue","green"],"outcomes":[0,1,0],"key":37,"choice":0,"rt":4335.369999986142,"outcome":0,"trial":52,"correct":1,"trial_type":"three-arm-trial","trial_index":61,"time_elapsed":620103,"internal_node_id":"0.0-58.0-0.0","task_version":"screening-mturk","missing":false,"accuracy":0},{"contexts":["red","blue","green"],"outcomes":[0,0,0],"key":38,"choice":1,"rt":1207.8150000888854,"outcome":0,"trial":53,"correct":1,"trial_type":"three-arm-trial","trial_index":62,"time_elapsed":622513,"internal_node_id":"0.0-59.0-0.0","task_version":"screening-mturk","missing":false,"accuracy":1},{"contexts":["red","blue","green"],"outcomes":[0,1,0],"key":38,"choice":1,"rt":2847.0050001051277,"outcome":1,"trial":54,"correct":1,"trial_type":"three-arm-trial","trial_index":63,"time_elapsed":626564,"internal_node_id":"0.0-60.0-0.0","task_version":"screening-mturk","missing":false,"accuracy":1},{"contexts":["red","blue","green"],"outcomes":[0,1,0],"key":38,"choice":1,"rt":3606.0399999842048,"outcome":1,"trial":55,"correct":1,"trial_type":"three-arm-trial","trial_index":64,"time_elapsed":631374,"internal_node_id":"0.0-61.0-0.0","task_version":"screening-mturk","missing":false,"accuracy":1},{"contexts":["red","blue","green"],"outcomes":[0,1,0],"key":38,"choice":1,"rt":2588.0150001030415,"outcome":1,"trial":56,"correct":1,"trial_type":"three-arm-trial","trial_index":65,"time_elapsed":635165,"internal_node_id":"0.0-62.0-0.0","task_version":"screening-mturk","missing":false,"accuracy":1},{"contexts":["red","blue","green"],"outcomes":[0,1,0],"key":37,"choice":0,"rt":3394.6650000289083,"outcome":0,"trial":57,"correct":1,"trial_type":"three-arm-trial","trial_index":66,"time_elapsed":639763,"internal_node_id":"0.0-63.0-0.0","task_version":"screening-mturk","missing":false,"accuracy":0},{"contexts":["red","blue","green"],"outcomes":[0,1,0],"key":38,"choice":1,"rt":521.6049998998642,"outcome":1,"trial":58,"correct":1,"trial_type":"three-arm-trial","trial_index":67,"time_elapsed":641488,"internal_node_id":"0.0-64.0-0.0","task_version":"screening-mturk","missing":false,"accuracy":1},{"contexts":["red","blue","green"],"outcomes":[1,1,1],"key":38,"choice":1,"rt":2055.9999998658895,"outcome":1,"trial":59,"correct":1,"trial_type":"three-arm-trial","trial_index":68,"time_elapsed":644747,"internal_node_id":"0.0-65.0-0.0","task_version":"screening-mturk","missing":false,"accuracy":1},{"contexts":["red","blue","green"],"outcomes":[0,1,1],"key":38,"choice":1,"rt":3491.124999942258,"outcome":1,"trial":60,"correct":1,"trial_type":"three-arm-trial","trial_index":69,"time_elapsed":649443,"internal_node_id":"0.0-66.0-0.0","task_version":"screening-mturk","missing":false,"accuracy":1},{"contexts":["red","blue","green"],"outcomes":[1,0,0],"key":38,"choice":1,"rt":2120.0149999931455,"outcome":0,"trial":61,"correct":0,"trial_type":"three-arm-trial","trial_index":70,"time_elapsed":652766,"internal_node_id":"0.0-67.0-0.0","task_version":"screening-mturk","missing":false,"accuracy":0},{"contexts":["red","blue","green"],"outcomes":[1,1,1],"key":37,"choice":0,"rt":1028.7099999841303,"outcome":1,"trial":62,"correct":0,"trial_type":"three-arm-trial","trial_index":71,"time_elapsed":655005,"internal_node_id":"0.0-68.0-0.0","task_version":"screening-mturk","missing":false,"accuracy":1},{"contexts":["red","blue","green"],"outcomes":[1,0,1],"key":38,"choice":1,"rt":3193.0649999994785,"outcome":0,"trial":63,"correct":0,"trial_type":"three-arm-trial","trial_index":72,"time_elapsed":659401,"internal_node_id":"0.0-69.0-0.0","task_version":"screening-mturk","missing":false,"accuracy":0},{"contexts":["red","blue","green"],"outcomes":[0,0,0],"key":38,"choice":1,"rt":1567.310000071302,"outcome":0,"trial":64,"correct":0,"trial_type":"three-arm-trial","trial_index":73,"time_elapsed":662173,"internal_node_id":"0.0-70.0-0.0","task_version":"screening-mturk","missing":false,"accuracy":0},{"contexts":["red","blue","green"],"outcomes":[1,0,0],"key":39,"choice":2,"rt":385.1300000678748,"outcome":0,"trial":65,"correct":0,"trial_type":"three-arm-trial","trial_index":74,"time_elapsed":663765,"internal_node_id":"0.0-71.0-0.0","task_version":"screening-mturk","missing":false,"accuracy":0},{"contexts":["red","blue","green"],"outcomes":[0,0,0],"key":38,"choice":1,"rt":3457.014999818057,"outcome":0,"trial":66,"correct":0,"trial_type":"three-arm-trial","trial_index":75,"time_elapsed":668424,"internal_node_id":"0.0-72.0-0.0","task_version":"screening-mturk","missing":false,"accuracy":0},{"contexts":["red","blue","green"],"outcomes":[1,0,1],"key":37,"choice":0,"rt":936.5450001787394,"outcome":1,"trial":67,"correct":0,"trial_type":"three-arm-trial","trial_index":76,"time_elapsed":670564,"internal_node_id":"0.0-73.0-0.0","task_version":"screening-mturk","missing":false,"accuracy":1},{"contexts":["red","blue","green"],"outcomes":[1,1,0],"key":37,"choice":0,"rt":1602.405000012368,"outcome":1,"trial":68,"correct":0,"trial_type":"three-arm-trial","trial_index":77,"time_elapsed":673376,"internal_node_id":"0.0-74.0-0.0","task_version":"screening-mturk","missing":false,"accuracy":1},{"contexts":["red","blue","green"],"outcomes":[1,0,0],"key":37,"choice":0,"rt":1871.409999905154,"outcome":1,"trial":69,"correct":0,"trial_type":"three-arm-trial","trial_index":78,"time_elapsed":676450,"internal_node_id":"0.0-75.0-0.0","task_version":"screening-mturk","missing":false,"accuracy":1},{"contexts":["red","blue","green"],"outcomes":[1,0,0],"key":37,"choice":0,"rt":2370.7400001585484,"outcome":1,"trial":70,"correct":0,"trial_type":"three-arm-trial","trial_index":79,"time_elapsed":680024,"internal_node_id":"0.0-76.0-0.0","task_version":"screening-mturk","missing":false,"accuracy":1},{"contexts":["red","blue","green"],"outcomes":[1,0,0],"key":38,"choice":1,"rt":1455.8999999426305,"outcome":0,"trial":71,"correct":0,"trial_type":"three-arm-trial","trial_index":80,"time_elapsed":682682,"internal_node_id":"0.0-77.0-0.0","task_version":"screening-mturk","missing":false,"accuracy":0},{"contexts":["red","blue","green"],"outcomes":[1,0,0],"key":37,"choice":0,"rt":961.3449999596924,"outcome":1,"trial":72,"correct":0,"trial_type":"three-arm-trial","trial_index":81,"time_elapsed":684846,"internal_node_id":"0.0-78.0-0.0","task_version":"screening-mturk","missing":false,"accuracy":1},{"contexts":["red","blue","green"],"outcomes":[1,0,0],"key":37,"choice":0,"rt":5918.74000011012,"outcome":1,"trial":73,"correct":0,"trial_type":"three-arm-trial","trial_index":82,"time_elapsed":691975,"internal_node_id":"0.0-79.0-0.0","task_version":"screening-mturk","missing":false,"accuracy":1},{"contexts":["red","blue","green"],"outcomes":[1,0,0],"key":37,"choice":0,"rt":1533.7749999016523,"outcome":1,"trial":74,"correct":0,"trial_type":"three-arm-trial","trial_index":83,"time_elapsed":694712,"internal_node_id":"0.0-80.0-0.0","task_version":"screening-mturk","missing":false,"accuracy":1},{"contexts":["red","blue","green"],"outcomes":[1,0,0],"key":39,"choice":2,"rt":1634.7300000488758,"outcome":0,"trial":75,"correct":0,"trial_type":"three-arm-trial","trial_index":84,"time_elapsed":697549,"internal_node_id":"0.0-81.0-0.0","task_version":"screening-mturk","missing":false,"accuracy":0},{"contexts":["red","blue","green"],"outcomes":[1,0,1],"key":37,"choice":0,"rt":2101.780000142753,"outcome":1,"trial":76,"correct":2,"trial_type":"three-arm-trial","trial_index":85,"time_elapsed":700880,"internal_node_id":"0.0-82.0-0.0","task_version":"screening-mturk","missing":false,"accuracy":0},{"contexts":["red","blue","green"],"outcomes":[0,0,1],"key":37,"choice":0,"rt":3261.159999994561,"outcome":0,"trial":77,"correct":2,"trial_type":"three-arm-trial","trial_index":86,"time_elapsed":705351,"internal_node_id":"0.0-83.0-0.0","task_version":"screening-mturk","missing":false,"accuracy":0},{"contexts":["red","blue","green"],"outcomes":[0,0,1],"key":38,"choice":1,"rt":1745.409999974072,"outcome":0,"trial":78,"correct":2,"trial_type":"three-arm-trial","trial_index":87,"time_elapsed":708301,"internal_node_id":"0.0-84.0-0.0","task_version":"screening-mturk","missing":false,"accuracy":0},{"contexts":["red","blue","green"],"outcomes":[1,0,1],"key":37,"choice":0,"rt":1007.2200000286102,"outcome":1,"trial":79,"correct":2,"trial_type":"three-arm-trial","trial_index":88,"time_elapsed":710512,"internal_node_id":"0.0-85.0-0.0","task_version":"screening-mturk","missing":false,"accuracy":0},{"contexts":["red","blue","green"],"outcomes":[0,0,0],"key":37,"choice":0,"rt":3090.0399999227375,"outcome":0,"trial":80,"correct":2,"trial_type":"three-arm-trial","trial_index":89,"time_elapsed":714808,"internal_node_id":"0.0-86.0-0.0","task_version":"screening-mturk","missing":false,"accuracy":0},{"contexts":["red","blue","green"],"outcomes":[1,0,1],"key":38,"choice":1,"rt":205.420000012964,"outcome":0,"trial":81,"correct":2,"trial_type":"three-arm-trial","trial_index":90,"time_elapsed":716216,"internal_node_id":"0.0-87.0-0.0","task_version":"screening-mturk","missing":false,"accuracy":0},{"contexts":["red","blue","green"],"outcomes":[0,0,1],"key":37,"choice":0,"rt":792.505000019446,"outcome":0,"trial":82,"correct":2,"trial_type":"three-arm-trial","trial_index":91,"time_elapsed":718210,"internal_node_id":"0.0-88.0-0.0","task_version":"screening-mturk","missing":false,"accuracy":0},{"contexts":["red","blue","green"],"outcomes":[0,0,0],"key":38,"choice":1,"rt":1073.3300000429153,"outcome":0,"trial":83,"correct":2,"trial_type":"three-arm-trial","trial_index":92,"time_elapsed":720490,"internal_node_id":"0.0-89.0-0.0","task_version":"screening-mturk","missing":false,"accuracy":0},{"contexts":["red","blue","green"],"outcomes":[0,0,1],"key":37,"choice":0,"rt":662.1099999174476,"outcome":0,"trial":84,"correct":2,"trial_type":"three-arm-trial","trial_index":93,"time_elapsed":722355,"internal_node_id":"0.0-90.0-0.0","task_version":"screening-mturk","missing":false,"accuracy":0},{"contexts":["red","blue","green"],"outcomes":[0,0,1],"key":38,"choice":1,"rt":1302.65500000678,"outcome":0,"trial":85,"correct":2,"trial_type":"three-arm-trial","trial_index":94,"time_elapsed":724874,"internal_node_id":"0.0-91.0-0.0","task_version":"screening-mturk","missing":false,"accuracy":0},{"contexts":["red","blue","green"],"outcomes":[0,0,1],"key":38,"choice":1,"rt":2294.6900001261383,"outcome":0,"trial":86,"correct":2,"trial_type":"three-arm-trial","trial_index":95,"time_elapsed":728377,"internal_node_id":"0.0-92.0-0.0","task_version":"screening-mturk","missing":false,"accuracy":0},{"contexts":["red","blue","green"],"outcomes":[0,0,1],"key":37,"choice":0,"rt":1797.8600000496954,"outcome":0,"trial":87,"correct":2,"trial_type":"three-arm-trial","trial_index":96,"time_elapsed":731377,"internal_node_id":"0.0-93.0-0.0","task_version":"screening-mturk","missing":false,"accuracy":0},{"contexts":["red","blue","green"],"outcomes":[1,1,1],"key":37,"choice":0,"rt":3804.3549999129027,"outcome":1,"trial":88,"correct":2,"trial_type":"three-arm-trial","trial_index":97,"time_elapsed":736384,"internal_node_id":"0.0-94.0-0.0","task_version":"screening-mturk","missing":false,"accuracy":0},{"contexts":["red","blue","green"],"outcomes":[1,0,1],"key":37,"choice":0,"rt":3976.564999902621,"outcome":1,"trial":89,"correct":2,"trial_type":"three-arm-trial","trial_index":98,"time_elapsed":741563,"internal_node_id":"0.0-95.0-0.0","task_version":"screening-mturk","missing":false,"accuracy":0},{"contexts":["red","blue","green"],"outcomes":[0,0,1],"key":37,"choice":0,"rt":1918.3950000442564,"outcome":0,"trial":90,"correct":2,"trial_type":"three-arm-trial","trial_index":99,"time_elapsed":744684,"internal_node_id":"0.0-96.0-0.0","task_version":"screening-mturk","missing":false,"accuracy":0},{"rt":37009.709999896586,"responses":{"age":"32","gender-categorical":"Male","gender-free-response":"","ethnicity":"Not Hispanic or Latino","race":["White"],"language":"Yes","fluency":"Well","prolific":"Yes","prolific-this-study":"Yes"},"survey":"demographics","trial_type":"survey-demo","trial_index":100,"time_elapsed":781698,"internal_node_id":"0.0-97.0","task_version":"screening-mturk","interactions":"[]"}]