[{"responses":{"Q02":"3","Q01":"4","Q03":"3"},"rt":12649.999999906868,"survey":"pswq","trial_type":"survey-template","trial_index":0,"time_elapsed":12684,"internal_node_id":"0.0-0.0","task_version":"screening-mturk"},{"responses":{"Q07":"2","Q09":"3","Q05":"2","Q04":"3","Q13":"2","Q03":"1","Q08":"2","Q10":"3","Q15":"2","Q12":"3","Q02":"2","Q01":"2","Q06":"3","Q14":"2","Q11":"3"},"rt":49547.99999995157,"survey":"7up7down","trial_type":"survey-template","trial_index":1,"time_elapsed":62240,"internal_node_id":"0.0-1.0","task_version":"screening-mturk"},{"responses":{"Q02":"2","Q08":"3","Q04":"2","Q01":"2","Q05":"3","Q07":"2","Q03":"3","Q06":"2"},"rt":13903.999999864027,"survey":"gad7","trial_type":"survey-template","trial_index":2,"time_elapsed":76146,"internal_node_id":"0.0-2.0","task_version":"screening-mturk"},{"responses":{"Q03":"2","Q05":"3","Q13":"3","Q07":"2","Q02":"2","Q12":"3","Q11":"2","Q10":"3","Q01":"3","Q04":"2","Q09":"3","Q06":"2","Q15":"2","Q14":"3","Q08":"2"},"rt":37111.99999996461,"survey":"shaps","trial_type":"survey-template","trial_index":3,"time_elapsed":113264,"internal_node_id":"0.0-3.0","task_version":"screening-mturk"},{"responses":{"Q11":"2","Q10":"2","Q12":"3","Q08":"2","Q04":"3","Q03":"2","Q09":"1","Q05":"2","Q06":"3","Q13":"2","Q07":"3","Q02":"2","Q01":"3"},"rt":88878.99999995716,"survey":"bisbas","trial_type":"survey-template","trial_index":4,"time_elapsed":202151,"internal_node_id":"0.0-4.0","task_version":"screening-mturk"},{"view_history":"[{\"page_index\":0,\"viewing_time\":23126.000000163913},{\"page_index\":1,\"viewing_time\":6496.999999973923},{\"page_index\":2,\"viewing_time\":11660.999999847263},{\"page_index\":3,\"viewing_time\":5513.00000003539},{\"page_index\":4,\"viewing_time\":3512.000000104308},{\"page_index\":3,\"viewing_time\":3457.999999867752},{\"page_index\":4,\"viewing_time\":7225.000000093132},{\"page_index\":5,\"viewing_time\":2111.0000000335276},{\"page_index\":6,\"viewing_time\":1494.999999878928},{\"page_index\":7,\"viewing_time\":2206.000000005588}]","rt":66804.00000000373,"trial_type":"instructions","trial_index":5,"time_elapsed":268957,"internal_node_id":"0.0-5.0-0.0","task_version":"screening-mturk"},{"responses":["True","True","True","True","True"],"num_errors":2,"rt":9118.000000016764,"trial_type":"three-arm-comprehension","trial_index":6,"time_elapsed":278084,"internal_node_id":"0.0-5.0-1.0","task_version":"screening-mturk"},{"view_history":"[{\"page_index\":0,\"viewing_time\":4379.999999888241},{\"page_index\":1,\"viewing_time\":2094.000000040978},{\"page_index\":0,\"viewing_time\":2253.000000026077},{\"page_index\":1,\"viewing_time\":1554.9999999348074},{\"page_index\":2,\"viewing_time\":1919.9999999254942},{\"page_index\":3,\"viewing_time\":4736.000000033528},{\"page_index\":2,\"viewing_time\":2486.9999999646097},{\"page_index\":1,\"viewing_time\":1023.9999999757856},{\"page_index\":2,\"viewing_time\":2008.000000147149},{\"page_index\":1,\"viewing_time\":4288.99999987334},{\"page_index\":0,\"viewing_time\":644.0000000875443},{\"page_index\":1,\"viewing_time\":1426.9999999087304},{\"page_index\":2,\"viewing_time\":1048.0000001844019},{\"page_index\":3,\"viewing_time\":1957.9999998677522},{\"page_index\":4,\"viewing_time\":1401.0000000707805},{\"page_index\":3,\"viewing_time\":1159.999999916181},{\"page_index\":4,\"viewing_time\":823.0000000912696},{\"page_index\":5,\"viewing_time\":2054.0000000037253},{\"page_index\":4,\"viewing_time\":760.9999999403954},{\"page_index\":5,\"viewing_time\":6543.999999994412},{\"page_index\":6,\"viewing_time\":2425.000000046566},{\"page_index\":5,\"viewing_time\":3023.9999999757856},{\"page_index\":6,\"viewing_time\":1771.9999998807907},{\"page_index\":7,\"viewing_time\":8113.0000001285225}]","rt":59899.99999990687,"trial_type":"instructions","trial_index":7,"time_elapsed":337994,"internal_node_id":"0.0-5.1-0.1","task_version":"screening-mturk"},{"responses":["True","True","True","True","True"],"num_errors":2,"rt":8865.999999921769,"trial_type":"three-arm-comprehension","trial_index":8,"time_elapsed":346864,"internal_node_id":"0.0-5.1-1.1","task_version":"screening-mturk"},{"view_history":"[{\"page_index\":0,\"viewing_time\":1373.0000001378357},{\"page_index\":1,\"viewing_time\":1777.9999999329448},{\"page_index\":2,\"viewing_time\":4132.999999914318},{\"page_index\":1,\"viewing_time\":2489.0000000596046},{\"page_index\":0,\"viewing_time\":2016.9999999925494},{\"page_index\":1,\"viewing_time\":1037.999999942258},{\"page_index\":0,\"viewing_time\":776.0000000707805},{\"page_index\":1,\"viewing_time\":854.9999999813735},{\"page_index\":2,\"viewing_time\":973.9999999292195},{\"page_index\":3,\"viewing_time\":2294.0000002272427},{\"page_index\":4,\"viewing_time\":1199.9999999534339},{\"page_index\":3,\"viewing_time\":1565.9999998752028},{\"page_index\":2,\"viewing_time\":1059.0000001247972},{\"page_index\":1,\"viewing_time\":1320.9999999962747},{\"page_index\":0,\"viewing_time\":2531.999999890104},{\"page_index\":1,\"viewing_time\":927.000000141561},{\"page_index\":0,\"viewing_time\":1142.9999999236315},{\"page_index\":1,\"viewing_time\":811.9999999180436},{\"page_index\":2,\"viewing_time\":691.0000001080334},{\"page_index\":3,\"viewing_time\":1017.9999999236315},{\"page_index\":4,\"viewing_time\":820.9999999962747},{\"page_index\":5,\"viewing_time\":596.0000001359731},{\"page_index\":6,\"viewing_time\":636.9999998714775},{\"page_index\":7,\"viewing_time\":628.9999999571592}]","rt":32681.00000009872,"trial_type":"instructions","trial_index":9,"time_elapsed":379548,"internal_node_id":"0.0-5.2-0.2","task_version":"screening-mturk"},{"responses":["True","False","True","True","True"],"num_errors":3,"rt":12771.00000018254,"trial_type":"three-arm-comprehension","trial_index":10,"time_elapsed":392325,"internal_node_id":"0.0-5.2-1.2","task_version":"screening-mturk"},{"view_history":"[{\"page_index\":0,\"viewing_time\":18041.999999899417},{\"page_index\":1,\"viewing_time\":1300.0000000465661},{\"page_index\":2,\"viewing_time\":3713.9999999199063},{\"page_index\":1,\"viewing_time\":14005.000000121072},{\"page_index\":2,\"viewing_time\":8043.00000006333},{\"page_index\":3,\"viewing_time\":2673.9999998826534},{\"page_index\":4,\"viewing_time\":6277.000000001863},{\"page_index\":5,\"viewing_time\":4280.00000002794},{\"page_index\":6,\"viewing_time\":1550.9999999776483},{\"page_index\":7,\"viewing_time\":1007.9999999143183}]","rt":60895.00000001863,"trial_type":"instructions","trial_index":11,"time_elapsed":453230,"internal_node_id":"0.0-5.3-0.3","task_version":"screening-mturk"},{"responses":["False","True","True","True","True"],"num_errors":3,"rt":12753.99999995716,"trial_type":"three-arm-comprehension","trial_index":12,"time_elapsed":465988,"internal_node_id":"0.0-5.3-1.3","task_version":"screening-mturk"},{"view_history":"[{\"page_index\":0,\"viewing_time\":3686.9999999180436},{\"page_index\":1,\"viewing_time\":17629.99999988824},{\"page_index\":2,\"viewing_time\":7510.000000009313},{\"page_index\":3,\"viewing_time\":3779.0000000968575},{\"page_index\":4,\"viewing_time\":11178.000000072643},{\"page_index\":5,\"viewing_time\":12260.999999940395},{\"page_index\":6,\"viewing_time\":5723.9999999292195},{\"page_index\":7,\"viewing_time\":5361.99999996461}]","rt":67130.99999981932,"trial_type":"instructions","trial_index":13,"time_elapsed":533133,"internal_node_id":"0.0-5.4-0.4","task_version":"screening-mturk"},{"responses":["True","True","False","False","True"],"num_errors":0,"rt":124867.00000008568,"trial_type":"three-arm-comprehension","trial_index":14,"time_elapsed":658006,"internal_node_id":"0.0-5.4-1.4","task_version":"screening-mturk"},{"view_history":"[{\"page_index\":0,\"viewing_time\":8635.000000009313}]","rt":8635.999999940395,"trial_type":"instructions","trial_index":15,"time_elapsed":666646,"internal_node_id":"0.0-6.0","task_version":"screening-mturk"},{"contexts":["green","blue","red"],"outcomes":[1,0,0],"key":39,"choice":2,"rt":2537.999999942258,"outcome":0,"trial":1,"correct":0,"trial_type":"three-arm-trial","trial_index":16,"time_elapsed":670393,"internal_node_id":"0.0-7.0-0.0","task_version":"screening-mturk","missing":false,"accuracy":0},{"contexts":["green","blue","red"],"outcomes":[1,1,0],"key":37,"choice":0,"rt":1247.999999905005,"outcome":1,"trial":2,"correct":0,"trial_type":"three-arm-trial","trial_index":17,"time_elapsed":672846,"internal_node_id":"0.0-8.0-0.0","task_version":"screening-mturk","missing":false,"accuracy":1},{"contexts":["green","blue","red"],"outcomes":[1,0,0],"key":38,"choice":1,"rt":462.000000057742,"outcome":0,"trial":3,"correct":0,"trial_type":"three-arm-trial","trial_index":18,"time_elapsed":674513,"internal_node_id":"0.0-9.0-0.0","task_version":"screening-mturk","missing":false,"accuracy":0},{"contexts":["green","blue","red"],"outcomes":[1,0,0],"key":39,"choice":2,"rt":187.99999984912574,"outcome":0,"trial":4,"correct":0,"trial_type":"three-arm-trial","trial_index":19,"time_elapsed":675907,"internal_node_id":"0.0-10.0-0.0","task_version":"screening-mturk","missing":false,"accuracy":0},{"contexts":["green","blue","red"],"outcomes":[0,0,0],"key":39,"choice":2,"rt":527.0000000018626,"outcome":0,"trial":5,"correct":0,"trial_type":"three-arm-trial","trial_index":20,"time_elapsed":677635,"internal_node_id":"0.0-11.0-0.0","task_version":"screening-mturk","missing":false,"accuracy":0},{"contexts":["green","blue","red"],"outcomes":[0,0,0],"key":39,"choice":2,"rt":3881.000000052154,"outcome":0,"trial":6,"correct":0,"trial_type":"three-arm-trial","trial_index":21,"time_elapsed":682720,"internal_node_id":"0.0-12.0-0.0","task_version":"screening-mturk","missing":false,"accuracy":0},{"contexts":["green","blue","red"],"outcomes":[1,0,1],"key":38,"choice":1,"rt":580.0000000745058,"outcome":0,"trial":7,"correct":0,"trial_type":"three-arm-trial","trial_index":22,"time_elapsed":684508,"internal_node_id":"0.0-13.0-0.0","task_version":"screening-mturk","missing":false,"accuracy":0},{"contexts":["green","blue","red"],"outcomes":[1,0,0],"key":38,"choice":1,"rt":115.9999999217689,"outcome":0,"trial":8,"correct":0,"trial_type":"three-arm-trial","trial_index":23,"time_elapsed":685828,"internal_node_id":"0.0-14.0-0.0","task_version":"screening-mturk","missing":false,"accuracy":0},{"contexts":["green","blue","red"],"outcomes":[1,0,0],"key":38,"choice":1,"rt":212.99999998882413,"outcome":0,"trial":9,"correct":0,"trial_type":"three-arm-trial","trial_index":24,"time_elapsed":687243,"internal_node_id":"0.0-15.0-0.0","task_version":"screening-mturk","missing":false,"accuracy":0},{"contexts":["green","blue","red"],"outcomes":[0,0,0],"key":38,"choice":1,"rt":407.99999982118607,"outcome":0,"trial":10,"correct":0,"trial_type":"three-arm-trial","trial_index":25,"time_elapsed":688853,"internal_node_id":"0.0-16.0-0.0","task_version":"screening-mturk","missing":false,"accuracy":0},{"contexts":["green","blue","red"],"outcomes":[1,0,0],"key":38,"choice":1,"rt":925.9999999776483,"outcome":0,"trial":11,"correct":0,"trial_type":"three-arm-trial","trial_index":26,"time_elapsed":690984,"internal_node_id":"0.0-17.0-0.0","task_version":"screening-mturk","missing":false,"accuracy":0},{"contexts":["green","blue","red"],"outcomes":[1,0,0],"key":38,"choice":1,"rt":1501.9999998621643,"outcome":0,"trial":12,"correct":0,"trial_type":"three-arm-trial","trial_index":27,"time_elapsed":693692,"internal_node_id":"0.0-18.0-0.0","task_version":"screening-mturk","missing":false,"accuracy":0},{"contexts":["green","blue","red"],"outcomes":[1,1,1],"key":38,"choice":1,"rt":287.00000001117587,"outcome":1,"trial":13,"correct":0,"trial_type":"three-arm-trial","trial_index":28,"time_elapsed":695186,"internal_node_id":"0.0-19.0-0.0","task_version":"screening-mturk","missing":false,"accuracy":0},{"contexts":["green","blue","red"],"outcomes":[1,0,0],"key":38,"choice":1,"rt":388.9999999664724,"outcome":0,"trial":14,"correct":0,"trial_type":"three-arm-trial","trial_index":29,"time_elapsed":696779,"internal_node_id":"0.0-20.0-0.0","task_version":"screening-mturk","missing":false,"accuracy":0},{"contexts":["green","blue","red"],"outcomes":[1,0,1],"key":null,"rt":null,"trial":15,"correct":0,"trial_type":"three-arm-trial","trial_index":30,"time_elapsed":711786,"internal_node_id":"0.0-21.0-0.0","task_version":"screening-mturk","missing":true},{"contexts":["green","blue","red"],"outcomes":[1,0,1],"key":39,"choice":2,"rt":1652.9999999329448,"outcome":1,"trial":15,"correct":0,"trial_type":"three-arm-trial","trial_index":31,"time_elapsed":714647,"internal_node_id":"0.0-21.1-0.1","task_version":"screening-mturk","missing":false,"accuracy":0},{"contexts":["green","blue","red"],"outcomes":[0,0,0],"key":39,"choice":2,"rt":236.99999996460974,"outcome":0,"trial":16,"correct":2,"trial_type":"three-arm-trial","trial_index":32,"time_elapsed":716087,"internal_node_id":"0.0-22.0-0.0","task_version":"screening-mturk","missing":false,"accuracy":1},{"contexts":["green","blue","red"],"outcomes":[0,0,1],"key":39,"choice":2,"rt":43.000000063329935,"outcome":1,"trial":17,"correct":2,"trial_type":"three-arm-trial","trial_index":33,"time_elapsed":717340,"internal_node_id":"0.0-23.0-0.0","task_version":"screening-mturk","missing":false,"accuracy":1},{"contexts":["green","blue","red"],"outcomes":[0,0,1],"key":38,"choice":1,"rt":1079.0000001434237,"outcome":0,"trial":18,"correct":2,"trial_type":"three-arm-trial","trial_index":34,"time_elapsed":719634,"internal_node_id":"0.0-24.0-0.0","task_version":"screening-mturk","missing":false,"accuracy":0},{"contexts":["green","blue","red"],"outcomes":[0,0,0],"key":38,"choice":1,"rt":179.99999993480742,"outcome":0,"trial":19,"correct":2,"trial_type":"three-arm-trial","trial_index":35,"time_elapsed":721019,"internal_node_id":"0.0-25.0-0.0","task_version":"screening-mturk","missing":false,"accuracy":0},{"contexts":["green","blue","red"],"outcomes":[0,0,1],"key":38,"choice":1,"rt":325.999999884516,"outcome":0,"trial":20,"correct":2,"trial_type":"three-arm-trial","trial_index":36,"time_elapsed":722554,"internal_node_id":"0.0-26.0-0.0","task_version":"screening-mturk","missing":false,"accuracy":0},{"contexts":["green","blue","red"],"outcomes":[0,0,1],"key":38,"choice":1,"rt":198.0000000912696,"outcome":0,"trial":21,"correct":2,"trial_type":"three-arm-trial","trial_index":37,"time_elapsed":723955,"internal_node_id":"0.0-27.0-0.0","task_version":"screening-mturk","missing":false,"accuracy":0},{"contexts":["green","blue","red"],"outcomes":[0,1,1],"key":38,"choice":1,"rt":2192.0000000391155,"outcome":1,"trial":22,"correct":2,"trial_type":"three-arm-trial","trial_index":38,"time_elapsed":727348,"internal_node_id":"0.0-28.0-0.0","task_version":"screening-mturk","missing":false,"accuracy":0},{"contexts":["green","blue","red"],"outcomes":[1,0,0],"key":38,"choice":1,"rt":748.9999998360872,"outcome":0,"trial":23,"correct":2,"trial_type":"three-arm-trial","trial_index":39,"time_elapsed":729300,"internal_node_id":"0.0-29.0-0.0","task_version":"screening-mturk","missing":false,"accuracy":0},{"contexts":["green","blue","red"],"outcomes":[0,0,1],"key":39,"choice":2,"rt":344.9999999720603,"outcome":1,"trial":24,"correct":2,"trial_type":"three-arm-trial","trial_index":40,"time_elapsed":730851,"internal_node_id":"0.0-30.0-0.0","task_version":"screening-mturk","missing":false,"accuracy":1},{"contexts":["green","blue","red"],"outcomes":[0,0,0],"key":39,"choice":2,"rt":644.0000000875443,"outcome":0,"trial":25,"correct":2,"trial_type":"three-arm-trial","trial_index":41,"time_elapsed":732702,"internal_node_id":"0.0-31.0-0.0","task_version":"screening-mturk","missing":false,"accuracy":1},{"contexts":["green","blue","red"],"outcomes":[1,0,1],"key":38,"choice":1,"rt":879.0000001899898,"outcome":0,"trial":26,"correct":2,"trial_type":"three-arm-trial","trial_index":42,"time_elapsed":734785,"internal_node_id":"0.0-32.0-0.0","task_version":"screening-mturk","missing":false,"accuracy":0},{"contexts":["green","blue","red"],"outcomes":[0,1,1],"key":39,"choice":2,"rt":802.000000141561,"outcome":1,"trial":27,"correct":2,"trial_type":"three-arm-trial","trial_index":43,"time_elapsed":736813,"internal_node_id":"0.0-33.0-0.0","task_version":"screening-mturk","missing":false,"accuracy":1},{"contexts":["green","blue","red"],"outcomes":[1,0,1],"key":39,"choice":2,"rt":79.00000014342368,"outcome":1,"trial":28,"correct":2,"trial_type":"three-arm-trial","trial_index":44,"time_elapsed":738096,"internal_node_id":"0.0-34.0-0.0","task_version":"screening-mturk","missing":false,"accuracy":1},{"contexts":["green","blue","red"],"outcomes":[0,1,1],"key":39,"choice":2,"rt":767.9999999236315,"outcome":1,"trial":29,"correct":2,"trial_type":"three-arm-trial","trial_index":45,"time_elapsed":740080,"internal_node_id":"0.0-35.0-0.0","task_version":"screening-mturk","missing":false,"accuracy":1},{"contexts":["green","blue","red"],"outcomes":[0,0,1],"key":39,"choice":2,"rt":213.99999991990626,"outcome":1,"trial":30,"correct":2,"trial_type":"three-arm-trial","trial_index":46,"time_elapsed":741529,"internal_node_id":"0.0-36.0-0.0","task_version":"screening-mturk","missing":false,"accuracy":1},{"contexts":["green","blue","red"],"outcomes":[1,0,0],"key":39,"choice":2,"rt":215.00000008381903,"outcome":0,"trial":31,"correct":0,"trial_type":"three-arm-trial","trial_index":47,"time_elapsed":742955,"internal_node_id":"0.0-37.0-0.0","task_version":"screening-mturk","missing":false,"accuracy":0},{"contexts":["green","blue","red"],"outcomes":[1,0,0],"key":37,"choice":0,"rt":140.99999982863665,"outcome":1,"trial":32,"correct":0,"trial_type":"three-arm-trial","trial_index":48,"time_elapsed":744301,"internal_node_id":"0.0-38.0-0.0","task_version":"screening-mturk","missing":false,"accuracy":1},{"contexts":["green","blue","red"],"outcomes":[1,0,1],"key":37,"choice":0,"rt":640.9999998286366,"outcome":1,"trial":33,"correct":0,"trial_type":"three-arm-trial","trial_index":49,"time_elapsed":746188,"internal_node_id":"0.0-39.0-0.0","task_version":"screening-mturk","missing":false,"accuracy":1},{"contexts":["green","blue","red"],"outcomes":[1,0,1],"key":38,"choice":1,"rt":3118.000000016764,"outcome":0,"trial":34,"correct":0,"trial_type":"three-arm-trial","trial_index":50,"time_elapsed":750511,"internal_node_id":"0.0-40.0-0.0","task_version":"screening-mturk","missing":false,"accuracy":0},{"contexts":["green","blue","red"],"outcomes":[1,0,0],"key":39,"choice":2,"rt":572.0000001601875,"outcome":0,"trial":35,"correct":0,"trial_type":"three-arm-trial","trial_index":51,"time_elapsed":752289,"internal_node_id":"0.0-41.0-0.0","task_version":"screening-mturk","missing":false,"accuracy":0},{"contexts":["green","blue","red"],"outcomes":[1,0,1],"key":38,"choice":1,"rt":442.9999999701977,"outcome":0,"trial":36,"correct":0,"trial_type":"three-arm-trial","trial_index":52,"time_elapsed":753936,"internal_node_id":"0.0-42.0-0.0","task_version":"screening-mturk","missing":false,"accuracy":0},{"contexts":["green","blue","red"],"outcomes":[1,0,0],"key":37,"choice":0,"rt":368.0000000167638,"outcome":1,"trial":37,"correct":0,"trial_type":"three-arm-trial","trial_index":53,"time_elapsed":755537,"internal_node_id":"0.0-43.0-0.0","task_version":"screening-mturk","missing":false,"accuracy":1},{"contexts":["green","blue","red"],"outcomes":[1,0,0],"key":37,"choice":0,"rt":408.0000000540167,"outcome":1,"trial":38,"correct":0,"trial_type":"three-arm-trial","trial_index":54,"time_elapsed":757147,"internal_node_id":"0.0-44.0-0.0","task_version":"screening-mturk","missing":false,"accuracy":1},{"contexts":["green","blue","red"],"outcomes":[0,0,0],"key":37,"choice":0,"rt":569.0000001341105,"outcome":0,"trial":39,"correct":0,"trial_type":"three-arm-trial","trial_index":55,"time_elapsed":758924,"internal_node_id":"0.0-45.0-0.0","task_version":"screening-mturk","missing":false,"accuracy":1},{"contexts":["green","blue","red"],"outcomes":[1,0,0],"key":38,"choice":1,"rt":168.99999999441206,"outcome":0,"trial":40,"correct":0,"trial_type":"three-arm-trial","trial_index":56,"time_elapsed":760298,"internal_node_id":"0.0-46.0-0.0","task_version":"screening-mturk","missing":false,"accuracy":0},{"contexts":["green","blue","red"],"outcomes":[1,0,0],"key":39,"choice":2,"rt":449.00000002235174,"outcome":0,"trial":41,"correct":0,"trial_type":"three-arm-trial","trial_index":57,"time_elapsed":761950,"internal_node_id":"0.0-47.0-0.0","task_version":"screening-mturk","missing":false,"accuracy":0},{"contexts":["green","blue","red"],"outcomes":[1,0,0],"key":38,"choice":1,"rt":334.00000003166497,"outcome":0,"trial":42,"correct":0,"trial_type":"three-arm-trial","trial_index":58,"time_elapsed":763507,"internal_node_id":"0.0-48.0-0.0","task_version":"screening-mturk","missing":false,"accuracy":0},{"contexts":["green","blue","red"],"outcomes":[1,0,0],"key":37,"choice":0,"rt":338.99999991990626,"outcome":1,"trial":43,"correct":0,"trial_type":"three-arm-trial","trial_index":59,"time_elapsed":765053,"internal_node_id":"0.0-49.0-0.0","task_version":"screening-mturk","missing":false,"accuracy":1},{"contexts":["green","blue","red"],"outcomes":[1,0,0],"key":37,"choice":0,"rt":273.9999999757856,"outcome":1,"trial":44,"correct":0,"trial_type":"three-arm-trial","trial_index":60,"time_elapsed":766529,"internal_node_id":"0.0-50.0-0.0","task_version":"screening-mturk","missing":false,"accuracy":1},{"contexts":["green","blue","red"],"outcomes":[1,0,0],"key":37,"choice":0,"rt":402.00000000186265,"outcome":1,"trial":45,"correct":0,"trial_type":"three-arm-trial","trial_index":61,"time_elapsed":768134,"internal_node_id":"0.0-51.0-0.0","task_version":"screening-mturk","missing":false,"accuracy":1},{"contexts":["green","blue","red"],"outcomes":[0,1,0],"key":37,"choice":0,"rt":199.00000002235174,"outcome":0,"trial":46,"correct":1,"trial_type":"three-arm-trial","trial_index":62,"time_elapsed":769537,"internal_node_id":"0.0-52.0-0.0","task_version":"screening-mturk","missing":false,"accuracy":0},{"contexts":["green","blue","red"],"outcomes":[1,1,1],"key":37,"choice":0,"rt":8.000000147148967,"outcome":1,"trial":47,"correct":1,"trial_type":"three-arm-trial","trial_index":63,"time_elapsed":770753,"internal_node_id":"0.0-53.0-0.0","task_version":"screening-mturk","missing":false,"accuracy":0},{"contexts":["green","blue","red"],"outcomes":[0,0,1],"key":37,"choice":0,"rt":695.0000000651926,"outcome":0,"trial":48,"correct":1,"trial_type":"three-arm-trial","trial_index":64,"time_elapsed":772654,"internal_node_id":"0.0-54.0-0.0","task_version":"screening-mturk","missing":false,"accuracy":0},{"contexts":["green","blue","red"],"outcomes":[1,1,0],"key":38,"choice":1,"rt":726.9999999552965,"outcome":1,"trial":49,"correct":1,"trial_type":"three-arm-trial","trial_index":65,"time_elapsed":774590,"internal_node_id":"0.0-55.0-0.0","task_version":"screening-mturk","missing":false,"accuracy":1},{"contexts":["green","blue","red"],"outcomes":[0,0,1],"key":38,"choice":1,"rt":192.99999997019768,"outcome":0,"trial":50,"correct":1,"trial_type":"three-arm-trial","trial_index":66,"time_elapsed":775990,"internal_node_id":"0.0-56.0-0.0","task_version":"screening-mturk","missing":false,"accuracy":1},{"contexts":["green","blue","red"],"outcomes":[0,0,0],"key":38,"choice":1,"rt":29.999999795109034,"outcome":0,"trial":51,"correct":1,"trial_type":"three-arm-trial","trial_index":67,"time_elapsed":777240,"internal_node_id":"0.0-57.0-0.0","task_version":"screening-mturk","missing":false,"accuracy":1},{"contexts":["green","blue","red"],"outcomes":[1,1,0],"key":39,"choice":2,"rt":189.00000001303852,"outcome":0,"trial":52,"correct":1,"trial_type":"three-arm-trial","trial_index":68,"time_elapsed":778635,"internal_node_id":"0.0-58.0-0.0","task_version":"screening-mturk","missing":false,"accuracy":0},{"contexts":["green","blue","red"],"outcomes":[0,0,0],"key":37,"choice":0,"rt":1254.0000001899898,"outcome":0,"trial":53,"correct":1,"trial_type":"three-arm-trial","trial_index":69,"time_elapsed":781095,"internal_node_id":"0.0-59.0-0.0","task_version":"screening-mturk","missing":false,"accuracy":0},{"contexts":["green","blue","red"],"outcomes":[1,0,0],"key":38,"choice":1,"rt":418.00000006332994,"outcome":0,"trial":54,"correct":1,"trial_type":"three-arm-trial","trial_index":70,"time_elapsed":782722,"internal_node_id":"0.0-60.0-0.0","task_version":"screening-mturk","missing":false,"accuracy":1},{"contexts":["green","blue","red"],"outcomes":[0,0,0],"key":39,"choice":2,"rt":51.99999990873039,"outcome":0,"trial":55,"correct":1,"trial_type":"three-arm-trial","trial_index":71,"time_elapsed":783977,"internal_node_id":"0.0-61.0-0.0","task_version":"screening-mturk","missing":false,"accuracy":0},{"contexts":["green","blue","red"],"outcomes":[0,1,1],"key":37,"choice":0,"rt":1729.0000000502914,"outcome":0,"trial":56,"correct":1,"trial_type":"three-arm-trial","trial_index":72,"time_elapsed":786911,"internal_node_id":"0.0-62.0-0.0","task_version":"screening-mturk","missing":false,"accuracy":0},{"contexts":["green","blue","red"],"outcomes":[0,1,0],"key":39,"choice":2,"rt":662.0000000111759,"outcome":0,"trial":57,"correct":1,"trial_type":"three-arm-trial","trial_index":73,"time_elapsed":788776,"internal_node_id":"0.0-63.0-0.0","task_version":"screening-mturk","missing":false,"accuracy":0},{"contexts":["green","blue","red"],"outcomes":[1,0,0],"key":37,"choice":0,"rt":2092.000000178814,"outcome":1,"trial":58,"correct":1,"trial_type":"three-arm-trial","trial_index":74,"time_elapsed":792072,"internal_node_id":"0.0-64.0-0.0","task_version":"screening-mturk","missing":false,"accuracy":0},{"contexts":["green","blue","red"],"outcomes":[0,1,1],"key":37,"choice":0,"rt":816.9999998062849,"outcome":0,"trial":59,"correct":1,"trial_type":"three-arm-trial","trial_index":75,"time_elapsed":794092,"internal_node_id":"0.0-65.0-0.0","task_version":"screening-mturk","missing":false,"accuracy":0},{"contexts":["green","blue","red"],"outcomes":[0,1,1],"key":39,"choice":2,"rt":561.9999999180436,"outcome":1,"trial":60,"correct":1,"trial_type":"three-arm-trial","trial_index":76,"time_elapsed":795862,"internal_node_id":"0.0-66.0-0.0","task_version":"screening-mturk","missing":false,"accuracy":0},{"contexts":["green","blue","red"],"outcomes":[0,0,1],"key":39,"choice":2,"rt":651.0000000707805,"outcome":1,"trial":61,"correct":2,"trial_type":"three-arm-trial","trial_index":77,"time_elapsed":797729,"internal_node_id":"0.0-67.0-0.0","task_version":"screening-mturk","missing":false,"accuracy":1},{"contexts":["green","blue","red"],"outcomes":[0,0,1],"key":39,"choice":2,"rt":163.99999987334013,"outcome":1,"trial":62,"correct":2,"trial_type":"three-arm-trial","trial_index":78,"time_elapsed":799098,"internal_node_id":"0.0-68.0-0.0","task_version":"screening-mturk","missing":false,"accuracy":1},{"contexts":["green","blue","red"],"outcomes":[1,0,1],"key":39,"choice":2,"rt":489.00000005960464,"outcome":1,"trial":63,"correct":2,"trial_type":"three-arm-trial","trial_index":79,"time_elapsed":800795,"internal_node_id":"0.0-69.0-0.0","task_version":"screening-mturk","missing":false,"accuracy":1},{"contexts":["green","blue","red"],"outcomes":[0,0,1],"key":39,"choice":2,"rt":415.0000000372529,"outcome":1,"trial":64,"correct":2,"trial_type":"three-arm-trial","trial_index":80,"time_elapsed":802417,"internal_node_id":"0.0-70.0-0.0","task_version":"screening-mturk","missing":false,"accuracy":1},{"contexts":["green","blue","red"],"outcomes":[0,1,1],"key":39,"choice":2,"rt":236.99999996460974,"outcome":1,"trial":65,"correct":2,"trial_type":"three-arm-trial","trial_index":81,"time_elapsed":803859,"internal_node_id":"0.0-71.0-0.0","task_version":"screening-mturk","missing":false,"accuracy":1},{"contexts":["green","blue","red"],"outcomes":[0,0,0],"key":39,"choice":2,"rt":513.9999999664724,"outcome":0,"trial":66,"correct":2,"trial_type":"three-arm-trial","trial_index":82,"time_elapsed":805581,"internal_node_id":"0.0-72.0-0.0","task_version":"screening-mturk","missing":false,"accuracy":1},{"contexts":["green","blue","red"],"outcomes":[0,1,1],"key":37,"choice":0,"rt":964.9999998509884,"outcome":0,"trial":67,"correct":2,"trial_type":"three-arm-trial","trial_index":83,"time_elapsed":807750,"internal_node_id":"0.0-73.0-0.0","task_version":"screening-mturk","missing":false,"accuracy":0},{"contexts":["green","blue","red"],"outcomes":[0,0,1],"key":39,"choice":2,"rt":4620.99999981001,"outcome":1,"trial":68,"correct":2,"trial_type":"three-arm-trial","trial_index":84,"time_elapsed":813587,"internal_node_id":"0.0-74.0-0.0","task_version":"screening-mturk","missing":false,"accuracy":1},{"contexts":["green","blue","red"],"outcomes":[0,0,1],"key":39,"choice":2,"rt":39.00000010617077,"outcome":1,"trial":69,"correct":2,"trial_type":"three-arm-trial","trial_index":85,"time_elapsed":814833,"internal_node_id":"0.0-75.0-0.0","task_version":"screening-mturk","missing":false,"accuracy":1},{"contexts":["green","blue","red"],"outcomes":[1,0,1],"key":39,"choice":2,"rt":188.0000000819564,"outcome":1,"trial":70,"correct":2,"trial_type":"three-arm-trial","trial_index":86,"time_elapsed":816239,"internal_node_id":"0.0-76.0-0.0","task_version":"screening-mturk","missing":false,"accuracy":1},{"contexts":["green","blue","red"],"outcomes":[0,0,1],"key":39,"choice":2,"rt":383.99999984540045,"outcome":1,"trial":71,"correct":2,"trial_type":"three-arm-trial","trial_index":87,"time_elapsed":817827,"internal_node_id":"0.0-77.0-0.0","task_version":"screening-mturk","missing":false,"accuracy":1},{"contexts":["green","blue","red"],"outcomes":[0,0,1],"key":39,"choice":2,"rt":298.99999988265336,"outcome":1,"trial":72,"correct":2,"trial_type":"three-arm-trial","trial_index":88,"time_elapsed":819327,"internal_node_id":"0.0-78.0-0.0","task_version":"screening-mturk","missing":false,"accuracy":1},{"contexts":["green","blue","red"],"outcomes":[0,0,0],"key":39,"choice":2,"rt":320.9999999962747,"outcome":0,"trial":73,"correct":2,"trial_type":"three-arm-trial","trial_index":89,"time_elapsed":820858,"internal_node_id":"0.0-79.0-0.0","task_version":"screening-mturk","missing":false,"accuracy":1},{"contexts":["green","blue","red"],"outcomes":[0,0,1],"key":38,"choice":1,"rt":2648.9999999757856,"outcome":0,"trial":74,"correct":2,"trial_type":"three-arm-trial","trial_index":90,"time_elapsed":824717,"internal_node_id":"0.0-80.0-0.0","task_version":"screening-mturk","missing":false,"accuracy":0},{"contexts":["green","blue","red"],"outcomes":[0,0,0],"key":38,"choice":1,"rt":176.9999999087304,"outcome":0,"trial":75,"correct":2,"trial_type":"three-arm-trial","trial_index":91,"time_elapsed":826098,"internal_node_id":"0.0-81.0-0.0","task_version":"screening-mturk","missing":false,"accuracy":0},{"contexts":["green","blue","red"],"outcomes":[0,1,1],"key":38,"choice":1,"rt":21.99999988079071,"outcome":1,"trial":76,"correct":1,"trial_type":"three-arm-trial","trial_index":92,"time_elapsed":827330,"internal_node_id":"0.0-82.0-0.0","task_version":"screening-mturk","missing":false,"accuracy":1},{"contexts":["green","blue","red"],"outcomes":[0,0,1],"key":38,"choice":1,"rt":266.9999999925494,"outcome":0,"trial":77,"correct":1,"trial_type":"three-arm-trial","trial_index":93,"time_elapsed":828805,"internal_node_id":"0.0-83.0-0.0","task_version":"screening-mturk","missing":false,"accuracy":1},{"contexts":["green","blue","red"],"outcomes":[0,1,0],"key":38,"choice":1,"rt":43.999999994412065,"outcome":1,"trial":78,"correct":1,"trial_type":"three-arm-trial","trial_index":94,"time_elapsed":830054,"internal_node_id":"0.0-84.0-0.0","task_version":"screening-mturk","missing":false,"accuracy":1},{"contexts":["green","blue","red"],"outcomes":[0,1,0],"key":38,"choice":1,"rt":40.0000000372529,"outcome":1,"trial":79,"correct":1,"trial_type":"three-arm-trial","trial_index":95,"time_elapsed":831304,"internal_node_id":"0.0-85.0-0.0","task_version":"screening-mturk","missing":false,"accuracy":1},{"contexts":["green","blue","red"],"outcomes":[1,0,0],"key":38,"choice":1,"rt":34.99999991618097,"outcome":0,"trial":80,"correct":1,"trial_type":"three-arm-trial","trial_index":96,"time_elapsed":832557,"internal_node_id":"0.0-86.0-0.0","task_version":"screening-mturk","missing":false,"accuracy":1},{"contexts":["green","blue","red"],"outcomes":[1,1,1],"key":38,"choice":1,"rt":78.00000021234155,"outcome":1,"trial":81,"correct":1,"trial_type":"three-arm-trial","trial_index":97,"time_elapsed":833839,"internal_node_id":"0.0-87.0-0.0","task_version":"screening-mturk","missing":false,"accuracy":1},{"contexts":["green","blue","red"],"outcomes":[0,1,0],"key":38,"choice":1,"rt":10.999999940395355,"outcome":1,"trial":82,"correct":1,"trial_type":"three-arm-trial","trial_index":98,"time_elapsed":835063,"internal_node_id":"0.0-88.0-0.0","task_version":"screening-mturk","missing":false,"accuracy":1},{"contexts":["green","blue","red"],"outcomes":[1,1,0],"key":38,"choice":1,"rt":147.00000011362135,"outcome":1,"trial":83,"correct":1,"trial_type":"three-arm-trial","trial_index":99,"time_elapsed":836414,"internal_node_id":"0.0-89.0-0.0","task_version":"screening-mturk","missing":false,"accuracy":1},{"contexts":["green","blue","red"],"outcomes":[1,0,0],"key":38,"choice":1,"rt":195.00000006519258,"outcome":0,"trial":84,"correct":1,"trial_type":"three-arm-trial","trial_index":100,"time_elapsed":837818,"internal_node_id":"0.0-90.0-0.0","task_version":"screening-mturk","missing":false,"accuracy":1},{"contexts":["green","blue","red"],"outcomes":[0,1,1],"key":39,"choice":2,"rt":456.00000000558794,"outcome":1,"trial":85,"correct":1,"trial_type":"three-arm-trial","trial_index":101,"time_elapsed":839479,"internal_node_id":"0.0-91.0-0.0","task_version":"screening-mturk","missing":false,"accuracy":0},{"contexts":["green","blue","red"],"outcomes":[0,1,0],"key":39,"choice":2,"rt":161.00000008009374,"outcome":0,"trial":86,"correct":1,"trial_type":"three-arm-trial","trial_index":102,"time_elapsed":840855,"internal_node_id":"0.0-92.0-0.0","task_version":"screening-mturk","missing":false,"accuracy":0},{"contexts":["green","blue","red"],"outcomes":[0,1,0],"key":39,"choice":2,"rt":84.00000003166497,"outcome":0,"trial":87,"correct":1,"trial_type":"three-arm-trial","trial_index":103,"time_elapsed":842145,"internal_node_id":"0.0-93.0-0.0","task_version":"screening-mturk","missing":false,"accuracy":0},{"contexts":["green","blue","red"],"outcomes":[1,0,0],"key":39,"choice":2,"rt":166.99999989941716,"outcome":0,"trial":88,"correct":1,"trial_type":"three-arm-trial","trial_index":104,"time_elapsed":843514,"internal_node_id":"0.0-94.0-0.0","task_version":"screening-mturk","missing":false,"accuracy":0},{"contexts":["green","blue","red"],"outcomes":[0,1,0],"key":39,"choice":2,"rt":117.00000008568168,"outcome":0,"trial":89,"correct":1,"trial_type":"three-arm-trial","trial_index":105,"time_elapsed":844836,"internal_node_id":"0.0-95.0-0.0","task_version":"screening-mturk","missing":false,"accuracy":0},{"contexts":["green","blue","red"],"outcomes":[1,1,0],"key":39,"choice":2,"rt":527.9999999329448,"outcome":0,"trial":90,"correct":1,"trial_type":"three-arm-trial","trial_index":106,"time_elapsed":846568,"internal_node_id":"0.0-96.0-0.0","task_version":"screening-mturk","missing":false,"accuracy":0},{"rt":17783.000000054017,"responses":{"age":"30","gender-categorical":"Male","gender-free-response":"","ethnicity":"Hispanic or Latino","race":["Black or African American"],"language":"Yes","fluency":"Very well","prolific":"Yes","prolific-this-study":"Yes"},"survey":"demographics","trial_type":"survey-demo","trial_index":107,"time_elapsed":864363,"internal_node_id":"0.0-97.0","task_version":"screening-mturk","interactions":"[]"}]