[{"responses":{"Q03":"0","Q01":"1","Q02":"0"},"rt":17499.94999996852,"survey":"pswq","trial_type":"survey-template","trial_index":0,"time_elapsed":17514,"internal_node_id":"0.0-0.0","task_version":"screening-mturk"},{"responses":{"Q12":"3","Q03":"3","Q11":"3","Q08":"3","Q05":"3","Q02":"3","Q10":"3","Q09":"3","Q07":"3","Q01":"3","Q14":"3","Q15":"3","Q06":"3","Q13":"3","Q04":"3"},"rt":55234.24499994144,"survey":"shaps","trial_type":"survey-template","trial_index":1,"time_elapsed":72754,"internal_node_id":"0.0-1.0","task_version":"screening-mturk"},{"responses":{"Q06":"0","Q02":"0","Q03":"1","Q05":"1","Q01":"1","Q08":"0","Q07":"1","Q04":"1"},"rt":37770.20499994978,"survey":"gad7","trial_type":"survey-template","trial_index":2,"time_elapsed":110527,"internal_node_id":"0.0-2.0","task_version":"screening-mturk"},{"responses":{"Q07":"2","Q04":"0","Q09":"0","Q06":"0","Q03":"2","Q05":"2","Q01":"2","Q12":"0","Q13":"3","Q11":"3","Q08":"3","Q10":"3","Q02":"2"},"rt":58187.38499993924,"survey":"bisbas","trial_type":"survey-template","trial_index":3,"time_elapsed":168719,"internal_node_id":"0.0-3.0","task_version":"screening-mturk"},{"responses":{"Q14":"0","Q13":"0","Q03":"0","Q09":"0","Q01":"0","Q06":"0","Q12":"0","Q11":"0","Q15":"0","Q10":"0","Q04":"0","Q08":"0","Q07":"0","Q05":"0","Q02":"0"},"rt":60609.58499996923,"survey":"7up7down","trial_type":"survey-template","trial_index":4,"time_elapsed":229334,"internal_node_id":"0.0-4.0","task_version":"screening-mturk"},{"view_history":"[{\"page_index\":0,\"viewing_time\":13339.905000058934},{\"page_index\":1,\"viewing_time\":27135.90499991551},{\"page_index\":2,\"viewing_time\":6674.3950000964105},{\"page_index\":3,\"viewing_time\":7749.539999989793},{\"page_index\":4,\"viewing_time\":10439.969999948516},{\"page_index\":5,\"viewing_time\":5894.805000047199},{\"page_index\":6,\"viewing_time\":3560.0599999306723},{\"page_index\":7,\"viewing_time\":3764.625000068918}]","rt":78559.55500004347,"trial_type":"instructions","trial_index":5,"time_elapsed":307896,"internal_node_id":"0.0-5.0-0.0","task_version":"screening-mturk"},{"responses":["True","True","True","False","False"],"num_errors":2,"rt":28583.815000019968,"trial_type":"three-arm-comprehension","trial_index":6,"time_elapsed":336483,"internal_node_id":"0.0-5.0-1.0","task_version":"screening-mturk"},{"view_history":"[{\"page_index\":0,\"viewing_time\":5234.210000024177},{\"page_index\":1,\"viewing_time\":4114.579999935813},{\"page_index\":2,\"viewing_time\":16255.140000022948},{\"page_index\":3,\"viewing_time\":3529.8200000543147},{\"page_index\":4,\"viewing_time\":7319.924999959767},{\"page_index\":5,\"viewing_time\":3264.270000043325},{\"page_index\":6,\"viewing_time\":2285.109999938868},{\"page_index\":7,\"viewing_time\":1584.5449999906123}]","rt":43587.865000008605,"trial_type":"instructions","trial_index":7,"time_elapsed":380075,"internal_node_id":"0.0-5.1-0.1","task_version":"screening-mturk"},{"responses":["True","True","False","False","False"],"num_errors":1,"rt":21714.95000005234,"trial_type":"three-arm-comprehension","trial_index":8,"time_elapsed":401793,"internal_node_id":"0.0-5.1-1.1","task_version":"screening-mturk"},{"view_history":"[{\"page_index\":0,\"viewing_time\":2370.85000006482},{\"page_index\":1,\"viewing_time\":914.9399999296293},{\"page_index\":2,\"viewing_time\":1680.4500001017004},{\"page_index\":3,\"viewing_time\":1474.6899999445304},{\"page_index\":4,\"viewing_time\":775.5149999866262},{\"page_index\":5,\"viewing_time\":3820.2250000322238},{\"page_index\":4,\"viewing_time\":2969.3549999501556},{\"page_index\":5,\"viewing_time\":1059.3750000698492},{\"page_index\":6,\"viewing_time\":3820.449999999255},{\"page_index\":7,\"viewing_time\":3600.1599999144673}]","rt":22486.28000007011,"trial_type":"instructions","trial_index":9,"time_elapsed":424281,"internal_node_id":"0.0-5.2-0.2","task_version":"screening-mturk"},{"responses":["True","True","True","True","False"],"num_errors":3,"rt":10674.004999920726,"trial_type":"three-arm-comprehension","trial_index":10,"time_elapsed":434957,"internal_node_id":"0.0-5.2-1.2","task_version":"screening-mturk"},{"view_history":"[{\"page_index\":0,\"viewing_time\":1996.3650000281632},{\"page_index\":1,\"viewing_time\":849.8799999943003},{\"page_index\":2,\"viewing_time\":685.2649999782443},{\"page_index\":3,\"viewing_time\":224.4100000243634},{\"page_index\":4,\"viewing_time\":740.1850000023842},{\"page_index\":5,\"viewing_time\":660.1699999300763},{\"page_index\":6,\"viewing_time\":664.3700000131503},{\"page_index\":7,\"viewing_time\":685.1350000360981}]","rt":6506.015000049956,"trial_type":"instructions","trial_index":11,"time_elapsed":441465,"internal_node_id":"0.0-5.3-0.3","task_version":"screening-mturk"},{"responses":["True","True","False","True","False"],"num_errors":2,"rt":17260.000000009313,"trial_type":"three-arm-comprehension","trial_index":12,"time_elapsed":458728,"internal_node_id":"0.0-5.3-1.3","task_version":"screening-mturk"},{"view_history":"[{\"page_index\":0,\"viewing_time\":1765.3749999590218},{\"page_index\":1,\"viewing_time\":1229.7549999784678},{\"page_index\":2,\"viewing_time\":189.96500002685934},{\"page_index\":3,\"viewing_time\":229.82500004582107},{\"page_index\":4,\"viewing_time\":815.4299999587238},{\"page_index\":5,\"viewing_time\":889.7449999349192},{\"page_index\":6,\"viewing_time\":910.2100000018254},{\"page_index\":7,\"viewing_time\":995.3100000275299}]","rt":7025.8649999741465,"trial_type":"instructions","trial_index":13,"time_elapsed":465756,"internal_node_id":"0.0-5.4-0.4","task_version":"screening-mturk"},{"responses":["True","True","False","True","True"],"num_errors":1,"rt":9449.030000017956,"trial_type":"three-arm-comprehension","trial_index":14,"time_elapsed":475208,"internal_node_id":"0.0-5.4-1.4","task_version":"screening-mturk"},{"view_history":"[{\"page_index\":0,\"viewing_time\":1910.9199999365956},{\"page_index\":1,\"viewing_time\":805.7850000914186},{\"page_index\":2,\"viewing_time\":564.5350000122562},{\"page_index\":3,\"viewing_time\":905.0099999876693},{\"page_index\":4,\"viewing_time\":930.2949999691918},{\"page_index\":3,\"viewing_time\":4344.795000040904},{\"page_index\":4,\"viewing_time\":11654.724999913014},{\"page_index\":5,\"viewing_time\":1224.3749999906868},{\"page_index\":6,\"viewing_time\":790.0750000262633},{\"page_index\":7,\"viewing_time\":699.434999958612}]","rt":23830.364999943413,"trial_type":"instructions","trial_index":15,"time_elapsed":499040,"internal_node_id":"0.0-5.5-0.5","task_version":"screening-mturk"},{"responses":["True","False","False","True","False"],"num_errors":3,"rt":18529.740000027232,"trial_type":"three-arm-comprehension","trial_index":16,"time_elapsed":517573,"internal_node_id":"0.0-5.5-1.5","task_version":"screening-mturk"},{"view_history":"[{\"page_index\":0,\"viewing_time\":1725.5749999312684},{\"page_index\":1,\"viewing_time\":459.92000005207956},{\"page_index\":2,\"viewing_time\":195.33999997656792},{\"page_index\":3,\"viewing_time\":204.74499999545515},{\"page_index\":4,\"viewing_time\":204.83499998226762},{\"page_index\":5,\"viewing_time\":195.04999998025596},{\"page_index\":6,\"viewing_time\":260.0150000071153},{\"page_index\":7,\"viewing_time\":250.1750000519678}]","rt":3495.8999999798834,"trial_type":"instructions","trial_index":17,"time_elapsed":521072,"internal_node_id":"0.0-5.6-0.6","task_version":"screening-mturk"},{"responses":["True","True","True","True","True"],"num_errors":2,"rt":7214.1549999359995,"trial_type":"three-arm-comprehension","trial_index":18,"time_elapsed":528287,"internal_node_id":"0.0-5.6-1.6","task_version":"screening-mturk"},{"view_history":"[{\"page_index\":0,\"viewing_time\":1776.8600000999868},{\"page_index\":1,\"viewing_time\":520.0349999358878},{\"page_index\":2,\"viewing_time\":560.0049999775365},{\"page_index\":3,\"viewing_time\":654.1050000814721},{\"page_index\":4,\"viewing_time\":405.42500000447035},{\"page_index\":5,\"viewing_time\":177.86999989766628},{\"page_index\":6,\"viewing_time\":797.1400000387803},{\"page_index\":7,\"viewing_time\":850.414999993518}]","rt":5742.085000034422,"trial_type":"instructions","trial_index":19,"time_elapsed":534032,"internal_node_id":"0.0-5.7-0.7","task_version":"screening-mturk"},{"responses":["True","True","False","True","False"],"num_errors":2,"rt":17133.770000073127,"trial_type":"three-arm-comprehension","trial_index":20,"time_elapsed":551167,"internal_node_id":"0.0-5.7-1.7","task_version":"screening-mturk"},{"view_history":"[{\"page_index\":0,\"viewing_time\":1841.0150000127032},{\"page_index\":1,\"viewing_time\":594.9600000167266},{\"page_index\":2,\"viewing_time\":649.9099999200553},{\"page_index\":3,\"viewing_time\":805.2300000563264},{\"page_index\":4,\"viewing_time\":655.3449999773875},{\"page_index\":5,\"viewing_time\":664.2800000263378},{\"page_index\":6,\"viewing_time\":505.3349999943748},{\"page_index\":7,\"viewing_time\":230.08999996818602}]","rt":5946.394999977201,"trial_type":"instructions","trial_index":21,"time_elapsed":557116,"internal_node_id":"0.0-5.8-0.8","task_version":"screening-mturk"},{"responses":["False","True","False","True","False"],"num_errors":3,"rt":9379.115000017919,"trial_type":"three-arm-comprehension","trial_index":22,"time_elapsed":566497,"internal_node_id":"0.0-5.8-1.8","task_version":"screening-mturk"},{"view_history":"[{\"page_index\":0,\"viewing_time\":1695.9949999582022},{\"page_index\":1,\"viewing_time\":650.5650000181049},{\"page_index\":2,\"viewing_time\":429.74000005051494},{\"page_index\":3,\"viewing_time\":395.02499997615814},{\"page_index\":4,\"viewing_time\":749.5349999517202},{\"page_index\":5,\"viewing_time\":760.149999987334},{\"page_index\":6,\"viewing_time\":865.0599999818951},{\"page_index\":7,\"viewing_time\":749.9350000871345}]","rt":6296.265000011772,"trial_type":"instructions","trial_index":23,"time_elapsed":572796,"internal_node_id":"0.0-5.9-0.9","task_version":"screening-mturk"},{"responses":["True","True","True","True","False"],"num_errors":3,"rt":7664.5500001031905,"trial_type":"three-arm-comprehension","trial_index":24,"time_elapsed":580463,"internal_node_id":"0.0-5.9-1.9","task_version":"screening-mturk"},{"view_history":"[{\"page_index\":0,\"viewing_time\":1676.314999931492},{\"page_index\":1,\"viewing_time\":574.6900000376627},{\"page_index\":2,\"viewing_time\":354.76500005461276},{\"page_index\":3,\"viewing_time\":255.49000001046807},{\"page_index\":4,\"viewing_time\":534.6949999220669},{\"page_index\":5,\"viewing_time\":534.8800000501797},{\"page_index\":6,\"viewing_time\":645.1299999607727},{\"page_index\":7,\"viewing_time\":699.9399999622256}]","rt":5276.124999974854,"trial_type":"instructions","trial_index":25,"time_elapsed":585741,"internal_node_id":"0.0-5.10-0.10","task_version":"screening-mturk"},{"responses":["True","True","False","True","False"],"num_errors":2,"rt":10273.725000093691,"trial_type":"three-arm-comprehension","trial_index":26,"time_elapsed":596017,"internal_node_id":"0.0-5.10-1.10","task_version":"screening-mturk"},{"view_history":"[{\"page_index\":0,\"viewing_time\":1751.8350000027567},{\"page_index\":1,\"viewing_time\":224.37499999068677},{\"page_index\":2,\"viewing_time\":169.98500004410744},{\"page_index\":3,\"viewing_time\":224.65999994892627},{\"page_index\":4,\"viewing_time\":169.8399999877438},{\"page_index\":5,\"viewing_time\":135.4500000597909},{\"page_index\":6,\"viewing_time\":259.5449999207631},{\"page_index\":7,\"viewing_time\":190.47000003047287}]","rt":3126.399999950081,"trial_type":"instructions","trial_index":27,"time_elapsed":599146,"internal_node_id":"0.0-5.11-0.11","task_version":"screening-mturk"},{"responses":["False","True","True","True","False"],"num_errors":4,"rt":10588.615000015125,"trial_type":"three-arm-comprehension","trial_index":28,"time_elapsed":609736,"internal_node_id":"0.0-5.11-1.11","task_version":"screening-mturk"},{"view_history":"[{\"page_index\":0,\"viewing_time\":1594.3200000328943},{\"page_index\":1,\"viewing_time\":180.16999994870275},{\"page_index\":2,\"viewing_time\":169.8999999789521},{\"page_index\":3,\"viewing_time\":209.92000005207956},{\"page_index\":4,\"viewing_time\":210.0499999942258},{\"page_index\":5,\"viewing_time\":285.31499998643994},{\"page_index\":6,\"viewing_time\":269.93499998934567},{\"page_index\":7,\"viewing_time\":249.76000003516674}]","rt":3169.5700000273064,"trial_type":"instructions","trial_index":29,"time_elapsed":612915,"internal_node_id":"0.0-5.12-0.12","task_version":"screening-mturk"},{"responses":["True","False","False","True","False"],"num_errors":3,"rt":13309.264999930747,"trial_type":"three-arm-comprehension","trial_index":30,"time_elapsed":626227,"internal_node_id":"0.0-5.12-1.12","task_version":"screening-mturk"},{"view_history":"[{\"page_index\":0,\"viewing_time\":1705.9799999697134},{\"page_index\":1,\"viewing_time\":185.67000003531575},{\"page_index\":2,\"viewing_time\":305.23499997798353},{\"page_index\":3,\"viewing_time\":184.75000001490116},{\"page_index\":4,\"viewing_time\":805.809999932535},{\"page_index\":5,\"viewing_time\":144.05500004068017},{\"page_index\":6,\"viewing_time\":140.01999993342906},{\"page_index\":7,\"viewing_time\":89.64000002015382}]","rt":3561.3599999342114,"trial_type":"instructions","trial_index":31,"time_elapsed":629790,"internal_node_id":"0.0-5.13-0.13","task_version":"screening-mturk"},{"responses":["True","True","False","True","True"],"num_errors":1,"rt":7948.98500002455,"trial_type":"three-arm-comprehension","trial_index":32,"time_elapsed":637743,"internal_node_id":"0.0-5.13-1.13","task_version":"screening-mturk"},{"view_history":"[{\"page_index\":0,\"viewing_time\":1541.2800000049174},{\"page_index\":1,\"viewing_time\":194.85500000882894},{\"page_index\":2,\"viewing_time\":169.7149999672547},{\"page_index\":3,\"viewing_time\":280.15000000596046},{\"page_index\":4,\"viewing_time\":295.8850000286475},{\"page_index\":5,\"viewing_time\":194.4499999517575},{\"page_index\":6,\"viewing_time\":200.7799999555573},{\"page_index\":7,\"viewing_time\":194.37500007916242}]","rt":3071.6049999464303,"trial_type":"instructions","trial_index":33,"time_elapsed":640817,"internal_node_id":"0.0-5.14-0.14","task_version":"screening-mturk"},{"responses":["False","True","True","True","False"],"num_errors":4,"rt":6998.619999969378,"trial_type":"three-arm-comprehension","trial_index":34,"time_elapsed":647817,"internal_node_id":"0.0-5.14-1.14","task_version":"screening-mturk"},{"view_history":"[{\"page_index\":0,\"viewing_time\":1867.0899999560788},{\"page_index\":1,\"viewing_time\":819.9749999912456},{\"page_index\":0,\"viewing_time\":4304.579999996349},{\"page_index\":1,\"viewing_time\":7585.040000034496},{\"page_index\":2,\"viewing_time\":5085.334999952465},{\"page_index\":3,\"viewing_time\":7454.585000057705},{\"page_index\":4,\"viewing_time\":22534.24999990966},{\"page_index\":5,\"viewing_time\":3584.9350000498816},{\"page_index\":6,\"viewing_time\":3169.899999978952},{\"page_index\":7,\"viewing_time\":2305.3000000072643}]","rt":58711.19499998167,"trial_type":"instructions","trial_index":35,"time_elapsed":706531,"internal_node_id":"0.0-5.15-0.15","task_version":"screening-mturk"},{"responses":["True","False","True","True","True"],"num_errors":3,"rt":12908.734999946319,"trial_type":"three-arm-comprehension","trial_index":36,"time_elapsed":719442,"internal_node_id":"0.0-5.15-1.15","task_version":"screening-mturk"},{"view_history":"[{\"page_index\":0,\"viewing_time\":2131.5750000067055},{\"page_index\":1,\"viewing_time\":400.39000008255243},{\"page_index\":2,\"viewing_time\":329.08499997574836},{\"page_index\":3,\"viewing_time\":360.87999993469566},{\"page_index\":4,\"viewing_time\":544.6200000587851},{\"page_index\":5,\"viewing_time\":390.1299999561161},{\"page_index\":6,\"viewing_time\":335.1249999832362},{\"page_index\":7,\"viewing_time\":669.6300000185147}]","rt":5161.67000005953,"trial_type":"instructions","trial_index":37,"time_elapsed":724606,"internal_node_id":"0.0-5.16-0.16","task_version":"screening-mturk"},{"responses":["True","True","False","True","False"],"num_errors":2,"rt":12243.969999952242,"trial_type":"three-arm-comprehension","trial_index":38,"time_elapsed":736852,"internal_node_id":"0.0-5.16-1.16","task_version":"screening-mturk"},{"view_history":"[{\"page_index\":0,\"viewing_time\":1005.7500000111759},{\"page_index\":1,\"viewing_time\":339.9399999761954},{\"page_index\":2,\"viewing_time\":240.61500001698732},{\"page_index\":3,\"viewing_time\":274.7949999757111},{\"page_index\":4,\"viewing_time\":285.024999990128},{\"page_index\":5,\"viewing_time\":284.7250000340864},{\"page_index\":6,\"viewing_time\":334.8099999129772},{\"page_index\":7,\"viewing_time\":301.0350000113249}]","rt":3066.8600000208244,"trial_type":"instructions","trial_index":39,"time_elapsed":739921,"internal_node_id":"0.0-5.17-0.17","task_version":"screening-mturk"},{"responses":["True","True","False","True","True"],"num_errors":1,"rt":7823.499999940395,"trial_type":"three-arm-comprehension","trial_index":40,"time_elapsed":747747,"internal_node_id":"0.0-5.17-1.17","task_version":"screening-mturk"},{"view_history":"[{\"page_index\":0,\"viewing_time\":1056.7749999463558},{\"page_index\":1,\"viewing_time\":234.99999998603016},{\"page_index\":2,\"viewing_time\":239.53500005882233},{\"page_index\":3,\"viewing_time\":280.75000003445894},{\"page_index\":4,\"viewing_time\":459.9499999312684},{\"page_index\":5,\"viewing_time\":519.4599999813363},{\"page_index\":6,\"viewing_time\":535.0099999923259},{\"page_index\":7,\"viewing_time\":365.45000004116446}]","rt":3692.045000032522,"trial_type":"instructions","trial_index":41,"time_elapsed":751441,"internal_node_id":"0.0-5.18-0.18","task_version":"screening-mturk"},{"responses":["True","True","True","True","True"],"num_errors":2,"rt":25733.49999997299,"trial_type":"three-arm-comprehension","trial_index":42,"time_elapsed":777177,"internal_node_id":"0.0-5.18-1.18","task_version":"screening-mturk"},{"view_history":"[{\"page_index\":0,\"viewing_time\":3381.8600000813603},{\"page_index\":1,\"viewing_time\":499.3900000117719},{\"page_index\":2,\"viewing_time\":280.0849999766797},{\"page_index\":3,\"viewing_time\":455.2699999185279},{\"page_index\":4,\"viewing_time\":754.4700000435114},{\"page_index\":5,\"viewing_time\":475.1399999950081},{\"page_index\":6,\"viewing_time\":704.825000022538},{\"page_index\":7,\"viewing_time\":750.9599999757484}]","rt":7302.245000028051,"trial_type":"instructions","trial_index":43,"time_elapsed":784482,"internal_node_id":"0.0-5.19-0.19","task_version":"screening-mturk"},{"responses":["True","False","True","True","True"],"num_errors":3,"rt":11638.730000006035,"trial_type":"three-arm-comprehension","trial_index":44,"time_elapsed":796122,"internal_node_id":"0.0-5.19-1.19","task_version":"screening-mturk"},{"view_history":"[{\"page_index\":0,\"viewing_time\":1151.4099999330938},{\"page_index\":1,\"viewing_time\":259.98500001151115},{\"page_index\":2,\"viewing_time\":214.76000000257045},{\"page_index\":3,\"viewing_time\":389.86500003375113},{\"page_index\":4,\"viewing_time\":241.3400000659749},{\"page_index\":5,\"viewing_time\":238.47499990370125},{\"page_index\":6,\"viewing_time\":370.6950000487268},{\"page_index\":7,\"viewing_time\":324.54499998129904}]","rt":3191.2000000011176,"trial_type":"instructions","trial_index":45,"time_elapsed":799315,"internal_node_id":"0.0-5.20-0.20","task_version":"screening-mturk"},{"responses":["True","True","False","True","True"],"num_errors":1,"rt":6839.964999933727,"trial_type":"three-arm-comprehension","trial_index":46,"time_elapsed":806157,"internal_node_id":"0.0-5.20-1.20","task_version":"screening-mturk"},{"view_history":"[{\"page_index\":0,\"viewing_time\":1121.5399999637157},{\"page_index\":1,\"viewing_time\":404.0749999694526},{\"page_index\":2,\"viewing_time\":600.135000073351},{\"page_index\":3,\"viewing_time\":339.89499998278916},{\"page_index\":4,\"viewing_time\":650.3149999771267},{\"page_index\":5,\"viewing_time\":255.074999993667},{\"page_index\":6,\"viewing_time\":239.6500000031665},{\"page_index\":7,\"viewing_time\":509.955000015907}]","rt":4120.849999948405,"trial_type":"instructions","trial_index":47,"time_elapsed":810280,"internal_node_id":"0.0-5.21-0.21","task_version":"screening-mturk"},{"responses":["True","False","False","False","True"],"num_errors":1,"rt":10939.624999999069,"trial_type":"three-arm-comprehension","trial_index":48,"time_elapsed":821222,"internal_node_id":"0.0-5.21-1.21","task_version":"screening-mturk"},{"view_history":"[{\"page_index\":0,\"viewing_time\":981.4650000771508},{\"page_index\":1,\"viewing_time\":260.0499999243766},{\"page_index\":2,\"viewing_time\":209.5899999840185},{\"page_index\":3,\"viewing_time\":225.79000005498528},{\"page_index\":4,\"viewing_time\":248.6849999986589},{\"page_index\":5,\"viewing_time\":740.6950000440702},{\"page_index\":6,\"viewing_time\":699.519999907352},{\"page_index\":7,\"viewing_time\":690.2049999916926}]","rt":4056.2749999808148,"trial_type":"instructions","trial_index":49,"time_elapsed":825281,"internal_node_id":"0.0-5.22-0.22","task_version":"screening-mturk"},{"responses":["True","True","False","False","True"],"num_errors":0,"rt":11559.415000025183,"trial_type":"three-arm-comprehension","trial_index":50,"time_elapsed":836842,"internal_node_id":"0.0-5.22-1.22","task_version":"screening-mturk"},{"view_history":"[{\"page_index\":0,\"viewing_time\":2830.9499999741092}]","rt":2831.2150000128895,"trial_type":"instructions","trial_index":51,"time_elapsed":839675,"internal_node_id":"0.0-6.0","task_version":"screening-mturk"},{"contexts":["red","green","blue"],"outcomes":[0,0,0],"key":38,"choice":1,"rt":7333.299999940209,"outcome":0,"trial":1,"correct":0,"trial_type":"three-arm-trial","trial_index":52,"time_elapsed":848214,"internal_node_id":"0.0-7.0-0.0","task_version":"screening-mturk","missing":false,"accuracy":0},{"contexts":["red","green","blue"],"outcomes":[1,0,0],"key":39,"choice":2,"rt":803.4549999283627,"outcome":0,"trial":2,"correct":0,"trial_type":"three-arm-trial","trial_index":53,"time_elapsed":850222,"internal_node_id":"0.0-8.0-0.0","task_version":"screening-mturk","missing":false,"accuracy":0},{"contexts":["red","green","blue"],"outcomes":[1,0,0],"key":37,"choice":0,"rt":57.49999999534339,"outcome":1,"trial":3,"correct":0,"trial_type":"three-arm-trial","trial_index":54,"time_elapsed":851482,"internal_node_id":"0.0-9.0-0.0","task_version":"screening-mturk","missing":false,"accuracy":1},{"contexts":["red","green","blue"],"outcomes":[1,0,0],"key":37,"choice":0,"rt":781.9850000087172,"outcome":1,"trial":4,"correct":0,"trial_type":"three-arm-trial","trial_index":55,"time_elapsed":853466,"internal_node_id":"0.0-10.0-0.0","task_version":"screening-mturk","missing":false,"accuracy":1},{"contexts":["red","green","blue"],"outcomes":[1,0,1],"key":37,"choice":0,"rt":838.1349999690428,"outcome":1,"trial":5,"correct":0,"trial_type":"three-arm-trial","trial_index":56,"time_elapsed":855508,"internal_node_id":"0.0-11.0-0.0","task_version":"screening-mturk","missing":false,"accuracy":1},{"contexts":["red","green","blue"],"outcomes":[0,0,0],"key":37,"choice":0,"rt":1036.2449999665841,"outcome":0,"trial":6,"correct":0,"trial_type":"three-arm-trial","trial_index":57,"time_elapsed":857747,"internal_node_id":"0.0-12.0-0.0","task_version":"screening-mturk","missing":false,"accuracy":1},{"contexts":["red","green","blue"],"outcomes":[1,1,0],"key":38,"choice":1,"rt":941.9099999358878,"outcome":1,"trial":7,"correct":0,"trial_type":"three-arm-trial","trial_index":58,"time_elapsed":859892,"internal_node_id":"0.0-13.0-0.0","task_version":"screening-mturk","missing":false,"accuracy":0},{"contexts":["red","green","blue"],"outcomes":[1,0,0],"key":38,"choice":1,"rt":882.0699999341741,"outcome":0,"trial":8,"correct":0,"trial_type":"three-arm-trial","trial_index":59,"time_elapsed":861976,"internal_node_id":"0.0-14.0-0.0","task_version":"screening-mturk","missing":false,"accuracy":0},{"contexts":["red","green","blue"],"outcomes":[1,0,0],"key":37,"choice":0,"rt":717.2899999422953,"outcome":1,"trial":9,"correct":0,"trial_type":"three-arm-trial","trial_index":60,"time_elapsed":863896,"internal_node_id":"0.0-15.0-0.0","task_version":"screening-mturk","missing":false,"accuracy":1},{"contexts":["red","green","blue"],"outcomes":[1,0,0],"key":39,"choice":2,"rt":836.4549999823794,"outcome":0,"trial":10,"correct":0,"trial_type":"three-arm-trial","trial_index":61,"time_elapsed":865934,"internal_node_id":"0.0-16.0-0.0","task_version":"screening-mturk","missing":false,"accuracy":0},{"contexts":["red","green","blue"],"outcomes":[1,1,0],"key":38,"choice":1,"rt":79.59500001743436,"outcome":1,"trial":11,"correct":0,"trial_type":"three-arm-trial","trial_index":62,"time_elapsed":867216,"internal_node_id":"0.0-17.0-0.0","task_version":"screening-mturk","missing":false,"accuracy":0},{"contexts":["red","green","blue"],"outcomes":[1,0,0],"key":37,"choice":0,"rt":707.384999957867,"outcome":1,"trial":12,"correct":0,"trial_type":"three-arm-trial","trial_index":63,"time_elapsed":869126,"internal_node_id":"0.0-18.0-0.0","task_version":"screening-mturk","missing":false,"accuracy":1},{"contexts":["red","green","blue"],"outcomes":[1,0,1],"key":38,"choice":1,"rt":1357.5950000667945,"outcome":0,"trial":13,"correct":0,"trial_type":"three-arm-trial","trial_index":64,"time_elapsed":871686,"internal_node_id":"0.0-19.0-0.0","task_version":"screening-mturk","missing":false,"accuracy":0},{"contexts":["red","green","blue"],"outcomes":[0,0,0],"key":39,"choice":2,"rt":613.6149999219924,"outcome":0,"trial":14,"correct":0,"trial_type":"three-arm-trial","trial_index":65,"time_elapsed":873502,"internal_node_id":"0.0-20.0-0.0","task_version":"screening-mturk","missing":false,"accuracy":0},{"contexts":["red","green","blue"],"outcomes":[1,0,1],"key":39,"choice":2,"rt":842.6300000865012,"outcome":1,"trial":15,"correct":0,"trial_type":"three-arm-trial","trial_index":66,"time_elapsed":875547,"internal_node_id":"0.0-21.0-0.0","task_version":"screening-mturk","missing":false,"accuracy":0},{"contexts":["red","green","blue"],"outcomes":[0,0,0],"key":37,"choice":0,"rt":591.5550000499934,"outcome":0,"trial":16,"correct":2,"trial_type":"three-arm-trial","trial_index":67,"time_elapsed":877342,"internal_node_id":"0.0-22.0-0.0","task_version":"screening-mturk","missing":false,"accuracy":0},{"contexts":["red","green","blue"],"outcomes":[0,1,1],"key":37,"choice":0,"rt":731.874999939464,"outcome":0,"trial":17,"correct":2,"trial_type":"three-arm-trial","trial_index":68,"time_elapsed":879278,"internal_node_id":"0.0-23.0-0.0","task_version":"screening-mturk","missing":false,"accuracy":0},{"contexts":["red","green","blue"],"outcomes":[0,0,1],"key":38,"choice":1,"rt":1161.765000084415,"outcome":0,"trial":18,"correct":2,"trial_type":"three-arm-trial","trial_index":69,"time_elapsed":881642,"internal_node_id":"0.0-24.0-0.0","task_version":"screening-mturk","missing":false,"accuracy":0},{"contexts":["red","green","blue"],"outcomes":[1,0,0],"key":38,"choice":1,"rt":313.78500000573695,"outcome":0,"trial":19,"correct":2,"trial_type":"three-arm-trial","trial_index":70,"time_elapsed":883159,"internal_node_id":"0.0-25.0-0.0","task_version":"screening-mturk","missing":false,"accuracy":0},{"contexts":["red","green","blue"],"outcomes":[0,0,1],"key":37,"choice":0,"rt":1085.8999999472871,"outcome":0,"trial":20,"correct":2,"trial_type":"three-arm-trial","trial_index":71,"time_elapsed":885447,"internal_node_id":"0.0-26.0-0.0","task_version":"screening-mturk","missing":false,"accuracy":0},{"contexts":["red","green","blue"],"outcomes":[0,0,1],"key":38,"choice":1,"rt":227.599999983795,"outcome":0,"trial":21,"correct":2,"trial_type":"three-arm-trial","trial_index":72,"time_elapsed":886877,"internal_node_id":"0.0-27.0-0.0","task_version":"screening-mturk","missing":false,"accuracy":0},{"contexts":["red","green","blue"],"outcomes":[0,0,1],"key":37,"choice":0,"rt":117.26500000804663,"outcome":0,"trial":22,"correct":2,"trial_type":"three-arm-trial","trial_index":73,"time_elapsed":888197,"internal_node_id":"0.0-28.0-0.0","task_version":"screening-mturk","missing":false,"accuracy":0},{"contexts":["red","green","blue"],"outcomes":[0,0,1],"key":39,"choice":2,"rt":677.2750000236556,"outcome":1,"trial":23,"correct":2,"trial_type":"three-arm-trial","trial_index":74,"time_elapsed":890076,"internal_node_id":"0.0-29.0-0.0","task_version":"screening-mturk","missing":false,"accuracy":1},{"contexts":["red","green","blue"],"outcomes":[0,0,1],"key":39,"choice":2,"rt":698.2749999733642,"outcome":1,"trial":24,"correct":2,"trial_type":"three-arm-trial","trial_index":75,"time_elapsed":891977,"internal_node_id":"0.0-30.0-0.0","task_version":"screening-mturk","missing":false,"accuracy":1},{"contexts":["red","green","blue"],"outcomes":[1,0,0],"key":39,"choice":2,"rt":643.735000048764,"outcome":0,"trial":25,"correct":2,"trial_type":"three-arm-trial","trial_index":76,"time_elapsed":893822,"internal_node_id":"0.0-31.0-0.0","task_version":"screening-mturk","missing":false,"accuracy":1},{"contexts":["red","green","blue"],"outcomes":[0,0,0],"key":38,"choice":1,"rt":1003.4300000406802,"outcome":0,"trial":26,"correct":2,"trial_type":"three-arm-trial","trial_index":77,"time_elapsed":896032,"internal_node_id":"0.0-32.0-0.0","task_version":"screening-mturk","missing":false,"accuracy":0},{"contexts":["red","green","blue"],"outcomes":[0,0,1],"key":37,"choice":0,"rt":1122.8050000499934,"outcome":0,"trial":27,"correct":2,"trial_type":"three-arm-trial","trial_index":78,"time_elapsed":898357,"internal_node_id":"0.0-33.0-0.0","task_version":"screening-mturk","missing":false,"accuracy":0},{"contexts":["red","green","blue"],"outcomes":[0,0,0],"key":38,"choice":1,"rt":407.60000003501773,"outcome":0,"trial":28,"correct":2,"trial_type":"three-arm-trial","trial_index":79,"time_elapsed":899967,"internal_node_id":"0.0-34.0-0.0","task_version":"screening-mturk","missing":false,"accuracy":0},{"contexts":["red","green","blue"],"outcomes":[0,0,1],"key":39,"choice":2,"rt":41.594999958761036,"outcome":1,"trial":29,"correct":2,"trial_type":"three-arm-trial","trial_index":80,"time_elapsed":901212,"internal_node_id":"0.0-35.0-0.0","task_version":"screening-mturk","missing":false,"accuracy":1},{"contexts":["red","green","blue"],"outcomes":[0,0,1],"key":39,"choice":2,"rt":627.6500000385568,"outcome":1,"trial":30,"correct":2,"trial_type":"three-arm-trial","trial_index":81,"time_elapsed":903043,"internal_node_id":"0.0-36.0-0.0","task_version":"screening-mturk","missing":false,"accuracy":1},{"contexts":["red","green","blue"],"outcomes":[0,0,0],"key":39,"choice":2,"rt":847.4350000033155,"outcome":0,"trial":31,"correct":1,"trial_type":"three-arm-trial","trial_index":82,"time_elapsed":905093,"internal_node_id":"0.0-37.0-0.0","task_version":"screening-mturk","missing":false,"accuracy":0},{"contexts":["red","green","blue"],"outcomes":[0,1,0],"key":37,"choice":0,"rt":232.34499990940094,"outcome":0,"trial":32,"correct":1,"trial_type":"three-arm-trial","trial_index":83,"time_elapsed":906527,"internal_node_id":"0.0-38.0-0.0","task_version":"screening-mturk","missing":false,"accuracy":0},{"contexts":["red","green","blue"],"outcomes":[0,1,0],"key":38,"choice":1,"rt":272.73000008426607,"outcome":1,"trial":33,"correct":1,"trial_type":"three-arm-trial","trial_index":84,"time_elapsed":908002,"internal_node_id":"0.0-39.0-0.0","task_version":"screening-mturk","missing":false,"accuracy":1},{"contexts":["red","green","blue"],"outcomes":[0,1,1],"key":38,"choice":1,"rt":597.6550000486895,"outcome":1,"trial":34,"correct":1,"trial_type":"three-arm-trial","trial_index":85,"time_elapsed":909802,"internal_node_id":"0.0-40.0-0.0","task_version":"screening-mturk","missing":false,"accuracy":1},{"contexts":["red","green","blue"],"outcomes":[0,1,0],"key":38,"choice":1,"rt":647.1850000089034,"outcome":1,"trial":35,"correct":1,"trial_type":"three-arm-trial","trial_index":86,"time_elapsed":911652,"internal_node_id":"0.0-41.0-0.0","task_version":"screening-mturk","missing":false,"accuracy":1},{"contexts":["red","green","blue"],"outcomes":[0,1,0],"key":38,"choice":1,"rt":587.0250000152737,"outcome":1,"trial":36,"correct":1,"trial_type":"three-arm-trial","trial_index":87,"time_elapsed":913441,"internal_node_id":"0.0-42.0-0.0","task_version":"screening-mturk","missing":false,"accuracy":1},{"contexts":["red","green","blue"],"outcomes":[1,1,0],"key":38,"choice":1,"rt":603.2250000862405,"outcome":1,"trial":37,"correct":1,"trial_type":"three-arm-trial","trial_index":88,"time_elapsed":915246,"internal_node_id":"0.0-43.0-0.0","task_version":"screening-mturk","missing":false,"accuracy":1},{"contexts":["red","green","blue"],"outcomes":[0,1,0],"key":38,"choice":1,"rt":1237.5849999953061,"outcome":1,"trial":38,"correct":1,"trial_type":"three-arm-trial","trial_index":89,"time_elapsed":917687,"internal_node_id":"0.0-44.0-0.0","task_version":"screening-mturk","missing":false,"accuracy":1},{"contexts":["red","green","blue"],"outcomes":[0,1,0],"key":38,"choice":1,"rt":1272.9749999707565,"outcome":1,"trial":39,"correct":1,"trial_type":"three-arm-trial","trial_index":90,"time_elapsed":920162,"internal_node_id":"0.0-45.0-0.0","task_version":"screening-mturk","missing":false,"accuracy":1},{"contexts":["red","green","blue"],"outcomes":[0,0,0],"key":38,"choice":1,"rt":268.4700000099838,"outcome":0,"trial":40,"correct":1,"trial_type":"three-arm-trial","trial_index":91,"time_elapsed":921632,"internal_node_id":"0.0-46.0-0.0","task_version":"screening-mturk","missing":false,"accuracy":1},{"contexts":["red","green","blue"],"outcomes":[0,0,1],"key":37,"choice":0,"rt":16.844999976456165,"outcome":0,"trial":41,"correct":1,"trial_type":"three-arm-trial","trial_index":92,"time_elapsed":922852,"internal_node_id":"0.0-47.0-0.0","task_version":"screening-mturk","missing":false,"accuracy":0},{"contexts":["red","green","blue"],"outcomes":[1,1,1],"key":39,"choice":2,"rt":501.1200000299141,"outcome":1,"trial":42,"correct":1,"trial_type":"three-arm-trial","trial_index":93,"time_elapsed":924556,"internal_node_id":"0.0-48.0-0.0","task_version":"screening-mturk","missing":false,"accuracy":0},{"contexts":["red","green","blue"],"outcomes":[0,1,1],"key":38,"choice":1,"rt":518.1099999463186,"outcome":1,"trial":43,"correct":1,"trial_type":"three-arm-trial","trial_index":94,"time_elapsed":926276,"internal_node_id":"0.0-49.0-0.0","task_version":"screening-mturk","missing":false,"accuracy":1},{"contexts":["red","green","blue"],"outcomes":[0,0,0],"key":38,"choice":1,"rt":647.2399999620393,"outcome":0,"trial":44,"correct":1,"trial_type":"three-arm-trial","trial_index":95,"time_elapsed":928127,"internal_node_id":"0.0-50.0-0.0","task_version":"screening-mturk","missing":false,"accuracy":1},{"contexts":["red","green","blue"],"outcomes":[0,1,0],"key":37,"choice":0,"rt":752.005000016652,"outcome":0,"trial":45,"correct":1,"trial_type":"three-arm-trial","trial_index":96,"time_elapsed":930082,"internal_node_id":"0.0-51.0-0.0","task_version":"screening-mturk","missing":false,"accuracy":0},{"contexts":["red","green","blue"],"outcomes":[1,0,0],"key":39,"choice":2,"rt":137.07000005524606,"outcome":0,"trial":46,"correct":0,"trial_type":"three-arm-trial","trial_index":97,"time_elapsed":931422,"internal_node_id":"0.0-52.0-0.0","task_version":"screening-mturk","missing":false,"accuracy":0},{"contexts":["red","green","blue"],"outcomes":[1,0,0],"key":38,"choice":1,"rt":797.4349999567494,"outcome":0,"trial":47,"correct":0,"trial_type":"three-arm-trial","trial_index":98,"time_elapsed":933423,"internal_node_id":"0.0-53.0-0.0","task_version":"screening-mturk","missing":false,"accuracy":0},{"contexts":["red","green","blue"],"outcomes":[0,1,1],"key":37,"choice":0,"rt":81.57999999821186,"outcome":0,"trial":48,"correct":0,"trial_type":"three-arm-trial","trial_index":99,"time_elapsed":934707,"internal_node_id":"0.0-54.0-0.0","task_version":"screening-mturk","missing":false,"accuracy":1},{"contexts":["red","green","blue"],"outcomes":[1,0,0],"key":39,"choice":2,"rt":12.500000069849193,"outcome":0,"trial":49,"correct":0,"trial_type":"three-arm-trial","trial_index":100,"time_elapsed":935922,"internal_node_id":"0.0-55.0-0.0","task_version":"screening-mturk","missing":false,"accuracy":0},{"contexts":["red","green","blue"],"outcomes":[0,0,0],"key":38,"choice":1,"rt":181.39000004157424,"outcome":0,"trial":50,"correct":0,"trial_type":"three-arm-trial","trial_index":101,"time_elapsed":937306,"internal_node_id":"0.0-56.0-0.0","task_version":"screening-mturk","missing":false,"accuracy":0},{"contexts":["red","green","blue"],"outcomes":[1,0,0],"key":38,"choice":1,"rt":668.1400000816211,"outcome":0,"trial":51,"correct":0,"trial_type":"three-arm-trial","trial_index":102,"time_elapsed":939177,"internal_node_id":"0.0-57.0-0.0","task_version":"screening-mturk","missing":false,"accuracy":0},{"contexts":["red","green","blue"],"outcomes":[1,1,1],"key":37,"choice":0,"rt":432.2849999880418,"outcome":1,"trial":52,"correct":0,"trial_type":"three-arm-trial","trial_index":103,"time_elapsed":940812,"internal_node_id":"0.0-58.0-0.0","task_version":"screening-mturk","missing":false,"accuracy":1},{"contexts":["red","green","blue"],"outcomes":[1,0,0],"key":37,"choice":0,"rt":207.48500002082437,"outcome":1,"trial":53,"correct":0,"trial_type":"three-arm-trial","trial_index":104,"time_elapsed":942223,"internal_node_id":"0.0-59.0-0.0","task_version":"screening-mturk","missing":false,"accuracy":1},{"contexts":["red","green","blue"],"outcomes":[1,0,0],"key":37,"choice":0,"rt":17.21499999985099,"outcome":1,"trial":54,"correct":0,"trial_type":"three-arm-trial","trial_index":105,"time_elapsed":943442,"internal_node_id":"0.0-60.0-0.0","task_version":"screening-mturk","missing":false,"accuracy":1},{"contexts":["red","green","blue"],"outcomes":[1,0,0],"key":37,"choice":0,"rt":658.0350000876933,"outcome":1,"trial":55,"correct":0,"trial_type":"three-arm-trial","trial_index":106,"time_elapsed":945302,"internal_node_id":"0.0-61.0-0.0","task_version":"screening-mturk","missing":false,"accuracy":1},{"contexts":["red","green","blue"],"outcomes":[1,1,0],"key":37,"choice":0,"rt":512.0349999051541,"outcome":1,"trial":56,"correct":0,"trial_type":"three-arm-trial","trial_index":107,"time_elapsed":947017,"internal_node_id":"0.0-62.0-0.0","task_version":"screening-mturk","missing":false,"accuracy":1},{"contexts":["red","green","blue"],"outcomes":[1,0,1],"key":37,"choice":0,"rt":172.98999999184161,"outcome":1,"trial":57,"correct":0,"trial_type":"three-arm-trial","trial_index":108,"time_elapsed":948393,"internal_node_id":"0.0-63.0-0.0","task_version":"screening-mturk","missing":false,"accuracy":1},{"contexts":["red","green","blue"],"outcomes":[1,1,0],"key":37,"choice":0,"rt":337.07999996840954,"outcome":1,"trial":58,"correct":0,"trial_type":"three-arm-trial","trial_index":109,"time_elapsed":949932,"internal_node_id":"0.0-64.0-0.0","task_version":"screening-mturk","missing":false,"accuracy":1},{"contexts":["red","green","blue"],"outcomes":[0,0,0],"key":37,"choice":0,"rt":213.19999999832362,"outcome":0,"trial":59,"correct":0,"trial_type":"three-arm-trial","trial_index":110,"time_elapsed":951347,"internal_node_id":"0.0-65.0-0.0","task_version":"screening-mturk","missing":false,"accuracy":1},{"contexts":["red","green","blue"],"outcomes":[1,0,1],"key":38,"choice":1,"rt":187.43500008713454,"outcome":0,"trial":60,"correct":0,"trial_type":"three-arm-trial","trial_index":111,"time_elapsed":952737,"internal_node_id":"0.0-66.0-0.0","task_version":"screening-mturk","missing":false,"accuracy":0},{"contexts":["red","green","blue"],"outcomes":[0,1,0],"key":39,"choice":2,"rt":281.7000000504777,"outcome":0,"trial":61,"correct":1,"trial_type":"three-arm-trial","trial_index":112,"time_elapsed":954222,"internal_node_id":"0.0-67.0-0.0","task_version":"screening-mturk","missing":false,"accuracy":0},{"contexts":["red","green","blue"],"outcomes":[1,0,1],"key":38,"choice":1,"rt":213.4500000393018,"outcome":0,"trial":62,"correct":1,"trial_type":"three-arm-trial","trial_index":113,"time_elapsed":955638,"internal_node_id":"0.0-68.0-0.0","task_version":"screening-mturk","missing":false,"accuracy":1},{"contexts":["red","green","blue"],"outcomes":[0,1,0],"key":37,"choice":0,"rt":101.52999998535961,"outcome":0,"trial":63,"correct":1,"trial_type":"three-arm-trial","trial_index":114,"time_elapsed":956942,"internal_node_id":"0.0-69.0-0.0","task_version":"screening-mturk","missing":false,"accuracy":0},{"contexts":["red","green","blue"],"outcomes":[0,0,0],"key":38,"choice":1,"rt":123.0499999364838,"outcome":0,"trial":64,"correct":1,"trial_type":"three-arm-trial","trial_index":115,"time_elapsed":958268,"internal_node_id":"0.0-70.0-0.0","task_version":"screening-mturk","missing":false,"accuracy":1},{"contexts":["red","green","blue"],"outcomes":[0,1,0],"key":39,"choice":2,"rt":31.844999990426004,"outcome":0,"trial":65,"correct":1,"trial_type":"three-arm-trial","trial_index":116,"time_elapsed":959502,"internal_node_id":"0.0-71.0-0.0","task_version":"screening-mturk","missing":false,"accuracy":0},{"contexts":["red","green","blue"],"outcomes":[1,0,0],"key":37,"choice":0,"rt":92.49499998986721,"outcome":1,"trial":66,"correct":1,"trial_type":"three-arm-trial","trial_index":117,"time_elapsed":960797,"internal_node_id":"0.0-72.0-0.0","task_version":"screening-mturk","missing":false,"accuracy":0},{"contexts":["red","green","blue"],"outcomes":[0,1,1],"key":38,"choice":1,"rt":393.9750000135973,"outcome":1,"trial":67,"correct":1,"trial_type":"three-arm-trial","trial_index":118,"time_elapsed":962394,"internal_node_id":"0.0-73.0-0.0","task_version":"screening-mturk","missing":false,"accuracy":1},{"contexts":["red","green","blue"],"outcomes":[0,1,1],"key":37,"choice":0,"rt":314.1499999910593,"outcome":0,"trial":68,"correct":1,"trial_type":"three-arm-trial","trial_index":119,"time_elapsed":963910,"internal_node_id":"0.0-74.0-0.0","task_version":"screening-mturk","missing":false,"accuracy":0},{"contexts":["red","green","blue"],"outcomes":[0,1,0],"key":38,"choice":1,"rt":474.55500008072704,"outcome":1,"trial":69,"correct":1,"trial_type":"three-arm-trial","trial_index":120,"time_elapsed":965588,"internal_node_id":"0.0-75.0-0.0","task_version":"screening-mturk","missing":false,"accuracy":1},{"contexts":["red","green","blue"],"outcomes":[0,1,0],"key":38,"choice":1,"rt":171.82999989017844,"outcome":1,"trial":70,"correct":1,"trial_type":"three-arm-trial","trial_index":121,"time_elapsed":966963,"internal_node_id":"0.0-76.0-0.0","task_version":"screening-mturk","missing":false,"accuracy":1},{"contexts":["red","green","blue"],"outcomes":[0,1,0],"key":38,"choice":1,"rt":26.264999993145466,"outcome":1,"trial":71,"correct":1,"trial_type":"three-arm-trial","trial_index":122,"time_elapsed":968192,"internal_node_id":"0.0-77.0-0.0","task_version":"screening-mturk","missing":false,"accuracy":1},{"contexts":["red","green","blue"],"outcomes":[1,1,0],"key":38,"choice":1,"rt":202.67499994952232,"outcome":1,"trial":72,"correct":1,"trial_type":"three-arm-trial","trial_index":123,"time_elapsed":969597,"internal_node_id":"0.0-78.0-0.0","task_version":"screening-mturk","missing":false,"accuracy":1},{"contexts":["red","green","blue"],"outcomes":[1,0,1],"key":38,"choice":1,"rt":97.78999991249293,"outcome":0,"trial":73,"correct":1,"trial_type":"three-arm-trial","trial_index":124,"time_elapsed":970897,"internal_node_id":"0.0-79.0-0.0","task_version":"screening-mturk","missing":false,"accuracy":1},{"contexts":["red","green","blue"],"outcomes":[1,1,1],"key":37,"choice":0,"rt":202.44000002276152,"outcome":1,"trial":74,"correct":1,"trial_type":"three-arm-trial","trial_index":125,"time_elapsed":972301,"internal_node_id":"0.0-80.0-0.0","task_version":"screening-mturk","missing":false,"accuracy":0},{"contexts":["red","green","blue"],"outcomes":[0,1,0],"key":37,"choice":0,"rt":122.9649999877438,"outcome":0,"trial":75,"correct":1,"trial_type":"three-arm-trial","trial_index":126,"time_elapsed":973626,"internal_node_id":"0.0-81.0-0.0","task_version":"screening-mturk","missing":false,"accuracy":0},{"contexts":["red","green","blue"],"outcomes":[0,1,0],"key":39,"choice":2,"rt":309.235000051558,"outcome":0,"trial":76,"correct":2,"trial_type":"three-arm-trial","trial_index":127,"time_elapsed":975138,"internal_node_id":"0.0-82.0-0.0","task_version":"screening-mturk","missing":false,"accuracy":1},{"contexts":["red","green","blue"],"outcomes":[0,0,1],"key":38,"choice":1,"rt":114.41000003833324,"outcome":0,"trial":77,"correct":2,"trial_type":"three-arm-trial","trial_index":128,"time_elapsed":976455,"internal_node_id":"0.0-83.0-0.0","task_version":"screening-mturk","missing":false,"accuracy":0},{"contexts":["red","green","blue"],"outcomes":[1,1,0],"key":37,"choice":0,"rt":163.99499995168298,"outcome":1,"trial":78,"correct":2,"trial_type":"three-arm-trial","trial_index":129,"time_elapsed":977821,"internal_node_id":"0.0-84.0-0.0","task_version":"screening-mturk","missing":false,"accuracy":0},{"contexts":["red","green","blue"],"outcomes":[0,0,1],"key":37,"choice":0,"rt":93.43999996781349,"outcome":0,"trial":79,"correct":2,"trial_type":"three-arm-trial","trial_index":130,"time_elapsed":979118,"internal_node_id":"0.0-85.0-0.0","task_version":"screening-mturk","missing":false,"accuracy":0},{"contexts":["red","green","blue"],"outcomes":[0,1,1],"key":38,"choice":1,"rt":146.58499998040497,"outcome":1,"trial":80,"correct":2,"trial_type":"three-arm-trial","trial_index":131,"time_elapsed":980466,"internal_node_id":"0.0-86.0-0.0","task_version":"screening-mturk","missing":false,"accuracy":0},{"contexts":["red","green","blue"],"outcomes":[0,0,1],"key":38,"choice":1,"rt":457.70999998785555,"outcome":0,"trial":81,"correct":2,"trial_type":"three-arm-trial","trial_index":132,"time_elapsed":982127,"internal_node_id":"0.0-87.0-0.0","task_version":"screening-mturk","missing":false,"accuracy":0},{"contexts":["red","green","blue"],"outcomes":[0,0,0],"key":39,"choice":2,"rt":52.82500002067536,"outcome":0,"trial":82,"correct":2,"trial_type":"three-arm-trial","trial_index":133,"time_elapsed":983383,"internal_node_id":"0.0-88.0-0.0","task_version":"screening-mturk","missing":false,"accuracy":1},{"contexts":["red","green","blue"],"outcomes":[0,0,1],"key":37,"choice":0,"rt":120.06500002462417,"outcome":0,"trial":83,"correct":2,"trial_type":"three-arm-trial","trial_index":134,"time_elapsed":984710,"internal_node_id":"0.0-89.0-0.0","task_version":"screening-mturk","missing":false,"accuracy":0},{"contexts":["red","green","blue"],"outcomes":[0,0,1],"key":38,"choice":1,"rt":14.575000037439167,"outcome":0,"trial":84,"correct":2,"trial_type":"three-arm-trial","trial_index":135,"time_elapsed":985926,"internal_node_id":"0.0-90.0-0.0","task_version":"screening-mturk","missing":false,"accuracy":0},{"contexts":["red","green","blue"],"outcomes":[0,0,0],"key":39,"choice":2,"rt":78.53499997872859,"outcome":0,"trial":85,"correct":2,"trial_type":"three-arm-trial","trial_index":136,"time_elapsed":987207,"internal_node_id":"0.0-91.0-0.0","task_version":"screening-mturk","missing":false,"accuracy":1},{"contexts":["red","green","blue"],"outcomes":[1,0,1],"key":38,"choice":1,"rt":1627.8450000099838,"outcome":0,"trial":86,"correct":2,"trial_type":"three-arm-trial","trial_index":137,"time_elapsed":990037,"internal_node_id":"0.0-92.0-0.0","task_version":"screening-mturk","missing":false,"accuracy":0},{"contexts":["red","green","blue"],"outcomes":[0,1,1],"key":37,"choice":0,"rt":362.6599999843165,"outcome":0,"trial":87,"correct":2,"trial_type":"three-arm-trial","trial_index":138,"time_elapsed":991602,"internal_node_id":"0.0-93.0-0.0","task_version":"screening-mturk","missing":false,"accuracy":0},{"contexts":["red","green","blue"],"outcomes":[0,0,1],"key":38,"choice":1,"rt":13.700000010430813,"outcome":0,"trial":88,"correct":2,"trial_type":"three-arm-trial","trial_index":139,"time_elapsed":992817,"internal_node_id":"0.0-94.0-0.0","task_version":"screening-mturk","missing":false,"accuracy":0},{"contexts":["red","green","blue"],"outcomes":[1,1,1],"key":39,"choice":2,"rt":149.3349999655038,"outcome":1,"trial":89,"correct":2,"trial_type":"three-arm-trial","trial_index":140,"time_elapsed":994169,"internal_node_id":"0.0-95.0-0.0","task_version":"screening-mturk","missing":false,"accuracy":1},{"contexts":["red","green","blue"],"outcomes":[0,0,0],"key":39,"choice":2,"rt":105.09499988984317,"outcome":0,"trial":90,"correct":2,"trial_type":"three-arm-trial","trial_index":141,"time_elapsed":995477,"internal_node_id":"0.0-96.0-0.0","task_version":"screening-mturk","missing":false,"accuracy":1},{"rt":31977.775000035763,"responses":{"age":"40","gender-categorical":"Female","gender-free-response":"","ethnicity":"Not Hispanic or Latino","race":["White"],"language":"Yes","fluency":"Very well","prolific":"Yes","prolific-this-study":"No"},"survey":"demographics","trial_type":"survey-demo","trial_index":142,"time_elapsed":1027460,"internal_node_id":"0.0-97.0","task_version":"screening-mturk","interactions":"[]"}]