[{"responses":{"Q13":"3","Q01":"2","Q14":"3","Q09":"2","Q03":"3","Q08":"2","Q10":"3","Q04":"3","Q12":"3","Q06":"2","Q05":"3","Q07":"2","Q11":"3","Q15":"2","Q02":"3"},"rt":9770.000000018626,"survey":"shaps","trial_type":"survey-template","trial_index":0,"time_elapsed":9786,"internal_node_id":"0.0-0.0","task_version":"screening-mturk"},{"responses":{"Q02":"3","Q04":"2","Q01":"2","Q06":"2","Q03":"3","Q05":"2","Q07":"3","Q08":"3"},"rt":6108.000000007451,"survey":"gad7","trial_type":"survey-template","trial_index":1,"time_elapsed":15901,"internal_node_id":"0.0-1.0","task_version":"screening-mturk"},{"responses":{"Q11":"3","Q10":"2","Q04":"3","Q03":"2","Q02":"3","Q12":"2","Q08":"3","Q05":"3","Q06":"2","Q01":"3","Q07":"2","Q09":"3","Q13":"3"},"rt":13014.00000002468,"survey":"bisbas","trial_type":"survey-template","trial_index":2,"time_elapsed":28916,"internal_node_id":"0.0-2.0","task_version":"screening-mturk"},{"responses":{"Q05":"3","Q04":"2","Q10":"2","Q02":"3","Q12":"2","Q06":"3","Q11":"3","Q14":"2","Q07":"3","Q09":"3","Q15":"2","Q01":"3","Q13":"2","Q08":"3","Q03":"2"},"rt":13872.999999963213,"survey":"7up7down","trial_type":"survey-template","trial_index":3,"time_elapsed":42798,"internal_node_id":"0.0-3.0","task_version":"screening-mturk"},{"responses":{"Q02":"4","Q03":"3","Q01":"4"},"rt":4500.99999998929,"survey":"pswq","trial_type":"survey-template","trial_index":4,"time_elapsed":47303,"internal_node_id":"0.0-4.0","task_version":"screening-mturk"},{"view_history":"[{\"page_index\":0,\"viewing_time\":3953.0000000377186},{\"page_index\":1,\"viewing_time\":2989.999999990687},{\"page_index\":2,\"viewing_time\":5383.999999961816},{\"page_index\":3,\"viewing_time\":1891.0000000032596},{\"page_index\":4,\"viewing_time\":675.0000000465661},{\"page_index\":3,\"viewing_time\":637.9999999771826},{\"page_index\":4,\"viewing_time\":604.9999999813735},{\"page_index\":5,\"viewing_time\":498.0000000214204},{\"page_index\":6,\"viewing_time\":625},{\"page_index\":7,\"viewing_time\":471.0000000195578}]","rt":17731.00000002887,"trial_type":"instructions","trial_index":5,"time_elapsed":65037,"internal_node_id":"0.0-5.0-0.0","task_version":"screening-mturk"},{"responses":["True","True","True","False","True"],"num_errors":1,"rt":5578.000000037719,"trial_type":"three-arm-comprehension","trial_index":6,"time_elapsed":70619,"internal_node_id":"0.0-5.0-1.0","task_version":"screening-mturk"},{"view_history":"[{\"page_index\":0,\"viewing_time\":678.0000000144355},{\"page_index\":1,\"viewing_time\":370.9999999846332},{\"page_index\":2,\"viewing_time\":241.99999996926636},{\"page_index\":3,\"viewing_time\":251.00000004749745},{\"page_index\":4,\"viewing_time\":457.9999999841675},{\"page_index\":5,\"viewing_time\":364.000000001397},{\"page_index\":6,\"viewing_time\":267.9999999818392},{\"page_index\":7,\"viewing_time\":247.00000003213063}]","rt":2880.0000000046566,"trial_type":"instructions","trial_index":7,"time_elapsed":73504,"internal_node_id":"0.0-5.1-0.1","task_version":"screening-mturk"},{"responses":["True","False","True","False","True"],"num_errors":2,"rt":4624.00000001071,"trial_type":"three-arm-comprehension","trial_index":8,"time_elapsed":78130,"internal_node_id":"0.0-5.1-1.1","task_version":"screening-mturk"},{"view_history":"[{\"page_index\":0,\"viewing_time\":1429.0000000037253},{\"page_index\":1,\"viewing_time\":1135.0000000093132},{\"page_index\":2,\"viewing_time\":312.00000003445894},{\"page_index\":3,\"viewing_time\":326.0000000009313},{\"page_index\":4,\"viewing_time\":536.9999999529682},{\"page_index\":5,\"viewing_time\":530.0000000279397},{\"page_index\":6,\"viewing_time\":364.9999999906868},{\"page_index\":7,\"viewing_time\":510.0000000093132}]","rt":5144.000000029337,"trial_type":"instructions","trial_index":9,"time_elapsed":83277,"internal_node_id":"0.0-5.2-0.2","task_version":"screening-mturk"},{"responses":["True","False","True","False","True"],"num_errors":2,"rt":7691.999999980908,"trial_type":"three-arm-comprehension","trial_index":10,"time_elapsed":90970,"internal_node_id":"0.0-5.2-1.2","task_version":"screening-mturk"},{"view_history":"[{\"page_index\":0,\"viewing_time\":1293.999999994412},{\"page_index\":1,\"viewing_time\":195.00000000698492},{\"page_index\":2,\"viewing_time\":223.99999998742715},{\"page_index\":3,\"viewing_time\":247.00000003213063},{\"page_index\":4,\"viewing_time\":469.9999999720603},{\"page_index\":5,\"viewing_time\":385.999999998603},{\"page_index\":6,\"viewing_time\":315.9999999916181},{\"page_index\":7,\"viewing_time\":320.0000000069849}]","rt":3451.999999990221,"trial_type":"instructions","trial_index":11,"time_elapsed":94425,"internal_node_id":"0.0-5.3-0.3","task_version":"screening-mturk"},{"responses":["True","False","True","True","True"],"num_errors":3,"rt":6176.000000035856,"trial_type":"three-arm-comprehension","trial_index":12,"time_elapsed":100603,"internal_node_id":"0.0-5.3-1.3","task_version":"screening-mturk"},{"view_history":"[{\"page_index\":0,\"viewing_time\":3077.000000048429},{\"page_index\":1,\"viewing_time\":229.99999998137355},{\"page_index\":2,\"viewing_time\":343.99999998277053},{\"page_index\":3,\"viewing_time\":944.0000000176951},{\"page_index\":4,\"viewing_time\":1093.9999999827705},{\"page_index\":5,\"viewing_time\":516.0000000032596},{\"page_index\":6,\"viewing_time\":416.0000000265427},{\"page_index\":7,\"viewing_time\":480.99999997066334}]","rt":7103.000000002794,"trial_type":"instructions","trial_index":13,"time_elapsed":107709,"internal_node_id":"0.0-5.4-0.4","task_version":"screening-mturk"},{"responses":["True","False","True","True","False"],"num_errors":4,"rt":8141.00000000326,"trial_type":"three-arm-comprehension","trial_index":14,"time_elapsed":115853,"internal_node_id":"0.0-5.4-1.4","task_version":"screening-mturk"},{"view_history":"[{\"page_index\":0,\"viewing_time\":3315.0000000023283},{\"page_index\":1,\"viewing_time\":288.00000000046566},{\"page_index\":2,\"viewing_time\":2882.000000041444},{\"page_index\":3,\"viewing_time\":300.99999997764826},{\"page_index\":4,\"viewing_time\":847.9999999981374},{\"page_index\":5,\"viewing_time\":293.0000000051223},{\"page_index\":6,\"viewing_time\":445.0000000069849},{\"page_index\":7,\"viewing_time\":282.00000000651926}]","rt":8654.00000003865,"trial_type":"instructions","trial_index":15,"time_elapsed":124510,"internal_node_id":"0.0-5.5-0.5","task_version":"screening-mturk"},{"responses":["True","True","True","False","True"],"num_errors":1,"rt":9849.999999976717,"trial_type":"three-arm-comprehension","trial_index":16,"time_elapsed":134362,"internal_node_id":"0.0-5.5-1.5","task_version":"screening-mturk"},{"view_history":"[{\"page_index\":0,\"viewing_time\":2749.00000001071},{\"page_index\":1,\"viewing_time\":2217.9999999934807},{\"page_index\":2,\"viewing_time\":396.99999999720603},{\"page_index\":3,\"viewing_time\":1896.0000000079162},{\"page_index\":4,\"viewing_time\":688.9999999548309},{\"page_index\":5,\"viewing_time\":565.0000000023283},{\"page_index\":6,\"viewing_time\":570.0000000069849},{\"page_index\":7,\"viewing_time\":976.0000000242144}]","rt":10059.999999997672,"trial_type":"instructions","trial_index":17,"time_elapsed":144423,"internal_node_id":"0.0-5.6-0.6","task_version":"screening-mturk"},{"responses":["False","False","False","False","False"],"num_errors":3,"rt":9587.999999988824,"trial_type":"three-arm-comprehension","trial_index":18,"time_elapsed":154014,"internal_node_id":"0.0-5.6-1.6","task_version":"screening-mturk"},{"view_history":"[{\"page_index\":0,\"viewing_time\":1519.0000000293367},{\"page_index\":1,\"viewing_time\":377.99999996786937},{\"page_index\":2,\"viewing_time\":238.0000000121072},{\"page_index\":3,\"viewing_time\":229.99999998137355},{\"page_index\":4,\"viewing_time\":520.0000000186265},{\"page_index\":5,\"viewing_time\":550.9999999776483},{\"page_index\":6,\"viewing_time\":592.000000004191},{\"page_index\":7,\"viewing_time\":1413.0000000004657}]","rt":5441.999999980908,"trial_type":"instructions","trial_index":19,"time_elapsed":159460,"internal_node_id":"0.0-5.7-0.7","task_version":"screening-mturk"},{"responses":["True","False","True","True","False"],"num_errors":4,"rt":27880.999999993946,"trial_type":"three-arm-comprehension","trial_index":20,"time_elapsed":187351,"internal_node_id":"0.0-5.7-1.7","task_version":"screening-mturk"},{"view_history":"[{\"page_index\":0,\"viewing_time\":1458.9999999734573},{\"page_index\":1,\"viewing_time\":804.0000000037253},{\"page_index\":2,\"viewing_time\":328.00000003771856},{\"page_index\":3,\"viewing_time\":777.9999999911524},{\"page_index\":4,\"viewing_time\":565.0000000023283},{\"page_index\":5,\"viewing_time\":496.99999997392297},{\"page_index\":6,\"viewing_time\":514.00000002468},{\"page_index\":7,\"viewing_time\":523.9999999757856}]","rt":5468.9999999827705,"trial_type":"instructions","trial_index":21,"time_elapsed":192823,"internal_node_id":"0.0-5.8-0.8","task_version":"screening-mturk"},{"responses":["False","False","True","False","False"],"num_errors":4,"rt":6992.000000027474,"trial_type":"three-arm-comprehension","trial_index":22,"time_elapsed":199816,"internal_node_id":"0.0-5.8-1.8","task_version":"screening-mturk"},{"view_history":"[{\"page_index\":0,\"viewing_time\":1819.0000000176951},{\"page_index\":1,\"viewing_time\":210.9999999520369},{\"page_index\":2,\"viewing_time\":203.00000003771856},{\"page_index\":3,\"viewing_time\":207.99999998416752},{\"page_index\":4,\"viewing_time\":570.0000000069849},{\"page_index\":5,\"viewing_time\":482.0000000181608},{\"page_index\":6,\"viewing_time\":458.9999999734573},{\"page_index\":7,\"viewing_time\":451.9999999902211}]","rt":4404.999999969732,"trial_type":"instructions","trial_index":23,"time_elapsed":204221,"internal_node_id":"0.0-5.9-0.9","task_version":"screening-mturk"},{"responses":["True","False","True","True","True"],"num_errors":3,"rt":25041.999999957625,"trial_type":"three-arm-comprehension","trial_index":24,"time_elapsed":229264,"internal_node_id":"0.0-5.9-1.9","task_version":"screening-mturk"},{"view_history":"[{\"page_index\":0,\"viewing_time\":3989.000000001397},{\"page_index\":1,\"viewing_time\":4832.9999999841675},{\"page_index\":2,\"viewing_time\":2904.00000003865},{\"page_index\":3,\"viewing_time\":4590.9999999566935},{\"page_index\":4,\"viewing_time\":4537.000000011176},{\"page_index\":5,\"viewing_time\":2440.0000000023283},{\"page_index\":6,\"viewing_time\":2554.999999993015},{\"page_index\":7,\"viewing_time\":6677.000000025146}]","rt":32527.000000001863,"trial_type":"instructions","trial_index":25,"time_elapsed":261794,"internal_node_id":"0.0-5.10-0.10","task_version":"screening-mturk"},{"responses":["True","True","False","False","False"],"num_errors":1,"rt":16973.999999987427,"trial_type":"three-arm-comprehension","trial_index":26,"time_elapsed":278771,"internal_node_id":"0.0-5.10-1.10","task_version":"screening-mturk"},{"view_history":"[{\"page_index\":0,\"viewing_time\":3094.9999999720603},{\"page_index\":1,\"viewing_time\":5320.000000006985},{\"page_index\":2,\"viewing_time\":4938.000000023749},{\"page_index\":3,\"viewing_time\":27518.99999997113},{\"page_index\":4,\"viewing_time\":14706.999999994878},{\"page_index\":5,\"viewing_time\":18696.999999985565},{\"page_index\":6,\"viewing_time\":6016.00000000326},{\"page_index\":7,\"viewing_time\":2665.000000037253}]","rt":82956.99999999488,"trial_type":"instructions","trial_index":27,"time_elapsed":361733,"internal_node_id":"0.0-5.11-0.11","task_version":"screening-mturk"},{"responses":["True","True","True","False","True"],"num_errors":1,"rt":12111.99999996461,"trial_type":"three-arm-comprehension","trial_index":28,"time_elapsed":373847,"internal_node_id":"0.0-5.11-1.11","task_version":"screening-mturk"},{"view_history":"[{\"page_index\":0,\"viewing_time\":1788.0000000004657},{\"page_index\":1,\"viewing_time\":221.00000001955777},{\"page_index\":2,\"viewing_time\":167.00000001583248},{\"page_index\":3,\"viewing_time\":357.9999999492429},{\"page_index\":4,\"viewing_time\":548.0000000097789},{\"page_index\":5,\"viewing_time\":255.0000000046566},{\"page_index\":6,\"viewing_time\":283.99999998509884},{\"page_index\":7,\"viewing_time\":333.0000000423752}]","rt":3954.0000000270084,"trial_type":"instructions","trial_index":29,"time_elapsed":377804,"internal_node_id":"0.0-5.12-0.12","task_version":"screening-mturk"},{"responses":["False","True","True","False","True"],"num_errors":2,"rt":234163.99999998976,"trial_type":"three-arm-comprehension","trial_index":30,"time_elapsed":611973,"internal_node_id":"0.0-5.12-1.12","task_version":"screening-mturk"},{"view_history":"[{\"page_index\":0,\"viewing_time\":2010.0000000093132},{\"page_index\":1,\"viewing_time\":625.9999999892898},{\"page_index\":2,\"viewing_time\":359.99999998603016},{\"page_index\":3,\"viewing_time\":230.0000000395812},{\"page_index\":4,\"viewing_time\":280.9999999590218},{\"page_index\":5,\"viewing_time\":826.0000000009313},{\"page_index\":6,\"viewing_time\":646.0000000079162},{\"page_index\":7,\"viewing_time\":751.0000000474975}]","rt":5731.000000028871,"trial_type":"instructions","trial_index":31,"time_elapsed":617706,"internal_node_id":"0.0-5.13-0.13","task_version":"screening-mturk"},{"responses":["True","True","True","False","True"],"num_errors":1,"rt":19240.999999979977,"trial_type":"three-arm-comprehension","trial_index":32,"time_elapsed":636948,"internal_node_id":"0.0-5.13-1.13","task_version":"screening-mturk"},{"view_history":"[{\"page_index\":0,\"viewing_time\":1489.9999999906868},{\"page_index\":1,\"viewing_time\":188.00000002374873},{\"page_index\":2,\"viewing_time\":200.00000001164153},{\"page_index\":3,\"viewing_time\":184.9999999976717},{\"page_index\":4,\"viewing_time\":198.99999996414408},{\"page_index\":5,\"viewing_time\":500},{\"page_index\":6,\"viewing_time\":216.00000001490116},{\"page_index\":7,\"viewing_time\":236.0000000335276}]","rt":3214.0000000363216,"trial_type":"instructions","trial_index":33,"time_elapsed":640162,"internal_node_id":"0.0-5.14-0.14","task_version":"screening-mturk"},{"responses":["True","True","False","False","True"],"num_errors":0,"rt":72047.99999995157,"trial_type":"three-arm-comprehension","trial_index":34,"time_elapsed":712210,"internal_node_id":"0.0-5.14-1.14","task_version":"screening-mturk"},{"view_history":"[{\"page_index\":0,\"viewing_time\":16722.999999998137}]","rt":16722.999999998137,"trial_type":"instructions","trial_index":35,"time_elapsed":728937,"internal_node_id":"0.0-6.0","task_version":"screening-mturk"},{"contexts":["red","green","blue"],"outcomes":[0,0,1],"key":37,"choice":0,"rt":3840.0000000256114,"outcome":0,"trial":1,"correct":2,"trial_type":"three-arm-trial","trial_index":36,"time_elapsed":733980,"internal_node_id":"0.0-7.0-0.0","task_version":"screening-mturk","missing":false,"accuracy":0},{"contexts":["red","green","blue"],"outcomes":[0,0,1],"key":37,"choice":0,"rt":96.00000001955777,"outcome":0,"trial":2,"correct":2,"trial_type":"three-arm-trial","trial_index":37,"time_elapsed":735279,"internal_node_id":"0.0-8.0-0.0","task_version":"screening-mturk","missing":false,"accuracy":0},{"contexts":["red","green","blue"],"outcomes":[1,0,1],"key":39,"choice":2,"rt":24.000000033993274,"outcome":1,"trial":3,"correct":2,"trial_type":"three-arm-trial","trial_index":38,"time_elapsed":736504,"internal_node_id":"0.0-9.0-0.0","task_version":"screening-mturk","missing":false,"accuracy":1},{"contexts":["red","green","blue"],"outcomes":[0,0,0],"key":37,"choice":0,"rt":109.99999998603016,"outcome":0,"trial":4,"correct":2,"trial_type":"three-arm-trial","trial_index":39,"time_elapsed":737816,"internal_node_id":"0.0-10.0-0.0","task_version":"screening-mturk","missing":false,"accuracy":0},{"contexts":["red","green","blue"],"outcomes":[1,0,1],"key":39,"choice":2,"rt":211.99999999953434,"outcome":1,"trial":5,"correct":2,"trial_type":"three-arm-trial","trial_index":40,"time_elapsed":739233,"internal_node_id":"0.0-11.0-0.0","task_version":"screening-mturk","missing":false,"accuracy":1},{"contexts":["red","green","blue"],"outcomes":[1,0,0],"key":39,"choice":2,"rt":67.99999997019768,"outcome":0,"trial":6,"correct":2,"trial_type":"three-arm-trial","trial_index":41,"time_elapsed":740502,"internal_node_id":"0.0-12.0-0.0","task_version":"screening-mturk","missing":false,"accuracy":1},{"contexts":["red","green","blue"],"outcomes":[0,1,1],"key":37,"choice":0,"rt":103.00000000279397,"outcome":0,"trial":7,"correct":2,"trial_type":"three-arm-trial","trial_index":42,"time_elapsed":741806,"internal_node_id":"0.0-13.0-0.0","task_version":"screening-mturk","missing":false,"accuracy":0},{"contexts":["red","green","blue"],"outcomes":[0,0,1],"key":38,"choice":1,"rt":313.0000000237487,"outcome":0,"trial":8,"correct":2,"trial_type":"three-arm-trial","trial_index":43,"time_elapsed":743330,"internal_node_id":"0.0-14.0-0.0","task_version":"screening-mturk","missing":false,"accuracy":0},{"contexts":["red","green","blue"],"outcomes":[1,0,1],"key":37,"choice":0,"rt":1054.999999993015,"outcome":1,"trial":9,"correct":2,"trial_type":"three-arm-trial","trial_index":44,"time_elapsed":745587,"internal_node_id":"0.0-15.0-0.0","task_version":"screening-mturk","missing":false,"accuracy":0},{"contexts":["red","green","blue"],"outcomes":[0,0,0],"key":39,"choice":2,"rt":41.00000002654269,"outcome":0,"trial":10,"correct":2,"trial_type":"three-arm-trial","trial_index":45,"time_elapsed":746830,"internal_node_id":"0.0-16.0-0.0","task_version":"screening-mturk","missing":false,"accuracy":1},{"contexts":["red","green","blue"],"outcomes":[0,0,1],"key":39,"choice":2,"rt":125,"outcome":1,"trial":11,"correct":2,"trial_type":"three-arm-trial","trial_index":46,"time_elapsed":748156,"internal_node_id":"0.0-17.0-0.0","task_version":"screening-mturk","missing":false,"accuracy":1},{"contexts":["red","green","blue"],"outcomes":[0,0,1],"key":39,"choice":2,"rt":17.99999998183921,"outcome":1,"trial":12,"correct":2,"trial_type":"three-arm-trial","trial_index":47,"time_elapsed":749378,"internal_node_id":"0.0-18.0-0.0","task_version":"screening-mturk","missing":false,"accuracy":1},{"contexts":["red","green","blue"],"outcomes":[0,0,0],"key":39,"choice":2,"rt":2.999999967869371,"outcome":0,"trial":13,"correct":2,"trial_type":"three-arm-trial","trial_index":48,"time_elapsed":750585,"internal_node_id":"0.0-19.0-0.0","task_version":"screening-mturk","missing":false,"accuracy":1},{"contexts":["red","green","blue"],"outcomes":[0,0,1],"key":39,"choice":2,"rt":88.00000004703179,"outcome":1,"trial":14,"correct":2,"trial_type":"three-arm-trial","trial_index":49,"time_elapsed":751874,"internal_node_id":"0.0-20.0-0.0","task_version":"screening-mturk","missing":false,"accuracy":1},{"contexts":["red","green","blue"],"outcomes":[0,0,1],"key":39,"choice":2,"rt":120.99999998463318,"outcome":1,"trial":15,"correct":2,"trial_type":"three-arm-trial","trial_index":50,"time_elapsed":753198,"internal_node_id":"0.0-21.0-0.0","task_version":"screening-mturk","missing":false,"accuracy":1},{"contexts":["red","green","blue"],"outcomes":[0,1,0],"key":38,"choice":1,"rt":58.00000001909211,"outcome":1,"trial":16,"correct":1,"trial_type":"three-arm-trial","trial_index":51,"time_elapsed":754460,"internal_node_id":"0.0-22.0-0.0","task_version":"screening-mturk","missing":false,"accuracy":1},{"contexts":["red","green","blue"],"outcomes":[0,1,0],"key":38,"choice":1,"rt":104.00000005029142,"outcome":1,"trial":17,"correct":1,"trial_type":"three-arm-trial","trial_index":52,"time_elapsed":755767,"internal_node_id":"0.0-23.0-0.0","task_version":"screening-mturk","missing":false,"accuracy":1},{"contexts":["red","green","blue"],"outcomes":[0,1,1],"key":39,"choice":2,"rt":5.999999993946403,"outcome":1,"trial":18,"correct":1,"trial_type":"three-arm-trial","trial_index":53,"time_elapsed":756975,"internal_node_id":"0.0-24.0-0.0","task_version":"screening-mturk","missing":false,"accuracy":0},{"contexts":["red","green","blue"],"outcomes":[0,1,0],"key":37,"choice":0,"rt":87.99999998882413,"outcome":0,"trial":19,"correct":1,"trial_type":"three-arm-trial","trial_index":54,"time_elapsed":758264,"internal_node_id":"0.0-25.0-0.0","task_version":"screening-mturk","missing":false,"accuracy":0},{"contexts":["red","green","blue"],"outcomes":[0,0,1],"key":39,"choice":2,"rt":54.99999999301508,"outcome":1,"trial":20,"correct":1,"trial_type":"three-arm-trial","trial_index":55,"time_elapsed":759522,"internal_node_id":"0.0-26.0-0.0","task_version":"screening-mturk","missing":false,"accuracy":0},{"contexts":["red","green","blue"],"outcomes":[0,0,0],"key":38,"choice":1,"rt":16.00000000325963,"outcome":0,"trial":21,"correct":1,"trial_type":"three-arm-trial","trial_index":56,"time_elapsed":760740,"internal_node_id":"0.0-27.0-0.0","task_version":"screening-mturk","missing":false,"accuracy":1},{"contexts":["red","green","blue"],"outcomes":[0,1,0],"key":39,"choice":2,"rt":97.00000000884756,"outcome":0,"trial":22,"correct":1,"trial_type":"three-arm-trial","trial_index":57,"time_elapsed":762041,"internal_node_id":"0.0-28.0-0.0","task_version":"screening-mturk","missing":false,"accuracy":0},{"contexts":["red","green","blue"],"outcomes":[0,1,0],"key":38,"choice":1,"rt":16.99999999254942,"outcome":1,"trial":23,"correct":1,"trial_type":"three-arm-trial","trial_index":58,"time_elapsed":763268,"internal_node_id":"0.0-29.0-0.0","task_version":"screening-mturk","missing":false,"accuracy":1},{"contexts":["red","green","blue"],"outcomes":[0,1,0],"key":38,"choice":1,"rt":3.000000026077032,"outcome":1,"trial":24,"correct":1,"trial_type":"three-arm-trial","trial_index":59,"time_elapsed":764478,"internal_node_id":"0.0-30.0-0.0","task_version":"screening-mturk","missing":false,"accuracy":1},{"contexts":["red","green","blue"],"outcomes":[1,1,0],"key":38,"choice":1,"rt":1.9999999785795808,"outcome":1,"trial":25,"correct":1,"trial_type":"three-arm-trial","trial_index":60,"time_elapsed":765685,"internal_node_id":"0.0-31.0-0.0","task_version":"screening-mturk","missing":false,"accuracy":1},{"contexts":["red","green","blue"],"outcomes":[0,1,0],"key":37,"choice":0,"rt":0,"outcome":0,"trial":26,"correct":1,"trial_type":"three-arm-trial","trial_index":61,"time_elapsed":766887,"internal_node_id":"0.0-32.0-0.0","task_version":"screening-mturk","missing":false,"accuracy":0},{"contexts":["red","green","blue"],"outcomes":[0,0,0],"key":38,"choice":1,"rt":8.000000030733645,"outcome":0,"trial":27,"correct":1,"trial_type":"three-arm-trial","trial_index":62,"time_elapsed":768098,"internal_node_id":"0.0-33.0-0.0","task_version":"screening-mturk","missing":false,"accuracy":1},{"contexts":["red","green","blue"],"outcomes":[0,1,0],"key":38,"choice":1,"rt":90.00000002561137,"outcome":1,"trial":28,"correct":1,"trial_type":"three-arm-trial","trial_index":63,"time_elapsed":769399,"internal_node_id":"0.0-34.0-0.0","task_version":"screening-mturk","missing":false,"accuracy":1},{"contexts":["red","green","blue"],"outcomes":[0,1,0],"key":37,"choice":0,"rt":81.99999999487773,"outcome":0,"trial":29,"correct":1,"trial_type":"three-arm-trial","trial_index":64,"time_elapsed":770683,"internal_node_id":"0.0-35.0-0.0","task_version":"screening-mturk","missing":false,"accuracy":0},{"contexts":["red","green","blue"],"outcomes":[0,1,1],"key":37,"choice":0,"rt":5.999999993946403,"outcome":0,"trial":30,"correct":1,"trial_type":"three-arm-trial","trial_index":65,"time_elapsed":771893,"internal_node_id":"0.0-36.0-0.0","task_version":"screening-mturk","missing":false,"accuracy":0},{"contexts":["red","green","blue"],"outcomes":[1,0,0],"key":37,"choice":0,"rt":130.0000000046566,"outcome":1,"trial":31,"correct":0,"trial_type":"three-arm-trial","trial_index":66,"time_elapsed":773224,"internal_node_id":"0.0-37.0-0.0","task_version":"screening-mturk","missing":false,"accuracy":1},{"contexts":["red","green","blue"],"outcomes":[1,0,0],"key":39,"choice":2,"rt":27.000000001862645,"outcome":0,"trial":32,"correct":0,"trial_type":"three-arm-trial","trial_index":67,"time_elapsed":774452,"internal_node_id":"0.0-38.0-0.0","task_version":"screening-mturk","missing":false,"accuracy":0},{"contexts":["red","green","blue"],"outcomes":[1,0,0],"key":38,"choice":1,"rt":170.00000004190952,"outcome":0,"trial":33,"correct":0,"trial_type":"three-arm-trial","trial_index":68,"time_elapsed":775825,"internal_node_id":"0.0-39.0-0.0","task_version":"screening-mturk","missing":false,"accuracy":0},{"contexts":["red","green","blue"],"outcomes":[1,0,0],"key":39,"choice":2,"rt":820.9999999962747,"outcome":0,"trial":34,"correct":0,"trial_type":"three-arm-trial","trial_index":69,"time_elapsed":777850,"internal_node_id":"0.0-40.0-0.0","task_version":"screening-mturk","missing":false,"accuracy":0},{"contexts":["red","green","blue"],"outcomes":[1,1,0],"key":37,"choice":0,"rt":19.00000002933666,"outcome":1,"trial":35,"correct":0,"trial_type":"three-arm-trial","trial_index":70,"time_elapsed":779071,"internal_node_id":"0.0-41.0-0.0","task_version":"screening-mturk","missing":false,"accuracy":1},{"contexts":["red","green","blue"],"outcomes":[1,1,0],"key":37,"choice":0,"rt":85.00000002095476,"outcome":1,"trial":36,"correct":0,"trial_type":"three-arm-trial","trial_index":71,"time_elapsed":780359,"internal_node_id":"0.0-42.0-0.0","task_version":"screening-mturk","missing":false,"accuracy":1},{"contexts":["red","green","blue"],"outcomes":[1,0,0],"key":37,"choice":0,"rt":26.000000012572855,"outcome":1,"trial":37,"correct":0,"trial_type":"three-arm-trial","trial_index":72,"time_elapsed":781587,"internal_node_id":"0.0-43.0-0.0","task_version":"screening-mturk","missing":false,"accuracy":1},{"contexts":["red","green","blue"],"outcomes":[1,1,1],"key":39,"choice":2,"rt":63.000000023748726,"outcome":1,"trial":38,"correct":0,"trial_type":"three-arm-trial","trial_index":73,"time_elapsed":782851,"internal_node_id":"0.0-44.0-0.0","task_version":"screening-mturk","missing":false,"accuracy":0},{"contexts":["red","green","blue"],"outcomes":[0,0,1],"key":39,"choice":2,"rt":146.00000000791624,"outcome":1,"trial":39,"correct":0,"trial_type":"three-arm-trial","trial_index":74,"time_elapsed":784198,"internal_node_id":"0.0-45.0-0.0","task_version":"screening-mturk","missing":false,"accuracy":0},{"contexts":["red","green","blue"],"outcomes":[1,0,1],"key":37,"choice":0,"rt":66.00000004982576,"outcome":1,"trial":40,"correct":0,"trial_type":"three-arm-trial","trial_index":75,"time_elapsed":785469,"internal_node_id":"0.0-46.0-0.0","task_version":"screening-mturk","missing":false,"accuracy":1},{"contexts":["red","green","blue"],"outcomes":[1,0,0],"key":38,"choice":1,"rt":76.00000000093132,"outcome":0,"trial":41,"correct":0,"trial_type":"three-arm-trial","trial_index":76,"time_elapsed":786753,"internal_node_id":"0.0-47.0-0.0","task_version":"screening-mturk","missing":false,"accuracy":0},{"contexts":["red","green","blue"],"outcomes":[1,0,0],"key":37,"choice":0,"rt":183.99999995017424,"outcome":1,"trial":42,"correct":0,"trial_type":"three-arm-trial","trial_index":77,"time_elapsed":788139,"internal_node_id":"0.0-48.0-0.0","task_version":"screening-mturk","missing":false,"accuracy":1},{"contexts":["red","green","blue"],"outcomes":[1,0,1],"key":37,"choice":0,"rt":65.9999999916181,"outcome":1,"trial":43,"correct":0,"trial_type":"three-arm-trial","trial_index":78,"time_elapsed":789410,"internal_node_id":"0.0-49.0-0.0","task_version":"screening-mturk","missing":false,"accuracy":1},{"contexts":["red","green","blue"],"outcomes":[1,0,0],"key":38,"choice":1,"rt":95.00000003026798,"outcome":0,"trial":44,"correct":0,"trial_type":"three-arm-trial","trial_index":79,"time_elapsed":790707,"internal_node_id":"0.0-50.0-0.0","task_version":"screening-mturk","missing":false,"accuracy":0},{"contexts":["red","green","blue"],"outcomes":[1,0,0],"key":38,"choice":1,"rt":79.00000002700835,"outcome":0,"trial":45,"correct":0,"trial_type":"three-arm-trial","trial_index":80,"time_elapsed":791988,"internal_node_id":"0.0-51.0-0.0","task_version":"screening-mturk","missing":false,"accuracy":0},{"contexts":["red","green","blue"],"outcomes":[1,1,0],"key":37,"choice":0,"rt":11.999999987892807,"outcome":1,"trial":46,"correct":1,"trial_type":"three-arm-trial","trial_index":81,"time_elapsed":793230,"internal_node_id":"0.0-52.0-0.0","task_version":"screening-mturk","missing":false,"accuracy":0},{"contexts":["red","green","blue"],"outcomes":[0,1,0],"key":37,"choice":0,"rt":28.000000049360096,"outcome":0,"trial":47,"correct":1,"trial_type":"three-arm-trial","trial_index":82,"time_elapsed":794463,"internal_node_id":"0.0-53.0-0.0","task_version":"screening-mturk","missing":false,"accuracy":0},{"contexts":["red","green","blue"],"outcomes":[1,1,0],"key":39,"choice":2,"rt":37.00000001117587,"outcome":0,"trial":48,"correct":1,"trial_type":"three-arm-trial","trial_index":83,"time_elapsed":795723,"internal_node_id":"0.0-54.0-0.0","task_version":"screening-mturk","missing":false,"accuracy":0},{"contexts":["red","green","blue"],"outcomes":[0,1,1],"key":37,"choice":0,"rt":579.0000000270084,"outcome":0,"trial":49,"correct":1,"trial_type":"three-arm-trial","trial_index":84,"time_elapsed":797504,"internal_node_id":"0.0-55.0-0.0","task_version":"screening-mturk","missing":false,"accuracy":0},{"contexts":["red","green","blue"],"outcomes":[0,1,0],"key":38,"choice":1,"rt":82.99999998416752,"outcome":1,"trial":50,"correct":1,"trial_type":"three-arm-trial","trial_index":85,"time_elapsed":798789,"internal_node_id":"0.0-56.0-0.0","task_version":"screening-mturk","missing":false,"accuracy":1},{"contexts":["red","green","blue"],"outcomes":[1,1,0],"key":38,"choice":1,"rt":10.000000009313226,"outcome":1,"trial":51,"correct":1,"trial_type":"three-arm-trial","trial_index":86,"time_elapsed":800005,"internal_node_id":"0.0-57.0-0.0","task_version":"screening-mturk","missing":false,"accuracy":1},{"contexts":["red","green","blue"],"outcomes":[0,1,0],"key":39,"choice":2,"rt":122.00000003213063,"outcome":0,"trial":52,"correct":1,"trial_type":"three-arm-trial","trial_index":87,"time_elapsed":801331,"internal_node_id":"0.0-58.0-0.0","task_version":"screening-mturk","missing":false,"accuracy":0},{"contexts":["red","green","blue"],"outcomes":[0,1,1],"key":37,"choice":0,"rt":85.00000002095476,"outcome":0,"trial":53,"correct":1,"trial_type":"three-arm-trial","trial_index":88,"time_elapsed":802621,"internal_node_id":"0.0-59.0-0.0","task_version":"screening-mturk","missing":false,"accuracy":0},{"contexts":["red","green","blue"],"outcomes":[0,1,0],"key":37,"choice":0,"rt":8.000000030733645,"outcome":0,"trial":54,"correct":1,"trial_type":"three-arm-trial","trial_index":89,"time_elapsed":803835,"internal_node_id":"0.0-60.0-0.0","task_version":"screening-mturk","missing":false,"accuracy":0},{"contexts":["red","green","blue"],"outcomes":[1,0,1],"key":39,"choice":2,"rt":111.99999996460974,"outcome":1,"trial":55,"correct":1,"trial_type":"three-arm-trial","trial_index":90,"time_elapsed":805149,"internal_node_id":"0.0-61.0-0.0","task_version":"screening-mturk","missing":false,"accuracy":0},{"contexts":["red","green","blue"],"outcomes":[1,0,1],"key":38,"choice":1,"rt":87.99999998882413,"outcome":0,"trial":56,"correct":1,"trial_type":"three-arm-trial","trial_index":91,"time_elapsed":806440,"internal_node_id":"0.0-62.0-0.0","task_version":"screening-mturk","missing":false,"accuracy":1},{"contexts":["red","green","blue"],"outcomes":[0,1,0],"key":39,"choice":2,"rt":39.99999997904524,"outcome":0,"trial":57,"correct":1,"trial_type":"three-arm-trial","trial_index":92,"time_elapsed":807688,"internal_node_id":"0.0-63.0-0.0","task_version":"screening-mturk","missing":false,"accuracy":0},{"contexts":["red","green","blue"],"outcomes":[0,0,0],"key":39,"choice":2,"rt":122.99999996321276,"outcome":0,"trial":58,"correct":1,"trial_type":"three-arm-trial","trial_index":93,"time_elapsed":809013,"internal_node_id":"0.0-64.0-0.0","task_version":"screening-mturk","missing":false,"accuracy":0},{"contexts":["red","green","blue"],"outcomes":[0,1,0],"key":39,"choice":2,"rt":115.99999997997656,"outcome":0,"trial":59,"correct":1,"trial_type":"three-arm-trial","trial_index":94,"time_elapsed":810331,"internal_node_id":"0.0-65.0-0.0","task_version":"screening-mturk","missing":false,"accuracy":0},{"contexts":["red","green","blue"],"outcomes":[1,1,0],"key":37,"choice":0,"rt":197.9999999748543,"outcome":1,"trial":60,"correct":1,"trial_type":"three-arm-trial","trial_index":95,"time_elapsed":811730,"internal_node_id":"0.0-66.0-0.0","task_version":"screening-mturk","missing":false,"accuracy":0},{"contexts":["red","green","blue"],"outcomes":[0,0,0],"key":39,"choice":2,"rt":72.00000004377216,"outcome":0,"trial":61,"correct":2,"trial_type":"three-arm-trial","trial_index":96,"time_elapsed":813005,"internal_node_id":"0.0-67.0-0.0","task_version":"screening-mturk","missing":false,"accuracy":1},{"contexts":["red","green","blue"],"outcomes":[0,1,1],"key":38,"choice":1,"rt":224.99999997671694,"outcome":1,"trial":62,"correct":2,"trial_type":"three-arm-trial","trial_index":97,"time_elapsed":814436,"internal_node_id":"0.0-68.0-0.0","task_version":"screening-mturk","missing":false,"accuracy":0},{"contexts":["red","green","blue"],"outcomes":[0,0,0],"key":39,"choice":2,"rt":166.99999995762482,"outcome":0,"trial":63,"correct":2,"trial_type":"three-arm-trial","trial_index":98,"time_elapsed":815808,"internal_node_id":"0.0-69.0-0.0","task_version":"screening-mturk","missing":false,"accuracy":1},{"contexts":["red","green","blue"],"outcomes":[0,0,1],"key":39,"choice":2,"rt":38.00000000046566,"outcome":1,"trial":64,"correct":2,"trial_type":"three-arm-trial","trial_index":99,"time_elapsed":817060,"internal_node_id":"0.0-70.0-0.0","task_version":"screening-mturk","missing":false,"accuracy":1},{"contexts":["red","green","blue"],"outcomes":[0,0,0],"key":39,"choice":2,"rt":295.99999997299165,"outcome":0,"trial":65,"correct":2,"trial_type":"three-arm-trial","trial_index":100,"time_elapsed":818563,"internal_node_id":"0.0-71.0-0.0","task_version":"screening-mturk","missing":false,"accuracy":1},{"contexts":["red","green","blue"],"outcomes":[0,0,1],"key":38,"choice":1,"rt":92.99999999348074,"outcome":0,"trial":66,"correct":2,"trial_type":"three-arm-trial","trial_index":101,"time_elapsed":819862,"internal_node_id":"0.0-72.0-0.0","task_version":"screening-mturk","missing":false,"accuracy":0},{"contexts":["red","green","blue"],"outcomes":[0,1,1],"key":37,"choice":0,"rt":377.99999996786937,"outcome":0,"trial":67,"correct":2,"trial_type":"three-arm-trial","trial_index":102,"time_elapsed":821440,"internal_node_id":"0.0-73.0-0.0","task_version":"screening-mturk","missing":false,"accuracy":0},{"contexts":["red","green","blue"],"outcomes":[1,0,1],"key":37,"choice":0,"rt":336.99999999953434,"outcome":1,"trial":68,"correct":2,"trial_type":"three-arm-trial","trial_index":103,"time_elapsed":822984,"internal_node_id":"0.0-74.0-0.0","task_version":"screening-mturk","missing":false,"accuracy":0},{"contexts":["red","green","blue"],"outcomes":[0,0,1],"key":38,"choice":1,"rt":3.000000026077032,"outcome":0,"trial":69,"correct":2,"trial_type":"three-arm-trial","trial_index":104,"time_elapsed":824189,"internal_node_id":"0.0-75.0-0.0","task_version":"screening-mturk","missing":false,"accuracy":0},{"contexts":["red","green","blue"],"outcomes":[0,0,1],"key":38,"choice":1,"rt":18.999999971129,"outcome":0,"trial":70,"correct":2,"trial_type":"three-arm-trial","trial_index":105,"time_elapsed":825408,"internal_node_id":"0.0-76.0-0.0","task_version":"screening-mturk","missing":false,"accuracy":0},{"contexts":["red","green","blue"],"outcomes":[0,0,0],"key":38,"choice":1,"rt":61.000000045169145,"outcome":0,"trial":71,"correct":2,"trial_type":"three-arm-trial","trial_index":106,"time_elapsed":826671,"internal_node_id":"0.0-77.0-0.0","task_version":"screening-mturk","missing":false,"accuracy":0},{"contexts":["red","green","blue"],"outcomes":[1,1,1],"key":38,"choice":1,"rt":186.00000004516914,"outcome":1,"trial":72,"correct":2,"trial_type":"three-arm-trial","trial_index":107,"time_elapsed":828058,"internal_node_id":"0.0-78.0-0.0","task_version":"screening-mturk","missing":false,"accuracy":0},{"contexts":["red","green","blue"],"outcomes":[1,0,1],"key":37,"choice":0,"rt":380.0000000046566,"outcome":1,"trial":73,"correct":2,"trial_type":"three-arm-trial","trial_index":108,"time_elapsed":829641,"internal_node_id":"0.0-79.0-0.0","task_version":"screening-mturk","missing":false,"accuracy":0},{"contexts":["red","green","blue"],"outcomes":[1,0,0],"key":38,"choice":1,"rt":246.00000004284084,"outcome":0,"trial":74,"correct":2,"trial_type":"three-arm-trial","trial_index":109,"time_elapsed":831092,"internal_node_id":"0.0-80.0-0.0","task_version":"screening-mturk","missing":false,"accuracy":0},{"contexts":["red","green","blue"],"outcomes":[0,0,1],"key":38,"choice":1,"rt":153.99999998044223,"outcome":0,"trial":75,"correct":2,"trial_type":"three-arm-trial","trial_index":110,"time_elapsed":832451,"internal_node_id":"0.0-81.0-0.0","task_version":"screening-mturk","missing":false,"accuracy":0},{"contexts":["red","green","blue"],"outcomes":[1,1,0],"key":38,"choice":1,"rt":32.99999999580905,"outcome":1,"trial":76,"correct":1,"trial_type":"three-arm-trial","trial_index":111,"time_elapsed":833689,"internal_node_id":"0.0-82.0-0.0","task_version":"screening-mturk","missing":false,"accuracy":1},{"contexts":["red","green","blue"],"outcomes":[0,1,0],"key":38,"choice":1,"rt":5.999999993946403,"outcome":1,"trial":77,"correct":1,"trial_type":"three-arm-trial","trial_index":112,"time_elapsed":834898,"internal_node_id":"0.0-83.0-0.0","task_version":"screening-mturk","missing":false,"accuracy":1},{"contexts":["red","green","blue"],"outcomes":[0,1,1],"key":38,"choice":1,"rt":141.99999999254942,"outcome":1,"trial":78,"correct":1,"trial_type":"three-arm-trial","trial_index":113,"time_elapsed":836244,"internal_node_id":"0.0-84.0-0.0","task_version":"screening-mturk","missing":false,"accuracy":1},{"contexts":["red","green","blue"],"outcomes":[0,1,0],"key":39,"choice":2,"rt":195.00000000698492,"outcome":0,"trial":79,"correct":1,"trial_type":"three-arm-trial","trial_index":114,"time_elapsed":837642,"internal_node_id":"0.0-85.0-0.0","task_version":"screening-mturk","missing":false,"accuracy":0},{"contexts":["red","green","blue"],"outcomes":[0,1,1],"key":38,"choice":1,"rt":125.99999998928979,"outcome":1,"trial":80,"correct":1,"trial_type":"three-arm-trial","trial_index":115,"time_elapsed":838971,"internal_node_id":"0.0-86.0-0.0","task_version":"screening-mturk","missing":false,"accuracy":1},{"contexts":["red","green","blue"],"outcomes":[0,1,0],"key":37,"choice":0,"rt":20.00000001862645,"outcome":0,"trial":81,"correct":1,"trial_type":"three-arm-trial","trial_index":116,"time_elapsed":840193,"internal_node_id":"0.0-87.0-0.0","task_version":"screening-mturk","missing":false,"accuracy":0},{"contexts":["red","green","blue"],"outcomes":[0,1,0],"key":38,"choice":1,"rt":136.9999999878928,"outcome":1,"trial":82,"correct":1,"trial_type":"three-arm-trial","trial_index":117,"time_elapsed":841532,"internal_node_id":"0.0-88.0-0.0","task_version":"screening-mturk","missing":false,"accuracy":1},{"contexts":["red","green","blue"],"outcomes":[1,1,0],"key":39,"choice":2,"rt":72.99999997485429,"outcome":0,"trial":83,"correct":1,"trial_type":"three-arm-trial","trial_index":118,"time_elapsed":842807,"internal_node_id":"0.0-89.0-0.0","task_version":"screening-mturk","missing":false,"accuracy":0},{"contexts":["red","green","blue"],"outcomes":[0,0,0],"key":39,"choice":2,"rt":161.00000002188608,"outcome":0,"trial":84,"correct":1,"trial_type":"three-arm-trial","trial_index":119,"time_elapsed":844169,"internal_node_id":"0.0-90.0-0.0","task_version":"screening-mturk","missing":false,"accuracy":0},{"contexts":["red","green","blue"],"outcomes":[0,1,0],"key":38,"choice":1,"rt":203.00000003771856,"outcome":1,"trial":85,"correct":1,"trial_type":"three-arm-trial","trial_index":120,"time_elapsed":845575,"internal_node_id":"0.0-91.0-0.0","task_version":"screening-mturk","missing":false,"accuracy":1},{"contexts":["red","green","blue"],"outcomes":[0,0,0],"key":39,"choice":2,"rt":160.0000000325963,"outcome":0,"trial":86,"correct":1,"trial_type":"three-arm-trial","trial_index":121,"time_elapsed":846938,"internal_node_id":"0.0-92.0-0.0","task_version":"screening-mturk","missing":false,"accuracy":0},{"contexts":["red","green","blue"],"outcomes":[1,1,0],"key":37,"choice":0,"rt":218.99999998277053,"outcome":1,"trial":87,"correct":1,"trial_type":"three-arm-trial","trial_index":122,"time_elapsed":848368,"internal_node_id":"0.0-93.0-0.0","task_version":"screening-mturk","missing":false,"accuracy":0},{"contexts":["red","green","blue"],"outcomes":[0,1,0],"key":38,"choice":1,"rt":114.00000000139698,"outcome":1,"trial":88,"correct":1,"trial_type":"three-arm-trial","trial_index":123,"time_elapsed":849686,"internal_node_id":"0.0-94.0-0.0","task_version":"screening-mturk","missing":false,"accuracy":1},{"contexts":["red","green","blue"],"outcomes":[1,1,0],"key":39,"choice":2,"rt":25.999999954365194,"outcome":0,"trial":89,"correct":1,"trial_type":"three-arm-trial","trial_index":124,"time_elapsed":850915,"internal_node_id":"0.0-95.0-0.0","task_version":"screening-mturk","missing":false,"accuracy":0},{"contexts":["red","green","blue"],"outcomes":[0,1,0],"key":38,"choice":1,"rt":218.99999998277053,"outcome":1,"trial":90,"correct":1,"trial_type":"three-arm-trial","trial_index":125,"time_elapsed":852336,"internal_node_id":"0.0-96.0-0.0","task_version":"screening-mturk","missing":false,"accuracy":1},{"rt":15624.00000001071,"responses":{"age":"30","gender-categorical":"Male","gender-free-response":"","ethnicity":"Hispanic or Latino","race":["Black or African American"],"language":"Yes","fluency":"Very well","prolific":"Yes","prolific-this-study":"Yes"},"survey":"demographics","trial_type":"survey-demo","trial_index":126,"time_elapsed":867964,"internal_node_id":"0.0-97.0","task_version":"screening-mturk","interactions":"[{\"event\":\"focus\",\"trial\":0,\"time\":0},{\"event\":\"blur\",\"trial\":2,\"time\":26629},{\"event\":\"focus\",\"trial\":2,\"time\":28776},{\"event\":\"focus\",\"trial\":2,\"time\":28776},{\"event\":\"blur\",\"trial\":30,\"time\":381776},{\"event\":\"focus\",\"trial\":30,\"time\":498160},{\"event\":\"blur\",\"trial\":30,\"time\":498830},{\"event\":\"focus\",\"trial\":30,\"time\":594304}]"}]