platform,subject,block,trial,correct,choice,key,rt,accuracy,outcome
mturk,02rwq76tp9lcye8vrl41llnh,1,1,2,1.0,38.0,3.809,0.0,0.0
mturk,02rwq76tp9lcye8vrl41llnh,1,2,2,2.0,39.0,0.21,1.0,1.0
mturk,02rwq76tp9lcye8vrl41llnh,1,3,2,2.0,39.0,0.494,1.0,1.0
mturk,02rwq76tp9lcye8vrl41llnh,1,4,2,2.0,39.0,2.104,1.0,1.0
mturk,02rwq76tp9lcye8vrl41llnh,1,5,2,0.0,37.0,1.329,0.0,1.0
mturk,02rwq76tp9lcye8vrl41llnh,1,6,2,1.0,38.0,1.257,0.0,0.0
mturk,02rwq76tp9lcye8vrl41llnh,1,7,2,0.0,37.0,0.23,0.0,0.0
mturk,02rwq76tp9lcye8vrl41llnh,1,8,2,2.0,39.0,0.069,1.0,1.0
mturk,02rwq76tp9lcye8vrl41llnh,1,9,2,2.0,39.0,0.813,1.0,1.0
mturk,02rwq76tp9lcye8vrl41llnh,1,10,2,2.0,39.0,0.642,1.0,1.0
mturk,02rwq76tp9lcye8vrl41llnh,1,11,2,2.0,39.0,0.532,1.0,1.0
mturk,02rwq76tp9lcye8vrl41llnh,1,12,2,2.0,39.0,0.557,1.0,0.0
mturk,02rwq76tp9lcye8vrl41llnh,1,13,2,0.0,37.0,1.101,0.0,0.0
mturk,02rwq76tp9lcye8vrl41llnh,1,14,2,1.0,38.0,0.974,0.0,0.0
mturk,02rwq76tp9lcye8vrl41llnh,1,15,2,1.0,38.0,0.681,0.0,0.0
mturk,02rwq76tp9lcye8vrl41llnh,2,16,0,2.0,39.0,0.434,0.0,1.0
mturk,02rwq76tp9lcye8vrl41llnh,2,17,0,1.0,38.0,0.61,0.0,1.0
mturk,02rwq76tp9lcye8vrl41llnh,2,18,0,2.0,39.0,0.668,0.0,1.0
mturk,02rwq76tp9lcye8vrl41llnh,2,19,0,1.0,38.0,0.41,0.0,1.0
mturk,02rwq76tp9lcye8vrl41llnh,2,20,0,1.0,38.0,0.359,0.0,0.0
mturk,02rwq76tp9lcye8vrl41llnh,2,21,0,2.0,39.0,0.051,0.0,0.0
mturk,02rwq76tp9lcye8vrl41llnh,2,22,0,1.0,38.0,0.097,0.0,0.0
mturk,02rwq76tp9lcye8vrl41llnh,2,23,0,1.0,38.0,0.24,0.0,0.0
mturk,02rwq76tp9lcye8vrl41llnh,2,24,0,0.0,37.0,0.063,1.0,1.0
mturk,02rwq76tp9lcye8vrl41llnh,2,25,0,0.0,37.0,0.306,1.0,0.0
mturk,02rwq76tp9lcye8vrl41llnh,2,26,0,1.0,38.0,0.008,0.0,0.0
mturk,02rwq76tp9lcye8vrl41llnh,2,27,0,2.0,39.0,0.157,0.0,0.0
mturk,02rwq76tp9lcye8vrl41llnh,2,28,0,1.0,38.0,1.048,0.0,1.0
mturk,02rwq76tp9lcye8vrl41llnh,2,29,0,1.0,38.0,0.677,0.0,0.0
mturk,02rwq76tp9lcye8vrl41llnh,2,30,0,1.0,38.0,0.144,0.0,0.0
mturk,02rwq76tp9lcye8vrl41llnh,3,31,2,1.0,38.0,0.472,0.0,1.0
mturk,02rwq76tp9lcye8vrl41llnh,3,32,2,1.0,38.0,0.464,0.0,0.0
mturk,02rwq76tp9lcye8vrl41llnh,3,33,2,0.0,37.0,1.01,0.0,0.0
mturk,02rwq76tp9lcye8vrl41llnh,3,34,2,2.0,39.0,1.213,1.0,1.0
mturk,02rwq76tp9lcye8vrl41llnh,3,35,2,1.0,38.0,0.961,0.0,1.0
mturk,02rwq76tp9lcye8vrl41llnh,3,36,2,2.0,39.0,0.606,1.0,0.0
mturk,02rwq76tp9lcye8vrl41llnh,3,37,2,1.0,38.0,0.274,0.0,0.0
mturk,02rwq76tp9lcye8vrl41llnh,3,38,2,2.0,39.0,0.146,1.0,1.0
mturk,02rwq76tp9lcye8vrl41llnh,3,39,2,2.0,39.0,0.409,1.0,1.0
mturk,02rwq76tp9lcye8vrl41llnh,3,40,2,0.0,37.0,1.625,0.0,1.0
mturk,02rwq76tp9lcye8vrl41llnh,3,41,2,2.0,39.0,0.8,1.0,1.0
mturk,02rwq76tp9lcye8vrl41llnh,3,42,2,1.0,38.0,2.52,0.0,0.0
mturk,02rwq76tp9lcye8vrl41llnh,3,43,2,2.0,39.0,1.088,1.0,0.0
mturk,02rwq76tp9lcye8vrl41llnh,3,44,2,0.0,37.0,0.847,0.0,1.0
mturk,02rwq76tp9lcye8vrl41llnh,3,45,2,0.0,37.0,0.623,0.0,0.0
mturk,02rwq76tp9lcye8vrl41llnh,4,46,0,1.0,38.0,0.852,0.0,0.0
mturk,02rwq76tp9lcye8vrl41llnh,4,47,0,0.0,37.0,0.771,1.0,0.0
mturk,02rwq76tp9lcye8vrl41llnh,4,48,0,2.0,39.0,0.608,0.0,0.0
mturk,02rwq76tp9lcye8vrl41llnh,4,49,0,0.0,37.0,0.55,1.0,0.0
mturk,02rwq76tp9lcye8vrl41llnh,4,50,0,2.0,39.0,0.549,0.0,0.0
mturk,02rwq76tp9lcye8vrl41llnh,4,51,0,2.0,39.0,0.657,0.0,0.0
mturk,02rwq76tp9lcye8vrl41llnh,4,52,0,1.0,38.0,0.858,0.0,1.0
mturk,02rwq76tp9lcye8vrl41llnh,4,53,0,1.0,38.0,1.345,0.0,1.0
mturk,02rwq76tp9lcye8vrl41llnh,4,54,0,1.0,38.0,0.493,0.0,0.0
mturk,02rwq76tp9lcye8vrl41llnh,4,55,0,2.0,39.0,1.027,0.0,0.0
mturk,02rwq76tp9lcye8vrl41llnh,4,56,0,1.0,38.0,0.428,0.0,0.0
mturk,02rwq76tp9lcye8vrl41llnh,4,57,0,2.0,39.0,0.795,0.0,0.0
mturk,02rwq76tp9lcye8vrl41llnh,4,58,0,1.0,38.0,0.748,0.0,1.0
mturk,02rwq76tp9lcye8vrl41llnh,4,59,0,1.0,38.0,0.328,0.0,0.0
mturk,02rwq76tp9lcye8vrl41llnh,4,60,0,0.0,37.0,0.544,1.0,1.0
mturk,02rwq76tp9lcye8vrl41llnh,5,61,2,0.0,37.0,0.261,0.0,0.0
mturk,02rwq76tp9lcye8vrl41llnh,5,62,2,1.0,38.0,0.387,0.0,0.0
mturk,02rwq76tp9lcye8vrl41llnh,5,63,2,1.0,38.0,0.686,0.0,0.0
mturk,02rwq76tp9lcye8vrl41llnh,5,64,2,2.0,39.0,0.488,1.0,0.0
mturk,02rwq76tp9lcye8vrl41llnh,5,65,2,1.0,38.0,0.425,0.0,0.0
mturk,02rwq76tp9lcye8vrl41llnh,5,66,2,2.0,39.0,0.505,1.0,1.0
mturk,02rwq76tp9lcye8vrl41llnh,5,67,2,2.0,39.0,0.296,1.0,1.0
mturk,02rwq76tp9lcye8vrl41llnh,5,68,2,2.0,39.0,0.309,1.0,1.0
mturk,02rwq76tp9lcye8vrl41llnh,5,69,2,2.0,39.0,0.702,1.0,1.0
mturk,02rwq76tp9lcye8vrl41llnh,5,70,2,2.0,39.0,0.35,1.0,0.0
mturk,02rwq76tp9lcye8vrl41llnh,5,71,2,2.0,39.0,0.425,1.0,0.0
mturk,02rwq76tp9lcye8vrl41llnh,5,72,2,2.0,39.0,0.394,1.0,0.0
mturk,02rwq76tp9lcye8vrl41llnh,5,73,2,1.0,38.0,0.231,0.0,0.0
mturk,02rwq76tp9lcye8vrl41llnh,5,74,2,2.0,39.0,0.692,1.0,1.0
mturk,02rwq76tp9lcye8vrl41llnh,5,75,2,2.0,39.0,0.282,1.0,0.0
mturk,02rwq76tp9lcye8vrl41llnh,6,76,0,2.0,39.0,0.604,0.0,0.0
mturk,02rwq76tp9lcye8vrl41llnh,6,77,0,2.0,39.0,5.352,0.0,1.0
mturk,02rwq76tp9lcye8vrl41llnh,6,78,0,2.0,39.0,0.58,0.0,1.0
mturk,02rwq76tp9lcye8vrl41llnh,6,79,0,2.0,39.0,0.629,0.0,0.0
mturk,02rwq76tp9lcye8vrl41llnh,6,80,0,1.0,38.0,0.965,0.0,0.0
mturk,02rwq76tp9lcye8vrl41llnh,6,81,0,2.0,39.0,0.365,0.0,0.0
mturk,02rwq76tp9lcye8vrl41llnh,6,82,0,0.0,37.0,0.257,1.0,1.0
mturk,02rwq76tp9lcye8vrl41llnh,6,83,0,0.0,37.0,0.503,1.0,1.0
mturk,02rwq76tp9lcye8vrl41llnh,6,84,0,0.0,37.0,0.231,1.0,1.0
mturk,02rwq76tp9lcye8vrl41llnh,6,85,0,0.0,37.0,0.756,1.0,0.0
mturk,02rwq76tp9lcye8vrl41llnh,6,86,0,2.0,39.0,0.531,0.0,0.0
mturk,02rwq76tp9lcye8vrl41llnh,6,87,0,1.0,38.0,0.392,0.0,0.0
mturk,02rwq76tp9lcye8vrl41llnh,6,88,0,2.0,39.0,0.627,0.0,0.0
mturk,02rwq76tp9lcye8vrl41llnh,6,89,0,0.0,37.0,0.477,1.0,1.0
mturk,02rwq76tp9lcye8vrl41llnh,6,90,0,0.0,37.0,0.307,1.0,1.0
mturk,0a8zkiu9rpf0mxo0h9ecdyzh,1,1,1,1.0,38.0,0.922,1.0,1.0
mturk,0a8zkiu9rpf0mxo0h9ecdyzh,1,2,1,0.0,37.0,1.045,0.0,0.0
mturk,0a8zkiu9rpf0mxo0h9ecdyzh,1,3,1,2.0,39.0,0.929,0.0,1.0
mturk,0a8zkiu9rpf0mxo0h9ecdyzh,1,4,1,1.0,38.0,0.662,1.0,1.0
mturk,0a8zkiu9rpf0mxo0h9ecdyzh,1,5,1,2.0,39.0,0.49,0.0,0.0
mturk,0a8zkiu9rpf0mxo0h9ecdyzh,1,6,1,1.0,38.0,0.402,1.0,1.0
mturk,0a8zkiu9rpf0mxo0h9ecdyzh,1,7,1,1.0,38.0,0.436,1.0,1.0
mturk,0a8zkiu9rpf0mxo0h9ecdyzh,1,8,1,1.0,38.0,0.812,1.0,1.0
mturk,0a8zkiu9rpf0mxo0h9ecdyzh,1,9,1,1.0,38.0,0.769,1.0,1.0
mturk,0a8zkiu9rpf0mxo0h9ecdyzh,1,10,1,1.0,38.0,0.661,1.0,1.0
mturk,0a8zkiu9rpf0mxo0h9ecdyzh,1,11,1,1.0,38.0,0.569,1.0,1.0
mturk,0a8zkiu9rpf0mxo0h9ecdyzh,1,12,1,1.0,38.0,0.483,1.0,1.0
mturk,0a8zkiu9rpf0mxo0h9ecdyzh,1,13,1,1.0,38.0,0.462,1.0,1.0
mturk,0a8zkiu9rpf0mxo0h9ecdyzh,1,14,1,1.0,38.0,0.347,1.0,1.0
mturk,0a8zkiu9rpf0mxo0h9ecdyzh,1,15,1,1.0,38.0,0.385,1.0,1.0
mturk,0a8zkiu9rpf0mxo0h9ecdyzh,2,16,0,1.0,38.0,0.548,0.0,0.0
mturk,0a8zkiu9rpf0mxo0h9ecdyzh,2,17,0,1.0,38.0,0.815,0.0,0.0
mturk,0a8zkiu9rpf0mxo0h9ecdyzh,2,18,0,2.0,39.0,0.291,0.0,1.0
mturk,0a8zkiu9rpf0mxo0h9ecdyzh,2,19,0,2.0,39.0,0.714,0.0,0.0
mturk,0a8zkiu9rpf0mxo0h9ecdyzh,2,20,0,0.0,37.0,0.232,1.0,1.0
mturk,0a8zkiu9rpf0mxo0h9ecdyzh,2,21,0,0.0,37.0,0.386,1.0,1.0
mturk,0a8zkiu9rpf0mxo0h9ecdyzh,2,22,0,0.0,37.0,0.471,1.0,1.0
mturk,0a8zkiu9rpf0mxo0h9ecdyzh,2,23,0,0.0,37.0,0.605,1.0,1.0
mturk,0a8zkiu9rpf0mxo0h9ecdyzh,2,24,0,0.0,37.0,0.368,1.0,1.0
mturk,0a8zkiu9rpf0mxo0h9ecdyzh,2,25,0,0.0,37.0,0.331,1.0,1.0
mturk,0a8zkiu9rpf0mxo0h9ecdyzh,2,26,0,0.0,37.0,0.333,1.0,0.0
mturk,0a8zkiu9rpf0mxo0h9ecdyzh,2,27,0,1.0,38.0,0.208,0.0,0.0
mturk,0a8zkiu9rpf0mxo0h9ecdyzh,2,28,0,2.0,39.0,0.56,0.0,0.0
mturk,0a8zkiu9rpf0mxo0h9ecdyzh,2,29,0,0.0,37.0,0.609,1.0,1.0
mturk,0a8zkiu9rpf0mxo0h9ecdyzh,2,30,0,0.0,37.0,0.45,1.0,1.0
mturk,0a8zkiu9rpf0mxo0h9ecdyzh,3,31,2,0.0,37.0,0.38,0.0,0.0
mturk,0a8zkiu9rpf0mxo0h9ecdyzh,3,32,2,1.0,38.0,0.283,0.0,0.0
mturk,0a8zkiu9rpf0mxo0h9ecdyzh,3,33,2,2.0,39.0,0.323,1.0,1.0
mturk,0a8zkiu9rpf0mxo0h9ecdyzh,3,34,2,2.0,39.0,0.322,1.0,1.0
mturk,0a8zkiu9rpf0mxo0h9ecdyzh,3,35,2,2.0,39.0,0.282,1.0,1.0
mturk,0a8zkiu9rpf0mxo0h9ecdyzh,3,36,2,2.0,39.0,0.355,1.0,1.0
mturk,0a8zkiu9rpf0mxo0h9ecdyzh,3,37,2,2.0,39.0,0.336,1.0,1.0
mturk,0a8zkiu9rpf0mxo0h9ecdyzh,3,38,2,2.0,39.0,0.033,1.0,1.0
mturk,0a8zkiu9rpf0mxo0h9ecdyzh,3,39,2,2.0,39.0,0.301,1.0,0.0
mturk,0a8zkiu9rpf0mxo0h9ecdyzh,3,40,2,0.0,37.0,0.333,0.0,1.0
mturk,0a8zkiu9rpf0mxo0h9ecdyzh,3,41,2,0.0,37.0,0.482,0.0,0.0
mturk,0a8zkiu9rpf0mxo0h9ecdyzh,3,42,2,1.0,38.0,0.38,0.0,0.0
mturk,0a8zkiu9rpf0mxo0h9ecdyzh,3,43,2,2.0,39.0,0.57,1.0,1.0
mturk,0a8zkiu9rpf0mxo0h9ecdyzh,3,44,2,2.0,39.0,0.464,1.0,1.0
mturk,0a8zkiu9rpf0mxo0h9ecdyzh,3,45,2,2.0,39.0,0.514,1.0,0.0
mturk,0a8zkiu9rpf0mxo0h9ecdyzh,4,46,0,0.0,37.0,0.38,1.0,1.0
mturk,0a8zkiu9rpf0mxo0h9ecdyzh,4,47,0,0.0,37.0,0.706,1.0,1.0
mturk,0a8zkiu9rpf0mxo0h9ecdyzh,4,48,0,0.0,37.0,0.499,1.0,1.0
mturk,0a8zkiu9rpf0mxo0h9ecdyzh,4,49,0,0.0,37.0,0.403,1.0,1.0
mturk,0a8zkiu9rpf0mxo0h9ecdyzh,4,50,0,0.0,37.0,0.971,1.0,0.0
mturk,0a8zkiu9rpf0mxo0h9ecdyzh,4,51,0,1.0,38.0,0.811,0.0,0.0
mturk,0a8zkiu9rpf0mxo0h9ecdyzh,4,52,0,2.0,39.0,0.435,0.0,0.0
mturk,0a8zkiu9rpf0mxo0h9ecdyzh,4,53,0,0.0,37.0,0.387,1.0,1.0
mturk,0a8zkiu9rpf0mxo0h9ecdyzh,4,54,0,0.0,37.0,0.682,1.0,1.0
mturk,0a8zkiu9rpf0mxo0h9ecdyzh,4,55,0,0.0,37.0,0.558,1.0,1.0
mturk,0a8zkiu9rpf0mxo0h9ecdyzh,4,56,0,0.0,37.0,0.434,1.0,1.0
mturk,0a8zkiu9rpf0mxo0h9ecdyzh,4,57,0,0.0,37.0,0.362,1.0,1.0
mturk,0a8zkiu9rpf0mxo0h9ecdyzh,4,58,0,0.0,37.0,0.868,1.0,1.0
mturk,0a8zkiu9rpf0mxo0h9ecdyzh,4,59,0,0.0,37.0,0.166,1.0,1.0
mturk,0a8zkiu9rpf0mxo0h9ecdyzh,4,60,0,0.0,37.0,0.556,1.0,1.0
mturk,0a8zkiu9rpf0mxo0h9ecdyzh,5,61,1,0.0,37.0,0.467,0.0,0.0
mturk,0a8zkiu9rpf0mxo0h9ecdyzh,5,62,1,1.0,38.0,0.248,1.0,1.0
mturk,0a8zkiu9rpf0mxo0h9ecdyzh,5,63,1,1.0,38.0,0.418,1.0,1.0
mturk,0a8zkiu9rpf0mxo0h9ecdyzh,5,64,1,1.0,38.0,1.197,1.0,1.0
mturk,0a8zkiu9rpf0mxo0h9ecdyzh,5,65,1,1.0,38.0,0.767,1.0,1.0
mturk,0a8zkiu9rpf0mxo0h9ecdyzh,5,66,1,1.0,38.0,0.58,1.0,1.0
mturk,0a8zkiu9rpf0mxo0h9ecdyzh,5,67,1,1.0,38.0,0.555,1.0,1.0
mturk,0a8zkiu9rpf0mxo0h9ecdyzh,5,68,1,1.0,38.0,0.372,1.0,1.0
mturk,0a8zkiu9rpf0mxo0h9ecdyzh,5,69,1,1.0,38.0,0.379,1.0,1.0
mturk,0a8zkiu9rpf0mxo0h9ecdyzh,5,70,1,1.0,38.0,0.427,1.0,1.0
mturk,0a8zkiu9rpf0mxo0h9ecdyzh,5,71,1,1.0,38.0,0.747,1.0,1.0
mturk,0a8zkiu9rpf0mxo0h9ecdyzh,5,72,1,1.0,38.0,0.434,1.0,1.0
mturk,0a8zkiu9rpf0mxo0h9ecdyzh,5,73,1,1.0,38.0,0.434,1.0,1.0
mturk,0a8zkiu9rpf0mxo0h9ecdyzh,5,74,1,1.0,38.0,0.405,1.0,1.0
mturk,0a8zkiu9rpf0mxo0h9ecdyzh,5,75,1,1.0,38.0,0.331,1.0,1.0
mturk,0a8zkiu9rpf0mxo0h9ecdyzh,6,76,2,1.0,38.0,0.315,0.0,1.0
mturk,0a8zkiu9rpf0mxo0h9ecdyzh,6,77,2,1.0,38.0,0.341,0.0,0.0
mturk,0a8zkiu9rpf0mxo0h9ecdyzh,6,78,2,2.0,39.0,0.061,1.0,1.0
mturk,0a8zkiu9rpf0mxo0h9ecdyzh,6,79,2,2.0,39.0,0.394,1.0,1.0
mturk,0a8zkiu9rpf0mxo0h9ecdyzh,6,80,2,2.0,39.0,0.365,1.0,0.0
mturk,0a8zkiu9rpf0mxo0h9ecdyzh,6,81,2,0.0,37.0,0.573,0.0,0.0
mturk,0a8zkiu9rpf0mxo0h9ecdyzh,6,82,2,1.0,38.0,1.095,0.0,0.0
mturk,0a8zkiu9rpf0mxo0h9ecdyzh,6,83,2,2.0,39.0,0.578,1.0,1.0
mturk,0a8zkiu9rpf0mxo0h9ecdyzh,6,84,2,2.0,39.0,0.324,1.0,1.0
mturk,0a8zkiu9rpf0mxo0h9ecdyzh,6,85,2,2.0,39.0,0.917,1.0,1.0
mturk,0a8zkiu9rpf0mxo0h9ecdyzh,6,86,2,2.0,39.0,0.693,1.0,1.0
mturk,0a8zkiu9rpf0mxo0h9ecdyzh,6,87,2,2.0,39.0,0.401,1.0,1.0
mturk,0a8zkiu9rpf0mxo0h9ecdyzh,6,88,2,2.0,39.0,3.22,1.0,1.0
mturk,0a8zkiu9rpf0mxo0h9ecdyzh,6,89,2,2.0,39.0,0.54,1.0,1.0
mturk,0a8zkiu9rpf0mxo0h9ecdyzh,6,90,2,2.0,39.0,0.611,1.0,1.0
mturk,0g4fx9g2wryeio74yzgqwpq8,1,1,2,1.0,38.0,2.022,0.0,0.0
mturk,0g4fx9g2wryeio74yzgqwpq8,1,2,2,0.0,37.0,0.555,0.0,0.0
mturk,0g4fx9g2wryeio74yzgqwpq8,1,3,2,2.0,39.0,0.3,1.0,1.0
mturk,0g4fx9g2wryeio74yzgqwpq8,1,4,2,2.0,39.0,0.373,1.0,1.0
mturk,0g4fx9g2wryeio74yzgqwpq8,1,5,2,2.0,39.0,0.292,1.0,0.0
mturk,0g4fx9g2wryeio74yzgqwpq8,1,6,2,1.0,38.0,0.245,0.0,0.0
mturk,0g4fx9g2wryeio74yzgqwpq8,1,7,2,2.0,39.0,0.085,1.0,1.0
mturk,0g4fx9g2wryeio74yzgqwpq8,1,8,2,2.0,39.0,0.3,1.0,0.0
mturk,0g4fx9g2wryeio74yzgqwpq8,1,9,2,0.0,37.0,0.11,0.0,0.0
mturk,0g4fx9g2wryeio74yzgqwpq8,1,10,2,2.0,39.0,0.02,1.0,1.0
mturk,0g4fx9g2wryeio74yzgqwpq8,1,11,2,2.0,39.0,0.3,1.0,1.0
mturk,0g4fx9g2wryeio74yzgqwpq8,1,12,2,2.0,39.0,0.525,1.0,1.0
mturk,0g4fx9g2wryeio74yzgqwpq8,1,13,2,2.0,39.0,0.309,1.0,0.0
mturk,0g4fx9g2wryeio74yzgqwpq8,1,14,2,1.0,38.0,0.158,0.0,0.0
mturk,0g4fx9g2wryeio74yzgqwpq8,1,15,2,2.0,39.0,0.044,1.0,1.0
mturk,0g4fx9g2wryeio74yzgqwpq8,2,16,0,2.0,39.0,0.309,0.0,0.0
mturk,0g4fx9g2wryeio74yzgqwpq8,2,17,0,0.0,37.0,0.253,1.0,1.0
mturk,0g4fx9g2wryeio74yzgqwpq8,2,18,0,0.0,37.0,0.093,1.0,1.0
mturk,0g4fx9g2wryeio74yzgqwpq8,2,19,0,0.0,37.0,0.309,1.0,1.0
mturk,0g4fx9g2wryeio74yzgqwpq8,2,20,0,0.0,37.0,0.365,1.0,1.0
mturk,0g4fx9g2wryeio74yzgqwpq8,2,21,0,0.0,37.0,0.364,1.0,0.0
mturk,0g4fx9g2wryeio74yzgqwpq8,2,22,0,2.0,39.0,0.309,0.0,0.0
mturk,0g4fx9g2wryeio74yzgqwpq8,2,23,0,0.0,37.0,0.11,1.0,0.0
mturk,0g4fx9g2wryeio74yzgqwpq8,2,24,0,1.0,38.0,0.005,0.0,0.0
mturk,0g4fx9g2wryeio74yzgqwpq8,2,25,0,0.0,37.0,0.323,1.0,1.0
mturk,0g4fx9g2wryeio74yzgqwpq8,2,26,0,0.0,37.0,0.284,1.0,1.0
mturk,0g4fx9g2wryeio74yzgqwpq8,2,27,0,0.0,37.0,0.317,1.0,1.0
mturk,0g4fx9g2wryeio74yzgqwpq8,2,28,0,0.0,37.0,0.364,1.0,0.0
mturk,0g4fx9g2wryeio74yzgqwpq8,2,29,0,2.0,39.0,0.349,0.0,0.0
mturk,0g4fx9g2wryeio74yzgqwpq8,2,30,0,1.0,38.0,0.396,0.0,0.0
mturk,0g4fx9g2wryeio74yzgqwpq8,3,31,1,0.0,37.0,0.105,0.0,1.0
mturk,0g4fx9g2wryeio74yzgqwpq8,3,32,1,0.0,37.0,0.193,0.0,1.0
mturk,0g4fx9g2wryeio74yzgqwpq8,3,33,1,0.0,37.0,0.182,0.0,0.0
mturk,0g4fx9g2wryeio74yzgqwpq8,3,34,1,0.0,37.0,0.278,0.0,0.0
mturk,0g4fx9g2wryeio74yzgqwpq8,3,35,1,1.0,38.0,0.014,1.0,1.0
mturk,0g4fx9g2wryeio74yzgqwpq8,3,36,1,1.0,38.0,0.277,1.0,1.0
mturk,0g4fx9g2wryeio74yzgqwpq8,3,37,1,1.0,38.0,0.278,1.0,1.0
mturk,0g4fx9g2wryeio74yzgqwpq8,3,38,1,1.0,38.0,0.277,1.0,1.0
mturk,0g4fx9g2wryeio74yzgqwpq8,3,39,1,1.0,38.0,0.237,1.0,1.0
mturk,0g4fx9g2wryeio74yzgqwpq8,3,40,1,1.0,38.0,0.244,1.0,0.0
mturk,0g4fx9g2wryeio74yzgqwpq8,3,41,1,1.0,38.0,0.269,1.0,1.0
mturk,0g4fx9g2wryeio74yzgqwpq8,3,42,1,1.0,38.0,0.134,1.0,1.0
mturk,0g4fx9g2wryeio74yzgqwpq8,3,43,1,1.0,38.0,0.325,1.0,1.0
mturk,0g4fx9g2wryeio74yzgqwpq8,3,44,1,1.0,38.0,0.205,1.0,1.0
mturk,0g4fx9g2wryeio74yzgqwpq8,3,45,1,1.0,38.0,0.126,1.0,1.0
mturk,0g4fx9g2wryeio74yzgqwpq8,4,46,2,1.0,38.0,0.292,0.0,1.0
mturk,0g4fx9g2wryeio74yzgqwpq8,4,47,2,1.0,38.0,0.213,0.0,0.0
mturk,0g4fx9g2wryeio74yzgqwpq8,4,48,2,1.0,38.0,0.245,0.0,0.0
mturk,0g4fx9g2wryeio74yzgqwpq8,4,49,2,2.0,39.0,0.035,1.0,1.0
mturk,0g4fx9g2wryeio74yzgqwpq8,4,50,2,2.0,39.0,0.158,1.0,1.0
mturk,0g4fx9g2wryeio74yzgqwpq8,4,51,2,2.0,39.0,0.149,1.0,1.0
mturk,0g4fx9g2wryeio74yzgqwpq8,4,52,2,2.0,39.0,0.26,1.0,1.0
mturk,0g4fx9g2wryeio74yzgqwpq8,4,53,2,2.0,39.0,0.214,1.0,1.0
mturk,0g4fx9g2wryeio74yzgqwpq8,4,54,2,2.0,39.0,0.292,1.0,0.0
mturk,0g4fx9g2wryeio74yzgqwpq8,4,55,2,2.0,39.0,0.237,1.0,1.0
mturk,0g4fx9g2wryeio74yzgqwpq8,4,56,2,2.0,39.0,0.165,1.0,1.0
mturk,0g4fx9g2wryeio74yzgqwpq8,4,57,2,2.0,39.0,0.22,1.0,1.0
mturk,0g4fx9g2wryeio74yzgqwpq8,4,58,2,2.0,39.0,0.054,1.0,0.0
mturk,0g4fx9g2wryeio74yzgqwpq8,4,59,2,2.0,39.0,0.172,1.0,1.0
mturk,0g4fx9g2wryeio74yzgqwpq8,4,60,2,2.0,39.0,0.124,1.0,0.0
mturk,0g4fx9g2wryeio74yzgqwpq8,5,61,0,2.0,39.0,0.062,0.0,1.0
mturk,0g4fx9g2wryeio74yzgqwpq8,5,62,0,2.0,39.0,0.269,0.0,1.0
mturk,0g4fx9g2wryeio74yzgqwpq8,5,63,0,2.0,39.0,0.11,0.0,0.0
mturk,0g4fx9g2wryeio74yzgqwpq8,5,64,0,2.0,39.0,0.22,0.0,0.0
mturk,0g4fx9g2wryeio74yzgqwpq8,5,65,0,0.0,37.0,0.029,1.0,1.0
mturk,0g4fx9g2wryeio74yzgqwpq8,5,66,0,0.0,37.0,0.373,1.0,1.0
mturk,0g4fx9g2wryeio74yzgqwpq8,5,67,0,0.0,37.0,0.181,1.0,0.0
mturk,0g4fx9g2wryeio74yzgqwpq8,5,68,0,0.0,37.0,0.187,1.0,1.0
mturk,0g4fx9g2wryeio74yzgqwpq8,5,69,0,0.0,37.0,0.07,1.0,0.0
mturk,0g4fx9g2wryeio74yzgqwpq8,5,70,0,0.0,37.0,0.156,1.0,1.0
mturk,0g4fx9g2wryeio74yzgqwpq8,5,71,0,0.0,37.0,0.181,1.0,1.0
mturk,0g4fx9g2wryeio74yzgqwpq8,5,72,0,0.0,37.0,0.046,1.0,1.0
mturk,0g4fx9g2wryeio74yzgqwpq8,5,73,0,0.0,37.0,0.19,1.0,1.0
mturk,0g4fx9g2wryeio74yzgqwpq8,5,74,0,0.0,37.0,0.214,1.0,1.0
mturk,0g4fx9g2wryeio74yzgqwpq8,5,75,0,0.0,37.0,0.236,1.0,1.0
mturk,0g4fx9g2wryeio74yzgqwpq8,6,76,1,0.0,37.0,0.385,0.0,1.0
mturk,0g4fx9g2wryeio74yzgqwpq8,6,77,1,0.0,37.0,0.201,0.0,1.0
mturk,0g4fx9g2wryeio74yzgqwpq8,6,78,1,0.0,37.0,0.229,0.0,0.0
mturk,0g4fx9g2wryeio74yzgqwpq8,6,79,1,0.0,37.0,0.126,0.0,0.0
mturk,0g4fx9g2wryeio74yzgqwpq8,6,80,1,1.0,38.0,0.003,1.0,1.0
mturk,0g4fx9g2wryeio74yzgqwpq8,6,81,1,1.0,38.0,0.205,1.0,1.0
mturk,0g4fx9g2wryeio74yzgqwpq8,6,82,1,1.0,38.0,0.18,1.0,1.0
mturk,0g4fx9g2wryeio74yzgqwpq8,6,83,1,1.0,38.0,0.037,1.0,1.0
mturk,0g4fx9g2wryeio74yzgqwpq8,6,84,1,1.0,38.0,0.077,1.0,1.0
mturk,0g4fx9g2wryeio74yzgqwpq8,6,85,1,1.0,38.0,0.222,1.0,0.0
mturk,0g4fx9g2wryeio74yzgqwpq8,6,86,1,1.0,38.0,0.077,1.0,1.0
mturk,0g4fx9g2wryeio74yzgqwpq8,6,87,1,1.0,38.0,0.116,1.0,0.0
mturk,0g4fx9g2wryeio74yzgqwpq8,6,88,1,1.0,38.0,0.222,1.0,1.0
mturk,0g4fx9g2wryeio74yzgqwpq8,6,89,1,1.0,38.0,0.116,1.0,1.0
mturk,0g4fx9g2wryeio74yzgqwpq8,6,90,1,1.0,38.0,0.439,1.0,1.0
mturk,0k1tzkzdb7dvx6z9q0nyovde,1,1,2,2.0,39.0,1.359,1.0,1.0
mturk,0k1tzkzdb7dvx6z9q0nyovde,1,2,2,2.0,39.0,0.604,1.0,1.0
mturk,0k1tzkzdb7dvx6z9q0nyovde,1,3,2,2.0,39.0,0.45,1.0,0.0
mturk,0k1tzkzdb7dvx6z9q0nyovde,1,4,2,2.0,39.0,0.349,1.0,1.0
mturk,0k1tzkzdb7dvx6z9q0nyovde,1,5,2,2.0,39.0,0.46,1.0,1.0
mturk,0k1tzkzdb7dvx6z9q0nyovde,1,6,2,2.0,39.0,0.396,1.0,1.0
mturk,0k1tzkzdb7dvx6z9q0nyovde,1,7,2,2.0,39.0,0.356,1.0,1.0
mturk,0k1tzkzdb7dvx6z9q0nyovde,1,8,2,2.0,39.0,0.372,1.0,1.0
mturk,0k1tzkzdb7dvx6z9q0nyovde,1,9,2,2.0,39.0,0.554,1.0,1.0
mturk,0k1tzkzdb7dvx6z9q0nyovde,1,10,2,2.0,39.0,0.348,1.0,1.0
mturk,0k1tzkzdb7dvx6z9q0nyovde,1,11,2,2.0,39.0,0.396,1.0,0.0
mturk,0k1tzkzdb7dvx6z9q0nyovde,1,12,2,2.0,39.0,0.261,1.0,0.0
mturk,0k1tzkzdb7dvx6z9q0nyovde,1,13,2,1.0,38.0,0.308,0.0,0.0
mturk,0k1tzkzdb7dvx6z9q0nyovde,1,14,2,0.0,37.0,0.228,0.0,0.0
mturk,0k1tzkzdb7dvx6z9q0nyovde,1,15,2,2.0,39.0,0.26,1.0,1.0
mturk,0k1tzkzdb7dvx6z9q0nyovde,2,16,0,2.0,39.0,0.308,0.0,1.0
mturk,0k1tzkzdb7dvx6z9q0nyovde,2,17,0,2.0,39.0,0.284,0.0,0.0
mturk,0k1tzkzdb7dvx6z9q0nyovde,2,18,0,2.0,39.0,0.243,0.0,0.0
mturk,0k1tzkzdb7dvx6z9q0nyovde,2,19,0,2.0,39.0,0.228,0.0,0.0
mturk,0k1tzkzdb7dvx6z9q0nyovde,2,20,0,1.0,38.0,0.276,0.0,0.0
mturk,0k1tzkzdb7dvx6z9q0nyovde,2,21,0,0.0,37.0,0.243,1.0,1.0
mturk,0k1tzkzdb7dvx6z9q0nyovde,2,22,0,0.0,37.0,0.252,1.0,1.0
mturk,0k1tzkzdb7dvx6z9q0nyovde,2,23,0,0.0,37.0,0.292,1.0,1.0
mturk,0k1tzkzdb7dvx6z9q0nyovde,2,24,0,0.0,37.0,0.292,1.0,0.0
mturk,0k1tzkzdb7dvx6z9q0nyovde,2,25,0,0.0,37.0,0.292,1.0,1.0
mturk,0k1tzkzdb7dvx6z9q0nyovde,2,26,0,0.0,37.0,0.284,1.0,0.0
mturk,0k1tzkzdb7dvx6z9q0nyovde,2,27,0,0.0,37.0,0.258,1.0,1.0
mturk,0k1tzkzdb7dvx6z9q0nyovde,2,28,0,0.0,37.0,0.323,1.0,1.0
mturk,0k1tzkzdb7dvx6z9q0nyovde,2,29,0,0.0,37.0,0.3,1.0,1.0
mturk,0k1tzkzdb7dvx6z9q0nyovde,2,30,0,0.0,37.0,0.299,1.0,1.0
mturk,0k1tzkzdb7dvx6z9q0nyovde,3,31,2,0.0,37.0,0.267,0.0,0.0
mturk,0k1tzkzdb7dvx6z9q0nyovde,3,32,2,0.0,37.0,0.268,0.0,0.0
mturk,0k1tzkzdb7dvx6z9q0nyovde,3,33,2,0.0,37.0,0.244,0.0,0.0
mturk,0k1tzkzdb7dvx6z9q0nyovde,3,34,2,1.0,38.0,0.211,0.0,0.0
mturk,0k1tzkzdb7dvx6z9q0nyovde,3,35,2,1.0,38.0,0.268,0.0,0.0
mturk,0k1tzkzdb7dvx6z9q0nyovde,3,36,2,2.0,39.0,0.284,1.0,1.0
mturk,0k1tzkzdb7dvx6z9q0nyovde,3,37,2,2.0,39.0,0.308,1.0,1.0
mturk,0k1tzkzdb7dvx6z9q0nyovde,3,38,2,2.0,39.0,0.316,1.0,1.0
mturk,0k1tzkzdb7dvx6z9q0nyovde,3,39,2,2.0,39.0,0.243,1.0,1.0
mturk,0k1tzkzdb7dvx6z9q0nyovde,3,40,2,2.0,39.0,0.252,1.0,1.0
mturk,0k1tzkzdb7dvx6z9q0nyovde,3,41,2,2.0,39.0,0.276,1.0,1.0
mturk,0k1tzkzdb7dvx6z9q0nyovde,3,42,2,2.0,39.0,0.291,1.0,1.0
mturk,0k1tzkzdb7dvx6z9q0nyovde,3,43,2,2.0,39.0,0.268,1.0,0.0
mturk,0k1tzkzdb7dvx6z9q0nyovde,3,44,2,2.0,39.0,0.274,1.0,1.0
mturk,0k1tzkzdb7dvx6z9q0nyovde,3,45,2,2.0,39.0,0.276,1.0,1.0
mturk,0k1tzkzdb7dvx6z9q0nyovde,4,46,1,2.0,39.0,0.268,0.0,0.0
mturk,0k1tzkzdb7dvx6z9q0nyovde,4,47,1,2.0,39.0,0.236,0.0,1.0
mturk,0k1tzkzdb7dvx6z9q0nyovde,4,48,1,2.0,39.0,0.244,0.0,1.0
mturk,0k1tzkzdb7dvx6z9q0nyovde,4,49,1,2.0,39.0,0.268,0.0,0.0
mturk,0k1tzkzdb7dvx6z9q0nyovde,4,50,1,2.0,39.0,0.228,0.0,0.0
mturk,0k1tzkzdb7dvx6z9q0nyovde,4,51,1,1.0,38.0,0.651,1.0,1.0
mturk,0k1tzkzdb7dvx6z9q0nyovde,4,52,1,1.0,38.0,0.268,1.0,0.0
mturk,0k1tzkzdb7dvx6z9q0nyovde,4,53,1,1.0,38.0,0.284,1.0,1.0
mturk,0k1tzkzdb7dvx6z9q0nyovde,4,54,1,1.0,38.0,0.284,1.0,0.0
mturk,0k1tzkzdb7dvx6z9q0nyovde,4,55,1,1.0,38.0,0.276,1.0,1.0
mturk,0k1tzkzdb7dvx6z9q0nyovde,4,56,1,1.0,38.0,0.268,1.0,1.0
mturk,0k1tzkzdb7dvx6z9q0nyovde,4,57,1,1.0,38.0,0.26,1.0,1.0
mturk,0k1tzkzdb7dvx6z9q0nyovde,4,58,1,1.0,38.0,0.236,1.0,0.0
mturk,0k1tzkzdb7dvx6z9q0nyovde,4,59,1,1.0,38.0,0.148,1.0,1.0
mturk,0k1tzkzdb7dvx6z9q0nyovde,4,60,1,1.0,38.0,0.252,1.0,1.0
mturk,0k1tzkzdb7dvx6z9q0nyovde,5,61,0,1.0,38.0,0.244,0.0,0.0
mturk,0k1tzkzdb7dvx6z9q0nyovde,5,62,0,1.0,38.0,0.235,0.0,0.0
mturk,0k1tzkzdb7dvx6z9q0nyovde,5,63,0,1.0,38.0,0.267,0.0,0.0
mturk,0k1tzkzdb7dvx6z9q0nyovde,5,64,0,2.0,39.0,0.133,0.0,1.0
mturk,0k1tzkzdb7dvx6z9q0nyovde,5,65,0,2.0,39.0,0.22,0.0,0.0
mturk,0k1tzkzdb7dvx6z9q0nyovde,5,66,0,2.0,39.0,0.269,0.0,0.0
mturk,0k1tzkzdb7dvx6z9q0nyovde,5,67,0,2.0,39.0,0.22,0.0,0.0
mturk,0k1tzkzdb7dvx6z9q0nyovde,5,68,0,0.0,37.0,0.084,1.0,1.0
mturk,0k1tzkzdb7dvx6z9q0nyovde,5,69,0,0.0,37.0,0.052,1.0,1.0
mturk,0k1tzkzdb7dvx6z9q0nyovde,5,70,0,0.0,37.0,0.212,1.0,1.0
mturk,0k1tzkzdb7dvx6z9q0nyovde,5,71,0,0.0,37.0,0.164,1.0,1.0
mturk,0k1tzkzdb7dvx6z9q0nyovde,5,72,0,0.0,37.0,0.259,1.0,0.0
mturk,0k1tzkzdb7dvx6z9q0nyovde,5,73,0,0.0,37.0,0.204,1.0,0.0
mturk,0k1tzkzdb7dvx6z9q0nyovde,5,74,0,0.0,37.0,0.548,1.0,0.0
mturk,0k1tzkzdb7dvx6z9q0nyovde,5,75,0,2.0,39.0,0.036,0.0,0.0
mturk,0k1tzkzdb7dvx6z9q0nyovde,6,76,2,1.0,38.0,0.196,0.0,0.0
mturk,0k1tzkzdb7dvx6z9q0nyovde,6,77,2,2.0,39.0,0.395,1.0,1.0
mturk,0k1tzkzdb7dvx6z9q0nyovde,6,78,2,2.0,39.0,0.076,1.0,1.0
mturk,0k1tzkzdb7dvx6z9q0nyovde,6,79,2,2.0,39.0,0.292,1.0,0.0
mturk,0k1tzkzdb7dvx6z9q0nyovde,6,80,2,2.0,39.0,0.195,1.0,1.0
mturk,0k1tzkzdb7dvx6z9q0nyovde,6,81,2,2.0,39.0,0.259,1.0,1.0
mturk,0k1tzkzdb7dvx6z9q0nyovde,6,82,2,2.0,39.0,0.324,1.0,0.0
mturk,0k1tzkzdb7dvx6z9q0nyovde,6,83,2,2.0,39.0,0.285,1.0,0.0
mturk,0k1tzkzdb7dvx6z9q0nyovde,6,84,2,1.0,38.0,0.316,0.0,1.0
mturk,0k1tzkzdb7dvx6z9q0nyovde,6,85,2,1.0,38.0,0.332,0.0,1.0
mturk,0k1tzkzdb7dvx6z9q0nyovde,6,86,2,1.0,38.0,0.714,0.0,1.0
mturk,0k1tzkzdb7dvx6z9q0nyovde,6,87,2,1.0,38.0,0.35,0.0,0.0
mturk,0k1tzkzdb7dvx6z9q0nyovde,6,88,2,1.0,38.0,0.572,0.0,0.0
mturk,0k1tzkzdb7dvx6z9q0nyovde,6,89,2,2.0,39.0,0.292,1.0,1.0
mturk,0k1tzkzdb7dvx6z9q0nyovde,6,90,2,2.0,39.0,0.332,1.0,1.0
mturk,0lq9i4x81dgnwglgvgnh34rj,1,1,1,1.0,38.0,1.619,1.0,1.0
mturk,0lq9i4x81dgnwglgvgnh34rj,1,2,1,1.0,38.0,0.657,1.0,1.0
mturk,0lq9i4x81dgnwglgvgnh34rj,1,3,1,1.0,38.0,0.498,1.0,1.0
mturk,0lq9i4x81dgnwglgvgnh34rj,1,4,1,1.0,38.0,0.442,1.0,0.0
mturk,0lq9i4x81dgnwglgvgnh34rj,1,5,1,1.0,38.0,0.392,1.0,1.0
mturk,0lq9i4x81dgnwglgvgnh34rj,1,6,1,1.0,38.0,0.487,1.0,1.0
mturk,0lq9i4x81dgnwglgvgnh34rj,1,7,1,1.0,38.0,0.674,1.0,0.0
mturk,0lq9i4x81dgnwglgvgnh34rj,1,8,1,1.0,38.0,0.656,1.0,1.0
mturk,0lq9i4x81dgnwglgvgnh34rj,1,9,1,1.0,38.0,0.591,1.0,1.0
mturk,0lq9i4x81dgnwglgvgnh34rj,1,10,1,1.0,38.0,0.464,1.0,0.0
mturk,0lq9i4x81dgnwglgvgnh34rj,1,11,1,1.0,38.0,0.386,1.0,1.0
mturk,0lq9i4x81dgnwglgvgnh34rj,1,12,1,1.0,38.0,0.392,1.0,1.0
mturk,0lq9i4x81dgnwglgvgnh34rj,1,13,1,1.0,38.0,0.377,1.0,1.0
mturk,0lq9i4x81dgnwglgvgnh34rj,1,14,1,1.0,38.0,0.527,1.0,0.0
mturk,0lq9i4x81dgnwglgvgnh34rj,1,15,1,1.0,38.0,0.902,1.0,1.0
mturk,0lq9i4x81dgnwglgvgnh34rj,2,16,0,1.0,38.0,0.295,0.0,0.0
mturk,0lq9i4x81dgnwglgvgnh34rj,2,17,0,1.0,38.0,0.313,0.0,1.0
mturk,0lq9i4x81dgnwglgvgnh34rj,2,18,0,1.0,38.0,0.312,0.0,0.0
mturk,0lq9i4x81dgnwglgvgnh34rj,2,19,0,0.0,37.0,0.098,1.0,1.0
mturk,0lq9i4x81dgnwglgvgnh34rj,2,20,0,0.0,37.0,0.305,1.0,1.0
mturk,0lq9i4x81dgnwglgvgnh34rj,2,21,0,0.0,37.0,0.312,1.0,1.0
mturk,0lq9i4x81dgnwglgvgnh34rj,2,22,0,0.0,37.0,0.304,1.0,0.0
mturk,0lq9i4x81dgnwglgvgnh34rj,2,23,0,0.0,37.0,0.33,1.0,1.0
mturk,0lq9i4x81dgnwglgvgnh34rj,2,24,0,0.0,37.0,0.201,1.0,1.0
mturk,0lq9i4x81dgnwglgvgnh34rj,2,25,0,0.0,37.0,0.329,1.0,1.0
mturk,0lq9i4x81dgnwglgvgnh34rj,2,26,0,0.0,37.0,0.177,1.0,1.0
mturk,0lq9i4x81dgnwglgvgnh34rj,2,27,0,0.0,37.0,0.45,1.0,1.0
mturk,0lq9i4x81dgnwglgvgnh34rj,2,28,0,0.0,37.0,0.369,1.0,1.0
mturk,0lq9i4x81dgnwglgvgnh34rj,2,29,0,0.0,37.0,0.313,1.0,1.0
mturk,0lq9i4x81dgnwglgvgnh34rj,2,30,0,0.0,37.0,0.28,1.0,1.0
mturk,0lq9i4x81dgnwglgvgnh34rj,3,31,1,0.0,37.0,0.322,0.0,0.0
mturk,0lq9i4x81dgnwglgvgnh34rj,3,32,1,0.0,37.0,0.305,0.0,0.0
mturk,0lq9i4x81dgnwglgvgnh34rj,3,33,1,2.0,39.0,0.297,0.0,0.0
mturk,0lq9i4x81dgnwglgvgnh34rj,3,34,1,1.0,38.0,0.16,1.0,1.0
mturk,0lq9i4x81dgnwglgvgnh34rj,3,35,1,1.0,38.0,0.283,1.0,1.0
mturk,0lq9i4x81dgnwglgvgnh34rj,3,36,1,1.0,38.0,0.266,1.0,1.0
mturk,0lq9i4x81dgnwglgvgnh34rj,3,37,1,1.0,38.0,0.337,1.0,0.0
mturk,0lq9i4x81dgnwglgvgnh34rj,3,38,1,0.0,37.0,0.047,0.0,1.0
mturk,0lq9i4x81dgnwglgvgnh34rj,3,39,1,0.0,37.0,0.306,0.0,0.0
mturk,0lq9i4x81dgnwglgvgnh34rj,3,40,1,1.0,38.0,0.03,1.0,0.0
mturk,0lq9i4x81dgnwglgvgnh34rj,3,41,1,1.0,38.0,0.073,1.0,0.0
mturk,0lq9i4x81dgnwglgvgnh34rj,3,42,1,0.0,37.0,0.593,0.0,0.0
mturk,0lq9i4x81dgnwglgvgnh34rj,3,43,1,2.0,39.0,0.055,0.0,0.0
mturk,0lq9i4x81dgnwglgvgnh34rj,3,44,1,2.0,39.0,0.192,0.0,1.0
mturk,0lq9i4x81dgnwglgvgnh34rj,3,45,1,2.0,39.0,0.072,0.0,0.0
mturk,0lq9i4x81dgnwglgvgnh34rj,4,46,2,2.0,39.0,0.321,1.0,1.0
mturk,0lq9i4x81dgnwglgvgnh34rj,4,47,2,2.0,39.0,0.154,1.0,1.0
mturk,0lq9i4x81dgnwglgvgnh34rj,4,48,2,2.0,39.0,0.191,1.0,1.0
mturk,0lq9i4x81dgnwglgvgnh34rj,4,49,2,2.0,39.0,0.008,1.0,1.0
mturk,0lq9i4x81dgnwglgvgnh34rj,4,50,2,2.0,39.0,0.305,1.0,1.0
mturk,0lq9i4x81dgnwglgvgnh34rj,4,51,2,2.0,39.0,0.329,1.0,1.0
mturk,0lq9i4x81dgnwglgvgnh34rj,4,52,2,2.0,39.0,0.105,1.0,1.0
mturk,0lq9i4x81dgnwglgvgnh34rj,4,53,2,2.0,39.0,0.305,1.0,1.0
mturk,0lq9i4x81dgnwglgvgnh34rj,4,54,2,2.0,39.0,0.288,1.0,0.0
mturk,0lq9i4x81dgnwglgvgnh34rj,4,55,2,2.0,39.0,0.313,1.0,1.0
mturk,0lq9i4x81dgnwglgvgnh34rj,4,56,2,2.0,39.0,0.299,1.0,1.0
mturk,0lq9i4x81dgnwglgvgnh34rj,4,57,2,2.0,39.0,0.28,1.0,1.0
mturk,0lq9i4x81dgnwglgvgnh34rj,4,58,2,2.0,39.0,0.256,1.0,1.0
mturk,0lq9i4x81dgnwglgvgnh34rj,4,59,2,2.0,39.0,0.25,1.0,1.0
mturk,0lq9i4x81dgnwglgvgnh34rj,4,60,2,2.0,39.0,0.357,1.0,1.0
mturk,0lq9i4x81dgnwglgvgnh34rj,5,61,0,2.0,39.0,0.337,0.0,1.0
mturk,0lq9i4x81dgnwglgvgnh34rj,5,62,0,2.0,39.0,0.319,0.0,0.0
mturk,0lq9i4x81dgnwglgvgnh34rj,5,63,0,2.0,39.0,0.33,0.0,1.0
mturk,0lq9i4x81dgnwglgvgnh34rj,5,64,0,2.0,39.0,0.279,0.0,0.0
mturk,0lq9i4x81dgnwglgvgnh34rj,5,65,0,2.0,39.0,0.329,0.0,1.0
mturk,0lq9i4x81dgnwglgvgnh34rj,5,66,0,2.0,39.0,0.321,0.0,1.0
mturk,0lq9i4x81dgnwglgvgnh34rj,5,67,0,2.0,39.0,0.321,0.0,0.0
mturk,0lq9i4x81dgnwglgvgnh34rj,5,68,0,1.0,38.0,0.608,0.0,1.0
mturk,0lq9i4x81dgnwglgvgnh34rj,5,69,0,1.0,38.0,0.32,0.0,1.0
mturk,0lq9i4x81dgnwglgvgnh34rj,5,70,0,1.0,38.0,0.289,0.0,0.0
mturk,0lq9i4x81dgnwglgvgnh34rj,5,71,0,1.0,38.0,0.642,0.0,0.0
mturk,0lq9i4x81dgnwglgvgnh34rj,5,72,0,2.0,39.0,0.256,0.0,0.0
mturk,0lq9i4x81dgnwglgvgnh34rj,5,73,0,0.0,37.0,0.361,1.0,0.0
mturk,0lq9i4x81dgnwglgvgnh34rj,5,74,0,0.0,37.0,0.394,1.0,1.0
mturk,0lq9i4x81dgnwglgvgnh34rj,5,75,0,0.0,37.0,0.329,1.0,1.0
mturk,0lq9i4x81dgnwglgvgnh34rj,6,76,1,0.0,37.0,0.32,0.0,0.0
mturk,0lq9i4x81dgnwglgvgnh34rj,6,77,1,0.0,37.0,0.354,0.0,0.0
mturk,0lq9i4x81dgnwglgvgnh34rj,6,78,1,1.0,38.0,0.249,1.0,1.0
mturk,0lq9i4x81dgnwglgvgnh34rj,6,79,1,1.0,38.0,0.303,1.0,1.0
mturk,0lq9i4x81dgnwglgvgnh34rj,6,80,1,1.0,38.0,0.334,1.0,0.0
mturk,0lq9i4x81dgnwglgvgnh34rj,6,81,1,2.0,39.0,0.442,0.0,1.0
mturk,0lq9i4x81dgnwglgvgnh34rj,6,82,1,1.0,38.0,0.456,1.0,0.0
mturk,0lq9i4x81dgnwglgvgnh34rj,6,83,1,2.0,39.0,0.279,0.0,0.0
mturk,0lq9i4x81dgnwglgvgnh34rj,6,84,1,2.0,39.0,0.32,0.0,0.0
mturk,0lq9i4x81dgnwglgvgnh34rj,6,85,1,0.0,37.0,0.307,0.0,0.0
mturk,0lq9i4x81dgnwglgvgnh34rj,6,86,1,1.0,38.0,0.52,1.0,1.0
mturk,0lq9i4x81dgnwglgvgnh34rj,6,87,1,1.0,38.0,0.439,1.0,1.0
mturk,0lq9i4x81dgnwglgvgnh34rj,6,88,1,1.0,38.0,0.346,1.0,1.0
mturk,0lq9i4x81dgnwglgvgnh34rj,6,89,1,1.0,38.0,0.306,1.0,1.0
mturk,0lq9i4x81dgnwglgvgnh34rj,6,90,1,1.0,38.0,0.36,1.0,0.0
mturk,0piu71owxiz9tgsitq7ktqh6,1,1,2,2.0,39.0,1.368,1.0,1.0
mturk,0piu71owxiz9tgsitq7ktqh6,1,2,2,2.0,39.0,0.018,1.0,1.0
mturk,0piu71owxiz9tgsitq7ktqh6,1,3,2,2.0,39.0,0.082,1.0,1.0
mturk,0piu71owxiz9tgsitq7ktqh6,1,4,2,1.0,38.0,0.103,0.0,0.0
mturk,0piu71owxiz9tgsitq7ktqh6,1,5,2,0.0,37.0,0.559,0.0,0.0
mturk,0piu71owxiz9tgsitq7ktqh6,1,6,2,2.0,39.0,0.475,1.0,1.0
mturk,0piu71owxiz9tgsitq7ktqh6,1,7,2,2.0,39.0,0.058,1.0,1.0
mturk,0piu71owxiz9tgsitq7ktqh6,1,8,2,2.0,39.0,0.032,1.0,1.0
mturk,0piu71owxiz9tgsitq7ktqh6,1,9,2,2.0,39.0,0.146,1.0,1.0
mturk,0piu71owxiz9tgsitq7ktqh6,1,10,2,2.0,39.0,0.188,1.0,1.0
mturk,0piu71owxiz9tgsitq7ktqh6,1,11,2,2.0,39.0,0.033,1.0,1.0
mturk,0piu71owxiz9tgsitq7ktqh6,1,12,2,2.0,39.0,0.098,1.0,1.0
mturk,0piu71owxiz9tgsitq7ktqh6,1,13,2,2.0,39.0,0.057,1.0,0.0
mturk,0piu71owxiz9tgsitq7ktqh6,1,14,2,0.0,37.0,0.499,0.0,0.0
mturk,0piu71owxiz9tgsitq7ktqh6,1,15,2,2.0,39.0,0.168,1.0,1.0
mturk,0piu71owxiz9tgsitq7ktqh6,2,16,1,2.0,39.0,0.235,0.0,0.0
mturk,0piu71owxiz9tgsitq7ktqh6,2,17,1,1.0,38.0,0.57,1.0,1.0
mturk,0piu71owxiz9tgsitq7ktqh6,2,18,1,1.0,38.0,0.091,1.0,1.0
mturk,0piu71owxiz9tgsitq7ktqh6,2,19,1,1.0,38.0,0.179,1.0,1.0
mturk,0piu71owxiz9tgsitq7ktqh6,2,20,1,1.0,38.0,0.492,1.0,1.0
mturk,0piu71owxiz9tgsitq7ktqh6,2,21,1,1.0,38.0,0.11,1.0,1.0
mturk,0piu71owxiz9tgsitq7ktqh6,2,22,1,1.0,38.0,0.404,1.0,0.0
mturk,0piu71owxiz9tgsitq7ktqh6,2,23,1,2.0,39.0,1.409,0.0,1.0
mturk,0piu71owxiz9tgsitq7ktqh6,2,24,1,2.0,39.0,0.422,0.0,0.0
mturk,0piu71owxiz9tgsitq7ktqh6,2,25,1,0.0,37.0,0.35,0.0,0.0
mturk,0piu71owxiz9tgsitq7ktqh6,2,26,1,1.0,38.0,0.54,1.0,1.0
mturk,0piu71owxiz9tgsitq7ktqh6,2,27,1,1.0,38.0,0.227,1.0,0.0
mturk,0piu71owxiz9tgsitq7ktqh6,2,28,1,2.0,39.0,1.217,0.0,1.0
mturk,0piu71owxiz9tgsitq7ktqh6,2,29,1,2.0,39.0,0.286,0.0,1.0
mturk,0piu71owxiz9tgsitq7ktqh6,2,30,1,2.0,39.0,0.014,0.0,0.0
mturk,0piu71owxiz9tgsitq7ktqh6,3,31,0,0.0,37.0,1.0,1.0,0.0
mturk,0piu71owxiz9tgsitq7ktqh6,3,32,0,1.0,38.0,0.065,0.0,0.0
mturk,0piu71owxiz9tgsitq7ktqh6,3,33,0,2.0,39.0,0.429,0.0,0.0
mturk,0piu71owxiz9tgsitq7ktqh6,3,34,0,1.0,38.0,1.066,0.0,1.0
mturk,0piu71owxiz9tgsitq7ktqh6,3,35,0,1.0,38.0,0.09,0.0,0.0
mturk,0piu71owxiz9tgsitq7ktqh6,3,36,0,2.0,39.0,1.317,0.0,0.0
mturk,0piu71owxiz9tgsitq7ktqh6,3,37,0,0.0,37.0,0.865,1.0,1.0
mturk,0piu71owxiz9tgsitq7ktqh6,3,38,0,0.0,37.0,1.183,1.0,1.0
mturk,0piu71owxiz9tgsitq7ktqh6,3,39,0,0.0,37.0,0.019,1.0,1.0
mturk,0piu71owxiz9tgsitq7ktqh6,3,40,0,0.0,37.0,0.38,1.0,1.0
mturk,0piu71owxiz9tgsitq7ktqh6,3,41,0,0.0,37.0,0.25,1.0,1.0
mturk,0piu71owxiz9tgsitq7ktqh6,3,42,0,0.0,37.0,0.377,1.0,1.0
mturk,0piu71owxiz9tgsitq7ktqh6,3,43,0,0.0,37.0,0.49,1.0,0.0
mturk,0piu71owxiz9tgsitq7ktqh6,3,44,0,2.0,39.0,1.119,0.0,0.0
mturk,0piu71owxiz9tgsitq7ktqh6,3,45,0,1.0,38.0,0.086,0.0,1.0
mturk,0piu71owxiz9tgsitq7ktqh6,4,46,1,1.0,38.0,0.213,1.0,1.0
mturk,0piu71owxiz9tgsitq7ktqh6,4,47,1,1.0,38.0,0.4,1.0,1.0
mturk,0piu71owxiz9tgsitq7ktqh6,4,48,1,1.0,38.0,0.404,1.0,1.0
mturk,0piu71owxiz9tgsitq7ktqh6,4,49,1,1.0,38.0,0.47,1.0,0.0
mturk,0piu71owxiz9tgsitq7ktqh6,4,50,1,2.0,39.0,1.891,0.0,0.0
mturk,0piu71owxiz9tgsitq7ktqh6,4,51,1,0.0,37.0,0.634,0.0,1.0
mturk,0piu71owxiz9tgsitq7ktqh6,4,52,1,0.0,37.0,1.293,0.0,0.0
mturk,0piu71owxiz9tgsitq7ktqh6,4,53,1,2.0,39.0,2.175,0.0,1.0
mturk,0piu71owxiz9tgsitq7ktqh6,4,54,1,2.0,39.0,1.328,0.0,1.0
mturk,0piu71owxiz9tgsitq7ktqh6,4,55,1,2.0,39.0,0.633,0.0,1.0
mturk,0piu71owxiz9tgsitq7ktqh6,4,56,1,2.0,39.0,0.818,0.0,0.0
mturk,0piu71owxiz9tgsitq7ktqh6,4,57,1,1.0,38.0,2.109,1.0,1.0
mturk,0piu71owxiz9tgsitq7ktqh6,4,58,1,1.0,38.0,0.159,1.0,0.0
mturk,0piu71owxiz9tgsitq7ktqh6,4,59,1,0.0,37.0,1.954,0.0,0.0
mturk,0piu71owxiz9tgsitq7ktqh6,4,60,1,2.0,39.0,2.334,0.0,0.0
mturk,0piu71owxiz9tgsitq7ktqh6,5,61,2,1.0,38.0,1.573,0.0,1.0
mturk,0piu71owxiz9tgsitq7ktqh6,5,62,2,1.0,38.0,0.446,0.0,0.0
mturk,0piu71owxiz9tgsitq7ktqh6,5,63,2,2.0,39.0,3.386,1.0,1.0
mturk,0piu71owxiz9tgsitq7ktqh6,5,64,2,2.0,39.0,0.723,1.0,0.0
mturk,0piu71owxiz9tgsitq7ktqh6,5,65,2,0.0,37.0,2.34,0.0,0.0
mturk,0piu71owxiz9tgsitq7ktqh6,5,66,2,1.0,38.0,1.946,0.0,0.0
mturk,0piu71owxiz9tgsitq7ktqh6,5,67,2,2.0,39.0,3.196,1.0,1.0
mturk,0piu71owxiz9tgsitq7ktqh6,5,68,2,2.0,39.0,2.411,1.0,1.0
mturk,0piu71owxiz9tgsitq7ktqh6,5,69,2,2.0,39.0,4.883,1.0,0.0
mturk,0piu71owxiz9tgsitq7ktqh6,5,70,2,1.0,38.0,1.097,0.0,0.0
mturk,0piu71owxiz9tgsitq7ktqh6,5,71,2,0.0,37.0,0.496,0.0,1.0
mturk,0piu71owxiz9tgsitq7ktqh6,5,72,2,0.0,37.0,0.338,0.0,1.0
mturk,0piu71owxiz9tgsitq7ktqh6,5,73,2,0.0,37.0,0.638,0.0,0.0
mturk,0piu71owxiz9tgsitq7ktqh6,5,74,2,2.0,39.0,0.66,1.0,1.0
mturk,0piu71owxiz9tgsitq7ktqh6,5,75,2,2.0,39.0,0.514,1.0,0.0
mturk,0piu71owxiz9tgsitq7ktqh6,6,76,0,1.0,38.0,0.524,0.0,0.0
mturk,0piu71owxiz9tgsitq7ktqh6,6,77,0,0.0,37.0,1.985,1.0,1.0
mturk,0piu71owxiz9tgsitq7ktqh6,6,78,0,0.0,37.0,1.342,1.0,1.0
mturk,0piu71owxiz9tgsitq7ktqh6,6,79,0,0.0,37.0,1.901,1.0,1.0
mturk,0piu71owxiz9tgsitq7ktqh6,6,80,0,0.0,37.0,1.758,1.0,0.0
mturk,0piu71owxiz9tgsitq7ktqh6,6,81,0,2.0,39.0,2.235,0.0,0.0
mturk,0piu71owxiz9tgsitq7ktqh6,6,82,0,1.0,38.0,0.026,0.0,0.0
mturk,0piu71owxiz9tgsitq7ktqh6,6,83,0,0.0,37.0,1.878,1.0,1.0
mturk,0piu71owxiz9tgsitq7ktqh6,6,84,0,0.0,37.0,0.479,1.0,1.0
mturk,0piu71owxiz9tgsitq7ktqh6,6,85,0,0.0,37.0,0.405,1.0,1.0
mturk,0piu71owxiz9tgsitq7ktqh6,6,86,0,0.0,37.0,0.397,1.0,1.0
mturk,0piu71owxiz9tgsitq7ktqh6,6,87,0,0.0,37.0,0.364,1.0,1.0
mturk,0piu71owxiz9tgsitq7ktqh6,6,88,0,0.0,37.0,0.37,1.0,1.0
mturk,0piu71owxiz9tgsitq7ktqh6,6,89,0,0.0,37.0,0.236,1.0,1.0
mturk,0piu71owxiz9tgsitq7ktqh6,6,90,0,0.0,37.0,0.351,1.0,1.0
mturk,19h68mzzzd51m1ysm4jbmlml,1,1,1,2.0,39.0,9.739,0.0,0.0
mturk,19h68mzzzd51m1ysm4jbmlml,1,2,1,2.0,39.0,0.301,0.0,0.0
mturk,19h68mzzzd51m1ysm4jbmlml,1,3,1,0.0,37.0,0.5,0.0,0.0
mturk,19h68mzzzd51m1ysm4jbmlml,1,4,1,1.0,38.0,0.161,1.0,1.0
mturk,19h68mzzzd51m1ysm4jbmlml,1,5,1,1.0,38.0,0.703,1.0,1.0
mturk,19h68mzzzd51m1ysm4jbmlml,1,6,1,0.0,37.0,0.839,0.0,0.0
mturk,19h68mzzzd51m1ysm4jbmlml,1,7,1,2.0,39.0,0.194,0.0,0.0
mturk,19h68mzzzd51m1ysm4jbmlml,1,8,1,1.0,38.0,0.194,1.0,1.0
mturk,19h68mzzzd51m1ysm4jbmlml,1,9,1,1.0,38.0,2.059,1.0,1.0
mturk,19h68mzzzd51m1ysm4jbmlml,1,10,1,1.0,38.0,1.021,1.0,1.0
mturk,19h68mzzzd51m1ysm4jbmlml,1,11,1,1.0,38.0,0.407,1.0,1.0
mturk,19h68mzzzd51m1ysm4jbmlml,1,12,1,1.0,38.0,0.482,1.0,1.0
mturk,19h68mzzzd51m1ysm4jbmlml,1,13,1,1.0,38.0,0.427,1.0,1.0
mturk,19h68mzzzd51m1ysm4jbmlml,1,14,1,1.0,38.0,0.423,1.0,1.0
mturk,19h68mzzzd51m1ysm4jbmlml,1,15,1,1.0,38.0,0.102,1.0,1.0
mturk,19h68mzzzd51m1ysm4jbmlml,2,16,0,0.0,37.0,1.423,1.0,0.0
mturk,19h68mzzzd51m1ysm4jbmlml,2,17,0,2.0,39.0,0.664,0.0,0.0
mturk,19h68mzzzd51m1ysm4jbmlml,2,18,0,1.0,38.0,0.174,0.0,0.0
mturk,19h68mzzzd51m1ysm4jbmlml,2,19,0,0.0,37.0,0.389,1.0,1.0
mturk,19h68mzzzd51m1ysm4jbmlml,2,20,0,0.0,37.0,0.303,1.0,1.0
mturk,19h68mzzzd51m1ysm4jbmlml,2,21,0,0.0,37.0,0.214,1.0,1.0
mturk,19h68mzzzd51m1ysm4jbmlml,2,22,0,0.0,37.0,0.616,1.0,0.0
mturk,19h68mzzzd51m1ysm4jbmlml,2,23,0,2.0,39.0,0.004,0.0,1.0
mturk,19h68mzzzd51m1ysm4jbmlml,2,24,0,2.0,39.0,0.325,0.0,0.0
mturk,19h68mzzzd51m1ysm4jbmlml,2,25,0,0.0,37.0,0.476,1.0,1.0
mturk,19h68mzzzd51m1ysm4jbmlml,2,26,0,0.0,37.0,0.716,1.0,1.0
mturk,19h68mzzzd51m1ysm4jbmlml,2,27,0,0.0,37.0,1.944,1.0,1.0
mturk,19h68mzzzd51m1ysm4jbmlml,2,28,0,0.0,37.0,1.283,1.0,1.0
mturk,19h68mzzzd51m1ysm4jbmlml,2,29,0,0.0,37.0,1.186,1.0,1.0
mturk,19h68mzzzd51m1ysm4jbmlml,2,30,0,0.0,37.0,1.586,1.0,1.0
mturk,19h68mzzzd51m1ysm4jbmlml,3,31,2,0.0,37.0,1.046,0.0,0.0
mturk,19h68mzzzd51m1ysm4jbmlml,3,32,2,2.0,39.0,0.009,1.0,1.0
mturk,19h68mzzzd51m1ysm4jbmlml,3,33,2,2.0,39.0,0.803,1.0,0.0
mturk,19h68mzzzd51m1ysm4jbmlml,3,34,2,1.0,38.0,0.349,0.0,1.0
mturk,19h68mzzzd51m1ysm4jbmlml,3,35,2,1.0,38.0,0.558,0.0,0.0
mturk,19h68mzzzd51m1ysm4jbmlml,3,36,2,0.0,37.0,0.435,0.0,0.0
mturk,19h68mzzzd51m1ysm4jbmlml,3,37,2,2.0,39.0,0.067,1.0,1.0
mturk,19h68mzzzd51m1ysm4jbmlml,3,38,2,2.0,39.0,8.644,1.0,1.0
mturk,19h68mzzzd51m1ysm4jbmlml,3,39,2,2.0,39.0,1.014,1.0,1.0
mturk,19h68mzzzd51m1ysm4jbmlml,3,40,2,2.0,39.0,2.221,1.0,0.0
mturk,19h68mzzzd51m1ysm4jbmlml,3,41,2,1.0,38.0,0.492,0.0,0.0
mturk,19h68mzzzd51m1ysm4jbmlml,3,42,2,0.0,37.0,1.002,0.0,0.0
mturk,19h68mzzzd51m1ysm4jbmlml,3,43,2,2.0,39.0,0.705,1.0,1.0
mturk,19h68mzzzd51m1ysm4jbmlml,3,44,2,2.0,39.0,1.342,1.0,1.0
mturk,19h68mzzzd51m1ysm4jbmlml,3,45,2,2.0,39.0,0.763,1.0,1.0
mturk,19h68mzzzd51m1ysm4jbmlml,4,46,0,2.0,39.0,0.894,0.0,0.0
mturk,19h68mzzzd51m1ysm4jbmlml,4,47,0,0.0,37.0,0.866,1.0,1.0
mturk,19h68mzzzd51m1ysm4jbmlml,4,48,0,0.0,37.0,0.779,1.0,1.0
mturk,19h68mzzzd51m1ysm4jbmlml,4,49,0,0.0,37.0,0.718,1.0,1.0
mturk,19h68mzzzd51m1ysm4jbmlml,4,50,0,0.0,37.0,6.476,1.0,1.0
mturk,19h68mzzzd51m1ysm4jbmlml,4,51,0,0.0,37.0,0.981,1.0,1.0
mturk,19h68mzzzd51m1ysm4jbmlml,4,52,0,0.0,37.0,0.909,1.0,0.0
mturk,19h68mzzzd51m1ysm4jbmlml,4,53,0,2.0,39.0,1.48,0.0,0.0
mturk,19h68mzzzd51m1ysm4jbmlml,4,54,0,1.0,38.0,1.85,0.0,0.0
mturk,19h68mzzzd51m1ysm4jbmlml,4,55,0,0.0,37.0,0.649,1.0,1.0
mturk,19h68mzzzd51m1ysm4jbmlml,4,56,0,0.0,37.0,0.873,1.0,0.0
mturk,19h68mzzzd51m1ysm4jbmlml,4,57,0,2.0,39.0,0.646,0.0,0.0
mturk,19h68mzzzd51m1ysm4jbmlml,4,58,0,2.0,39.0,9.908,0.0,1.0
mturk,19h68mzzzd51m1ysm4jbmlml,4,59,0,2.0,39.0,0.492,0.0,0.0
mturk,19h68mzzzd51m1ysm4jbmlml,4,60,0,0.0,37.0,0.073,1.0,1.0
mturk,19h68mzzzd51m1ysm4jbmlml,5,61,2,1.0,38.0,0.375,0.0,0.0
mturk,19h68mzzzd51m1ysm4jbmlml,5,62,2,0.0,37.0,0.341,0.0,0.0
mturk,19h68mzzzd51m1ysm4jbmlml,5,63,2,2.0,39.0,0.769,1.0,1.0
mturk,19h68mzzzd51m1ysm4jbmlml,5,64,2,2.0,39.0,0.579,1.0,1.0
mturk,19h68mzzzd51m1ysm4jbmlml,5,65,2,2.0,39.0,0.816,1.0,1.0
mturk,19h68mzzzd51m1ysm4jbmlml,5,66,2,2.0,39.0,0.928,1.0,1.0
mturk,19h68mzzzd51m1ysm4jbmlml,5,67,2,2.0,39.0,0.759,1.0,1.0
mturk,19h68mzzzd51m1ysm4jbmlml,5,68,2,2.0,39.0,1.024,1.0,1.0
mturk,19h68mzzzd51m1ysm4jbmlml,5,69,2,2.0,39.0,0.655,1.0,0.0
mturk,19h68mzzzd51m1ysm4jbmlml,5,70,2,0.0,37.0,1.067,0.0,0.0
mturk,19h68mzzzd51m1ysm4jbmlml,5,71,2,1.0,38.0,0.933,0.0,0.0
mturk,19h68mzzzd51m1ysm4jbmlml,5,72,2,2.0,39.0,0.334,1.0,1.0
mturk,19h68mzzzd51m1ysm4jbmlml,5,73,2,2.0,39.0,1.792,1.0,0.0
mturk,19h68mzzzd51m1ysm4jbmlml,5,74,2,2.0,39.0,1.593,1.0,1.0
mturk,19h68mzzzd51m1ysm4jbmlml,5,75,2,2.0,39.0,0.801,1.0,1.0
mturk,19h68mzzzd51m1ysm4jbmlml,6,76,0,2.0,39.0,0.648,0.0,0.0
mturk,19h68mzzzd51m1ysm4jbmlml,6,77,0,2.0,39.0,1.035,0.0,0.0
mturk,19h68mzzzd51m1ysm4jbmlml,6,78,0,2.0,39.0,0.25,0.0,0.0
mturk,19h68mzzzd51m1ysm4jbmlml,6,79,0,0.0,37.0,0.539,1.0,1.0
mturk,19h68mzzzd51m1ysm4jbmlml,6,80,0,0.0,37.0,0.695,1.0,1.0
mturk,19h68mzzzd51m1ysm4jbmlml,6,81,0,0.0,37.0,1.134,1.0,1.0
mturk,19h68mzzzd51m1ysm4jbmlml,6,82,0,0.0,37.0,0.401,1.0,1.0
mturk,19h68mzzzd51m1ysm4jbmlml,6,83,0,0.0,37.0,0.969,1.0,0.0
mturk,19h68mzzzd51m1ysm4jbmlml,6,84,0,1.0,38.0,0.145,0.0,1.0
mturk,19h68mzzzd51m1ysm4jbmlml,6,85,0,1.0,38.0,0.636,0.0,1.0
mturk,19h68mzzzd51m1ysm4jbmlml,6,86,0,1.0,38.0,0.064,0.0,0.0
mturk,19h68mzzzd51m1ysm4jbmlml,6,87,0,2.0,39.0,1.38,0.0,0.0
mturk,19h68mzzzd51m1ysm4jbmlml,6,88,0,0.0,37.0,1.038,1.0,1.0
mturk,19h68mzzzd51m1ysm4jbmlml,6,89,0,0.0,37.0,0.204,1.0,1.0
mturk,19h68mzzzd51m1ysm4jbmlml,6,90,0,0.0,37.0,0.262,1.0,1.0
mturk,1bkivj7fl2s7bnshyc0xs9xo,1,1,1,0.0,37.0,3.117,0.0,0.0
mturk,1bkivj7fl2s7bnshyc0xs9xo,1,2,1,2.0,39.0,0.15,0.0,0.0
mturk,1bkivj7fl2s7bnshyc0xs9xo,1,3,1,0.0,37.0,1.642,0.0,0.0
mturk,1bkivj7fl2s7bnshyc0xs9xo,1,4,1,1.0,38.0,0.442,1.0,1.0
mturk,1bkivj7fl2s7bnshyc0xs9xo,1,5,1,1.0,38.0,0.458,1.0,1.0
mturk,1bkivj7fl2s7bnshyc0xs9xo,1,6,1,1.0,38.0,0.157,1.0,1.0
mturk,1bkivj7fl2s7bnshyc0xs9xo,1,7,1,1.0,38.0,0.664,1.0,1.0
mturk,1bkivj7fl2s7bnshyc0xs9xo,1,8,1,1.0,38.0,0.203,1.0,1.0
mturk,1bkivj7fl2s7bnshyc0xs9xo,1,9,1,1.0,38.0,0.82,1.0,1.0
mturk,1bkivj7fl2s7bnshyc0xs9xo,1,10,1,1.0,38.0,0.126,1.0,1.0
mturk,1bkivj7fl2s7bnshyc0xs9xo,1,11,1,1.0,38.0,0.226,1.0,1.0
mturk,1bkivj7fl2s7bnshyc0xs9xo,1,12,1,1.0,38.0,0.207,1.0,1.0
mturk,1bkivj7fl2s7bnshyc0xs9xo,1,13,1,1.0,38.0,0.343,1.0,1.0
mturk,1bkivj7fl2s7bnshyc0xs9xo,1,14,1,1.0,38.0,0.291,1.0,1.0
mturk,1bkivj7fl2s7bnshyc0xs9xo,1,15,1,1.0,38.0,0.15,1.0,1.0
mturk,1bkivj7fl2s7bnshyc0xs9xo,2,16,2,1.0,38.0,0.122,0.0,1.0
mturk,1bkivj7fl2s7bnshyc0xs9xo,2,17,2,1.0,38.0,0.201,0.0,0.0
mturk,1bkivj7fl2s7bnshyc0xs9xo,2,18,2,1.0,38.0,0.111,0.0,0.0
mturk,1bkivj7fl2s7bnshyc0xs9xo,2,19,2,2.0,39.0,0.168,1.0,1.0
mturk,1bkivj7fl2s7bnshyc0xs9xo,2,20,2,2.0,39.0,0.253,1.0,1.0
mturk,1bkivj7fl2s7bnshyc0xs9xo,2,21,2,2.0,39.0,0.348,1.0,1.0
mturk,1bkivj7fl2s7bnshyc0xs9xo,2,22,2,2.0,39.0,0.099,1.0,1.0
mturk,1bkivj7fl2s7bnshyc0xs9xo,2,23,2,2.0,39.0,0.723,1.0,0.0
mturk,1bkivj7fl2s7bnshyc0xs9xo,2,24,2,0.0,37.0,0.076,0.0,0.0
mturk,1bkivj7fl2s7bnshyc0xs9xo,2,25,2,1.0,38.0,0.02,0.0,1.0
mturk,1bkivj7fl2s7bnshyc0xs9xo,2,26,2,1.0,38.0,0.406,0.0,0.0
mturk,1bkivj7fl2s7bnshyc0xs9xo,2,27,2,2.0,39.0,0.245,1.0,1.0
mturk,1bkivj7fl2s7bnshyc0xs9xo,2,28,2,0.0,37.0,0.055,0.0,0.0
mturk,1bkivj7fl2s7bnshyc0xs9xo,2,29,2,0.0,37.0,0.169,0.0,0.0
mturk,1bkivj7fl2s7bnshyc0xs9xo,2,30,2,1.0,38.0,0.031,0.0,0.0
mturk,1bkivj7fl2s7bnshyc0xs9xo,3,31,0,2.0,39.0,0.494,0.0,0.0
mturk,1bkivj7fl2s7bnshyc0xs9xo,3,32,0,1.0,38.0,0.462,0.0,0.0
mturk,1bkivj7fl2s7bnshyc0xs9xo,3,33,0,2.0,39.0,0.412,0.0,0.0
mturk,1bkivj7fl2s7bnshyc0xs9xo,3,34,0,0.0,37.0,1.331,1.0,1.0
mturk,1bkivj7fl2s7bnshyc0xs9xo,3,35,0,0.0,37.0,0.285,1.0,1.0
mturk,1bkivj7fl2s7bnshyc0xs9xo,3,36,0,0.0,37.0,0.355,1.0,1.0
mturk,1bkivj7fl2s7bnshyc0xs9xo,3,37,0,0.0,37.0,0.009,1.0,1.0
mturk,1bkivj7fl2s7bnshyc0xs9xo,3,38,0,0.0,37.0,7.494,1.0,1.0
mturk,1bkivj7fl2s7bnshyc0xs9xo,3,39,0,0.0,37.0,0.693,1.0,1.0
mturk,1bkivj7fl2s7bnshyc0xs9xo,3,40,0,0.0,37.0,0.115,1.0,0.0
mturk,1bkivj7fl2s7bnshyc0xs9xo,3,41,0,0.0,37.0,0.673,1.0,1.0
mturk,1bkivj7fl2s7bnshyc0xs9xo,3,42,0,0.0,37.0,0.447,1.0,1.0
mturk,1bkivj7fl2s7bnshyc0xs9xo,3,43,0,0.0,37.0,0.268,1.0,1.0
mturk,1bkivj7fl2s7bnshyc0xs9xo,3,44,0,0.0,37.0,0.364,1.0,0.0
mturk,1bkivj7fl2s7bnshyc0xs9xo,3,45,0,2.0,39.0,0.2,0.0,0.0
mturk,1bkivj7fl2s7bnshyc0xs9xo,4,46,2,1.0,38.0,1.296,0.0,0.0
mturk,1bkivj7fl2s7bnshyc0xs9xo,4,47,2,2.0,39.0,0.029,1.0,0.0
mturk,1bkivj7fl2s7bnshyc0xs9xo,4,48,2,0.0,37.0,0.852,0.0,0.0
mturk,1bkivj7fl2s7bnshyc0xs9xo,4,49,2,1.0,38.0,0.003,0.0,1.0
mturk,1bkivj7fl2s7bnshyc0xs9xo,4,50,2,1.0,38.0,0.313,0.0,1.0
mturk,1bkivj7fl2s7bnshyc0xs9xo,4,51,2,1.0,38.0,0.12,0.0,0.0
mturk,1bkivj7fl2s7bnshyc0xs9xo,4,52,2,2.0,39.0,0.485,1.0,1.0
mturk,1bkivj7fl2s7bnshyc0xs9xo,4,53,2,2.0,39.0,0.033,1.0,1.0
mturk,1bkivj7fl2s7bnshyc0xs9xo,4,54,2,2.0,39.0,0.258,1.0,1.0
mturk,1bkivj7fl2s7bnshyc0xs9xo,4,55,2,2.0,39.0,0.238,1.0,1.0
mturk,1bkivj7fl2s7bnshyc0xs9xo,4,56,2,2.0,39.0,0.233,1.0,1.0
mturk,1bkivj7fl2s7bnshyc0xs9xo,4,57,2,2.0,39.0,0.07,1.0,1.0
mturk,1bkivj7fl2s7bnshyc0xs9xo,4,58,2,2.0,39.0,2.741,1.0,1.0
mturk,1bkivj7fl2s7bnshyc0xs9xo,4,59,2,2.0,39.0,0.367,1.0,1.0
mturk,1bkivj7fl2s7bnshyc0xs9xo,4,60,2,2.0,39.0,0.286,1.0,1.0
mturk,1bkivj7fl2s7bnshyc0xs9xo,5,61,0,2.0,39.0,0.04,0.0,1.0
mturk,1bkivj7fl2s7bnshyc0xs9xo,5,62,0,2.0,39.0,0.085,0.0,0.0
mturk,1bkivj7fl2s7bnshyc0xs9xo,5,63,0,0.0,37.0,0.068,1.0,1.0
mturk,1bkivj7fl2s7bnshyc0xs9xo,5,64,0,0.0,37.0,0.508,1.0,1.0
mturk,1bkivj7fl2s7bnshyc0xs9xo,5,65,0,0.0,37.0,0.247,1.0,1.0
mturk,1bkivj7fl2s7bnshyc0xs9xo,5,66,0,0.0,37.0,0.175,1.0,1.0
mturk,1bkivj7fl2s7bnshyc0xs9xo,5,67,0,0.0,37.0,0.06,1.0,1.0
mturk,1bkivj7fl2s7bnshyc0xs9xo,5,68,0,0.0,37.0,6.346,1.0,1.0
mturk,1bkivj7fl2s7bnshyc0xs9xo,5,69,0,0.0,37.0,0.351,1.0,1.0
mturk,1bkivj7fl2s7bnshyc0xs9xo,5,70,0,0.0,37.0,1.43,1.0,1.0
mturk,1bkivj7fl2s7bnshyc0xs9xo,5,71,0,0.0,37.0,0.251,1.0,1.0
mturk,1bkivj7fl2s7bnshyc0xs9xo,5,72,0,0.0,37.0,0.121,1.0,1.0
mturk,1bkivj7fl2s7bnshyc0xs9xo,5,73,0,0.0,37.0,0.49,1.0,1.0
mturk,1bkivj7fl2s7bnshyc0xs9xo,5,74,0,0.0,37.0,0.171,1.0,1.0
mturk,1bkivj7fl2s7bnshyc0xs9xo,5,75,0,0.0,37.0,0.11,1.0,1.0
mturk,1bkivj7fl2s7bnshyc0xs9xo,6,76,2,0.0,37.0,0.27,0.0,0.0
mturk,1bkivj7fl2s7bnshyc0xs9xo,6,77,2,2.0,39.0,0.183,1.0,1.0
mturk,1bkivj7fl2s7bnshyc0xs9xo,6,78,2,2.0,39.0,0.057,1.0,1.0
mturk,1bkivj7fl2s7bnshyc0xs9xo,6,79,2,2.0,39.0,0.079,1.0,0.0
mturk,1bkivj7fl2s7bnshyc0xs9xo,6,80,2,2.0,39.0,0.212,1.0,0.0
mturk,1bkivj7fl2s7bnshyc0xs9xo,6,81,2,0.0,37.0,1.791,0.0,0.0
mturk,1bkivj7fl2s7bnshyc0xs9xo,6,82,2,1.0,38.0,0.16,0.0,0.0
mturk,1bkivj7fl2s7bnshyc0xs9xo,6,83,2,2.0,39.0,1.27,1.0,0.0
mturk,1bkivj7fl2s7bnshyc0xs9xo,6,84,2,0.0,37.0,1.486,0.0,1.0
mturk,1bkivj7fl2s7bnshyc0xs9xo,6,85,2,0.0,37.0,0.456,0.0,0.0
mturk,1bkivj7fl2s7bnshyc0xs9xo,6,86,2,1.0,38.0,0.322,0.0,1.0
mturk,1bkivj7fl2s7bnshyc0xs9xo,6,87,2,1.0,38.0,0.121,0.0,0.0
mturk,1bkivj7fl2s7bnshyc0xs9xo,6,88,2,1.0,38.0,0.126,0.0,0.0
mturk,1bkivj7fl2s7bnshyc0xs9xo,6,89,2,2.0,39.0,0.269,1.0,1.0
mturk,1bkivj7fl2s7bnshyc0xs9xo,6,90,2,2.0,39.0,0.145,1.0,1.0
mturk,1dhmst23cwb07eov3r1qc7i1,1,1,1,2.0,39.0,1.223,0.0,0.0
mturk,1dhmst23cwb07eov3r1qc7i1,1,2,1,0.0,37.0,1.174,0.0,1.0
mturk,1dhmst23cwb07eov3r1qc7i1,1,3,1,1.0,38.0,2.162,1.0,1.0
mturk,1dhmst23cwb07eov3r1qc7i1,1,4,1,0.0,37.0,1.703,0.0,0.0
mturk,1dhmst23cwb07eov3r1qc7i1,1,5,1,1.0,38.0,1.177,1.0,1.0
mturk,1dhmst23cwb07eov3r1qc7i1,1,6,1,2.0,39.0,1.329,0.0,0.0
mturk,1dhmst23cwb07eov3r1qc7i1,1,7,1,1.0,38.0,1.118,1.0,1.0
mturk,1dhmst23cwb07eov3r1qc7i1,1,8,1,2.0,39.0,1.669,0.0,0.0
mturk,1dhmst23cwb07eov3r1qc7i1,1,9,1,0.0,37.0,1.135,0.0,0.0
mturk,1dhmst23cwb07eov3r1qc7i1,1,10,1,1.0,38.0,0.996,1.0,1.0
mturk,1dhmst23cwb07eov3r1qc7i1,1,11,1,2.0,39.0,0.702,0.0,1.0
mturk,1dhmst23cwb07eov3r1qc7i1,1,12,1,1.0,38.0,2.209,1.0,1.0
mturk,1dhmst23cwb07eov3r1qc7i1,1,13,1,2.0,39.0,1.457,0.0,0.0
mturk,1dhmst23cwb07eov3r1qc7i1,1,14,1,0.0,37.0,2.841,0.0,0.0
mturk,1dhmst23cwb07eov3r1qc7i1,1,15,1,1.0,38.0,0.906,1.0,1.0
mturk,1dhmst23cwb07eov3r1qc7i1,2,16,2,2.0,39.0,0.878,1.0,1.0
mturk,1dhmst23cwb07eov3r1qc7i1,2,17,2,1.0,38.0,0.849,0.0,0.0
mturk,1dhmst23cwb07eov3r1qc7i1,2,18,2,2.0,39.0,0.729,1.0,1.0
mturk,1dhmst23cwb07eov3r1qc7i1,2,19,2,1.0,38.0,2.29,0.0,0.0
mturk,1dhmst23cwb07eov3r1qc7i1,2,20,2,0.0,37.0,1.293,0.0,1.0
mturk,1dhmst23cwb07eov3r1qc7i1,2,21,2,2.0,39.0,0.781,1.0,1.0
mturk,1dhmst23cwb07eov3r1qc7i1,2,22,2,1.0,38.0,1.061,0.0,0.0
mturk,1dhmst23cwb07eov3r1qc7i1,2,23,2,0.0,37.0,0.816,0.0,0.0
mturk,1dhmst23cwb07eov3r1qc7i1,2,24,2,2.0,39.0,0.776,1.0,1.0
mturk,1dhmst23cwb07eov3r1qc7i1,2,25,2,1.0,38.0,0.517,0.0,0.0
mturk,1dhmst23cwb07eov3r1qc7i1,2,26,2,0.0,37.0,0.707,0.0,0.0
mturk,1dhmst23cwb07eov3r1qc7i1,2,27,2,2.0,39.0,0.602,1.0,1.0
mturk,1dhmst23cwb07eov3r1qc7i1,2,28,2,1.0,38.0,1.1,0.0,0.0
mturk,1dhmst23cwb07eov3r1qc7i1,2,29,2,2.0,39.0,0.662,1.0,0.0
mturk,1dhmst23cwb07eov3r1qc7i1,2,30,2,0.0,37.0,0.799,0.0,1.0
mturk,1dhmst23cwb07eov3r1qc7i1,3,31,1,1.0,38.0,0.625,1.0,1.0
mturk,1dhmst23cwb07eov3r1qc7i1,3,32,1,2.0,39.0,1.127,0.0,0.0
mturk,1dhmst23cwb07eov3r1qc7i1,3,33,1,1.0,38.0,0.646,1.0,1.0
mturk,1dhmst23cwb07eov3r1qc7i1,3,34,1,2.0,39.0,0.843,0.0,0.0
mturk,1dhmst23cwb07eov3r1qc7i1,3,35,1,0.0,37.0,0.786,0.0,0.0
mturk,1dhmst23cwb07eov3r1qc7i1,3,36,1,1.0,38.0,1.3,1.0,1.0
mturk,1dhmst23cwb07eov3r1qc7i1,3,37,1,2.0,39.0,0.648,0.0,0.0
mturk,1dhmst23cwb07eov3r1qc7i1,3,38,1,1.0,38.0,0.929,1.0,1.0
mturk,1dhmst23cwb07eov3r1qc7i1,3,39,1,0.0,37.0,0.683,0.0,0.0
mturk,1dhmst23cwb07eov3r1qc7i1,3,40,1,1.0,38.0,0.98,1.0,1.0
mturk,1dhmst23cwb07eov3r1qc7i1,3,41,1,0.0,37.0,0.758,0.0,0.0
mturk,1dhmst23cwb07eov3r1qc7i1,3,42,1,2.0,39.0,0.909,0.0,0.0
mturk,1dhmst23cwb07eov3r1qc7i1,3,43,1,0.0,37.0,0.102,0.0,1.0
mturk,1dhmst23cwb07eov3r1qc7i1,3,44,1,1.0,38.0,0.705,1.0,1.0
mturk,1dhmst23cwb07eov3r1qc7i1,3,45,1,2.0,39.0,1.228,0.0,0.0
mturk,1dhmst23cwb07eov3r1qc7i1,4,46,2,0.0,37.0,0.486,0.0,0.0
mturk,1dhmst23cwb07eov3r1qc7i1,4,47,2,2.0,39.0,0.081,1.0,1.0
mturk,1dhmst23cwb07eov3r1qc7i1,4,48,2,1.0,38.0,0.217,0.0,0.0
mturk,1dhmst23cwb07eov3r1qc7i1,4,49,2,2.0,39.0,0.773,1.0,0.0
mturk,1dhmst23cwb07eov3r1qc7i1,4,50,2,0.0,37.0,1.25,0.0,0.0
mturk,1dhmst23cwb07eov3r1qc7i1,4,51,2,1.0,38.0,0.251,0.0,0.0
mturk,1dhmst23cwb07eov3r1qc7i1,4,52,2,2.0,39.0,1.109,1.0,1.0
mturk,1dhmst23cwb07eov3r1qc7i1,4,53,2,0.0,37.0,0.974,0.0,0.0
mturk,1dhmst23cwb07eov3r1qc7i1,4,54,2,1.0,38.0,0.991,0.0,0.0
mturk,1dhmst23cwb07eov3r1qc7i1,4,55,2,2.0,39.0,0.654,1.0,1.0
mturk,1dhmst23cwb07eov3r1qc7i1,4,56,2,2.0,39.0,0.873,1.0,1.0
mturk,1dhmst23cwb07eov3r1qc7i1,4,57,2,2.0,39.0,0.833,1.0,1.0
mturk,1dhmst23cwb07eov3r1qc7i1,4,58,2,0.0,37.0,0.859,0.0,0.0
mturk,1dhmst23cwb07eov3r1qc7i1,4,59,2,2.0,39.0,0.994,1.0,1.0
mturk,1dhmst23cwb07eov3r1qc7i1,4,60,2,1.0,38.0,0.825,0.0,0.0
mturk,1dhmst23cwb07eov3r1qc7i1,5,61,0,2.0,39.0,0.686,0.0,0.0
mturk,1dhmst23cwb07eov3r1qc7i1,5,62,0,0.0,37.0,0.24,1.0,0.0
mturk,1dhmst23cwb07eov3r1qc7i1,5,63,0,1.0,38.0,0.041,0.0,0.0
mturk,1dhmst23cwb07eov3r1qc7i1,5,64,0,2.0,39.0,1.17,0.0,0.0
mturk,1dhmst23cwb07eov3r1qc7i1,5,65,0,0.0,37.0,0.148,1.0,0.0
mturk,1dhmst23cwb07eov3r1qc7i1,5,66,0,2.0,39.0,0.472,0.0,0.0
mturk,1dhmst23cwb07eov3r1qc7i1,5,67,0,1.0,38.0,0.591,0.0,0.0
mturk,1dhmst23cwb07eov3r1qc7i1,5,68,0,0.0,37.0,0.506,1.0,1.0
mturk,1dhmst23cwb07eov3r1qc7i1,5,69,0,0.0,37.0,0.848,1.0,1.0
mturk,1dhmst23cwb07eov3r1qc7i1,5,70,0,0.0,37.0,0.703,1.0,1.0
mturk,1dhmst23cwb07eov3r1qc7i1,5,71,0,0.0,37.0,0.783,1.0,1.0
mturk,1dhmst23cwb07eov3r1qc7i1,5,72,0,0.0,37.0,1.33,1.0,1.0
mturk,1dhmst23cwb07eov3r1qc7i1,5,73,0,0.0,37.0,1.2,1.0,1.0
mturk,1dhmst23cwb07eov3r1qc7i1,5,74,0,0.0,37.0,1.08,1.0,1.0
mturk,1dhmst23cwb07eov3r1qc7i1,5,75,0,1.0,38.0,0.87,0.0,1.0
mturk,1dhmst23cwb07eov3r1qc7i1,6,76,2,0.0,37.0,0.79,0.0,0.0
mturk,1dhmst23cwb07eov3r1qc7i1,6,77,2,1.0,38.0,0.512,0.0,0.0
mturk,1dhmst23cwb07eov3r1qc7i1,6,78,2,2.0,39.0,0.93,1.0,0.0
mturk,1dhmst23cwb07eov3r1qc7i1,6,79,2,0.0,37.0,0.423,0.0,0.0
mturk,1dhmst23cwb07eov3r1qc7i1,6,80,2,1.0,38.0,1.557,0.0,0.0
mturk,1dhmst23cwb07eov3r1qc7i1,6,81,2,2.0,39.0,0.746,1.0,1.0
mturk,1dhmst23cwb07eov3r1qc7i1,6,82,2,2.0,39.0,0.745,1.0,0.0
mturk,1dhmst23cwb07eov3r1qc7i1,6,83,2,0.0,37.0,1.041,0.0,1.0
mturk,1dhmst23cwb07eov3r1qc7i1,6,84,2,0.0,37.0,0.625,0.0,0.0
mturk,1dhmst23cwb07eov3r1qc7i1,6,85,2,1.0,38.0,0.243,0.0,1.0
mturk,1dhmst23cwb07eov3r1qc7i1,6,86,2,1.0,38.0,0.644,0.0,0.0
mturk,1dhmst23cwb07eov3r1qc7i1,6,87,2,0.0,37.0,0.041,0.0,0.0
mturk,1dhmst23cwb07eov3r1qc7i1,6,88,2,2.0,39.0,1.183,1.0,1.0
mturk,1dhmst23cwb07eov3r1qc7i1,6,89,2,2.0,39.0,0.707,1.0,1.0
mturk,1dhmst23cwb07eov3r1qc7i1,6,90,2,2.0,39.0,0.72,1.0,1.0
mturk,1emkh8fj8n8ujo3jfrrswpna,1,1,1,1.0,38.0,5.607,1.0,0.0
mturk,1emkh8fj8n8ujo3jfrrswpna,1,2,1,0.0,37.0,2.16,0.0,1.0
mturk,1emkh8fj8n8ujo3jfrrswpna,1,3,1,0.0,37.0,0.901,0.0,1.0
mturk,1emkh8fj8n8ujo3jfrrswpna,1,4,1,0.0,37.0,0.658,0.0,0.0
mturk,1emkh8fj8n8ujo3jfrrswpna,1,5,1,0.0,37.0,1.023,0.0,0.0
mturk,1emkh8fj8n8ujo3jfrrswpna,1,6,1,0.0,37.0,0.831,0.0,0.0
mturk,1emkh8fj8n8ujo3jfrrswpna,1,7,1,0.0,37.0,0.728,0.0,0.0
mturk,1emkh8fj8n8ujo3jfrrswpna,1,8,1,2.0,39.0,0.446,0.0,0.0
mturk,1emkh8fj8n8ujo3jfrrswpna,1,9,1,0.0,37.0,0.41,0.0,1.0
mturk,1emkh8fj8n8ujo3jfrrswpna,1,10,1,0.0,37.0,0.605,0.0,0.0
mturk,1emkh8fj8n8ujo3jfrrswpna,1,11,1,1.0,38.0,0.506,1.0,1.0
mturk,1emkh8fj8n8ujo3jfrrswpna,1,12,1,1.0,38.0,0.578,1.0,1.0
mturk,1emkh8fj8n8ujo3jfrrswpna,1,13,1,1.0,38.0,0.48,1.0,1.0
mturk,1emkh8fj8n8ujo3jfrrswpna,1,14,1,1.0,38.0,0.671,1.0,1.0
mturk,1emkh8fj8n8ujo3jfrrswpna,1,15,1,1.0,38.0,0.419,1.0,1.0
mturk,1emkh8fj8n8ujo3jfrrswpna,2,16,2,1.0,38.0,0.453,0.0,0.0
mturk,1emkh8fj8n8ujo3jfrrswpna,2,17,2,2.0,39.0,0.38,1.0,1.0
mturk,1emkh8fj8n8ujo3jfrrswpna,2,18,2,2.0,39.0,0.441,1.0,1.0
mturk,1emkh8fj8n8ujo3jfrrswpna,2,19,2,2.0,39.0,0.433,1.0,1.0
mturk,1emkh8fj8n8ujo3jfrrswpna,2,20,2,2.0,39.0,0.421,1.0,1.0
mturk,1emkh8fj8n8ujo3jfrrswpna,2,21,2,2.0,39.0,0.41,1.0,1.0
mturk,1emkh8fj8n8ujo3jfrrswpna,2,22,2,2.0,39.0,0.352,1.0,1.0
mturk,1emkh8fj8n8ujo3jfrrswpna,2,23,2,2.0,39.0,0.409,1.0,1.0
mturk,1emkh8fj8n8ujo3jfrrswpna,2,24,2,2.0,39.0,0.379,1.0,1.0
mturk,1emkh8fj8n8ujo3jfrrswpna,2,25,2,2.0,39.0,0.744,1.0,1.0
mturk,1emkh8fj8n8ujo3jfrrswpna,2,26,2,2.0,39.0,0.949,1.0,1.0
mturk,1emkh8fj8n8ujo3jfrrswpna,2,27,2,2.0,39.0,0.468,1.0,1.0
mturk,1emkh8fj8n8ujo3jfrrswpna,2,28,2,2.0,39.0,0.535,1.0,0.0
mturk,1emkh8fj8n8ujo3jfrrswpna,2,29,2,1.0,38.0,0.315,0.0,0.0
mturk,1emkh8fj8n8ujo3jfrrswpna,2,30,2,0.0,37.0,0.642,0.0,0.0
mturk,1emkh8fj8n8ujo3jfrrswpna,3,31,1,1.0,38.0,0.429,1.0,1.0
mturk,1emkh8fj8n8ujo3jfrrswpna,3,32,1,1.0,38.0,0.517,1.0,1.0
mturk,1emkh8fj8n8ujo3jfrrswpna,3,33,1,1.0,38.0,0.471,1.0,0.0
mturk,1emkh8fj8n8ujo3jfrrswpna,3,34,1,2.0,39.0,0.413,0.0,0.0
mturk,1emkh8fj8n8ujo3jfrrswpna,3,35,1,2.0,39.0,0.54,0.0,0.0
mturk,1emkh8fj8n8ujo3jfrrswpna,3,36,1,1.0,38.0,0.394,1.0,1.0
mturk,1emkh8fj8n8ujo3jfrrswpna,3,37,1,1.0,38.0,1.504,1.0,1.0
mturk,1emkh8fj8n8ujo3jfrrswpna,3,38,1,1.0,38.0,0.742,1.0,1.0
mturk,1emkh8fj8n8ujo3jfrrswpna,3,39,1,1.0,38.0,0.287,1.0,1.0
mturk,1emkh8fj8n8ujo3jfrrswpna,3,40,1,1.0,38.0,0.317,1.0,1.0
mturk,1emkh8fj8n8ujo3jfrrswpna,3,41,1,1.0,38.0,0.27,1.0,1.0
mturk,1emkh8fj8n8ujo3jfrrswpna,3,42,1,1.0,38.0,0.456,1.0,1.0
mturk,1emkh8fj8n8ujo3jfrrswpna,3,43,1,1.0,38.0,0.479,1.0,1.0
mturk,1emkh8fj8n8ujo3jfrrswpna,3,44,1,1.0,38.0,0.371,1.0,1.0
mturk,1emkh8fj8n8ujo3jfrrswpna,3,45,1,1.0,38.0,0.286,1.0,0.0
mturk,1emkh8fj8n8ujo3jfrrswpna,4,46,2,2.0,39.0,0.243,1.0,0.0
mturk,1emkh8fj8n8ujo3jfrrswpna,4,47,2,2.0,39.0,0.358,1.0,0.0
mturk,1emkh8fj8n8ujo3jfrrswpna,4,48,2,0.0,37.0,0.036,0.0,1.0
mturk,1emkh8fj8n8ujo3jfrrswpna,4,49,2,0.0,37.0,0.367,0.0,1.0
mturk,1emkh8fj8n8ujo3jfrrswpna,4,50,2,0.0,37.0,0.399,0.0,0.0
mturk,1emkh8fj8n8ujo3jfrrswpna,4,51,2,2.0,39.0,0.385,1.0,1.0
mturk,1emkh8fj8n8ujo3jfrrswpna,4,52,2,2.0,39.0,0.334,1.0,0.0
mturk,1emkh8fj8n8ujo3jfrrswpna,4,53,2,1.0,38.0,0.32,0.0,0.0
mturk,1emkh8fj8n8ujo3jfrrswpna,4,54,2,2.0,39.0,0.431,1.0,1.0
mturk,1emkh8fj8n8ujo3jfrrswpna,4,55,2,2.0,39.0,0.471,1.0,1.0
mturk,1emkh8fj8n8ujo3jfrrswpna,4,56,2,2.0,39.0,0.491,1.0,1.0
mturk,1emkh8fj8n8ujo3jfrrswpna,4,57,2,2.0,39.0,0.301,1.0,0.0
mturk,1emkh8fj8n8ujo3jfrrswpna,4,58,2,1.0,38.0,0.376,0.0,0.0
mturk,1emkh8fj8n8ujo3jfrrswpna,4,59,2,0.0,37.0,0.28,0.0,0.0
mturk,1emkh8fj8n8ujo3jfrrswpna,4,60,2,2.0,39.0,0.287,1.0,1.0
mturk,1emkh8fj8n8ujo3jfrrswpna,5,61,0,2.0,39.0,0.45,0.0,0.0
mturk,1emkh8fj8n8ujo3jfrrswpna,5,62,0,1.0,38.0,0.509,0.0,0.0
mturk,1emkh8fj8n8ujo3jfrrswpna,5,63,0,1.0,38.0,0.671,0.0,1.0
mturk,1emkh8fj8n8ujo3jfrrswpna,5,64,0,1.0,38.0,0.306,0.0,0.0
mturk,1emkh8fj8n8ujo3jfrrswpna,5,65,0,2.0,39.0,0.595,0.0,0.0
mturk,1emkh8fj8n8ujo3jfrrswpna,5,66,0,0.0,37.0,0.479,1.0,1.0
mturk,1emkh8fj8n8ujo3jfrrswpna,5,67,0,0.0,37.0,0.378,1.0,1.0
mturk,1emkh8fj8n8ujo3jfrrswpna,5,68,0,0.0,37.0,0.376,1.0,1.0
mturk,1emkh8fj8n8ujo3jfrrswpna,5,69,0,0.0,37.0,0.643,1.0,1.0
mturk,1emkh8fj8n8ujo3jfrrswpna,5,70,0,0.0,37.0,1.06,1.0,1.0
mturk,1emkh8fj8n8ujo3jfrrswpna,5,71,0,0.0,37.0,0.726,1.0,1.0
mturk,1emkh8fj8n8ujo3jfrrswpna,5,72,0,0.0,37.0,2.224,1.0,1.0
mturk,1emkh8fj8n8ujo3jfrrswpna,5,73,0,0.0,37.0,0.693,1.0,0.0
mturk,1emkh8fj8n8ujo3jfrrswpna,5,74,0,2.0,39.0,0.349,0.0,1.0
mturk,1emkh8fj8n8ujo3jfrrswpna,5,75,0,2.0,39.0,0.462,0.0,0.0
mturk,1emkh8fj8n8ujo3jfrrswpna,6,76,2,1.0,38.0,0.215,0.0,0.0
mturk,1emkh8fj8n8ujo3jfrrswpna,6,77,2,1.0,38.0,0.459,0.0,0.0
mturk,1emkh8fj8n8ujo3jfrrswpna,6,78,2,2.0,39.0,0.29,1.0,0.0
mturk,1emkh8fj8n8ujo3jfrrswpna,6,79,2,0.0,37.0,0.286,0.0,0.0
mturk,1emkh8fj8n8ujo3jfrrswpna,6,80,2,1.0,38.0,0.292,0.0,1.0
mturk,1emkh8fj8n8ujo3jfrrswpna,6,81,2,1.0,38.0,0.461,0.0,0.0
mturk,1emkh8fj8n8ujo3jfrrswpna,6,82,2,2.0,39.0,0.401,1.0,1.0
mturk,1emkh8fj8n8ujo3jfrrswpna,6,83,2,2.0,39.0,0.367,1.0,1.0
mturk,1emkh8fj8n8ujo3jfrrswpna,6,84,2,2.0,39.0,0.266,1.0,1.0
mturk,1emkh8fj8n8ujo3jfrrswpna,6,85,2,2.0,39.0,1.045,1.0,0.0
mturk,1emkh8fj8n8ujo3jfrrswpna,6,86,2,1.0,38.0,0.242,0.0,0.0
mturk,1emkh8fj8n8ujo3jfrrswpna,6,87,2,0.0,37.0,0.371,0.0,0.0
mturk,1emkh8fj8n8ujo3jfrrswpna,6,88,2,2.0,39.0,0.369,1.0,1.0
mturk,1emkh8fj8n8ujo3jfrrswpna,6,89,2,2.0,39.0,0.356,1.0,0.0
mturk,1emkh8fj8n8ujo3jfrrswpna,6,90,2,2.0,39.0,0.372,1.0,1.0
mturk,1gzcp8taimbcpvzulsjo6w7a,1,1,2,1.0,38.0,8.237,0.0,1.0
mturk,1gzcp8taimbcpvzulsjo6w7a,1,2,2,2.0,39.0,0.052,1.0,1.0
mturk,1gzcp8taimbcpvzulsjo6w7a,1,3,2,2.0,39.0,0.464,1.0,1.0
mturk,1gzcp8taimbcpvzulsjo6w7a,1,4,2,2.0,39.0,0.132,1.0,0.0
mturk,1gzcp8taimbcpvzulsjo6w7a,1,5,2,0.0,37.0,3.053,0.0,0.0
mturk,1gzcp8taimbcpvzulsjo6w7a,1,6,2,2.0,39.0,0.59,1.0,1.0
mturk,1gzcp8taimbcpvzulsjo6w7a,1,7,2,2.0,39.0,0.215,1.0,1.0
mturk,1gzcp8taimbcpvzulsjo6w7a,1,8,2,2.0,39.0,0.441,1.0,0.0
mturk,1gzcp8taimbcpvzulsjo6w7a,1,9,2,1.0,38.0,0.144,0.0,0.0
mturk,1gzcp8taimbcpvzulsjo6w7a,1,10,2,2.0,39.0,0.216,1.0,1.0
mturk,1gzcp8taimbcpvzulsjo6w7a,1,11,2,2.0,39.0,0.056,1.0,1.0
mturk,1gzcp8taimbcpvzulsjo6w7a,1,12,2,0.0,37.0,0.012,0.0,1.0
mturk,1gzcp8taimbcpvzulsjo6w7a,1,13,2,1.0,38.0,0.102,0.0,1.0
mturk,1gzcp8taimbcpvzulsjo6w7a,1,14,2,2.0,39.0,0.234,1.0,1.0
mturk,1gzcp8taimbcpvzulsjo6w7a,1,15,2,1.0,38.0,0.107,0.0,0.0
mturk,1gzcp8taimbcpvzulsjo6w7a,2,16,1,0.0,37.0,0.055,0.0,0.0
mturk,1gzcp8taimbcpvzulsjo6w7a,2,17,1,2.0,39.0,0.291,0.0,0.0
mturk,1gzcp8taimbcpvzulsjo6w7a,2,18,1,2.0,39.0,0.779,0.0,0.0
mturk,1gzcp8taimbcpvzulsjo6w7a,2,19,1,0.0,37.0,0.077,0.0,0.0
mturk,1gzcp8taimbcpvzulsjo6w7a,2,20,1,1.0,38.0,0.058,1.0,0.0
mturk,1gzcp8taimbcpvzulsjo6w7a,2,21,1,2.0,39.0,0.201,0.0,0.0
mturk,1gzcp8taimbcpvzulsjo6w7a,2,22,1,2.0,39.0,0.343,0.0,0.0
mturk,1gzcp8taimbcpvzulsjo6w7a,2,23,1,0.0,37.0,0.616,0.0,0.0
mturk,1gzcp8taimbcpvzulsjo6w7a,2,24,1,1.0,38.0,1.52,1.0,1.0
mturk,1gzcp8taimbcpvzulsjo6w7a,2,25,1,1.0,38.0,0.55,1.0,1.0
mturk,1gzcp8taimbcpvzulsjo6w7a,2,26,1,1.0,38.0,0.284,1.0,1.0
mturk,1gzcp8taimbcpvzulsjo6w7a,2,27,1,1.0,38.0,0.296,1.0,1.0
mturk,1gzcp8taimbcpvzulsjo6w7a,2,28,1,1.0,38.0,0.153,1.0,1.0
mturk,1gzcp8taimbcpvzulsjo6w7a,2,29,1,1.0,38.0,0.102,1.0,1.0
mturk,1gzcp8taimbcpvzulsjo6w7a,2,30,1,1.0,38.0,0.384,1.0,1.0
mturk,1gzcp8taimbcpvzulsjo6w7a,3,31,2,1.0,38.0,0.261,0.0,1.0
mturk,1gzcp8taimbcpvzulsjo6w7a,3,32,2,1.0,38.0,0.377,0.0,1.0
mturk,1gzcp8taimbcpvzulsjo6w7a,3,33,2,1.0,38.0,0.09,0.0,0.0
mturk,1gzcp8taimbcpvzulsjo6w7a,3,34,2,2.0,39.0,0.64,1.0,1.0
mturk,1gzcp8taimbcpvzulsjo6w7a,3,35,2,2.0,39.0,0.241,1.0,1.0
mturk,1gzcp8taimbcpvzulsjo6w7a,3,36,2,2.0,39.0,0.363,1.0,1.0
mturk,1gzcp8taimbcpvzulsjo6w7a,3,37,2,2.0,39.0,0.05,1.0,1.0
mturk,1gzcp8taimbcpvzulsjo6w7a,3,38,2,2.0,39.0,0.443,1.0,1.0
mturk,1gzcp8taimbcpvzulsjo6w7a,3,39,2,2.0,39.0,0.185,1.0,1.0
mturk,1gzcp8taimbcpvzulsjo6w7a,3,40,2,2.0,39.0,0.152,1.0,1.0
mturk,1gzcp8taimbcpvzulsjo6w7a,3,41,2,2.0,39.0,0.072,1.0,1.0
mturk,1gzcp8taimbcpvzulsjo6w7a,3,42,2,2.0,39.0,0.291,1.0,1.0
mturk,1gzcp8taimbcpvzulsjo6w7a,3,43,2,2.0,39.0,0.056,1.0,1.0
mturk,1gzcp8taimbcpvzulsjo6w7a,3,44,2,2.0,39.0,0.188,1.0,0.0
mturk,1gzcp8taimbcpvzulsjo6w7a,3,45,2,1.0,38.0,0.072,0.0,0.0
mturk,1gzcp8taimbcpvzulsjo6w7a,4,46,0,0.0,37.0,0.306,1.0,1.0
mturk,1gzcp8taimbcpvzulsjo6w7a,4,47,0,0.0,37.0,0.135,1.0,1.0
mturk,1gzcp8taimbcpvzulsjo6w7a,4,48,0,0.0,37.0,0.085,1.0,1.0
mturk,1gzcp8taimbcpvzulsjo6w7a,4,49,0,0.0,37.0,0.229,1.0,1.0
mturk,1gzcp8taimbcpvzulsjo6w7a,4,50,0,0.0,37.0,0.274,1.0,1.0
mturk,1gzcp8taimbcpvzulsjo6w7a,4,51,0,1.0,38.0,0.81,0.0,0.0
mturk,1gzcp8taimbcpvzulsjo6w7a,4,52,0,2.0,39.0,0.168,0.0,0.0
mturk,1gzcp8taimbcpvzulsjo6w7a,4,53,0,0.0,37.0,0.166,1.0,1.0
mturk,1gzcp8taimbcpvzulsjo6w7a,4,54,0,0.0,37.0,0.122,1.0,1.0
mturk,1gzcp8taimbcpvzulsjo6w7a,4,55,0,0.0,37.0,0.028,1.0,1.0
mturk,1gzcp8taimbcpvzulsjo6w7a,4,56,0,0.0,37.0,0.247,1.0,1.0
mturk,1gzcp8taimbcpvzulsjo6w7a,4,57,0,0.0,37.0,0.072,1.0,1.0
mturk,1gzcp8taimbcpvzulsjo6w7a,4,58,0,0.0,37.0,0.356,1.0,1.0
mturk,1gzcp8taimbcpvzulsjo6w7a,4,59,0,0.0,37.0,0.048,1.0,1.0
mturk,1gzcp8taimbcpvzulsjo6w7a,4,60,0,0.0,37.0,0.012,1.0,1.0
mturk,1gzcp8taimbcpvzulsjo6w7a,5,61,1,0.0,37.0,0.165,0.0,1.0
mturk,1gzcp8taimbcpvzulsjo6w7a,5,62,1,0.0,37.0,0.215,0.0,1.0
mturk,1gzcp8taimbcpvzulsjo6w7a,5,63,1,0.0,37.0,0.269,0.0,0.0
mturk,1gzcp8taimbcpvzulsjo6w7a,5,64,1,1.0,38.0,0.622,1.0,1.0
mturk,1gzcp8taimbcpvzulsjo6w7a,5,65,1,1.0,38.0,0.23,1.0,1.0
mturk,1gzcp8taimbcpvzulsjo6w7a,5,66,1,1.0,38.0,0.115,1.0,1.0
mturk,1gzcp8taimbcpvzulsjo6w7a,5,67,1,1.0,38.0,0.099,1.0,0.0
mturk,1gzcp8taimbcpvzulsjo6w7a,5,68,1,2.0,39.0,0.129,0.0,0.0
mturk,1gzcp8taimbcpvzulsjo6w7a,5,69,1,0.0,37.0,0.161,0.0,1.0
mturk,1gzcp8taimbcpvzulsjo6w7a,5,70,1,0.0,37.0,0.093,0.0,0.0
mturk,1gzcp8taimbcpvzulsjo6w7a,5,71,1,1.0,38.0,0.637,1.0,1.0
mturk,1gzcp8taimbcpvzulsjo6w7a,5,72,1,1.0,38.0,0.142,1.0,1.0
mturk,1gzcp8taimbcpvzulsjo6w7a,5,73,1,1.0,38.0,0.094,1.0,1.0
mturk,1gzcp8taimbcpvzulsjo6w7a,5,74,1,1.0,38.0,0.331,1.0,1.0
mturk,1gzcp8taimbcpvzulsjo6w7a,5,75,1,1.0,38.0,0.278,1.0,1.0
mturk,1gzcp8taimbcpvzulsjo6w7a,6,76,2,1.0,38.0,0.113,0.0,1.0
mturk,1gzcp8taimbcpvzulsjo6w7a,6,77,2,1.0,38.0,0.227,0.0,0.0
mturk,1gzcp8taimbcpvzulsjo6w7a,6,78,2,2.0,39.0,0.123,1.0,0.0
mturk,1gzcp8taimbcpvzulsjo6w7a,6,79,2,0.0,37.0,0.531,0.0,0.0
mturk,1gzcp8taimbcpvzulsjo6w7a,6,80,2,1.0,38.0,0.222,0.0,1.0
mturk,1gzcp8taimbcpvzulsjo6w7a,6,81,2,1.0,38.0,0.209,0.0,0.0
mturk,1gzcp8taimbcpvzulsjo6w7a,6,82,2,2.0,39.0,0.548,1.0,1.0
mturk,1gzcp8taimbcpvzulsjo6w7a,6,83,2,2.0,39.0,0.075,1.0,1.0
mturk,1gzcp8taimbcpvzulsjo6w7a,6,84,2,2.0,39.0,0.126,1.0,1.0
mturk,1gzcp8taimbcpvzulsjo6w7a,6,85,2,2.0,39.0,0.233,1.0,1.0
mturk,1gzcp8taimbcpvzulsjo6w7a,6,86,2,2.0,39.0,0.187,1.0,0.0
mturk,1gzcp8taimbcpvzulsjo6w7a,6,87,2,0.0,37.0,0.097,0.0,0.0
mturk,1gzcp8taimbcpvzulsjo6w7a,6,88,2,1.0,38.0,0.026,0.0,0.0
mturk,1gzcp8taimbcpvzulsjo6w7a,6,89,2,2.0,39.0,0.449,1.0,1.0
mturk,1gzcp8taimbcpvzulsjo6w7a,6,90,2,2.0,39.0,0.111,1.0,1.0
mturk,1h67fnjgm45dzniy6y91vld7,1,1,2,1.0,38.0,1.732,0.0,1.0
mturk,1h67fnjgm45dzniy6y91vld7,1,2,2,1.0,38.0,0.689,0.0,0.0
mturk,1h67fnjgm45dzniy6y91vld7,1,3,2,2.0,39.0,0.335,1.0,1.0
mturk,1h67fnjgm45dzniy6y91vld7,1,4,2,0.0,37.0,0.456,0.0,0.0
mturk,1h67fnjgm45dzniy6y91vld7,1,5,2,2.0,39.0,0.304,1.0,0.0
mturk,1h67fnjgm45dzniy6y91vld7,1,6,2,1.0,38.0,0.09,0.0,0.0
mturk,1h67fnjgm45dzniy6y91vld7,1,7,2,1.0,38.0,0.354,0.0,0.0
mturk,1h67fnjgm45dzniy6y91vld7,1,8,2,1.0,38.0,0.135,0.0,0.0
mturk,1h67fnjgm45dzniy6y91vld7,1,9,2,2.0,39.0,0.288,1.0,1.0
mturk,1h67fnjgm45dzniy6y91vld7,1,10,2,2.0,39.0,0.276,1.0,1.0
mturk,1h67fnjgm45dzniy6y91vld7,1,11,2,2.0,39.0,0.579,1.0,1.0
mturk,1h67fnjgm45dzniy6y91vld7,1,12,2,2.0,39.0,0.259,1.0,1.0
mturk,1h67fnjgm45dzniy6y91vld7,1,13,2,2.0,39.0,0.239,1.0,1.0
mturk,1h67fnjgm45dzniy6y91vld7,1,14,2,2.0,39.0,0.268,1.0,1.0
mturk,1h67fnjgm45dzniy6y91vld7,1,15,2,2.0,39.0,0.209,1.0,0.0
mturk,1h67fnjgm45dzniy6y91vld7,2,16,0,0.0,37.0,0.294,1.0,1.0
mturk,1h67fnjgm45dzniy6y91vld7,2,17,0,2.0,39.0,0.116,0.0,0.0
mturk,1h67fnjgm45dzniy6y91vld7,2,18,0,0.0,37.0,0.262,1.0,1.0
mturk,1h67fnjgm45dzniy6y91vld7,2,19,0,0.0,37.0,0.273,1.0,1.0
mturk,1h67fnjgm45dzniy6y91vld7,2,20,0,0.0,37.0,0.231,1.0,0.0
mturk,1h67fnjgm45dzniy6y91vld7,2,21,0,0.0,37.0,0.171,1.0,1.0
mturk,1h67fnjgm45dzniy6y91vld7,2,22,0,0.0,37.0,0.263,1.0,0.0
mturk,1h67fnjgm45dzniy6y91vld7,2,23,0,1.0,38.0,0.265,0.0,0.0
mturk,1h67fnjgm45dzniy6y91vld7,2,24,0,0.0,37.0,0.127,1.0,1.0
mturk,1h67fnjgm45dzniy6y91vld7,2,25,0,0.0,37.0,0.136,1.0,0.0
mturk,1h67fnjgm45dzniy6y91vld7,2,26,0,2.0,39.0,0.19,0.0,0.0
mturk,1h67fnjgm45dzniy6y91vld7,2,27,0,2.0,39.0,0.126,0.0,0.0
mturk,1h67fnjgm45dzniy6y91vld7,2,28,0,0.0,37.0,0.057,1.0,0.0
mturk,1h67fnjgm45dzniy6y91vld7,2,29,0,0.0,37.0,0.165,1.0,1.0
mturk,1h67fnjgm45dzniy6y91vld7,2,30,0,0.0,37.0,0.056,1.0,0.0
mturk,1h67fnjgm45dzniy6y91vld7,3,31,2,0.0,37.0,0.127,0.0,0.0
mturk,1h67fnjgm45dzniy6y91vld7,3,32,2,1.0,38.0,0.003,0.0,0.0
mturk,1h67fnjgm45dzniy6y91vld7,3,33,2,1.0,38.0,0.082,0.0,0.0
mturk,1h67fnjgm45dzniy6y91vld7,3,34,2,2.0,39.0,0.103,1.0,1.0
mturk,1h67fnjgm45dzniy6y91vld7,3,35,2,2.0,39.0,0.212,1.0,0.0
mturk,1h67fnjgm45dzniy6y91vld7,3,36,2,2.0,39.0,0.215,1.0,1.0
mturk,1h67fnjgm45dzniy6y91vld7,3,37,2,2.0,39.0,0.339,1.0,1.0
mturk,1h67fnjgm45dzniy6y91vld7,3,38,2,2.0,39.0,0.188,1.0,1.0
mturk,1h67fnjgm45dzniy6y91vld7,3,39,2,2.0,39.0,0.267,1.0,1.0
mturk,1h67fnjgm45dzniy6y91vld7,3,40,2,2.0,39.0,0.288,1.0,1.0
mturk,1h67fnjgm45dzniy6y91vld7,3,41,2,2.0,39.0,0.209,1.0,1.0
mturk,1h67fnjgm45dzniy6y91vld7,3,42,2,2.0,39.0,0.229,1.0,1.0
mturk,1h67fnjgm45dzniy6y91vld7,3,43,2,2.0,39.0,0.191,1.0,1.0
mturk,1h67fnjgm45dzniy6y91vld7,3,44,2,2.0,39.0,0.283,1.0,1.0
mturk,1h67fnjgm45dzniy6y91vld7,3,45,2,2.0,39.0,0.207,1.0,0.0
mturk,1h67fnjgm45dzniy6y91vld7,4,46,0,2.0,39.0,0.215,0.0,0.0
mturk,1h67fnjgm45dzniy6y91vld7,4,47,0,0.0,37.0,0.126,1.0,1.0
mturk,1h67fnjgm45dzniy6y91vld7,4,48,0,0.0,37.0,0.217,1.0,1.0
mturk,1h67fnjgm45dzniy6y91vld7,4,49,0,0.0,37.0,0.519,1.0,1.0
mturk,1h67fnjgm45dzniy6y91vld7,4,50,0,0.0,37.0,0.08,1.0,1.0
mturk,1h67fnjgm45dzniy6y91vld7,4,51,0,0.0,37.0,0.253,1.0,1.0
mturk,1h67fnjgm45dzniy6y91vld7,4,52,0,0.0,37.0,0.239,1.0,1.0
mturk,1h67fnjgm45dzniy6y91vld7,4,53,0,0.0,37.0,0.184,1.0,1.0
mturk,1h67fnjgm45dzniy6y91vld7,4,54,0,0.0,37.0,0.225,1.0,1.0
mturk,1h67fnjgm45dzniy6y91vld7,4,55,0,0.0,37.0,0.283,1.0,0.0
mturk,1h67fnjgm45dzniy6y91vld7,4,56,0,0.0,37.0,0.245,1.0,1.0
mturk,1h67fnjgm45dzniy6y91vld7,4,57,0,0.0,37.0,0.252,1.0,0.0
mturk,1h67fnjgm45dzniy6y91vld7,4,58,0,1.0,38.0,0.236,0.0,0.0
mturk,1h67fnjgm45dzniy6y91vld7,4,59,0,2.0,39.0,0.06,0.0,0.0
mturk,1h67fnjgm45dzniy6y91vld7,4,60,0,1.0,38.0,0.177,0.0,0.0
mturk,1h67fnjgm45dzniy6y91vld7,5,61,2,1.0,38.0,0.049,0.0,0.0
mturk,1h67fnjgm45dzniy6y91vld7,5,62,2,0.0,37.0,0.238,0.0,0.0
mturk,1h67fnjgm45dzniy6y91vld7,5,63,2,0.0,37.0,0.106,0.0,0.0
mturk,1h67fnjgm45dzniy6y91vld7,5,64,2,2.0,39.0,0.135,1.0,1.0
mturk,1h67fnjgm45dzniy6y91vld7,5,65,2,2.0,39.0,0.119,1.0,1.0
mturk,1h67fnjgm45dzniy6y91vld7,5,66,2,2.0,39.0,0.177,1.0,1.0
mturk,1h67fnjgm45dzniy6y91vld7,5,67,2,2.0,39.0,0.246,1.0,1.0
mturk,1h67fnjgm45dzniy6y91vld7,5,68,2,2.0,39.0,0.146,1.0,0.0
mturk,1h67fnjgm45dzniy6y91vld7,5,69,2,2.0,39.0,0.003,1.0,1.0
mturk,1h67fnjgm45dzniy6y91vld7,5,70,2,2.0,39.0,0.13,1.0,0.0
mturk,1h67fnjgm45dzniy6y91vld7,5,71,2,0.0,37.0,0.041,0.0,0.0
mturk,1h67fnjgm45dzniy6y91vld7,5,72,2,2.0,39.0,0.003,1.0,1.0
mturk,1h67fnjgm45dzniy6y91vld7,5,73,2,2.0,39.0,0.457,1.0,1.0
mturk,1h67fnjgm45dzniy6y91vld7,5,74,2,2.0,39.0,0.165,1.0,0.0
mturk,1h67fnjgm45dzniy6y91vld7,5,75,2,2.0,39.0,0.259,1.0,1.0
mturk,1h67fnjgm45dzniy6y91vld7,6,76,1,2.0,39.0,0.243,0.0,0.0
mturk,1h67fnjgm45dzniy6y91vld7,6,77,1,2.0,39.0,0.265,0.0,0.0
mturk,1h67fnjgm45dzniy6y91vld7,6,78,1,0.0,37.0,0.219,0.0,0.0
mturk,1h67fnjgm45dzniy6y91vld7,6,79,1,1.0,38.0,0.182,1.0,1.0
mturk,1h67fnjgm45dzniy6y91vld7,6,80,1,1.0,38.0,0.095,1.0,1.0
mturk,1h67fnjgm45dzniy6y91vld7,6,81,1,1.0,38.0,0.225,1.0,1.0
mturk,1h67fnjgm45dzniy6y91vld7,6,82,1,1.0,38.0,0.107,1.0,0.0
mturk,1h67fnjgm45dzniy6y91vld7,6,83,1,1.0,38.0,0.239,1.0,1.0
mturk,1h67fnjgm45dzniy6y91vld7,6,84,1,1.0,38.0,0.229,1.0,1.0
mturk,1h67fnjgm45dzniy6y91vld7,6,85,1,1.0,38.0,0.092,1.0,1.0
mturk,1h67fnjgm45dzniy6y91vld7,6,86,1,1.0,38.0,0.246,1.0,1.0
mturk,1h67fnjgm45dzniy6y91vld7,6,87,1,1.0,38.0,0.054,1.0,1.0
mturk,1h67fnjgm45dzniy6y91vld7,6,88,1,1.0,38.0,0.138,1.0,1.0
mturk,1h67fnjgm45dzniy6y91vld7,6,89,1,1.0,38.0,0.191,1.0,1.0
mturk,1h67fnjgm45dzniy6y91vld7,6,90,1,1.0,38.0,0.188,1.0,1.0
mturk,1ujw1gehpdx2ufvvvly3gx69,1,1,0,1.0,38.0,4.184,0.0,1.0
mturk,1ujw1gehpdx2ufvvvly3gx69,1,2,0,1.0,38.0,1.412,0.0,0.0
mturk,1ujw1gehpdx2ufvvvly3gx69,1,3,0,1.0,38.0,1.209,0.0,0.0
mturk,1ujw1gehpdx2ufvvvly3gx69,1,4,0,0.0,37.0,0.473,1.0,1.0
mturk,1ujw1gehpdx2ufvvvly3gx69,1,5,0,0.0,37.0,0.356,1.0,1.0
mturk,1ujw1gehpdx2ufvvvly3gx69,1,6,0,0.0,37.0,0.322,1.0,1.0
mturk,1ujw1gehpdx2ufvvvly3gx69,1,7,0,0.0,37.0,0.482,1.0,1.0
mturk,1ujw1gehpdx2ufvvvly3gx69,1,8,0,0.0,37.0,0.348,1.0,1.0
mturk,1ujw1gehpdx2ufvvvly3gx69,1,9,0,0.0,37.0,0.317,1.0,0.0
mturk,1ujw1gehpdx2ufvvvly3gx69,1,10,0,0.0,37.0,0.327,1.0,1.0
mturk,1ujw1gehpdx2ufvvvly3gx69,1,11,0,0.0,37.0,0.337,1.0,1.0
mturk,1ujw1gehpdx2ufvvvly3gx69,1,12,0,0.0,37.0,0.387,1.0,1.0
mturk,1ujw1gehpdx2ufvvvly3gx69,1,13,0,0.0,37.0,0.381,1.0,0.0
mturk,1ujw1gehpdx2ufvvvly3gx69,1,14,0,0.0,37.0,0.304,1.0,1.0
mturk,1ujw1gehpdx2ufvvvly3gx69,1,15,0,0.0,37.0,0.293,1.0,1.0
mturk,1ujw1gehpdx2ufvvvly3gx69,2,16,2,0.0,37.0,0.318,0.0,1.0
mturk,1ujw1gehpdx2ufvvvly3gx69,2,17,2,0.0,37.0,0.281,0.0,0.0
mturk,1ujw1gehpdx2ufvvvly3gx69,2,18,2,0.0,37.0,0.317,0.0,1.0
mturk,1ujw1gehpdx2ufvvvly3gx69,2,19,2,0.0,37.0,0.29,0.0,0.0
mturk,1ujw1gehpdx2ufvvvly3gx69,2,20,2,0.0,37.0,0.293,0.0,0.0
mturk,1ujw1gehpdx2ufvvvly3gx69,2,21,2,2.0,39.0,0.446,1.0,1.0
mturk,1ujw1gehpdx2ufvvvly3gx69,2,22,2,2.0,39.0,0.284,1.0,0.0
mturk,1ujw1gehpdx2ufvvvly3gx69,2,23,2,2.0,39.0,0.278,1.0,1.0
mturk,1ujw1gehpdx2ufvvvly3gx69,2,24,2,2.0,39.0,0.271,1.0,1.0
mturk,1ujw1gehpdx2ufvvvly3gx69,2,25,2,2.0,39.0,0.271,1.0,1.0
mturk,1ujw1gehpdx2ufvvvly3gx69,2,26,2,2.0,39.0,0.261,1.0,0.0
mturk,1ujw1gehpdx2ufvvvly3gx69,2,27,2,2.0,39.0,0.122,1.0,1.0
mturk,1ujw1gehpdx2ufvvvly3gx69,2,28,2,2.0,39.0,0.263,1.0,0.0
mturk,1ujw1gehpdx2ufvvvly3gx69,2,29,2,2.0,39.0,0.215,1.0,0.0
mturk,1ujw1gehpdx2ufvvvly3gx69,2,30,2,1.0,38.0,0.817,0.0,0.0
mturk,1ujw1gehpdx2ufvvvly3gx69,3,31,1,1.0,38.0,0.303,1.0,1.0
mturk,1ujw1gehpdx2ufvvvly3gx69,3,32,1,1.0,38.0,0.277,1.0,1.0
mturk,1ujw1gehpdx2ufvvvly3gx69,3,33,1,1.0,38.0,0.28,1.0,1.0
mturk,1ujw1gehpdx2ufvvvly3gx69,3,34,1,1.0,38.0,0.302,1.0,1.0
mturk,1ujw1gehpdx2ufvvvly3gx69,3,35,1,1.0,38.0,0.259,1.0,1.0
mturk,1ujw1gehpdx2ufvvvly3gx69,3,36,1,1.0,38.0,4.243,1.0,1.0
mturk,1ujw1gehpdx2ufvvvly3gx69,3,37,1,1.0,38.0,0.397,1.0,0.0
mturk,1ujw1gehpdx2ufvvvly3gx69,3,38,1,1.0,38.0,0.324,1.0,1.0
mturk,1ujw1gehpdx2ufvvvly3gx69,3,39,1,1.0,38.0,0.267,1.0,0.0
mturk,1ujw1gehpdx2ufvvvly3gx69,3,40,1,1.0,38.0,0.307,1.0,1.0
mturk,1ujw1gehpdx2ufvvvly3gx69,3,41,1,1.0,38.0,0.395,1.0,1.0
mturk,1ujw1gehpdx2ufvvvly3gx69,3,42,1,1.0,38.0,0.433,1.0,1.0
mturk,1ujw1gehpdx2ufvvvly3gx69,3,43,1,1.0,38.0,0.348,1.0,1.0
mturk,1ujw1gehpdx2ufvvvly3gx69,3,44,1,1.0,38.0,0.545,1.0,0.0
mturk,1ujw1gehpdx2ufvvvly3gx69,3,45,1,1.0,38.0,0.278,1.0,1.0
mturk,1ujw1gehpdx2ufvvvly3gx69,4,46,0,1.0,38.0,0.296,0.0,0.0
mturk,1ujw1gehpdx2ufvvvly3gx69,4,47,0,1.0,38.0,0.252,0.0,1.0
mturk,1ujw1gehpdx2ufvvvly3gx69,4,48,0,1.0,38.0,0.258,0.0,0.0
mturk,1ujw1gehpdx2ufvvvly3gx69,4,49,0,1.0,38.0,0.262,0.0,0.0
mturk,1ujw1gehpdx2ufvvvly3gx69,4,50,0,0.0,37.0,0.289,1.0,1.0
mturk,1ujw1gehpdx2ufvvvly3gx69,4,51,0,0.0,37.0,0.272,1.0,0.0
mturk,1ujw1gehpdx2ufvvvly3gx69,4,52,0,0.0,37.0,0.281,1.0,1.0
mturk,1ujw1gehpdx2ufvvvly3gx69,4,53,0,0.0,37.0,0.304,1.0,1.0
mturk,1ujw1gehpdx2ufvvvly3gx69,4,54,0,0.0,37.0,0.298,1.0,0.0
mturk,1ujw1gehpdx2ufvvvly3gx69,4,55,0,0.0,37.0,0.247,1.0,1.0
mturk,1ujw1gehpdx2ufvvvly3gx69,4,56,0,0.0,37.0,0.267,1.0,0.0
mturk,1ujw1gehpdx2ufvvvly3gx69,4,57,0,0.0,37.0,0.264,1.0,1.0
mturk,1ujw1gehpdx2ufvvvly3gx69,4,58,0,0.0,37.0,0.256,1.0,0.0
mturk,1ujw1gehpdx2ufvvvly3gx69,4,59,0,0.0,37.0,0.193,1.0,1.0
mturk,1ujw1gehpdx2ufvvvly3gx69,4,60,0,0.0,37.0,0.219,1.0,1.0
mturk,1ujw1gehpdx2ufvvvly3gx69,5,61,1,0.0,37.0,0.234,0.0,0.0
mturk,1ujw1gehpdx2ufvvvly3gx69,5,62,1,0.0,37.0,0.237,0.0,0.0
mturk,1ujw1gehpdx2ufvvvly3gx69,5,63,1,1.0,38.0,0.174,1.0,1.0
mturk,1ujw1gehpdx2ufvvvly3gx69,5,64,1,1.0,38.0,0.219,1.0,0.0
mturk,1ujw1gehpdx2ufvvvly3gx69,5,65,1,1.0,38.0,0.232,1.0,1.0
mturk,1ujw1gehpdx2ufvvvly3gx69,5,66,1,1.0,38.0,0.28,1.0,1.0
mturk,1ujw1gehpdx2ufvvvly3gx69,5,67,1,1.0,38.0,0.279,1.0,1.0
mturk,1ujw1gehpdx2ufvvvly3gx69,5,68,1,1.0,38.0,0.207,1.0,1.0
mturk,1ujw1gehpdx2ufvvvly3gx69,5,69,1,1.0,38.0,0.263,1.0,1.0
mturk,1ujw1gehpdx2ufvvvly3gx69,5,70,1,1.0,38.0,0.265,1.0,1.0
mturk,1ujw1gehpdx2ufvvvly3gx69,5,71,1,1.0,38.0,0.219,1.0,1.0
mturk,1ujw1gehpdx2ufvvvly3gx69,5,72,1,1.0,38.0,0.246,1.0,1.0
mturk,1ujw1gehpdx2ufvvvly3gx69,5,73,1,1.0,38.0,0.263,1.0,0.0
mturk,1ujw1gehpdx2ufvvvly3gx69,5,74,1,1.0,38.0,0.216,1.0,0.0
mturk,1ujw1gehpdx2ufvvvly3gx69,5,75,1,2.0,39.0,0.231,0.0,0.0
mturk,1ujw1gehpdx2ufvvvly3gx69,6,76,2,2.0,39.0,0.114,1.0,0.0
mturk,1ujw1gehpdx2ufvvvly3gx69,6,77,2,0.0,37.0,0.166,0.0,0.0
mturk,1ujw1gehpdx2ufvvvly3gx69,6,78,2,0.0,37.0,0.231,0.0,1.0
mturk,1ujw1gehpdx2ufvvvly3gx69,6,79,2,0.0,37.0,0.197,0.0,1.0
mturk,1ujw1gehpdx2ufvvvly3gx69,6,80,2,0.0,37.0,0.194,0.0,0.0
mturk,1ujw1gehpdx2ufvvvly3gx69,6,81,2,0.0,37.0,0.132,0.0,1.0
mturk,1ujw1gehpdx2ufvvvly3gx69,6,82,2,0.0,37.0,0.269,0.0,0.0
mturk,1ujw1gehpdx2ufvvvly3gx69,6,83,2,0.0,37.0,0.19,0.0,0.0
mturk,1ujw1gehpdx2ufvvvly3gx69,6,84,2,1.0,38.0,0.134,0.0,0.0
mturk,1ujw1gehpdx2ufvvvly3gx69,6,85,2,1.0,38.0,0.998,0.0,0.0
mturk,1ujw1gehpdx2ufvvvly3gx69,6,86,2,2.0,39.0,0.308,1.0,1.0
mturk,1ujw1gehpdx2ufvvvly3gx69,6,87,2,2.0,39.0,0.266,1.0,1.0
mturk,1ujw1gehpdx2ufvvvly3gx69,6,88,2,2.0,39.0,0.267,1.0,1.0
mturk,1ujw1gehpdx2ufvvvly3gx69,6,89,2,2.0,39.0,0.299,1.0,0.0
mturk,1ujw1gehpdx2ufvvvly3gx69,6,90,2,2.0,39.0,0.252,1.0,1.0
mturk,1ww0gs6eyl6uksonzztb0ezu,1,1,0,2.0,39.0,6.32,0.0,0.0
mturk,1ww0gs6eyl6uksonzztb0ezu,1,2,0,0.0,37.0,1.456,1.0,1.0
mturk,1ww0gs6eyl6uksonzztb0ezu,1,3,0,0.0,37.0,1.011,1.0,1.0
mturk,1ww0gs6eyl6uksonzztb0ezu,1,4,0,0.0,37.0,0.811,1.0,1.0
mturk,1ww0gs6eyl6uksonzztb0ezu,1,5,0,0.0,37.0,1.092,1.0,0.0
mturk,1ww0gs6eyl6uksonzztb0ezu,1,6,0,0.0,37.0,0.867,1.0,1.0
mturk,1ww0gs6eyl6uksonzztb0ezu,1,7,0,0.0,37.0,0.922,1.0,0.0
mturk,1ww0gs6eyl6uksonzztb0ezu,1,8,0,0.0,37.0,1.163,1.0,1.0
mturk,1ww0gs6eyl6uksonzztb0ezu,1,9,0,0.0,37.0,0.669,1.0,1.0
mturk,1ww0gs6eyl6uksonzztb0ezu,1,10,0,0.0,37.0,0.843,1.0,1.0
mturk,1ww0gs6eyl6uksonzztb0ezu,1,11,0,0.0,37.0,0.689,1.0,0.0
mturk,1ww0gs6eyl6uksonzztb0ezu,1,12,0,0.0,37.0,0.635,1.0,1.0
mturk,1ww0gs6eyl6uksonzztb0ezu,1,13,0,0.0,37.0,0.739,1.0,0.0
mturk,1ww0gs6eyl6uksonzztb0ezu,1,14,0,0.0,37.0,0.908,1.0,1.0
mturk,1ww0gs6eyl6uksonzztb0ezu,1,15,0,0.0,37.0,0.739,1.0,0.0
mturk,1ww0gs6eyl6uksonzztb0ezu,2,16,2,0.0,37.0,0.542,0.0,1.0
mturk,1ww0gs6eyl6uksonzztb0ezu,2,17,2,1.0,38.0,0.577,0.0,0.0
mturk,1ww0gs6eyl6uksonzztb0ezu,2,18,2,0.0,37.0,4.244,0.0,0.0
mturk,1ww0gs6eyl6uksonzztb0ezu,2,19,2,2.0,39.0,0.722,1.0,1.0
mturk,1ww0gs6eyl6uksonzztb0ezu,2,20,2,2.0,39.0,0.853,1.0,1.0
mturk,1ww0gs6eyl6uksonzztb0ezu,2,21,2,2.0,39.0,0.644,1.0,1.0
mturk,1ww0gs6eyl6uksonzztb0ezu,2,22,2,1.0,38.0,0.955,0.0,0.0
mturk,1ww0gs6eyl6uksonzztb0ezu,2,23,2,1.0,38.0,0.733,0.0,1.0
mturk,1ww0gs6eyl6uksonzztb0ezu,2,24,2,1.0,38.0,0.573,0.0,1.0
mturk,1ww0gs6eyl6uksonzztb0ezu,2,25,2,0.0,37.0,2.349,0.0,0.0
mturk,1ww0gs6eyl6uksonzztb0ezu,2,26,2,0.0,37.0,0.643,0.0,0.0
mturk,1ww0gs6eyl6uksonzztb0ezu,2,27,2,0.0,37.0,0.461,0.0,0.0
mturk,1ww0gs6eyl6uksonzztb0ezu,2,28,2,2.0,39.0,0.563,1.0,1.0
mturk,1ww0gs6eyl6uksonzztb0ezu,2,29,2,2.0,39.0,0.492,1.0,1.0
mturk,1ww0gs6eyl6uksonzztb0ezu,2,30,2,2.0,39.0,0.486,1.0,1.0
mturk,1ww0gs6eyl6uksonzztb0ezu,3,31,0,2.0,39.0,0.261,0.0,0.0
mturk,1ww0gs6eyl6uksonzztb0ezu,3,32,0,1.0,38.0,0.09,0.0,0.0
mturk,1ww0gs6eyl6uksonzztb0ezu,3,33,0,1.0,38.0,0.556,0.0,0.0
mturk,1ww0gs6eyl6uksonzztb0ezu,3,34,0,1.0,38.0,0.999,0.0,0.0
mturk,1ww0gs6eyl6uksonzztb0ezu,3,35,0,0.0,37.0,0.49,1.0,1.0
mturk,1ww0gs6eyl6uksonzztb0ezu,3,36,0,0.0,37.0,0.789,1.0,1.0
mturk,1ww0gs6eyl6uksonzztb0ezu,3,37,0,0.0,37.0,0.602,1.0,1.0
mturk,1ww0gs6eyl6uksonzztb0ezu,3,38,0,0.0,37.0,0.516,1.0,1.0
mturk,1ww0gs6eyl6uksonzztb0ezu,3,39,0,0.0,37.0,0.509,1.0,1.0
mturk,1ww0gs6eyl6uksonzztb0ezu,3,40,0,0.0,37.0,0.583,1.0,1.0
mturk,1ww0gs6eyl6uksonzztb0ezu,3,41,0,0.0,37.0,0.504,1.0,1.0
mturk,1ww0gs6eyl6uksonzztb0ezu,3,42,0,0.0,37.0,0.521,1.0,0.0
mturk,1ww0gs6eyl6uksonzztb0ezu,3,43,0,2.0,39.0,0.085,0.0,1.0
mturk,1ww0gs6eyl6uksonzztb0ezu,3,44,0,2.0,39.0,0.885,0.0,1.0
mturk,1ww0gs6eyl6uksonzztb0ezu,3,45,0,2.0,39.0,0.533,0.0,1.0
mturk,1ww0gs6eyl6uksonzztb0ezu,4,46,2,2.0,39.0,0.42,1.0,1.0
mturk,1ww0gs6eyl6uksonzztb0ezu,4,47,2,2.0,39.0,0.465,1.0,0.0
mturk,1ww0gs6eyl6uksonzztb0ezu,4,48,2,1.0,38.0,0.099,0.0,0.0
mturk,1ww0gs6eyl6uksonzztb0ezu,4,49,2,1.0,38.0,0.677,0.0,1.0
mturk,1ww0gs6eyl6uksonzztb0ezu,4,50,2,1.0,38.0,0.764,0.0,0.0
mturk,1ww0gs6eyl6uksonzztb0ezu,4,51,2,1.0,38.0,0.99,0.0,1.0
mturk,1ww0gs6eyl6uksonzztb0ezu,4,52,2,1.0,38.0,0.643,0.0,1.0
mturk,1ww0gs6eyl6uksonzztb0ezu,4,53,2,1.0,38.0,0.639,0.0,0.0
mturk,1ww0gs6eyl6uksonzztb0ezu,4,54,2,0.0,37.0,0.746,0.0,0.0
mturk,1ww0gs6eyl6uksonzztb0ezu,4,55,2,0.0,37.0,0.038,0.0,1.0
mturk,1ww0gs6eyl6uksonzztb0ezu,4,56,2,0.0,37.0,0.586,0.0,0.0
mturk,1ww0gs6eyl6uksonzztb0ezu,4,57,2,0.0,37.0,0.523,0.0,0.0
mturk,1ww0gs6eyl6uksonzztb0ezu,4,58,2,2.0,39.0,1.133,1.0,1.0
mturk,1ww0gs6eyl6uksonzztb0ezu,4,59,2,2.0,39.0,0.449,1.0,1.0
mturk,1ww0gs6eyl6uksonzztb0ezu,4,60,2,2.0,39.0,0.472,1.0,1.0
mturk,1ww0gs6eyl6uksonzztb0ezu,5,61,1,2.0,39.0,0.492,0.0,0.0
mturk,1ww0gs6eyl6uksonzztb0ezu,5,62,1,1.0,38.0,0.881,1.0,1.0
mturk,1ww0gs6eyl6uksonzztb0ezu,5,63,1,1.0,38.0,0.568,1.0,1.0
mturk,1ww0gs6eyl6uksonzztb0ezu,5,64,1,1.0,38.0,0.641,1.0,1.0
mturk,1ww0gs6eyl6uksonzztb0ezu,5,65,1,1.0,38.0,0.547,1.0,1.0
mturk,1ww0gs6eyl6uksonzztb0ezu,5,66,1,1.0,38.0,0.592,1.0,1.0
mturk,1ww0gs6eyl6uksonzztb0ezu,5,67,1,1.0,38.0,0.624,1.0,0.0
mturk,1ww0gs6eyl6uksonzztb0ezu,5,68,1,0.0,37.0,0.603,0.0,0.0
mturk,1ww0gs6eyl6uksonzztb0ezu,5,69,1,0.0,37.0,0.523,0.0,0.0
mturk,1ww0gs6eyl6uksonzztb0ezu,5,70,1,0.0,37.0,0.448,0.0,0.0
mturk,1ww0gs6eyl6uksonzztb0ezu,5,71,1,2.0,39.0,0.628,0.0,1.0
mturk,1ww0gs6eyl6uksonzztb0ezu,5,72,1,2.0,39.0,0.579,0.0,0.0
mturk,1ww0gs6eyl6uksonzztb0ezu,5,73,1,2.0,39.0,0.482,0.0,0.0
mturk,1ww0gs6eyl6uksonzztb0ezu,5,74,1,2.0,39.0,0.502,0.0,1.0
mturk,1ww0gs6eyl6uksonzztb0ezu,5,75,1,2.0,39.0,0.433,0.0,0.0
mturk,1ww0gs6eyl6uksonzztb0ezu,6,76,0,1.0,38.0,0.422,0.0,1.0
mturk,1ww0gs6eyl6uksonzztb0ezu,6,77,0,1.0,38.0,0.691,0.0,1.0
mturk,1ww0gs6eyl6uksonzztb0ezu,6,78,0,1.0,38.0,0.539,0.0,0.0
mturk,1ww0gs6eyl6uksonzztb0ezu,6,79,0,1.0,38.0,0.764,0.0,1.0
mturk,1ww0gs6eyl6uksonzztb0ezu,6,80,0,1.0,38.0,0.727,0.0,0.0
mturk,1ww0gs6eyl6uksonzztb0ezu,6,81,0,1.0,38.0,0.692,0.0,0.0
mturk,1ww0gs6eyl6uksonzztb0ezu,6,82,0,0.0,37.0,0.54,1.0,0.0
mturk,1ww0gs6eyl6uksonzztb0ezu,6,83,0,0.0,37.0,0.642,1.0,0.0
mturk,1ww0gs6eyl6uksonzztb0ezu,6,84,0,0.0,37.0,0.597,1.0,1.0
mturk,1ww0gs6eyl6uksonzztb0ezu,6,85,0,0.0,37.0,0.777,1.0,1.0
mturk,1ww0gs6eyl6uksonzztb0ezu,6,86,0,0.0,37.0,0.909,1.0,1.0
mturk,1ww0gs6eyl6uksonzztb0ezu,6,87,0,0.0,37.0,0.66,1.0,1.0
mturk,1ww0gs6eyl6uksonzztb0ezu,6,88,0,0.0,37.0,0.654,1.0,1.0
mturk,1ww0gs6eyl6uksonzztb0ezu,6,89,0,0.0,37.0,0.714,1.0,1.0
mturk,1ww0gs6eyl6uksonzztb0ezu,6,90,0,0.0,37.0,0.655,1.0,1.0
mturk,26drsd0sb4o6mw8hh3db4y8y,1,1,1,2.0,39.0,5.15,0.0,0.0
mturk,26drsd0sb4o6mw8hh3db4y8y,1,2,1,1.0,38.0,0.784,1.0,1.0
mturk,26drsd0sb4o6mw8hh3db4y8y,1,3,1,0.0,37.0,0.535,0.0,0.0
mturk,26drsd0sb4o6mw8hh3db4y8y,1,4,1,1.0,38.0,0.409,1.0,1.0
mturk,26drsd0sb4o6mw8hh3db4y8y,1,5,1,1.0,38.0,4.454,1.0,1.0
mturk,26drsd0sb4o6mw8hh3db4y8y,1,6,1,1.0,38.0,0.353,1.0,1.0
mturk,26drsd0sb4o6mw8hh3db4y8y,1,7,1,1.0,38.0,0.271,1.0,1.0
mturk,26drsd0sb4o6mw8hh3db4y8y,1,8,1,1.0,38.0,0.134,1.0,1.0
mturk,26drsd0sb4o6mw8hh3db4y8y,1,9,1,1.0,38.0,1.0,1.0,1.0
mturk,26drsd0sb4o6mw8hh3db4y8y,1,10,1,1.0,38.0,0.392,1.0,1.0
mturk,26drsd0sb4o6mw8hh3db4y8y,1,11,1,1.0,38.0,0.233,1.0,1.0
mturk,26drsd0sb4o6mw8hh3db4y8y,1,12,1,1.0,38.0,0.639,1.0,1.0
mturk,26drsd0sb4o6mw8hh3db4y8y,1,13,1,1.0,38.0,0.304,1.0,1.0
mturk,26drsd0sb4o6mw8hh3db4y8y,1,14,1,1.0,38.0,0.048,1.0,1.0
mturk,26drsd0sb4o6mw8hh3db4y8y,1,15,1,1.0,38.0,0.179,1.0,0.0
mturk,26drsd0sb4o6mw8hh3db4y8y,2,16,0,2.0,39.0,0.07,0.0,0.0
mturk,26drsd0sb4o6mw8hh3db4y8y,2,17,0,0.0,37.0,0.098,1.0,0.0
mturk,26drsd0sb4o6mw8hh3db4y8y,2,18,0,1.0,38.0,0.024,0.0,1.0
mturk,26drsd0sb4o6mw8hh3db4y8y,2,19,0,1.0,38.0,0.141,0.0,0.0
mturk,26drsd0sb4o6mw8hh3db4y8y,2,20,0,1.0,38.0,0.288,0.0,0.0
mturk,26drsd0sb4o6mw8hh3db4y8y,2,21,0,1.0,38.0,0.419,0.0,1.0
mturk,26drsd0sb4o6mw8hh3db4y8y,2,22,0,1.0,38.0,0.255,0.0,0.0
mturk,26drsd0sb4o6mw8hh3db4y8y,2,23,0,2.0,39.0,0.014,0.0,0.0
mturk,26drsd0sb4o6mw8hh3db4y8y,2,24,0,0.0,37.0,0.257,1.0,1.0
mturk,26drsd0sb4o6mw8hh3db4y8y,2,25,0,0.0,37.0,0.4,1.0,1.0
mturk,26drsd0sb4o6mw8hh3db4y8y,2,26,0,0.0,37.0,0.281,1.0,1.0
mturk,26drsd0sb4o6mw8hh3db4y8y,2,27,0,0.0,37.0,0.275,1.0,1.0
mturk,26drsd0sb4o6mw8hh3db4y8y,2,28,0,0.0,37.0,0.23,1.0,1.0
mturk,26drsd0sb4o6mw8hh3db4y8y,2,29,0,0.0,37.0,0.31,1.0,1.0
mturk,26drsd0sb4o6mw8hh3db4y8y,2,30,0,0.0,37.0,0.061,1.0,1.0
mturk,26drsd0sb4o6mw8hh3db4y8y,3,31,2,0.0,37.0,0.371,0.0,1.0
mturk,26drsd0sb4o6mw8hh3db4y8y,3,32,2,0.0,37.0,0.185,0.0,0.0
mturk,26drsd0sb4o6mw8hh3db4y8y,3,33,2,1.0,38.0,0.166,0.0,0.0
mturk,26drsd0sb4o6mw8hh3db4y8y,3,34,2,2.0,39.0,0.316,1.0,0.0
mturk,26drsd0sb4o6mw8hh3db4y8y,3,35,2,1.0,38.0,0.215,0.0,0.0
mturk,26drsd0sb4o6mw8hh3db4y8y,3,36,2,0.0,37.0,0.313,0.0,0.0
mturk,26drsd0sb4o6mw8hh3db4y8y,3,37,2,1.0,38.0,0.071,0.0,0.0
mturk,26drsd0sb4o6mw8hh3db4y8y,3,38,2,2.0,39.0,0.586,1.0,1.0
mturk,26drsd0sb4o6mw8hh3db4y8y,3,39,2,2.0,39.0,0.222,1.0,1.0
mturk,26drsd0sb4o6mw8hh3db4y8y,3,40,2,2.0,39.0,0.334,1.0,1.0
mturk,26drsd0sb4o6mw8hh3db4y8y,3,41,2,2.0,39.0,0.551,1.0,1.0
mturk,26drsd0sb4o6mw8hh3db4y8y,3,42,2,2.0,39.0,0.374,1.0,1.0
mturk,26drsd0sb4o6mw8hh3db4y8y,3,43,2,2.0,39.0,0.342,1.0,0.0
mturk,26drsd0sb4o6mw8hh3db4y8y,3,44,2,2.0,39.0,0.279,1.0,1.0
mturk,26drsd0sb4o6mw8hh3db4y8y,3,45,2,2.0,39.0,0.478,1.0,1.0
mturk,26drsd0sb4o6mw8hh3db4y8y,4,46,0,2.0,39.0,0.391,0.0,1.0
mturk,26drsd0sb4o6mw8hh3db4y8y,4,47,0,2.0,39.0,0.557,0.0,0.0
mturk,26drsd0sb4o6mw8hh3db4y8y,4,48,0,1.0,38.0,0.005,0.0,0.0
mturk,26drsd0sb4o6mw8hh3db4y8y,4,49,0,0.0,37.0,0.209,1.0,1.0
mturk,26drsd0sb4o6mw8hh3db4y8y,4,50,0,0.0,37.0,0.032,1.0,1.0
mturk,26drsd0sb4o6mw8hh3db4y8y,4,51,0,0.0,37.0,0.281,1.0,1.0
mturk,26drsd0sb4o6mw8hh3db4y8y,4,52,0,0.0,37.0,0.219,1.0,1.0
mturk,26drsd0sb4o6mw8hh3db4y8y,4,53,0,0.0,37.0,0.203,1.0,1.0
mturk,26drsd0sb4o6mw8hh3db4y8y,4,54,0,0.0,37.0,0.188,1.0,1.0
mturk,26drsd0sb4o6mw8hh3db4y8y,4,55,0,0.0,37.0,0.316,1.0,1.0
mturk,26drsd0sb4o6mw8hh3db4y8y,4,56,0,0.0,37.0,0.451,1.0,0.0
mturk,26drsd0sb4o6mw8hh3db4y8y,4,57,0,2.0,39.0,0.364,0.0,0.0
mturk,26drsd0sb4o6mw8hh3db4y8y,4,58,0,0.0,37.0,0.301,1.0,0.0
mturk,26drsd0sb4o6mw8hh3db4y8y,4,59,0,1.0,38.0,0.325,0.0,0.0
mturk,26drsd0sb4o6mw8hh3db4y8y,4,60,0,0.0,37.0,0.037,1.0,1.0
mturk,26drsd0sb4o6mw8hh3db4y8y,5,61,1,0.0,37.0,0.095,0.0,0.0
mturk,26drsd0sb4o6mw8hh3db4y8y,5,62,1,2.0,39.0,0.142,0.0,0.0
mturk,26drsd0sb4o6mw8hh3db4y8y,5,63,1,1.0,38.0,0.336,1.0,0.0
mturk,26drsd0sb4o6mw8hh3db4y8y,5,64,1,0.0,37.0,0.054,0.0,0.0
mturk,26drsd0sb4o6mw8hh3db4y8y,5,65,1,2.0,39.0,0.299,0.0,0.0
mturk,26drsd0sb4o6mw8hh3db4y8y,5,66,1,1.0,38.0,0.141,1.0,1.0
mturk,26drsd0sb4o6mw8hh3db4y8y,5,67,1,1.0,38.0,0.102,1.0,1.0
mturk,26drsd0sb4o6mw8hh3db4y8y,5,68,1,1.0,38.0,0.287,1.0,0.0
mturk,26drsd0sb4o6mw8hh3db4y8y,5,69,1,0.0,37.0,0.106,0.0,1.0
mturk,26drsd0sb4o6mw8hh3db4y8y,5,70,1,0.0,37.0,0.01,0.0,0.0
mturk,26drsd0sb4o6mw8hh3db4y8y,5,71,1,2.0,39.0,0.097,0.0,0.0
mturk,26drsd0sb4o6mw8hh3db4y8y,5,72,1,1.0,38.0,0.04,1.0,0.0
mturk,26drsd0sb4o6mw8hh3db4y8y,5,73,1,0.0,37.0,0.077,0.0,0.0
mturk,26drsd0sb4o6mw8hh3db4y8y,5,74,1,1.0,38.0,0.099,1.0,1.0
mturk,26drsd0sb4o6mw8hh3db4y8y,5,75,1,1.0,38.0,0.101,1.0,0.0
mturk,26drsd0sb4o6mw8hh3db4y8y,6,76,2,2.0,39.0,0.173,1.0,1.0
mturk,26drsd0sb4o6mw8hh3db4y8y,6,77,2,2.0,39.0,0.032,1.0,1.0
mturk,26drsd0sb4o6mw8hh3db4y8y,6,78,2,2.0,39.0,0.192,1.0,1.0
mturk,26drsd0sb4o6mw8hh3db4y8y,6,79,2,2.0,39.0,0.31,1.0,1.0
mturk,26drsd0sb4o6mw8hh3db4y8y,6,80,2,2.0,39.0,0.405,1.0,1.0
mturk,26drsd0sb4o6mw8hh3db4y8y,6,81,2,2.0,39.0,0.399,1.0,1.0
mturk,26drsd0sb4o6mw8hh3db4y8y,6,82,2,2.0,39.0,0.016,1.0,1.0
mturk,26drsd0sb4o6mw8hh3db4y8y,6,83,2,2.0,39.0,0.006,1.0,0.0
mturk,26drsd0sb4o6mw8hh3db4y8y,6,84,2,1.0,38.0,0.071,0.0,0.0
mturk,26drsd0sb4o6mw8hh3db4y8y,6,85,2,0.0,37.0,0.309,0.0,1.0
mturk,26drsd0sb4o6mw8hh3db4y8y,6,86,2,0.0,37.0,0.179,0.0,0.0
mturk,26drsd0sb4o6mw8hh3db4y8y,6,87,2,2.0,39.0,0.0,1.0,1.0
mturk,26drsd0sb4o6mw8hh3db4y8y,6,88,2,2.0,39.0,0.005,1.0,1.0
mturk,26drsd0sb4o6mw8hh3db4y8y,6,89,2,2.0,39.0,0.67,1.0,1.0
mturk,26drsd0sb4o6mw8hh3db4y8y,6,90,2,2.0,39.0,0.39,1.0,0.0
mturk,2gbv6cbysitn0o9t9m53f3xi,1,1,1,1.0,38.0,4.05,1.0,1.0
mturk,2gbv6cbysitn0o9t9m53f3xi,1,2,1,1.0,38.0,1.753,1.0,0.0
mturk,2gbv6cbysitn0o9t9m53f3xi,1,3,1,1.0,38.0,0.931,1.0,1.0
mturk,2gbv6cbysitn0o9t9m53f3xi,1,4,1,1.0,38.0,1.289,1.0,0.0
mturk,2gbv6cbysitn0o9t9m53f3xi,1,5,1,1.0,38.0,0.88,1.0,1.0
mturk,2gbv6cbysitn0o9t9m53f3xi,1,6,1,1.0,38.0,0.902,1.0,1.0
mturk,2gbv6cbysitn0o9t9m53f3xi,1,7,1,1.0,38.0,1.325,1.0,0.0
mturk,2gbv6cbysitn0o9t9m53f3xi,1,8,1,1.0,38.0,0.93,1.0,0.0
mturk,2gbv6cbysitn0o9t9m53f3xi,1,9,1,2.0,39.0,1.654,0.0,0.0
mturk,2gbv6cbysitn0o9t9m53f3xi,1,10,1,2.0,39.0,0.807,0.0,0.0
mturk,2gbv6cbysitn0o9t9m53f3xi,1,11,1,0.0,37.0,1.249,0.0,0.0
mturk,2gbv6cbysitn0o9t9m53f3xi,1,12,1,0.0,37.0,0.71,0.0,0.0
mturk,2gbv6cbysitn0o9t9m53f3xi,1,13,1,2.0,39.0,0.603,0.0,0.0
mturk,2gbv6cbysitn0o9t9m53f3xi,1,14,1,1.0,38.0,0.57,1.0,1.0
mturk,2gbv6cbysitn0o9t9m53f3xi,1,15,1,1.0,38.0,0.556,1.0,1.0
mturk,2gbv6cbysitn0o9t9m53f3xi,2,16,2,1.0,38.0,0.952,0.0,0.0
mturk,2gbv6cbysitn0o9t9m53f3xi,2,17,2,1.0,38.0,0.435,0.0,0.0
mturk,2gbv6cbysitn0o9t9m53f3xi,2,18,2,1.0,38.0,0.381,0.0,0.0
mturk,2gbv6cbysitn0o9t9m53f3xi,2,19,2,1.0,38.0,0.606,0.0,1.0
mturk,2gbv6cbysitn0o9t9m53f3xi,2,20,2,1.0,38.0,0.738,0.0,0.0
mturk,2gbv6cbysitn0o9t9m53f3xi,2,21,2,1.0,38.0,0.417,0.0,0.0
mturk,2gbv6cbysitn0o9t9m53f3xi,2,22,2,1.0,38.0,0.411,0.0,0.0
mturk,2gbv6cbysitn0o9t9m53f3xi,2,23,2,2.0,39.0,0.799,1.0,1.0
mturk,2gbv6cbysitn0o9t9m53f3xi,2,24,2,2.0,39.0,0.532,1.0,1.0
mturk,2gbv6cbysitn0o9t9m53f3xi,2,25,2,2.0,39.0,0.468,1.0,1.0
mturk,2gbv6cbysitn0o9t9m53f3xi,2,26,2,2.0,39.0,0.518,1.0,1.0
mturk,2gbv6cbysitn0o9t9m53f3xi,2,27,2,2.0,39.0,0.561,1.0,0.0
mturk,2gbv6cbysitn0o9t9m53f3xi,2,28,2,2.0,39.0,0.524,1.0,0.0
mturk,2gbv6cbysitn0o9t9m53f3xi,2,29,2,2.0,39.0,0.52,1.0,1.0
mturk,2gbv6cbysitn0o9t9m53f3xi,2,30,2,2.0,39.0,0.404,1.0,1.0
mturk,2gbv6cbysitn0o9t9m53f3xi,3,31,0,2.0,39.0,0.459,0.0,0.0
mturk,2gbv6cbysitn0o9t9m53f3xi,3,32,0,2.0,39.0,0.383,0.0,0.0
mturk,2gbv6cbysitn0o9t9m53f3xi,3,33,0,2.0,39.0,0.848,0.0,0.0
mturk,2gbv6cbysitn0o9t9m53f3xi,3,34,0,0.0,37.0,0.845,1.0,1.0
mturk,2gbv6cbysitn0o9t9m53f3xi,3,35,0,0.0,37.0,0.403,1.0,1.0
mturk,2gbv6cbysitn0o9t9m53f3xi,3,36,0,0.0,37.0,0.461,1.0,1.0
mturk,2gbv6cbysitn0o9t9m53f3xi,3,37,0,0.0,37.0,0.544,1.0,1.0
mturk,2gbv6cbysitn0o9t9m53f3xi,3,38,0,0.0,37.0,0.46,1.0,1.0
mturk,2gbv6cbysitn0o9t9m53f3xi,3,39,0,0.0,37.0,0.485,1.0,1.0
mturk,2gbv6cbysitn0o9t9m53f3xi,3,40,0,0.0,37.0,0.479,1.0,1.0
mturk,2gbv6cbysitn0o9t9m53f3xi,3,41,0,0.0,37.0,0.465,1.0,0.0
mturk,2gbv6cbysitn0o9t9m53f3xi,3,42,0,0.0,37.0,0.552,1.0,0.0
mturk,2gbv6cbysitn0o9t9m53f3xi,3,43,0,0.0,37.0,0.614,1.0,1.0
mturk,2gbv6cbysitn0o9t9m53f3xi,3,44,0,0.0,37.0,0.696,1.0,1.0
mturk,2gbv6cbysitn0o9t9m53f3xi,3,45,0,0.0,37.0,0.491,1.0,1.0
mturk,2gbv6cbysitn0o9t9m53f3xi,4,46,2,0.0,37.0,0.629,0.0,0.0
mturk,2gbv6cbysitn0o9t9m53f3xi,4,47,2,0.0,37.0,0.596,0.0,0.0
mturk,2gbv6cbysitn0o9t9m53f3xi,4,48,2,0.0,37.0,0.408,0.0,0.0
mturk,2gbv6cbysitn0o9t9m53f3xi,4,49,2,0.0,37.0,0.423,0.0,0.0
mturk,2gbv6cbysitn0o9t9m53f3xi,4,50,2,1.0,38.0,0.37,0.0,1.0
mturk,2gbv6cbysitn0o9t9m53f3xi,4,51,2,1.0,38.0,0.406,0.0,0.0
mturk,2gbv6cbysitn0o9t9m53f3xi,4,52,2,1.0,38.0,0.445,0.0,0.0
mturk,2gbv6cbysitn0o9t9m53f3xi,4,53,2,1.0,38.0,0.382,0.0,0.0
mturk,2gbv6cbysitn0o9t9m53f3xi,4,54,2,2.0,39.0,0.581,1.0,1.0
mturk,2gbv6cbysitn0o9t9m53f3xi,4,55,2,2.0,39.0,0.536,1.0,1.0
mturk,2gbv6cbysitn0o9t9m53f3xi,4,56,2,2.0,39.0,0.393,1.0,1.0
mturk,2gbv6cbysitn0o9t9m53f3xi,4,57,2,2.0,39.0,0.429,1.0,1.0
mturk,2gbv6cbysitn0o9t9m53f3xi,4,58,2,2.0,39.0,0.368,1.0,0.0
mturk,2gbv6cbysitn0o9t9m53f3xi,4,59,2,2.0,39.0,0.419,1.0,1.0
mturk,2gbv6cbysitn0o9t9m53f3xi,4,60,2,2.0,39.0,0.414,1.0,1.0
mturk,2gbv6cbysitn0o9t9m53f3xi,5,61,1,2.0,39.0,0.362,0.0,1.0
mturk,2gbv6cbysitn0o9t9m53f3xi,5,62,1,2.0,39.0,0.372,0.0,0.0
mturk,2gbv6cbysitn0o9t9m53f3xi,5,63,1,2.0,39.0,0.549,0.0,0.0
mturk,2gbv6cbysitn0o9t9m53f3xi,5,64,1,2.0,39.0,0.44,0.0,1.0
mturk,2gbv6cbysitn0o9t9m53f3xi,5,65,1,2.0,39.0,0.416,0.0,0.0
mturk,2gbv6cbysitn0o9t9m53f3xi,5,66,1,2.0,39.0,0.601,0.0,0.0
mturk,2gbv6cbysitn0o9t9m53f3xi,5,67,1,0.0,37.0,0.193,0.0,0.0
mturk,2gbv6cbysitn0o9t9m53f3xi,5,68,1,0.0,37.0,0.423,0.0,0.0
mturk,2gbv6cbysitn0o9t9m53f3xi,5,69,1,1.0,38.0,0.815,1.0,1.0
mturk,2gbv6cbysitn0o9t9m53f3xi,5,70,1,1.0,38.0,0.413,1.0,1.0
mturk,2gbv6cbysitn0o9t9m53f3xi,5,71,1,1.0,38.0,0.331,1.0,1.0
mturk,2gbv6cbysitn0o9t9m53f3xi,5,72,1,1.0,38.0,0.514,1.0,1.0
mturk,2gbv6cbysitn0o9t9m53f3xi,5,73,1,1.0,38.0,0.513,1.0,1.0
mturk,2gbv6cbysitn0o9t9m53f3xi,5,74,1,1.0,38.0,0.384,1.0,1.0
mturk,2gbv6cbysitn0o9t9m53f3xi,5,75,1,1.0,38.0,0.451,1.0,0.0
mturk,2gbv6cbysitn0o9t9m53f3xi,6,76,0,1.0,38.0,0.42,0.0,0.0
mturk,2gbv6cbysitn0o9t9m53f3xi,6,77,0,1.0,38.0,0.392,0.0,0.0
mturk,2gbv6cbysitn0o9t9m53f3xi,6,78,0,2.0,39.0,0.42,0.0,0.0
mturk,2gbv6cbysitn0o9t9m53f3xi,6,79,0,2.0,39.0,0.42,0.0,0.0
mturk,2gbv6cbysitn0o9t9m53f3xi,6,80,0,0.0,37.0,0.348,1.0,1.0
mturk,2gbv6cbysitn0o9t9m53f3xi,6,81,0,0.0,37.0,0.41,1.0,1.0
mturk,2gbv6cbysitn0o9t9m53f3xi,6,82,0,0.0,37.0,0.445,1.0,1.0
mturk,2gbv6cbysitn0o9t9m53f3xi,6,83,0,0.0,37.0,0.501,1.0,1.0
mturk,2gbv6cbysitn0o9t9m53f3xi,6,84,0,0.0,37.0,0.432,1.0,1.0
mturk,2gbv6cbysitn0o9t9m53f3xi,6,85,0,0.0,37.0,0.394,1.0,0.0
mturk,2gbv6cbysitn0o9t9m53f3xi,6,86,0,0.0,37.0,0.459,1.0,1.0
mturk,2gbv6cbysitn0o9t9m53f3xi,6,87,0,0.0,37.0,0.433,1.0,0.0
mturk,2gbv6cbysitn0o9t9m53f3xi,6,88,0,0.0,37.0,0.436,1.0,1.0
mturk,2gbv6cbysitn0o9t9m53f3xi,6,89,0,0.0,37.0,0.436,1.0,1.0
mturk,2gbv6cbysitn0o9t9m53f3xi,6,90,0,0.0,37.0,0.419,1.0,1.0
mturk,2j7koq5arntmjpvv38xf6g5x,1,1,1,2.0,39.0,1.169,0.0,1.0
mturk,2j7koq5arntmjpvv38xf6g5x,1,2,1,1.0,38.0,1.781,1.0,1.0
mturk,2j7koq5arntmjpvv38xf6g5x,1,3,1,0.0,37.0,0.819,0.0,0.0
mturk,2j7koq5arntmjpvv38xf6g5x,1,4,1,1.0,38.0,0.826,1.0,1.0
mturk,2j7koq5arntmjpvv38xf6g5x,1,5,1,2.0,39.0,1.062,0.0,0.0
mturk,2j7koq5arntmjpvv38xf6g5x,1,6,1,0.0,37.0,1.529,0.0,0.0
mturk,2j7koq5arntmjpvv38xf6g5x,1,7,1,1.0,38.0,1.482,1.0,1.0
mturk,2j7koq5arntmjpvv38xf6g5x,1,8,1,2.0,39.0,0.71,0.0,0.0
mturk,2j7koq5arntmjpvv38xf6g5x,1,9,1,1.0,38.0,0.784,1.0,1.0
mturk,2j7koq5arntmjpvv38xf6g5x,1,10,1,1.0,38.0,1.23,1.0,1.0
mturk,2j7koq5arntmjpvv38xf6g5x,1,11,1,1.0,38.0,0.857,1.0,1.0
mturk,2j7koq5arntmjpvv38xf6g5x,1,12,1,1.0,38.0,1.323,1.0,1.0
mturk,2j7koq5arntmjpvv38xf6g5x,1,13,1,1.0,38.0,0.698,1.0,1.0
mturk,2j7koq5arntmjpvv38xf6g5x,1,14,1,1.0,38.0,0.882,1.0,1.0
mturk,2j7koq5arntmjpvv38xf6g5x,1,15,1,1.0,38.0,0.49,1.0,1.0
mturk,2j7koq5arntmjpvv38xf6g5x,2,16,0,1.0,38.0,0.744,0.0,0.0
mturk,2j7koq5arntmjpvv38xf6g5x,2,17,0,0.0,37.0,0.348,1.0,1.0
mturk,2j7koq5arntmjpvv38xf6g5x,2,18,0,0.0,37.0,0.321,1.0,1.0
mturk,2j7koq5arntmjpvv38xf6g5x,2,19,0,0.0,37.0,0.29,1.0,0.0
mturk,2j7koq5arntmjpvv38xf6g5x,2,20,0,2.0,39.0,0.603,0.0,0.0
mturk,2j7koq5arntmjpvv38xf6g5x,2,21,0,0.0,37.0,1.278,1.0,1.0
mturk,2j7koq5arntmjpvv38xf6g5x,2,22,0,0.0,37.0,2.701,1.0,1.0
mturk,2j7koq5arntmjpvv38xf6g5x,2,23,0,0.0,37.0,1.316,1.0,1.0
mturk,2j7koq5arntmjpvv38xf6g5x,2,24,0,0.0,37.0,0.841,1.0,1.0
mturk,2j7koq5arntmjpvv38xf6g5x,2,25,0,0.0,37.0,0.834,1.0,1.0
mturk,2j7koq5arntmjpvv38xf6g5x,2,26,0,0.0,37.0,0.314,1.0,1.0
mturk,2j7koq5arntmjpvv38xf6g5x,2,27,0,0.0,37.0,0.766,1.0,1.0
mturk,2j7koq5arntmjpvv38xf6g5x,2,28,0,0.0,37.0,1.259,1.0,1.0
mturk,2j7koq5arntmjpvv38xf6g5x,2,29,0,0.0,37.0,0.142,1.0,0.0
mturk,2j7koq5arntmjpvv38xf6g5x,2,30,0,1.0,38.0,1.506,0.0,1.0
mturk,2j7koq5arntmjpvv38xf6g5x,3,31,1,1.0,38.0,0.638,1.0,1.0
mturk,2j7koq5arntmjpvv38xf6g5x,3,32,1,1.0,38.0,0.705,1.0,1.0
mturk,2j7koq5arntmjpvv38xf6g5x,3,33,1,1.0,38.0,0.887,1.0,1.0
mturk,2j7koq5arntmjpvv38xf6g5x,3,34,1,1.0,38.0,0.618,1.0,0.0
mturk,2j7koq5arntmjpvv38xf6g5x,3,35,1,2.0,39.0,0.914,0.0,0.0
mturk,2j7koq5arntmjpvv38xf6g5x,3,36,1,0.0,37.0,1.304,0.0,0.0
mturk,2j7koq5arntmjpvv38xf6g5x,3,37,1,1.0,38.0,0.06,1.0,0.0
mturk,2j7koq5arntmjpvv38xf6g5x,3,38,1,0.0,37.0,0.137,0.0,0.0
mturk,2j7koq5arntmjpvv38xf6g5x,3,39,1,1.0,38.0,1.604,1.0,1.0
mturk,2j7koq5arntmjpvv38xf6g5x,3,40,1,1.0,38.0,1.269,1.0,1.0
mturk,2j7koq5arntmjpvv38xf6g5x,3,41,1,1.0,38.0,0.199,1.0,1.0
mturk,2j7koq5arntmjpvv38xf6g5x,3,42,1,1.0,38.0,0.486,1.0,1.0
mturk,2j7koq5arntmjpvv38xf6g5x,3,43,1,1.0,38.0,2.071,1.0,1.0
mturk,2j7koq5arntmjpvv38xf6g5x,3,44,1,1.0,38.0,0.662,1.0,1.0
mturk,2j7koq5arntmjpvv38xf6g5x,3,45,1,1.0,38.0,1.117,1.0,1.0
mturk,2j7koq5arntmjpvv38xf6g5x,4,46,2,1.0,38.0,0.768,0.0,0.0
mturk,2j7koq5arntmjpvv38xf6g5x,4,47,2,1.0,38.0,0.975,0.0,0.0
mturk,2j7koq5arntmjpvv38xf6g5x,4,48,2,2.0,39.0,0.248,1.0,1.0
mturk,2j7koq5arntmjpvv38xf6g5x,4,49,2,2.0,39.0,0.086,1.0,1.0
mturk,2j7koq5arntmjpvv38xf6g5x,4,50,2,2.0,39.0,0.859,1.0,0.0
mturk,2j7koq5arntmjpvv38xf6g5x,4,51,2,0.0,37.0,0.977,0.0,1.0
mturk,2j7koq5arntmjpvv38xf6g5x,4,52,2,0.0,37.0,1.121,0.0,0.0
mturk,2j7koq5arntmjpvv38xf6g5x,4,53,2,1.0,38.0,2.119,0.0,0.0
mturk,2j7koq5arntmjpvv38xf6g5x,4,54,2,0.0,37.0,0.671,0.0,1.0
mturk,2j7koq5arntmjpvv38xf6g5x,4,55,2,2.0,39.0,0.009,1.0,1.0
mturk,2j7koq5arntmjpvv38xf6g5x,4,56,2,2.0,39.0,0.751,1.0,1.0
mturk,2j7koq5arntmjpvv38xf6g5x,4,57,2,2.0,39.0,1.437,1.0,1.0
mturk,2j7koq5arntmjpvv38xf6g5x,4,58,2,2.0,39.0,0.885,1.0,1.0
mturk,2j7koq5arntmjpvv38xf6g5x,4,59,2,1.0,38.0,0.157,0.0,1.0
mturk,2j7koq5arntmjpvv38xf6g5x,4,60,2,1.0,38.0,0.088,0.0,1.0
mturk,2j7koq5arntmjpvv38xf6g5x,5,61,1,1.0,38.0,1.528,1.0,1.0
mturk,2j7koq5arntmjpvv38xf6g5x,5,62,1,1.0,38.0,0.871,1.0,1.0
mturk,2j7koq5arntmjpvv38xf6g5x,5,63,1,1.0,38.0,0.791,1.0,1.0
mturk,2j7koq5arntmjpvv38xf6g5x,5,64,1,1.0,38.0,1.078,1.0,1.0
mturk,2j7koq5arntmjpvv38xf6g5x,5,65,1,1.0,38.0,0.778,1.0,1.0
mturk,2j7koq5arntmjpvv38xf6g5x,5,66,1,1.0,38.0,0.813,1.0,0.0
mturk,2j7koq5arntmjpvv38xf6g5x,5,67,1,1.0,38.0,3.861,1.0,1.0
mturk,2j7koq5arntmjpvv38xf6g5x,5,68,1,1.0,38.0,0.101,1.0,1.0
mturk,2j7koq5arntmjpvv38xf6g5x,5,69,1,1.0,38.0,1.006,1.0,1.0
mturk,2j7koq5arntmjpvv38xf6g5x,5,70,1,1.0,38.0,1.565,1.0,1.0
mturk,2j7koq5arntmjpvv38xf6g5x,5,71,1,1.0,38.0,0.63,1.0,1.0
mturk,2j7koq5arntmjpvv38xf6g5x,5,72,1,1.0,38.0,0.555,1.0,1.0
mturk,2j7koq5arntmjpvv38xf6g5x,5,73,1,1.0,38.0,0.413,1.0,1.0
mturk,2j7koq5arntmjpvv38xf6g5x,5,74,1,1.0,38.0,1.248,1.0,1.0
mturk,2j7koq5arntmjpvv38xf6g5x,5,75,1,1.0,38.0,0.81,1.0,1.0
mturk,2j7koq5arntmjpvv38xf6g5x,6,76,2,1.0,38.0,0.48,0.0,0.0
mturk,2j7koq5arntmjpvv38xf6g5x,6,77,2,1.0,38.0,1.938,0.0,0.0
mturk,2j7koq5arntmjpvv38xf6g5x,6,78,2,0.0,37.0,1.202,0.0,1.0
mturk,2j7koq5arntmjpvv38xf6g5x,6,79,2,0.0,37.0,0.975,0.0,0.0
mturk,2j7koq5arntmjpvv38xf6g5x,6,80,2,1.0,38.0,1.715,0.0,0.0
mturk,2j7koq5arntmjpvv38xf6g5x,6,81,2,2.0,39.0,1.058,1.0,1.0
mturk,2j7koq5arntmjpvv38xf6g5x,6,82,2,2.0,39.0,1.396,1.0,1.0
mturk,2j7koq5arntmjpvv38xf6g5x,6,83,2,2.0,39.0,0.731,1.0,1.0
mturk,2j7koq5arntmjpvv38xf6g5x,6,84,2,2.0,39.0,1.305,1.0,1.0
mturk,2j7koq5arntmjpvv38xf6g5x,6,85,2,2.0,39.0,0.078,1.0,1.0
mturk,2j7koq5arntmjpvv38xf6g5x,6,86,2,2.0,39.0,1.834,1.0,1.0
mturk,2j7koq5arntmjpvv38xf6g5x,6,87,2,2.0,39.0,0.776,1.0,1.0
mturk,2j7koq5arntmjpvv38xf6g5x,6,88,2,2.0,39.0,0.864,1.0,1.0
mturk,2j7koq5arntmjpvv38xf6g5x,6,89,2,1.0,38.0,1.091,0.0,0.0
mturk,2j7koq5arntmjpvv38xf6g5x,6,90,2,2.0,39.0,0.746,1.0,1.0
mturk,2l792wi6dr04cwnd2lxldsg3,1,1,0,1.0,38.0,0.828,0.0,0.0
mturk,2l792wi6dr04cwnd2lxldsg3,1,2,0,0.0,37.0,0.473,1.0,0.0
mturk,2l792wi6dr04cwnd2lxldsg3,1,3,0,2.0,39.0,0.363,0.0,0.0
mturk,2l792wi6dr04cwnd2lxldsg3,1,4,0,2.0,39.0,0.331,0.0,0.0
mturk,2l792wi6dr04cwnd2lxldsg3,1,5,0,1.0,38.0,0.307,0.0,0.0
mturk,2l792wi6dr04cwnd2lxldsg3,1,6,0,1.0,38.0,0.321,0.0,0.0
mturk,2l792wi6dr04cwnd2lxldsg3,1,7,0,0.0,37.0,0.337,1.0,1.0
mturk,2l792wi6dr04cwnd2lxldsg3,1,8,0,0.0,37.0,0.356,1.0,0.0
mturk,2l792wi6dr04cwnd2lxldsg3,1,9,0,0.0,37.0,0.354,1.0,1.0
mturk,2l792wi6dr04cwnd2lxldsg3,1,10,0,0.0,37.0,0.352,1.0,1.0
mturk,2l792wi6dr04cwnd2lxldsg3,1,11,0,0.0,37.0,0.395,1.0,1.0
mturk,2l792wi6dr04cwnd2lxldsg3,1,12,0,0.0,37.0,0.307,1.0,1.0
mturk,2l792wi6dr04cwnd2lxldsg3,1,13,0,0.0,37.0,0.287,1.0,1.0
mturk,2l792wi6dr04cwnd2lxldsg3,1,14,0,0.0,37.0,0.274,1.0,0.0
mturk,2l792wi6dr04cwnd2lxldsg3,1,15,0,0.0,37.0,0.28,1.0,1.0
mturk,2l792wi6dr04cwnd2lxldsg3,2,16,1,0.0,37.0,0.294,0.0,0.0
mturk,2l792wi6dr04cwnd2lxldsg3,2,17,1,0.0,37.0,0.204,0.0,0.0
mturk,2l792wi6dr04cwnd2lxldsg3,2,18,1,0.0,37.0,0.307,0.0,0.0
mturk,2l792wi6dr04cwnd2lxldsg3,2,19,1,2.0,39.0,0.235,0.0,0.0
mturk,2l792wi6dr04cwnd2lxldsg3,2,20,1,2.0,39.0,0.314,0.0,0.0
mturk,2l792wi6dr04cwnd2lxldsg3,2,21,1,1.0,38.0,0.204,1.0,1.0
mturk,2l792wi6dr04cwnd2lxldsg3,2,22,1,1.0,38.0,0.274,1.0,1.0
mturk,2l792wi6dr04cwnd2lxldsg3,2,23,1,1.0,38.0,0.178,1.0,0.0
mturk,2l792wi6dr04cwnd2lxldsg3,2,24,1,1.0,38.0,0.122,1.0,0.0
mturk,2l792wi6dr04cwnd2lxldsg3,2,25,1,1.0,38.0,0.274,1.0,1.0
mturk,2l792wi6dr04cwnd2lxldsg3,2,26,1,1.0,38.0,0.17,1.0,1.0
mturk,2l792wi6dr04cwnd2lxldsg3,2,27,1,1.0,38.0,0.283,1.0,1.0
mturk,2l792wi6dr04cwnd2lxldsg3,2,28,1,1.0,38.0,0.239,1.0,1.0
mturk,2l792wi6dr04cwnd2lxldsg3,2,29,1,1.0,38.0,0.291,1.0,0.0
mturk,2l792wi6dr04cwnd2lxldsg3,2,30,1,1.0,38.0,0.286,1.0,1.0
mturk,2l792wi6dr04cwnd2lxldsg3,3,31,2,1.0,38.0,0.306,0.0,0.0
mturk,2l792wi6dr04cwnd2lxldsg3,3,32,2,1.0,38.0,0.304,0.0,1.0
mturk,2l792wi6dr04cwnd2lxldsg3,3,33,2,1.0,38.0,0.224,0.0,0.0
mturk,2l792wi6dr04cwnd2lxldsg3,3,34,2,1.0,38.0,0.11,0.0,1.0
mturk,2l792wi6dr04cwnd2lxldsg3,3,35,2,1.0,38.0,0.24,0.0,1.0
mturk,2l792wi6dr04cwnd2lxldsg3,3,36,2,1.0,38.0,0.189,0.0,0.0
mturk,2l792wi6dr04cwnd2lxldsg3,3,37,2,1.0,38.0,0.146,0.0,1.0
mturk,2l792wi6dr04cwnd2lxldsg3,3,38,2,1.0,38.0,0.203,0.0,0.0
mturk,2l792wi6dr04cwnd2lxldsg3,3,39,2,1.0,38.0,0.095,0.0,0.0
mturk,2l792wi6dr04cwnd2lxldsg3,3,40,2,1.0,38.0,0.059,0.0,1.0
mturk,2l792wi6dr04cwnd2lxldsg3,3,41,2,1.0,38.0,0.168,0.0,0.0
mturk,2l792wi6dr04cwnd2lxldsg3,3,42,2,1.0,38.0,0.052,0.0,1.0
mturk,2l792wi6dr04cwnd2lxldsg3,3,43,2,1.0,38.0,0.199,0.0,0.0
mturk,2l792wi6dr04cwnd2lxldsg3,3,44,2,1.0,38.0,0.129,0.0,1.0
mturk,2l792wi6dr04cwnd2lxldsg3,3,45,2,1.0,38.0,0.131,0.0,0.0
mturk,2l792wi6dr04cwnd2lxldsg3,4,46,1,1.0,38.0,0.162,1.0,1.0
mturk,2l792wi6dr04cwnd2lxldsg3,4,47,1,1.0,38.0,0.203,1.0,1.0
mturk,2l792wi6dr04cwnd2lxldsg3,4,48,1,1.0,38.0,0.218,1.0,0.0
mturk,2l792wi6dr04cwnd2lxldsg3,4,49,1,1.0,38.0,0.146,1.0,1.0
mturk,2l792wi6dr04cwnd2lxldsg3,4,50,1,1.0,38.0,0.25,1.0,1.0
mturk,2l792wi6dr04cwnd2lxldsg3,4,51,1,1.0,38.0,0.276,1.0,1.0
mturk,2l792wi6dr04cwnd2lxldsg3,4,52,1,1.0,38.0,0.37,1.0,1.0
mturk,2l792wi6dr04cwnd2lxldsg3,4,53,1,1.0,38.0,0.273,1.0,1.0
mturk,2l792wi6dr04cwnd2lxldsg3,4,54,1,1.0,38.0,0.267,1.0,1.0
mturk,2l792wi6dr04cwnd2lxldsg3,4,55,1,1.0,38.0,0.314,1.0,1.0
mturk,2l792wi6dr04cwnd2lxldsg3,4,56,1,1.0,38.0,0.299,1.0,1.0
mturk,2l792wi6dr04cwnd2lxldsg3,4,57,1,1.0,38.0,0.335,1.0,1.0
mturk,2l792wi6dr04cwnd2lxldsg3,4,58,1,1.0,38.0,0.282,1.0,1.0
mturk,2l792wi6dr04cwnd2lxldsg3,4,59,1,1.0,38.0,0.281,1.0,1.0
mturk,2l792wi6dr04cwnd2lxldsg3,4,60,1,1.0,38.0,0.207,1.0,1.0
mturk,2l792wi6dr04cwnd2lxldsg3,5,61,0,1.0,38.0,0.196,0.0,1.0
mturk,2l792wi6dr04cwnd2lxldsg3,5,62,0,1.0,38.0,0.259,0.0,1.0
mturk,2l792wi6dr04cwnd2lxldsg3,5,63,0,1.0,38.0,0.242,0.0,0.0
mturk,2l792wi6dr04cwnd2lxldsg3,5,64,0,1.0,38.0,0.085,0.0,0.0
mturk,2l792wi6dr04cwnd2lxldsg3,5,65,0,1.0,38.0,0.287,0.0,0.0
mturk,2l792wi6dr04cwnd2lxldsg3,5,66,0,2.0,39.0,0.129,0.0,0.0
mturk,2l792wi6dr04cwnd2lxldsg3,5,67,0,2.0,39.0,0.228,0.0,0.0
mturk,2l792wi6dr04cwnd2lxldsg3,5,68,0,2.0,39.0,0.187,0.0,0.0
mturk,2l792wi6dr04cwnd2lxldsg3,5,69,0,0.0,37.0,0.303,1.0,1.0
mturk,2l792wi6dr04cwnd2lxldsg3,5,70,0,0.0,37.0,0.267,1.0,1.0
mturk,2l792wi6dr04cwnd2lxldsg3,5,71,0,0.0,37.0,0.306,1.0,1.0
mturk,2l792wi6dr04cwnd2lxldsg3,5,72,0,0.0,37.0,0.242,1.0,1.0
mturk,2l792wi6dr04cwnd2lxldsg3,5,73,0,0.0,37.0,0.202,1.0,1.0
mturk,2l792wi6dr04cwnd2lxldsg3,5,74,0,0.0,37.0,0.153,1.0,1.0
mturk,2l792wi6dr04cwnd2lxldsg3,5,75,0,0.0,37.0,0.219,1.0,1.0
mturk,2l792wi6dr04cwnd2lxldsg3,6,76,1,0.0,37.0,0.243,0.0,1.0
mturk,2l792wi6dr04cwnd2lxldsg3,6,77,1,0.0,37.0,0.266,0.0,0.0
mturk,2l792wi6dr04cwnd2lxldsg3,6,78,1,0.0,37.0,0.283,0.0,0.0
mturk,2l792wi6dr04cwnd2lxldsg3,6,79,1,0.0,37.0,0.339,0.0,1.0
mturk,2l792wi6dr04cwnd2lxldsg3,6,80,1,0.0,37.0,0.332,0.0,0.0
mturk,2l792wi6dr04cwnd2lxldsg3,6,81,1,0.0,37.0,0.219,0.0,0.0
mturk,2l792wi6dr04cwnd2lxldsg3,6,82,1,0.0,37.0,0.203,0.0,0.0
mturk,2l792wi6dr04cwnd2lxldsg3,6,83,1,2.0,39.0,0.154,0.0,0.0
mturk,2l792wi6dr04cwnd2lxldsg3,6,84,1,2.0,39.0,0.127,0.0,0.0
mturk,2l792wi6dr04cwnd2lxldsg3,6,85,1,1.0,38.0,0.142,1.0,1.0
mturk,2l792wi6dr04cwnd2lxldsg3,6,86,1,1.0,38.0,0.284,1.0,1.0
mturk,2l792wi6dr04cwnd2lxldsg3,6,87,1,1.0,38.0,0.266,1.0,1.0
mturk,2l792wi6dr04cwnd2lxldsg3,6,88,1,1.0,38.0,0.247,1.0,1.0
mturk,2l792wi6dr04cwnd2lxldsg3,6,89,1,1.0,38.0,0.132,1.0,1.0
mturk,2l792wi6dr04cwnd2lxldsg3,6,90,1,1.0,38.0,0.145,1.0,1.0
mturk,2n2791gfw1ojwu32i7nsvght,1,1,2,1.0,38.0,4.603,0.0,0.0
mturk,2n2791gfw1ojwu32i7nsvght,1,2,2,0.0,37.0,1.798,0.0,0.0
mturk,2n2791gfw1ojwu32i7nsvght,1,3,2,2.0,39.0,1.598,1.0,1.0
mturk,2n2791gfw1ojwu32i7nsvght,1,4,2,2.0,39.0,0.635,1.0,1.0
mturk,2n2791gfw1ojwu32i7nsvght,1,5,2,2.0,39.0,0.546,1.0,0.0
mturk,2n2791gfw1ojwu32i7nsvght,1,6,2,2.0,39.0,0.501,1.0,1.0
mturk,2n2791gfw1ojwu32i7nsvght,1,7,2,2.0,39.0,0.456,1.0,1.0
mturk,2n2791gfw1ojwu32i7nsvght,1,8,2,2.0,39.0,0.414,1.0,1.0
mturk,2n2791gfw1ojwu32i7nsvght,1,9,2,2.0,39.0,0.397,1.0,1.0
mturk,2n2791gfw1ojwu32i7nsvght,1,10,2,2.0,39.0,0.386,1.0,1.0
mturk,2n2791gfw1ojwu32i7nsvght,1,11,2,2.0,39.0,0.379,1.0,0.0
mturk,2n2791gfw1ojwu32i7nsvght,1,12,2,2.0,39.0,0.709,1.0,1.0
mturk,2n2791gfw1ojwu32i7nsvght,1,13,2,2.0,39.0,0.363,1.0,1.0
mturk,2n2791gfw1ojwu32i7nsvght,1,14,2,2.0,39.0,0.233,1.0,1.0
mturk,2n2791gfw1ojwu32i7nsvght,1,15,2,2.0,39.0,0.17,1.0,1.0
mturk,2n2791gfw1ojwu32i7nsvght,2,16,0,2.0,39.0,0.386,0.0,0.0
mturk,2n2791gfw1ojwu32i7nsvght,2,17,0,0.0,37.0,1.002,1.0,1.0
mturk,2n2791gfw1ojwu32i7nsvght,2,18,0,0.0,37.0,0.433,1.0,1.0
mturk,2n2791gfw1ojwu32i7nsvght,2,19,0,0.0,37.0,0.348,1.0,1.0
mturk,2n2791gfw1ojwu32i7nsvght,2,20,0,0.0,37.0,0.452,1.0,1.0
mturk,2n2791gfw1ojwu32i7nsvght,2,21,0,0.0,37.0,0.195,1.0,0.0
mturk,2n2791gfw1ojwu32i7nsvght,2,22,0,0.0,37.0,0.542,1.0,1.0
mturk,2n2791gfw1ojwu32i7nsvght,2,23,0,0.0,37.0,0.064,1.0,0.0
mturk,2n2791gfw1ojwu32i7nsvght,2,24,0,1.0,38.0,0.475,0.0,0.0
