[{"responses":{"Q04":"3","Q02":"2","Q01":"3","Q07":"2","Q03":"2","Q05":"3","Q10":"1","Q12":"0","Q11":"2","Q09":"1","Q08":"1","Q06":"3","Q13":"3"},"rt":123658.63499999978,"survey":"bisbas","trial_type":"survey-template","trial_index":0,"time_elapsed":123668,"internal_node_id":"0.0-0.0","task_version":"screening-prolific"},{"responses":{"Q02":"3","Q01":"2","Q03":"1"},"rt":18745.824999990873,"survey":"pswq","trial_type":"survey-template","trial_index":1,"time_elapsed":142418,"internal_node_id":"0.0-1.0","task_version":"screening-prolific"},{"responses":{"Q02":"0","Q01":"0","Q05":"0","Q03":"1","Q04":"0","Q07":"2","Q06":"0","Q08":"0"},"rt":107889.80500004254,"survey":"gad7","trial_type":"survey-template","trial_index":2,"time_elapsed":250310,"internal_node_id":"0.0-2.0","task_version":"screening-prolific"},{"responses":{"Q13":"2","Q11":"0","Q07":"3","Q12":"0","Q15":"0","Q08":"3","Q10":"1","Q14":"0","Q05":"1","Q09":"0","Q02":"0","Q04":"1","Q03":"2","Q06":"2","Q01":"0"},"rt":239338.35000003455,"survey":"7up7down","trial_type":"survey-template","trial_index":3,"time_elapsed":489653,"internal_node_id":"0.0-3.0","task_version":"screening-prolific"},{"responses":{"Q02":"3","Q01":"3","Q12":"3","Q05":"2","Q08":"3","Q07":"2","Q14":"3","Q13":"3","Q09":"2","Q11":"2","Q15":"3","Q10":"2","Q06":"1","Q04":"2","Q03":"3"},"rt":131811.165000021,"survey":"shaps","trial_type":"survey-template","trial_index":4,"time_elapsed":621469,"internal_node_id":"0.0-4.0","task_version":"screening-prolific"},{"view_history":"[{\"page_index\":0,\"viewing_time\":10218.065000022762},{\"page_index\":1,\"viewing_time\":13475.909999979194},{\"page_index\":2,\"viewing_time\":23109.664999996312},{\"page_index\":3,\"viewing_time\":5947.114999988116},{\"page_index\":4,\"viewing_time\":19229.11000001477},{\"page_index\":5,\"viewing_time\":8057.809999969322},{\"page_index\":6,\"viewing_time\":12775.08500003023},{\"page_index\":7,\"viewing_time\":6596.964999975171}]","rt":99410.81999999005,"trial_type":"instructions","trial_index":5,"time_elapsed":720882,"internal_node_id":"0.0-5.0-0.0","task_version":"screening-prolific"},{"responses":["True","True","True","True","True"],"num_errors":2,"rt":59189.48499998078,"trial_type":"three-arm-comprehension","trial_index":6,"time_elapsed":780075,"internal_node_id":"0.0-5.0-1.0","task_version":"screening-prolific"},{"view_history":"[{\"page_index\":0,\"viewing_time\":24264.439999999013},{\"page_index\":1,\"viewing_time\":12058.940000017174},{\"page_index\":2,\"viewing_time\":3467.709999997169},{\"page_index\":3,\"viewing_time\":6858.074999996461},{\"page_index\":4,\"viewing_time\":28167.85999998683},{\"page_index\":5,\"viewing_time\":11298.119999992196},{\"page_index\":6,\"viewing_time\":2196.865000005346},{\"page_index\":7,\"viewing_time\":3391.059999994468}]","rt":91703.35000002524,"trial_type":"instructions","trial_index":7,"time_elapsed":871781,"internal_node_id":"0.0-5.1-0.1","task_version":"screening-prolific"},{"responses":["True","True","False","False","True"],"num_errors":0,"rt":25650.88500001002,"trial_type":"three-arm-comprehension","trial_index":8,"time_elapsed":897434,"internal_node_id":"0.0-5.1-1.1","task_version":"screening-prolific"},{"view_history":"[{\"page_index\":0,\"viewing_time\":3452.2650000290014}]","rt":3452.515000011772,"trial_type":"instructions","trial_index":9,"time_elapsed":900890,"internal_node_id":"0.0-6.0","task_version":"screening-prolific"},{"contexts":["blue","red","green"],"outcomes":[0,1,0],"key":38,"choice":1,"rt":1599.004999967292,"outcome":1,"trial":1,"correct":1,"trial_type":"three-arm-trial","trial_index":10,"time_elapsed":903692,"internal_node_id":"0.0-7.0-0.0","task_version":"screening-prolific","missing":false,"accuracy":1},{"contexts":["blue","red","green"],"outcomes":[0,1,0],"key":38,"choice":1,"rt":644.0000000293367,"outcome":1,"trial":2,"correct":1,"trial_type":"three-arm-trial","trial_index":11,"time_elapsed":905539,"internal_node_id":"0.0-8.0-0.0","task_version":"screening-prolific","missing":false,"accuracy":1},{"contexts":["blue","red","green"],"outcomes":[0,0,0],"key":38,"choice":1,"rt":1285.295000008773,"outcome":0,"trial":3,"correct":1,"trial_type":"three-arm-trial","trial_index":12,"time_elapsed":908027,"internal_node_id":"0.0-9.0-0.0","task_version":"screening-prolific","missing":false,"accuracy":1},{"contexts":["blue","red","green"],"outcomes":[1,0,1],"key":37,"choice":0,"rt":525.8699999540113,"outcome":1,"trial":4,"correct":1,"trial_type":"three-arm-trial","trial_index":13,"time_elapsed":909756,"internal_node_id":"0.0-10.0-0.0","task_version":"screening-prolific","missing":false,"accuracy":0},{"contexts":["blue","red","green"],"outcomes":[1,1,0],"key":37,"choice":0,"rt":533.4250000305474,"outcome":1,"trial":5,"correct":1,"trial_type":"three-arm-trial","trial_index":14,"time_elapsed":911492,"internal_node_id":"0.0-11.0-0.0","task_version":"screening-prolific","missing":false,"accuracy":0},{"contexts":["blue","red","green"],"outcomes":[0,1,0],"key":37,"choice":0,"rt":742.7299999981187,"outcome":0,"trial":6,"correct":1,"trial_type":"three-arm-trial","trial_index":15,"time_elapsed":913437,"internal_node_id":"0.0-12.0-0.0","task_version":"screening-prolific","missing":false,"accuracy":0},{"contexts":["blue","red","green"],"outcomes":[0,1,0],"key":39,"choice":2,"rt":596.5549999964423,"outcome":0,"trial":7,"correct":1,"trial_type":"three-arm-trial","trial_index":16,"time_elapsed":915236,"internal_node_id":"0.0-13.0-0.0","task_version":"screening-prolific","missing":false,"accuracy":0},{"contexts":["blue","red","green"],"outcomes":[0,1,0],"key":38,"choice":1,"rt":1124.5450000278652,"outcome":1,"trial":8,"correct":1,"trial_type":"three-arm-trial","trial_index":17,"time_elapsed":917564,"internal_node_id":"0.0-14.0-0.0","task_version":"screening-prolific","missing":false,"accuracy":1},{"contexts":["blue","red","green"],"outcomes":[0,1,0],"key":38,"choice":1,"rt":557.1650000056252,"outcome":1,"trial":9,"correct":1,"trial_type":"three-arm-trial","trial_index":18,"time_elapsed":919323,"internal_node_id":"0.0-15.0-0.0","task_version":"screening-prolific","missing":false,"accuracy":1},{"contexts":["blue","red","green"],"outcomes":[0,0,0],"key":38,"choice":1,"rt":309.95999998413026,"outcome":0,"trial":10,"correct":1,"trial_type":"three-arm-trial","trial_index":19,"time_elapsed":920835,"internal_node_id":"0.0-16.0-0.0","task_version":"screening-prolific","missing":false,"accuracy":1},{"contexts":["blue","red","green"],"outcomes":[0,1,0],"key":38,"choice":1,"rt":133.76499997684732,"outcome":1,"trial":11,"correct":1,"trial_type":"three-arm-trial","trial_index":20,"time_elapsed":922170,"internal_node_id":"0.0-17.0-0.0","task_version":"screening-prolific","missing":false,"accuracy":1},{"contexts":["blue","red","green"],"outcomes":[1,1,0],"key":38,"choice":1,"rt":246.99000001419336,"outcome":1,"trial":12,"correct":1,"trial_type":"three-arm-trial","trial_index":21,"time_elapsed":923619,"internal_node_id":"0.0-18.0-0.0","task_version":"screening-prolific","missing":false,"accuracy":1},{"contexts":["blue","red","green"],"outcomes":[0,1,0],"key":38,"choice":1,"rt":269.34500003699213,"outcome":1,"trial":13,"correct":1,"trial_type":"three-arm-trial","trial_index":22,"time_elapsed":925091,"internal_node_id":"0.0-19.0-0.0","task_version":"screening-prolific","missing":false,"accuracy":1},{"contexts":["blue","red","green"],"outcomes":[0,1,1],"key":38,"choice":1,"rt":229.85000000335276,"outcome":1,"trial":14,"correct":1,"trial_type":"three-arm-trial","trial_index":23,"time_elapsed":926522,"internal_node_id":"0.0-20.0-0.0","task_version":"screening-prolific","missing":false,"accuracy":1},{"contexts":["blue","red","green"],"outcomes":[0,0,0],"key":38,"choice":1,"rt":302.3599999723956,"outcome":0,"trial":15,"correct":1,"trial_type":"three-arm-trial","trial_index":24,"time_elapsed":928028,"internal_node_id":"0.0-21.0-0.0","task_version":"screening-prolific","missing":false,"accuracy":1},{"contexts":["blue","red","green"],"outcomes":[0,0,0],"key":39,"choice":2,"rt":244.8450000374578,"outcome":0,"trial":16,"correct":0,"trial_type":"three-arm-trial","trial_index":25,"time_elapsed":929474,"internal_node_id":"0.0-22.0-0.0","task_version":"screening-prolific","missing":false,"accuracy":0},{"contexts":["blue","red","green"],"outcomes":[0,0,0],"key":37,"choice":0,"rt":302.14499996509403,"outcome":0,"trial":17,"correct":0,"trial_type":"three-arm-trial","trial_index":26,"time_elapsed":930980,"internal_node_id":"0.0-23.0-0.0","task_version":"screening-prolific","missing":false,"accuracy":1},{"contexts":["blue","red","green"],"outcomes":[1,0,0],"key":38,"choice":1,"rt":205.50500001991168,"outcome":0,"trial":18,"correct":0,"trial_type":"three-arm-trial","trial_index":27,"time_elapsed":932388,"internal_node_id":"0.0-24.0-0.0","task_version":"screening-prolific","missing":false,"accuracy":0},{"contexts":["blue","red","green"],"outcomes":[1,0,0],"key":38,"choice":1,"rt":245.03500002902,"outcome":0,"trial":19,"correct":0,"trial_type":"three-arm-trial","trial_index":28,"time_elapsed":933836,"internal_node_id":"0.0-25.0-0.0","task_version":"screening-prolific","missing":false,"accuracy":0},{"contexts":["blue","red","green"],"outcomes":[1,1,0],"key":39,"choice":2,"rt":124.17000002460554,"outcome":0,"trial":20,"correct":0,"trial_type":"three-arm-trial","trial_index":29,"time_elapsed":935163,"internal_node_id":"0.0-26.0-0.0","task_version":"screening-prolific","missing":false,"accuracy":0},{"contexts":["blue","red","green"],"outcomes":[0,0,1],"key":37,"choice":0,"rt":285.64499999629334,"outcome":0,"trial":21,"correct":0,"trial_type":"three-arm-trial","trial_index":30,"time_elapsed":936652,"internal_node_id":"0.0-27.0-0.0","task_version":"screening-prolific","missing":false,"accuracy":1},{"contexts":["blue","red","green"],"outcomes":[1,0,0],"key":37,"choice":0,"rt":228.25500002363697,"outcome":1,"trial":22,"correct":0,"trial_type":"three-arm-trial","trial_index":31,"time_elapsed":938084,"internal_node_id":"0.0-28.0-0.0","task_version":"screening-prolific","missing":false,"accuracy":1},{"contexts":["blue","red","green"],"outcomes":[0,1,0],"key":37,"choice":0,"rt":220.89999995660037,"outcome":0,"trial":23,"correct":0,"trial_type":"three-arm-trial","trial_index":32,"time_elapsed":939507,"internal_node_id":"0.0-29.0-0.0","task_version":"screening-prolific","missing":false,"accuracy":1},{"contexts":["blue","red","green"],"outcomes":[1,0,0],"key":39,"choice":2,"rt":181.5799999749288,"outcome":0,"trial":24,"correct":0,"trial_type":"three-arm-trial","trial_index":33,"time_elapsed":940891,"internal_node_id":"0.0-30.0-0.0","task_version":"screening-prolific","missing":false,"accuracy":0},{"contexts":["blue","red","green"],"outcomes":[0,0,0],"key":38,"choice":1,"rt":125.90500002261251,"outcome":0,"trial":25,"correct":0,"trial_type":"three-arm-trial","trial_index":34,"time_elapsed":942220,"internal_node_id":"0.0-31.0-0.0","task_version":"screening-prolific","missing":false,"accuracy":0},{"contexts":["blue","red","green"],"outcomes":[1,0,1],"key":38,"choice":1,"rt":172.27500001899898,"outcome":0,"trial":26,"correct":0,"trial_type":"three-arm-trial","trial_index":35,"time_elapsed":943595,"internal_node_id":"0.0-32.0-0.0","task_version":"screening-prolific","missing":false,"accuracy":0},{"contexts":["blue","red","green"],"outcomes":[1,0,0],"key":39,"choice":2,"rt":238.01999998977408,"outcome":0,"trial":27,"correct":0,"trial_type":"three-arm-trial","trial_index":36,"time_elapsed":945036,"internal_node_id":"0.0-33.0-0.0","task_version":"screening-prolific","missing":false,"accuracy":0},{"contexts":["blue","red","green"],"outcomes":[1,0,0],"key":37,"choice":0,"rt":148.4199999831617,"outcome":1,"trial":28,"correct":0,"trial_type":"three-arm-trial","trial_index":37,"time_elapsed":946387,"internal_node_id":"0.0-34.0-0.0","task_version":"screening-prolific","missing":false,"accuracy":1},{"contexts":["blue","red","green"],"outcomes":[0,0,0],"key":37,"choice":0,"rt":61.53000000631437,"outcome":0,"trial":29,"correct":0,"trial_type":"three-arm-trial","trial_index":38,"time_elapsed":947651,"internal_node_id":"0.0-35.0-0.0","task_version":"screening-prolific","missing":false,"accuracy":1},{"contexts":["blue","red","green"],"outcomes":[1,0,0],"key":37,"choice":0,"rt":165.2149999863468,"outcome":1,"trial":30,"correct":0,"trial_type":"three-arm-trial","trial_index":39,"time_elapsed":949018,"internal_node_id":"0.0-36.0-0.0","task_version":"screening-prolific","missing":false,"accuracy":1},{"contexts":["blue","red","green"],"outcomes":[1,1,0],"key":37,"choice":0,"rt":222.11499995319173,"outcome":1,"trial":31,"correct":1,"trial_type":"three-arm-trial","trial_index":40,"time_elapsed":950442,"internal_node_id":"0.0-37.0-0.0","task_version":"screening-prolific","missing":false,"accuracy":0},{"contexts":["blue","red","green"],"outcomes":[0,1,0],"key":37,"choice":0,"rt":245.71999994805083,"outcome":0,"trial":32,"correct":1,"trial_type":"three-arm-trial","trial_index":41,"time_elapsed":951891,"internal_node_id":"0.0-38.0-0.0","task_version":"screening-prolific","missing":false,"accuracy":0},{"contexts":["blue","red","green"],"outcomes":[0,1,0],"key":37,"choice":0,"rt":182.04000004334375,"outcome":0,"trial":33,"correct":1,"trial_type":"three-arm-trial","trial_index":42,"time_elapsed":953275,"internal_node_id":"0.0-39.0-0.0","task_version":"screening-prolific","missing":false,"accuracy":0},{"contexts":["blue","red","green"],"outcomes":[1,1,0],"key":39,"choice":2,"rt":213.5950000374578,"outcome":0,"trial":34,"correct":1,"trial_type":"three-arm-trial","trial_index":43,"time_elapsed":954691,"internal_node_id":"0.0-40.0-0.0","task_version":"screening-prolific","missing":false,"accuracy":0},{"contexts":["blue","red","green"],"outcomes":[0,1,0],"key":38,"choice":1,"rt":45.36500002723187,"outcome":1,"trial":35,"correct":1,"trial_type":"three-arm-trial","trial_index":44,"time_elapsed":955939,"internal_node_id":"0.0-41.0-0.0","task_version":"screening-prolific","missing":false,"accuracy":1},{"contexts":["blue","red","green"],"outcomes":[0,1,1],"key":38,"choice":1,"rt":245.22499996237457,"outcome":1,"trial":36,"correct":1,"trial_type":"three-arm-trial","trial_index":45,"time_elapsed":957387,"internal_node_id":"0.0-42.0-0.0","task_version":"screening-prolific","missing":false,"accuracy":1},{"contexts":["blue","red","green"],"outcomes":[0,1,0],"key":38,"choice":1,"rt":269.48000001721084,"outcome":1,"trial":37,"correct":1,"trial_type":"three-arm-trial","trial_index":46,"time_elapsed":958859,"internal_node_id":"0.0-43.0-0.0","task_version":"screening-prolific","missing":false,"accuracy":1},{"contexts":["blue","red","green"],"outcomes":[0,1,0],"key":38,"choice":1,"rt":252.89000000339,"outcome":1,"trial":38,"correct":1,"trial_type":"three-arm-trial","trial_index":47,"time_elapsed":960315,"internal_node_id":"0.0-44.0-0.0","task_version":"screening-prolific","missing":false,"accuracy":1},{"contexts":["blue","red","green"],"outcomes":[0,1,1],"key":38,"choice":1,"rt":269.35499999672174,"outcome":1,"trial":39,"correct":1,"trial_type":"three-arm-trial","trial_index":48,"time_elapsed":961787,"internal_node_id":"0.0-45.0-0.0","task_version":"screening-prolific","missing":false,"accuracy":1},{"contexts":["blue","red","green"],"outcomes":[0,1,1],"key":38,"choice":1,"rt":589.6599999978207,"outcome":1,"trial":40,"correct":1,"trial_type":"three-arm-trial","trial_index":49,"time_elapsed":963579,"internal_node_id":"0.0-46.0-0.0","task_version":"screening-prolific","missing":false,"accuracy":1},{"contexts":["blue","red","green"],"outcomes":[0,1,0],"key":38,"choice":1,"rt":213.28500000527129,"outcome":1,"trial":41,"correct":1,"trial_type":"three-arm-trial","trial_index":50,"time_elapsed":964995,"internal_node_id":"0.0-47.0-0.0","task_version":"screening-prolific","missing":false,"accuracy":1},{"contexts":["blue","red","green"],"outcomes":[1,1,0],"key":38,"choice":1,"rt":302.65500000678,"outcome":1,"trial":42,"correct":1,"trial_type":"three-arm-trial","trial_index":51,"time_elapsed":966500,"internal_node_id":"0.0-48.0-0.0","task_version":"screening-prolific","missing":false,"accuracy":1},{"contexts":["blue","red","green"],"outcomes":[0,1,0],"key":38,"choice":1,"rt":604.0050000301562,"outcome":1,"trial":43,"correct":1,"trial_type":"three-arm-trial","trial_index":52,"time_elapsed":968306,"internal_node_id":"0.0-49.0-0.0","task_version":"screening-prolific","missing":false,"accuracy":1},{"contexts":["blue","red","green"],"outcomes":[0,1,0],"key":38,"choice":1,"rt":471.03499999502674,"outcome":1,"trial":44,"correct":1,"trial_type":"three-arm-trial","trial_index":53,"time_elapsed":969979,"internal_node_id":"0.0-50.0-0.0","task_version":"screening-prolific","missing":false,"accuracy":1},{"contexts":["blue","red","green"],"outcomes":[0,1,0],"key":38,"choice":1,"rt":364.99000003095716,"outcome":1,"trial":45,"correct":1,"trial_type":"three-arm-trial","trial_index":54,"time_elapsed":971546,"internal_node_id":"0.0-51.0-0.0","task_version":"screening-prolific","missing":false,"accuracy":1},{"contexts":["blue","red","green"],"outcomes":[1,0,0],"key":38,"choice":1,"rt":286.48499998962507,"outcome":0,"trial":46,"correct":0,"trial_type":"three-arm-trial","trial_index":55,"time_elapsed":973036,"internal_node_id":"0.0-52.0-0.0","task_version":"screening-prolific","missing":false,"accuracy":0},{"contexts":["blue","red","green"],"outcomes":[1,1,0],"key":38,"choice":1,"rt":140.81999997142702,"outcome":1,"trial":47,"correct":0,"trial_type":"three-arm-trial","trial_index":56,"time_elapsed":974382,"internal_node_id":"0.0-53.0-0.0","task_version":"screening-prolific","missing":false,"accuracy":0},{"contexts":["blue","red","green"],"outcomes":[0,0,0],"key":38,"choice":1,"rt":106.14000004716218,"outcome":0,"trial":48,"correct":0,"trial_type":"three-arm-trial","trial_index":57,"time_elapsed":975690,"internal_node_id":"0.0-54.0-0.0","task_version":"screening-prolific","missing":false,"accuracy":0},{"contexts":["blue","red","green"],"outcomes":[1,0,0],"key":38,"choice":1,"rt":519.2600000300445,"outcome":0,"trial":49,"correct":0,"trial_type":"three-arm-trial","trial_index":58,"time_elapsed":977412,"internal_node_id":"0.0-55.0-0.0","task_version":"screening-prolific","missing":false,"accuracy":0},{"contexts":["blue","red","green"],"outcomes":[1,0,0],"key":39,"choice":2,"rt":44.9699999880977,"outcome":0,"trial":50,"correct":0,"trial_type":"three-arm-trial","trial_index":59,"time_elapsed":978658,"internal_node_id":"0.0-56.0-0.0","task_version":"screening-prolific","missing":false,"accuracy":0},{"contexts":["blue","red","green"],"outcomes":[1,0,0],"key":39,"choice":2,"rt":261.70500001171604,"outcome":0,"trial":51,"correct":0,"trial_type":"three-arm-trial","trial_index":60,"time_elapsed":980124,"internal_node_id":"0.0-57.0-0.0","task_version":"screening-prolific","missing":false,"accuracy":0},{"contexts":["blue","red","green"],"outcomes":[1,0,0],"key":37,"choice":0,"rt":237.0050000026822,"outcome":1,"trial":52,"correct":0,"trial_type":"three-arm-trial","trial_index":61,"time_elapsed":981564,"internal_node_id":"0.0-58.0-0.0","task_version":"screening-prolific","missing":false,"accuracy":1},{"contexts":["blue","red","green"],"outcomes":[1,1,0],"key":37,"choice":0,"rt":220.43500002473593,"outcome":1,"trial":53,"correct":0,"trial_type":"three-arm-trial","trial_index":62,"time_elapsed":982986,"internal_node_id":"0.0-59.0-0.0","task_version":"screening-prolific","missing":false,"accuracy":1},{"contexts":["blue","red","green"],"outcomes":[0,0,0],"key":37,"choice":0,"rt":205.93500003451481,"outcome":0,"trial":54,"correct":0,"trial_type":"three-arm-trial","trial_index":63,"time_elapsed":984394,"internal_node_id":"0.0-60.0-0.0","task_version":"screening-prolific","missing":false,"accuracy":1},{"contexts":["blue","red","green"],"outcomes":[0,0,0],"key":37,"choice":0,"rt":198.63500003702939,"outcome":0,"trial":55,"correct":0,"trial_type":"three-arm-trial","trial_index":64,"time_elapsed":985794,"internal_node_id":"0.0-61.0-0.0","task_version":"screening-prolific","missing":false,"accuracy":1},{"contexts":["blue","red","green"],"outcomes":[0,0,0],"key":37,"choice":0,"rt":174.0400000126101,"outcome":0,"trial":56,"correct":0,"trial_type":"three-arm-trial","trial_index":65,"time_elapsed":987170,"internal_node_id":"0.0-62.0-0.0","task_version":"screening-prolific","missing":false,"accuracy":1},{"contexts":["blue","red","green"],"outcomes":[1,0,1],"key":38,"choice":1,"rt":159.29999999934807,"outcome":0,"trial":57,"correct":0,"trial_type":"three-arm-trial","trial_index":66,"time_elapsed":988531,"internal_node_id":"0.0-63.0-0.0","task_version":"screening-prolific","missing":false,"accuracy":0},{"contexts":["blue","red","green"],"outcomes":[1,0,0],"key":39,"choice":2,"rt":85.1000000257045,"outcome":0,"trial":58,"correct":0,"trial_type":"three-arm-trial","trial_index":67,"time_elapsed":989819,"internal_node_id":"0.0-64.0-0.0","task_version":"screening-prolific","missing":false,"accuracy":0},{"contexts":["blue","red","green"],"outcomes":[1,0,1],"key":39,"choice":2,"rt":221.37499996460974,"outcome":1,"trial":59,"correct":0,"trial_type":"three-arm-trial","trial_index":68,"time_elapsed":991243,"internal_node_id":"0.0-65.0-0.0","task_version":"screening-prolific","missing":false,"accuracy":0},{"contexts":["blue","red","green"],"outcomes":[1,0,0],"key":39,"choice":2,"rt":213.35999999428168,"outcome":0,"trial":60,"correct":0,"trial_type":"three-arm-trial","trial_index":69,"time_elapsed":992659,"internal_node_id":"0.0-66.0-0.0","task_version":"screening-prolific","missing":false,"accuracy":0},{"contexts":["blue","red","green"],"outcomes":[1,1,0],"key":39,"choice":2,"rt":261.4649999886751,"outcome":0,"trial":61,"correct":1,"trial_type":"three-arm-trial","trial_index":70,"time_elapsed":994122,"internal_node_id":"0.0-67.0-0.0","task_version":"screening-prolific","missing":false,"accuracy":0},{"contexts":["blue","red","green"],"outcomes":[0,0,0],"key":38,"choice":1,"rt":262.0949999545701,"outcome":0,"trial":62,"correct":1,"trial_type":"three-arm-trial","trial_index":71,"time_elapsed":995587,"internal_node_id":"0.0-68.0-0.0","task_version":"screening-prolific","missing":false,"accuracy":1},{"contexts":["blue","red","green"],"outcomes":[0,1,0],"key":38,"choice":1,"rt":261.50500000221655,"outcome":1,"trial":63,"correct":1,"trial_type":"three-arm-trial","trial_index":72,"time_elapsed":997051,"internal_node_id":"0.0-69.0-0.0","task_version":"screening-prolific","missing":false,"accuracy":1},{"contexts":["blue","red","green"],"outcomes":[0,1,0],"key":38,"choice":1,"rt":165.0050000171177,"outcome":1,"trial":64,"correct":1,"trial_type":"three-arm-trial","trial_index":73,"time_elapsed":998418,"internal_node_id":"0.0-70.0-0.0","task_version":"screening-prolific","missing":false,"accuracy":1},{"contexts":["blue","red","green"],"outcomes":[1,1,0],"key":38,"choice":1,"rt":343.0899999802932,"outcome":1,"trial":65,"correct":1,"trial_type":"three-arm-trial","trial_index":74,"time_elapsed":999964,"internal_node_id":"0.0-71.0-0.0","task_version":"screening-prolific","missing":false,"accuracy":1},{"contexts":["blue","red","green"],"outcomes":[1,1,1],"key":38,"choice":1,"rt":509.1149999643676,"outcome":1,"trial":66,"correct":1,"trial_type":"three-arm-trial","trial_index":75,"time_elapsed":1001675,"internal_node_id":"0.0-72.0-0.0","task_version":"screening-prolific","missing":false,"accuracy":1},{"contexts":["blue","red","green"],"outcomes":[0,0,0],"key":38,"choice":1,"rt":301.0750000248663,"outcome":0,"trial":67,"correct":1,"trial_type":"three-arm-trial","trial_index":76,"time_elapsed":1003178,"internal_node_id":"0.0-73.0-0.0","task_version":"screening-prolific","missing":false,"accuracy":1},{"contexts":["blue","red","green"],"outcomes":[0,1,0],"key":38,"choice":1,"rt":862.7250000135973,"outcome":1,"trial":68,"correct":1,"trial_type":"three-arm-trial","trial_index":77,"time_elapsed":1005244,"internal_node_id":"0.0-74.0-0.0","task_version":"screening-prolific","missing":false,"accuracy":1},{"contexts":["blue","red","green"],"outcomes":[0,1,0],"key":38,"choice":1,"rt":707.9800000065006,"outcome":1,"trial":69,"correct":1,"trial_type":"three-arm-trial","trial_index":78,"time_elapsed":1007155,"internal_node_id":"0.0-75.0-0.0","task_version":"screening-prolific","missing":false,"accuracy":1},{"contexts":["blue","red","green"],"outcomes":[1,1,0],"key":38,"choice":1,"rt":333.53500004159287,"outcome":1,"trial":70,"correct":1,"trial_type":"three-arm-trial","trial_index":79,"time_elapsed":1008691,"internal_node_id":"0.0-76.0-0.0","task_version":"screening-prolific","missing":false,"accuracy":1},{"contexts":["blue","red","green"],"outcomes":[0,0,0],"key":38,"choice":1,"rt":429.87500003073364,"outcome":0,"trial":71,"correct":1,"trial_type":"three-arm-trial","trial_index":80,"time_elapsed":1010325,"internal_node_id":"0.0-77.0-0.0","task_version":"screening-prolific","missing":false,"accuracy":1},{"contexts":["blue","red","green"],"outcomes":[1,1,0],"key":37,"choice":0,"rt":651.7549999989569,"outcome":1,"trial":72,"correct":1,"trial_type":"three-arm-trial","trial_index":81,"time_elapsed":1012179,"internal_node_id":"0.0-78.0-0.0","task_version":"screening-prolific","missing":false,"accuracy":0},{"contexts":["blue","red","green"],"outcomes":[0,1,0],"key":37,"choice":0,"rt":245.9800000069663,"outcome":0,"trial":73,"correct":1,"trial_type":"three-arm-trial","trial_index":82,"time_elapsed":1013627,"internal_node_id":"0.0-79.0-0.0","task_version":"screening-prolific","missing":false,"accuracy":0},{"contexts":["blue","red","green"],"outcomes":[1,1,0],"key":37,"choice":0,"rt":213.80499994847924,"outcome":1,"trial":74,"correct":1,"trial_type":"three-arm-trial","trial_index":83,"time_elapsed":1015044,"internal_node_id":"0.0-80.0-0.0","task_version":"screening-prolific","missing":false,"accuracy":0},{"contexts":["blue","red","green"],"outcomes":[0,0,0],"key":37,"choice":0,"rt":269.3449999787845,"outcome":0,"trial":75,"correct":1,"trial_type":"three-arm-trial","trial_index":84,"time_elapsed":1016516,"internal_node_id":"0.0-81.0-0.0","task_version":"screening-prolific","missing":false,"accuracy":0},{"contexts":["blue","red","green"],"outcomes":[1,1,1],"key":37,"choice":0,"rt":836.0450000036508,"outcome":1,"trial":76,"correct":2,"trial_type":"three-arm-trial","trial_index":85,"time_elapsed":1018554,"internal_node_id":"0.0-82.0-0.0","task_version":"screening-prolific","missing":false,"accuracy":0},{"contexts":["blue","red","green"],"outcomes":[0,0,1],"key":39,"choice":2,"rt":927.7950000250712,"outcome":1,"trial":77,"correct":2,"trial_type":"three-arm-trial","trial_index":86,"time_elapsed":1020684,"internal_node_id":"0.0-83.0-0.0","task_version":"screening-prolific","missing":false,"accuracy":1},{"contexts":["blue","red","green"],"outcomes":[1,0,1],"key":39,"choice":2,"rt":651.4900000183843,"outcome":1,"trial":78,"correct":2,"trial_type":"three-arm-trial","trial_index":87,"time_elapsed":1022539,"internal_node_id":"0.0-84.0-0.0","task_version":"screening-prolific","missing":false,"accuracy":1},{"contexts":["blue","red","green"],"outcomes":[1,0,1],"key":39,"choice":2,"rt":204.99499997822568,"outcome":1,"trial":79,"correct":2,"trial_type":"three-arm-trial","trial_index":88,"time_elapsed":1023947,"internal_node_id":"0.0-85.0-0.0","task_version":"screening-prolific","missing":false,"accuracy":1},{"contexts":["blue","red","green"],"outcomes":[0,0,0],"key":39,"choice":2,"rt":293.33000001497567,"outcome":0,"trial":80,"correct":2,"trial_type":"three-arm-trial","trial_index":89,"time_elapsed":1025443,"internal_node_id":"0.0-86.0-0.0","task_version":"screening-prolific","missing":false,"accuracy":1},{"contexts":["blue","red","green"],"outcomes":[0,0,1],"key":37,"choice":0,"rt":740.8050000085495,"outcome":0,"trial":81,"correct":2,"trial_type":"three-arm-trial","trial_index":90,"time_elapsed":1027386,"internal_node_id":"0.0-87.0-0.0","task_version":"screening-prolific","missing":false,"accuracy":0},{"contexts":["blue","red","green"],"outcomes":[1,0,1],"key":38,"choice":1,"rt":318.32000002032146,"outcome":0,"trial":82,"correct":2,"trial_type":"three-arm-trial","trial_index":91,"time_elapsed":1028906,"internal_node_id":"0.0-88.0-0.0","task_version":"screening-prolific","missing":false,"accuracy":0},{"contexts":["blue","red","green"],"outcomes":[0,0,1],"key":39,"choice":2,"rt":262.02500000363216,"outcome":1,"trial":83,"correct":2,"trial_type":"three-arm-trial","trial_index":92,"time_elapsed":1030370,"internal_node_id":"0.0-89.0-0.0","task_version":"screening-prolific","missing":false,"accuracy":1},{"contexts":["blue","red","green"],"outcomes":[0,0,1],"key":39,"choice":2,"rt":200.17000002553686,"outcome":1,"trial":84,"correct":2,"trial_type":"three-arm-trial","trial_index":93,"time_elapsed":1031774,"internal_node_id":"0.0-90.0-0.0","task_version":"screening-prolific","missing":false,"accuracy":1},{"contexts":["blue","red","green"],"outcomes":[0,0,1],"key":39,"choice":2,"rt":354.79999997187406,"outcome":1,"trial":85,"correct":2,"trial_type":"three-arm-trial","trial_index":94,"time_elapsed":1033330,"internal_node_id":"0.0-91.0-0.0","task_version":"screening-prolific","missing":false,"accuracy":1},{"contexts":["blue","red","green"],"outcomes":[0,0,1],"key":39,"choice":2,"rt":334.87000002060086,"outcome":1,"trial":86,"correct":2,"trial_type":"three-arm-trial","trial_index":95,"time_elapsed":1034866,"internal_node_id":"0.0-92.0-0.0","task_version":"screening-prolific","missing":false,"accuracy":1},{"contexts":["blue","red","green"],"outcomes":[0,0,0],"key":39,"choice":2,"rt":286.5200000233017,"outcome":0,"trial":87,"correct":2,"trial_type":"three-arm-trial","trial_index":96,"time_elapsed":1036354,"internal_node_id":"0.0-93.0-0.0","task_version":"screening-prolific","missing":false,"accuracy":1},{"contexts":["blue","red","green"],"outcomes":[0,0,1],"key":37,"choice":0,"rt":1365.4749999986961,"outcome":0,"trial":88,"correct":2,"trial_type":"three-arm-trial","trial_index":97,"time_elapsed":1038923,"internal_node_id":"0.0-94.0-0.0","task_version":"screening-prolific","missing":false,"accuracy":0},{"contexts":["blue","red","green"],"outcomes":[0,0,0],"key":39,"choice":2,"rt":606.4999999944121,"outcome":0,"trial":89,"correct":2,"trial_type":"three-arm-trial","trial_index":98,"time_elapsed":1040731,"internal_node_id":"0.0-95.0-0.0","task_version":"screening-prolific","missing":false,"accuracy":1},{"contexts":["blue","red","green"],"outcomes":[1,0,0],"key":38,"choice":1,"rt":318.85999999940395,"outcome":0,"trial":90,"correct":2,"trial_type":"three-arm-trial","trial_index":99,"time_elapsed":1042252,"internal_node_id":"0.0-96.0-0.0","task_version":"screening-prolific","missing":false,"accuracy":0},{"rt":83821.52500003576,"responses":{"age":"19","gender-categorical":"Male","gender-free-response":"","ethnicity":"Not Hispanic or Latino","race":["White"],"language":"Yes","fluency":"Very well","mturk":"No","mturk-this-study":"No"},"survey":"demographics","trial_type":"survey-demo","trial_index":100,"time_elapsed":1126099,"internal_node_id":"0.0-97.0","task_version":"screening-prolific","interactions":"[{\"event\":\"blur\",\"trial\":0,\"time\":31777},{\"event\":\"focus\",\"trial\":0,\"time\":36935},{\"event\":\"blur\",\"trial\":0,\"time\":80556},{\"event\":\"focus\",\"trial\":0,\"time\":82068},{\"event\":\"blur\",\"trial\":0,\"time\":84463},{\"event\":\"focus\",\"trial\":0,\"time\":85797},{\"event\":\"blur\",\"trial\":0,\"time\":114729},{\"event\":\"focus\",\"trial\":0,\"time\":120416},{\"event\":\"blur\",\"trial\":2,\"time\":163196},{\"event\":\"focus\",\"trial\":2,\"time\":164308},{\"event\":\"blur\",\"trial\":2,\"time\":170754},{\"event\":\"focus\",\"trial\":2,\"time\":177582},{\"event\":\"blur\",\"trial\":2,\"time\":192462},{\"event\":\"focus\",\"trial\":2,\"time\":195736},{\"event\":\"blur\",\"trial\":2,\"time\":205759},{\"event\":\"focus\",\"trial\":2,\"time\":208350},{\"event\":\"blur\",\"trial\":2,\"time\":227003},{\"event\":\"focus\",\"trial\":2,\"time\":230820},{\"event\":\"blur\",\"trial\":2,\"time\":236774},{\"event\":\"focus\",\"trial\":2,\"time\":237404},{\"event\":\"blur\",\"trial\":2,\"time\":237933},{\"event\":\"focus\",\"trial\":2,\"time\":241554},{\"event\":\"blur\",\"trial\":3,\"time\":258680},{\"event\":\"focus\",\"trial\":3,\"time\":266706},{\"event\":\"blur\",\"trial\":3,\"time\":274651},{\"event\":\"focus\",\"trial\":3,\"time\":282539},{\"event\":\"blur\",\"trial\":3,\"time\":340244},{\"event\":\"focus\",\"trial\":3,\"time\":341725},{\"event\":\"blur\",\"trial\":3,\"time\":343463},{\"event\":\"focus\",\"trial\":3,\"time\":346589},{\"event\":\"blur\",\"trial\":3,\"time\":413140},{\"event\":\"focus\",\"trial\":3,\"time\":418464},{\"event\":\"blur\",\"trial\":3,\"time\":473611},{\"event\":\"focus\",\"trial\":3,\"time\":485901},{\"event\":\"blur\",\"trial\":4,\"time\":496048},{\"event\":\"focus\",\"trial\":4,\"time\":498959},{\"event\":\"blur\",\"trial\":4,\"time\":514677},{\"event\":\"focus\",\"trial\":4,\"time\":519693},{\"event\":\"blur\",\"trial\":4,\"time\":527734},{\"event\":\"focus\",\"trial\":4,\"time\":528733},{\"event\":\"blur\",\"trial\":4,\"time\":529695},{\"event\":\"focus\",\"trial\":4,\"time\":529975},{\"event\":\"blur\",\"trial\":4,\"time\":534761},{\"event\":\"focus\",\"trial\":4,\"time\":538103},{\"event\":\"blur\",\"trial\":4,\"time\":568061},{\"event\":\"focus\",\"trial\":4,\"time\":574198},{\"event\":\"blur\",\"trial\":4,\"time\":580526},{\"event\":\"focus\",\"trial\":4,\"time\":584797},{\"event\":\"blur\",\"trial\":4,\"time\":588789},{\"event\":\"focus\",\"trial\":4,\"time\":590429},{\"event\":\"blur\",\"trial\":4,\"time\":606496},{\"event\":\"focus\",\"trial\":4,\"time\":611631},{\"event\":\"blur\",\"trial\":5,\"time\":654444},{\"event\":\"focus\",\"trial\":5,\"time\":656662},{\"event\":\"blur\",\"trial\":5,\"time\":658856},{\"event\":\"focus\",\"trial\":5,\"time\":659439},{\"event\":\"blur\",\"trial\":5,\"time\":709556},{\"event\":\"focus\",\"trial\":5,\"time\":712639},{\"event\":\"blur\",\"trial\":6,\"time\":761003},{\"event\":\"focus\",\"trial\":6,\"time\":769825},{\"event\":\"blur\",\"trial\":7,\"time\":783191},{\"event\":\"focus\",\"trial\":7,\"time\":794811},{\"event\":\"blur\",\"trial\":100,\"time\":1084495},{\"event\":\"focus\",\"trial\":100,\"time\":1087972},{\"event\":\"blur\",\"trial\":100,\"time\":1090717},{\"event\":\"focus\",\"trial\":100,\"time\":1093306}]"}]