[{"responses":{"Q03":"0","Q04":"0","Q02":"0","Q05":"0","Q08":"0","Q06":"0","Q07":"0","Q01":"0"},"rt":17327.690000005532,"survey":"gad7","trial_type":"survey-template","trial_index":0,"time_elapsed":17336,"internal_node_id":"0.0-0.0","task_version":"screening-prolific"},{"responses":{"Q09":"1","Q03":"0","Q07":"2","Q02":"0","Q12":"0","Q13":"3","Q04":"0","Q06":"2","Q11":"1","Q08":"2","Q10":"1","Q05":"2","Q01":"1"},"rt":33263.26500000141,"survey":"bisbas","trial_type":"survey-template","trial_index":1,"time_elapsed":50623,"internal_node_id":"0.0-1.0","task_version":"screening-prolific"},{"responses":{"Q01":"0","Q11":"0","Q05":"0","Q08":"0","Q09":"0","Q02":"0","Q06":"3","Q13":"0","Q04":"1","Q07":"1","Q14":"0","Q12":"0","Q03":"1","Q15":"0","Q10":"0"},"rt":45556.08999999822,"survey":"7up7down","trial_type":"survey-template","trial_index":2,"time_elapsed":96201,"internal_node_id":"0.0-2.0","task_version":"screening-prolific"},{"responses":{"Q02":"0","Q03":"0","Q01":"0"},"rt":4336.079999993672,"survey":"pswq","trial_type":"survey-template","trial_index":3,"time_elapsed":100558,"internal_node_id":"0.0-3.0","task_version":"screening-prolific"},{"responses":{"Q09":"2","Q08":"2","Q13":"2","Q03":"2","Q12":"2","Q14":"2","Q05":"2","Q11":"2","Q07":"2","Q01":"2","Q02":"2","Q10":"2","Q15":"3","Q04":"2","Q06":"2"},"rt":22672.64000000432,"survey":"shaps","trial_type":"survey-template","trial_index":4,"time_elapsed":123253,"internal_node_id":"0.0-4.0","task_version":"screening-prolific"},{"view_history":"[{\"page_index\":0,\"viewing_time\":3024.4049999892013},{\"page_index\":1,\"viewing_time\":3996.6050000075484},{\"page_index\":2,\"viewing_time\":5716.560000000754},{\"page_index\":1,\"viewing_time\":631.7549999948824},{\"page_index\":2,\"viewing_time\":1530.880000005709},{\"page_index\":3,\"viewing_time\":1849.9549999978626},{\"page_index\":2,\"viewing_time\":2876.9349999929545},{\"page_index\":3,\"viewing_time\":1592.0600000099512},{\"page_index\":4,\"viewing_time\":4118.564999997034},{\"page_index\":5,\"viewing_time\":3260.309999997844},{\"page_index\":6,\"viewing_time\":1655.2450000017416},{\"page_index\":7,\"viewing_time\":2281.6900000034366}]","rt":32535.60999999172,"trial_type":"instructions","trial_index":5,"time_elapsed":155809,"internal_node_id":"0.0-5.0-0.0","task_version":"screening-prolific"},{"responses":["True","True","False","False","True"],"num_errors":0,"rt":12328.93000000331,"trial_type":"three-arm-comprehension","trial_index":6,"time_elapsed":168142,"internal_node_id":"0.0-5.0-1.0","task_version":"screening-prolific"},{"view_history":"[{\"page_index\":0,\"viewing_time\":1062.000000005355}]","rt":1062.210000003688,"trial_type":"instructions","trial_index":7,"time_elapsed":169227,"internal_node_id":"0.0-6.0","task_version":"screening-prolific"},{"contexts":["red","blue","green"],"outcomes":[0,1,0],"key":37,"choice":0,"rt":2460.9850000124425,"outcome":0,"trial":1,"correct":1,"trial_type":"three-arm-trial","trial_index":8,"time_elapsed":172891,"internal_node_id":"0.0-7.0-0.0","task_version":"screening-prolific","missing":false,"accuracy":0},{"contexts":["red","blue","green"],"outcomes":[0,1,0],"key":39,"choice":2,"rt":233.64500000025146,"outcome":0,"trial":2,"correct":1,"trial_type":"three-arm-trial","trial_index":9,"time_elapsed":174348,"internal_node_id":"0.0-8.0-0.0","task_version":"screening-prolific","missing":false,"accuracy":0},{"contexts":["red","blue","green"],"outcomes":[0,1,0],"key":38,"choice":1,"rt":969.1600000078324,"outcome":1,"trial":3,"correct":1,"trial_type":"three-arm-trial","trial_index":10,"time_elapsed":176597,"internal_node_id":"0.0-9.0-0.0","task_version":"screening-prolific","missing":false,"accuracy":1},{"contexts":["red","blue","green"],"outcomes":[0,1,0],"key":38,"choice":1,"rt":297.8049999946961,"outcome":1,"trial":4,"correct":1,"trial_type":"three-arm-trial","trial_index":11,"time_elapsed":178118,"internal_node_id":"0.0-10.0-0.0","task_version":"screening-prolific","missing":false,"accuracy":1},{"contexts":["red","blue","green"],"outcomes":[1,0,1],"key":37,"choice":0,"rt":474.6200000081444,"outcome":1,"trial":5,"correct":1,"trial_type":"three-arm-trial","trial_index":12,"time_elapsed":179864,"internal_node_id":"0.0-11.0-0.0","task_version":"screening-prolific","missing":false,"accuracy":0},{"contexts":["red","blue","green"],"outcomes":[0,1,0],"key":39,"choice":2,"rt":388.34000000497326,"outcome":0,"trial":6,"correct":1,"trial_type":"three-arm-trial","trial_index":13,"time_elapsed":181533,"internal_node_id":"0.0-12.0-0.0","task_version":"screening-prolific","missing":false,"accuracy":0},{"contexts":["red","blue","green"],"outcomes":[0,0,1],"key":37,"choice":0,"rt":284.39000000071246,"outcome":0,"trial":7,"correct":1,"trial_type":"three-arm-trial","trial_index":14,"time_elapsed":183090,"internal_node_id":"0.0-13.0-0.0","task_version":"screening-prolific","missing":false,"accuracy":0},{"contexts":["red","blue","green"],"outcomes":[0,1,0],"key":38,"choice":1,"rt":104.69500000181142,"outcome":1,"trial":8,"correct":1,"trial_type":"three-arm-trial","trial_index":15,"time_elapsed":184455,"internal_node_id":"0.0-14.0-0.0","task_version":"screening-prolific","missing":false,"accuracy":1},{"contexts":["red","blue","green"],"outcomes":[0,1,0],"key":38,"choice":1,"rt":94.00499999173917,"outcome":1,"trial":9,"correct":1,"trial_type":"three-arm-trial","trial_index":16,"time_elapsed":185813,"internal_node_id":"0.0-15.0-0.0","task_version":"screening-prolific","missing":false,"accuracy":1},{"contexts":["red","blue","green"],"outcomes":[0,0,0],"key":38,"choice":1,"rt":195.28499999432825,"outcome":0,"trial":10,"correct":1,"trial_type":"three-arm-trial","trial_index":17,"time_elapsed":187268,"internal_node_id":"0.0-16.0-0.0","task_version":"screening-prolific","missing":false,"accuracy":1},{"contexts":["red","blue","green"],"outcomes":[0,1,0],"key":37,"choice":0,"rt":321.97000000451226,"outcome":0,"trial":11,"correct":1,"trial_type":"three-arm-trial","trial_index":18,"time_elapsed":188871,"internal_node_id":"0.0-17.0-0.0","task_version":"screening-prolific","missing":false,"accuracy":0},{"contexts":["red","blue","green"],"outcomes":[0,1,0],"key":37,"choice":0,"rt":210.94000000448432,"outcome":0,"trial":12,"correct":1,"trial_type":"three-arm-trial","trial_index":19,"time_elapsed":190346,"internal_node_id":"0.0-18.0-0.0","task_version":"screening-prolific","missing":false,"accuracy":0},{"contexts":["red","blue","green"],"outcomes":[0,1,0],"key":38,"choice":1,"rt":178.5600000002887,"outcome":1,"trial":13,"correct":1,"trial_type":"three-arm-trial","trial_index":20,"time_elapsed":191786,"internal_node_id":"0.0-19.0-0.0","task_version":"screening-prolific","missing":false,"accuracy":1},{"contexts":["red","blue","green"],"outcomes":[0,0,0],"key":38,"choice":1,"rt":186.295000006794,"outcome":0,"trial":14,"correct":1,"trial_type":"three-arm-trial","trial_index":21,"time_elapsed":193213,"internal_node_id":"0.0-20.0-0.0","task_version":"screening-prolific","missing":false,"accuracy":1},{"contexts":["red","blue","green"],"outcomes":[0,0,1],"key":38,"choice":1,"rt":203.11500001116656,"outcome":0,"trial":15,"correct":1,"trial_type":"three-arm-trial","trial_index":22,"time_elapsed":194682,"internal_node_id":"0.0-21.0-0.0","task_version":"screening-prolific","missing":false,"accuracy":1},{"contexts":["red","blue","green"],"outcomes":[0,0,1],"key":39,"choice":2,"rt":77.82000000588596,"outcome":1,"trial":16,"correct":2,"trial_type":"three-arm-trial","trial_index":23,"time_elapsed":196015,"internal_node_id":"0.0-22.0-0.0","task_version":"screening-prolific","missing":false,"accuracy":1},{"contexts":["red","blue","green"],"outcomes":[0,0,1],"key":39,"choice":2,"rt":290.4850000049919,"outcome":1,"trial":17,"correct":2,"trial_type":"three-arm-trial","trial_index":24,"time_elapsed":197529,"internal_node_id":"0.0-23.0-0.0","task_version":"screening-prolific","missing":false,"accuracy":1},{"contexts":["red","blue","green"],"outcomes":[0,0,1],"key":37,"choice":0,"rt":181.95500000729226,"outcome":0,"trial":18,"correct":2,"trial_type":"three-arm-trial","trial_index":25,"time_elapsed":198967,"internal_node_id":"0.0-24.0-0.0","task_version":"screening-prolific","missing":false,"accuracy":0},{"contexts":["red","blue","green"],"outcomes":[0,0,1],"key":39,"choice":2,"rt":146.84000000124797,"outcome":1,"trial":19,"correct":2,"trial_type":"three-arm-trial","trial_index":26,"time_elapsed":200373,"internal_node_id":"0.0-25.0-0.0","task_version":"screening-prolific","missing":false,"accuracy":1},{"contexts":["red","blue","green"],"outcomes":[0,0,0],"key":39,"choice":2,"rt":270.8799999963958,"outcome":0,"trial":20,"correct":2,"trial_type":"three-arm-trial","trial_index":27,"time_elapsed":201916,"internal_node_id":"0.0-26.0-0.0","task_version":"screening-prolific","missing":false,"accuracy":1},{"contexts":["red","blue","green"],"outcomes":[0,1,1],"key":38,"choice":1,"rt":21.959999998216517,"outcome":1,"trial":21,"correct":2,"trial_type":"three-arm-trial","trial_index":28,"time_elapsed":203201,"internal_node_id":"0.0-27.0-0.0","task_version":"screening-prolific","missing":false,"accuracy":0},{"contexts":["red","blue","green"],"outcomes":[1,1,1],"key":38,"choice":1,"rt":347.55000000586733,"outcome":1,"trial":22,"correct":2,"trial_type":"three-arm-trial","trial_index":29,"time_elapsed":204801,"internal_node_id":"0.0-28.0-0.0","task_version":"screening-prolific","missing":false,"accuracy":0},{"contexts":["red","blue","green"],"outcomes":[0,1,0],"key":37,"choice":0,"rt":31.065000002854504,"outcome":0,"trial":23,"correct":2,"trial_type":"three-arm-trial","trial_index":30,"time_elapsed":206071,"internal_node_id":"0.0-29.0-0.0","task_version":"screening-prolific","missing":false,"accuracy":0},{"contexts":["red","blue","green"],"outcomes":[0,0,1],"key":38,"choice":1,"rt":39.874999987659976,"outcome":0,"trial":24,"correct":2,"trial_type":"three-arm-trial","trial_index":31,"time_elapsed":207354,"internal_node_id":"0.0-30.0-0.0","task_version":"screening-prolific","missing":false,"accuracy":0},{"contexts":["red","blue","green"],"outcomes":[0,0,1],"key":39,"choice":2,"rt":67.93000000470784,"outcome":1,"trial":25,"correct":2,"trial_type":"three-arm-trial","trial_index":32,"time_elapsed":208682,"internal_node_id":"0.0-31.0-0.0","task_version":"screening-prolific","missing":false,"accuracy":1},{"contexts":["red","blue","green"],"outcomes":[0,0,1],"key":38,"choice":1,"rt":44.804999997722916,"outcome":0,"trial":26,"correct":2,"trial_type":"three-arm-trial","trial_index":33,"time_elapsed":209968,"internal_node_id":"0.0-32.0-0.0","task_version":"screening-prolific","missing":false,"accuracy":0},{"contexts":["red","blue","green"],"outcomes":[1,0,0],"key":39,"choice":2,"rt":0.8099999977275729,"outcome":0,"trial":27,"correct":2,"trial_type":"three-arm-trial","trial_index":34,"time_elapsed":211232,"internal_node_id":"0.0-33.0-0.0","task_version":"screening-prolific","missing":false,"accuracy":1},{"contexts":["red","blue","green"],"outcomes":[1,0,1],"key":39,"choice":2,"rt":0.8649999945191666,"outcome":1,"trial":28,"correct":2,"trial_type":"three-arm-trial","trial_index":35,"time_elapsed":212494,"internal_node_id":"0.0-34.0-0.0","task_version":"screening-prolific","missing":false,"accuracy":1},{"contexts":["red","blue","green"],"outcomes":[0,0,1],"key":38,"choice":1,"rt":14.779999997699633,"outcome":0,"trial":29,"correct":2,"trial_type":"three-arm-trial","trial_index":36,"time_elapsed":213781,"internal_node_id":"0.0-35.0-0.0","task_version":"screening-prolific","missing":false,"accuracy":0},{"contexts":["red","blue","green"],"outcomes":[0,0,0],"key":37,"choice":0,"rt":20.86000000417698,"outcome":0,"trial":30,"correct":2,"trial_type":"three-arm-trial","trial_index":37,"time_elapsed":215044,"internal_node_id":"0.0-36.0-0.0","task_version":"screening-prolific","missing":false,"accuracy":0},{"contexts":["red","blue","green"],"outcomes":[0,1,0],"key":39,"choice":2,"rt":252.794999993057,"outcome":0,"trial":31,"correct":1,"trial_type":"three-arm-trial","trial_index":38,"time_elapsed":216576,"internal_node_id":"0.0-37.0-0.0","task_version":"screening-prolific","missing":false,"accuracy":0},{"contexts":["red","blue","green"],"outcomes":[0,1,1],"key":38,"choice":1,"rt":0.4349999944679439,"outcome":1,"trial":32,"correct":1,"trial_type":"three-arm-trial","trial_index":39,"time_elapsed":217815,"internal_node_id":"0.0-38.0-0.0","task_version":"screening-prolific","missing":false,"accuracy":1},{"contexts":["red","blue","green"],"outcomes":[0,1,0],"key":38,"choice":1,"rt":0.5700000037904829,"outcome":1,"trial":33,"correct":1,"trial_type":"three-arm-trial","trial_index":40,"time_elapsed":219049,"internal_node_id":"0.0-39.0-0.0","task_version":"screening-prolific","missing":false,"accuracy":1},{"contexts":["red","blue","green"],"outcomes":[0,1,0],"key":38,"choice":1,"rt":5.8649999991757795,"outcome":1,"trial":34,"correct":1,"trial_type":"three-arm-trial","trial_index":41,"time_elapsed":220283,"internal_node_id":"0.0-40.0-0.0","task_version":"screening-prolific","missing":false,"accuracy":1},{"contexts":["red","blue","green"],"outcomes":[0,0,0],"key":38,"choice":1,"rt":457.4950000096578,"outcome":0,"trial":35,"correct":1,"trial_type":"three-arm-trial","trial_index":42,"time_elapsed":221965,"internal_node_id":"0.0-41.0-0.0","task_version":"screening-prolific","missing":false,"accuracy":1},{"contexts":["red","blue","green"],"outcomes":[0,1,0],"key":39,"choice":2,"rt":635.3249999956461,"outcome":0,"trial":36,"correct":1,"trial_type":"three-arm-trial","trial_index":43,"time_elapsed":223823,"internal_node_id":"0.0-42.0-0.0","task_version":"screening-prolific","missing":false,"accuracy":0},{"contexts":["red","blue","green"],"outcomes":[0,1,0],"key":38,"choice":1,"rt":350.9399999893503,"outcome":1,"trial":37,"correct":1,"trial_type":"three-arm-trial","trial_index":44,"time_elapsed":225420,"internal_node_id":"0.0-43.0-0.0","task_version":"screening-prolific","missing":false,"accuracy":1},{"contexts":["red","blue","green"],"outcomes":[0,1,0],"key":37,"choice":0,"rt":0.9749999881023541,"outcome":0,"trial":38,"correct":1,"trial_type":"three-arm-trial","trial_index":45,"time_elapsed":226674,"internal_node_id":"0.0-44.0-0.0","task_version":"screening-prolific","missing":false,"accuracy":0},{"contexts":["red","blue","green"],"outcomes":[0,1,0],"key":38,"choice":1,"rt":0.590000010561198,"outcome":1,"trial":39,"correct":1,"trial_type":"three-arm-trial","trial_index":46,"time_elapsed":227921,"internal_node_id":"0.0-45.0-0.0","task_version":"screening-prolific","missing":false,"accuracy":1},{"contexts":["red","blue","green"],"outcomes":[0,0,1],"key":38,"choice":1,"rt":112.57500000647269,"outcome":0,"trial":40,"correct":1,"trial_type":"three-arm-trial","trial_index":47,"time_elapsed":229290,"internal_node_id":"0.0-46.0-0.0","task_version":"screening-prolific","missing":false,"accuracy":1},{"contexts":["red","blue","green"],"outcomes":[0,1,0],"key":39,"choice":2,"rt":51.0950000025332,"outcome":0,"trial":41,"correct":1,"trial_type":"three-arm-trial","trial_index":48,"time_elapsed":230612,"internal_node_id":"0.0-47.0-0.0","task_version":"screening-prolific","missing":false,"accuracy":0},{"contexts":["red","blue","green"],"outcomes":[0,1,0],"key":38,"choice":1,"rt":336.81999999680556,"outcome":1,"trial":42,"correct":1,"trial_type":"three-arm-trial","trial_index":49,"time_elapsed":232191,"internal_node_id":"0.0-48.0-0.0","task_version":"screening-prolific","missing":false,"accuracy":1},{"contexts":["red","blue","green"],"outcomes":[0,0,0],"key":38,"choice":1,"rt":0.6799999973736703,"outcome":0,"trial":43,"correct":1,"trial_type":"three-arm-trial","trial_index":50,"time_elapsed":233454,"internal_node_id":"0.0-49.0-0.0","task_version":"screening-prolific","missing":false,"accuracy":1},{"contexts":["red","blue","green"],"outcomes":[0,1,0],"key":39,"choice":2,"rt":0.6799999973736703,"outcome":0,"trial":44,"correct":1,"trial_type":"three-arm-trial","trial_index":51,"time_elapsed":234730,"internal_node_id":"0.0-50.0-0.0","task_version":"screening-prolific","missing":false,"accuracy":0},{"contexts":["red","blue","green"],"outcomes":[0,0,1],"key":39,"choice":2,"rt":411.5049999963958,"outcome":1,"trial":45,"correct":1,"trial_type":"three-arm-trial","trial_index":52,"time_elapsed":236394,"internal_node_id":"0.0-51.0-0.0","task_version":"screening-prolific","missing":false,"accuracy":0},{"contexts":["red","blue","green"],"outcomes":[1,0,0],"key":39,"choice":2,"rt":0.8799999923212454,"outcome":0,"trial":46,"correct":2,"trial_type":"three-arm-trial","trial_index":53,"time_elapsed":237670,"internal_node_id":"0.0-52.0-0.0","task_version":"screening-prolific","missing":false,"accuracy":1},{"contexts":["red","blue","green"],"outcomes":[1,0,1],"key":38,"choice":1,"rt":157.5849999935599,"outcome":0,"trial":47,"correct":2,"trial_type":"three-arm-trial","trial_index":54,"time_elapsed":239054,"internal_node_id":"0.0-53.0-0.0","task_version":"screening-prolific","missing":false,"accuracy":0},{"contexts":["red","blue","green"],"outcomes":[0,1,1],"key":37,"choice":0,"rt":7.8649999923072755,"outcome":0,"trial":48,"correct":2,"trial_type":"three-arm-trial","trial_index":55,"time_elapsed":240326,"internal_node_id":"0.0-54.0-0.0","task_version":"screening-prolific","missing":false,"accuracy":0},{"contexts":["red","blue","green"],"outcomes":[0,1,1],"key":37,"choice":0,"rt":5.040000003646128,"outcome":0,"trial":49,"correct":2,"trial_type":"three-arm-trial","trial_index":56,"time_elapsed":241606,"internal_node_id":"0.0-55.0-0.0","task_version":"screening-prolific","missing":false,"accuracy":0},{"contexts":["red","blue","green"],"outcomes":[0,0,0],"key":39,"choice":2,"rt":1.5549999952781945,"outcome":0,"trial":50,"correct":2,"trial_type":"three-arm-trial","trial_index":57,"time_elapsed":242877,"internal_node_id":"0.0-56.0-0.0","task_version":"screening-prolific","missing":false,"accuracy":1},{"contexts":["red","blue","green"],"outcomes":[0,0,0],"key":39,"choice":2,"rt":540.4349999880651,"outcome":0,"trial":51,"correct":2,"trial_type":"three-arm-trial","trial_index":58,"time_elapsed":244661,"internal_node_id":"0.0-57.0-0.0","task_version":"screening-prolific","missing":false,"accuracy":1},{"contexts":["red","blue","green"],"outcomes":[0,0,1],"key":38,"choice":1,"rt":23.314999998547137,"outcome":0,"trial":52,"correct":2,"trial_type":"three-arm-trial","trial_index":59,"time_elapsed":245907,"internal_node_id":"0.0-58.0-0.0","task_version":"screening-prolific","missing":false,"accuracy":0},{"contexts":["red","blue","green"],"outcomes":[0,0,1],"key":39,"choice":2,"rt":0.39999998989515007,"outcome":1,"trial":53,"correct":2,"trial_type":"three-arm-trial","trial_index":60,"time_elapsed":247129,"internal_node_id":"0.0-59.0-0.0","task_version":"screening-prolific","missing":false,"accuracy":1},{"contexts":["red","blue","green"],"outcomes":[0,0,1],"key":39,"choice":2,"rt":0.43000000005122274,"outcome":1,"trial":54,"correct":2,"trial_type":"three-arm-trial","trial_index":61,"time_elapsed":248352,"internal_node_id":"0.0-60.0-0.0","task_version":"screening-prolific","missing":false,"accuracy":1},{"contexts":["red","blue","green"],"outcomes":[0,0,1],"key":39,"choice":2,"rt":527.5750000000698,"outcome":1,"trial":55,"correct":2,"trial_type":"three-arm-trial","trial_index":62,"time_elapsed":250104,"internal_node_id":"0.0-61.0-0.0","task_version":"screening-prolific","missing":false,"accuracy":1},{"contexts":["red","blue","green"],"outcomes":[0,1,1],"key":39,"choice":2,"rt":160.72499999427237,"outcome":1,"trial":56,"correct":2,"trial_type":"three-arm-trial","trial_index":63,"time_elapsed":251513,"internal_node_id":"0.0-62.0-0.0","task_version":"screening-prolific","missing":false,"accuracy":1},{"contexts":["red","blue","green"],"outcomes":[0,0,1],"key":39,"choice":2,"rt":0.4599999956553802,"outcome":1,"trial":57,"correct":2,"trial_type":"three-arm-trial","trial_index":64,"time_elapsed":252762,"internal_node_id":"0.0-63.0-0.0","task_version":"screening-prolific","missing":false,"accuracy":1},{"contexts":["red","blue","green"],"outcomes":[1,0,1],"key":39,"choice":2,"rt":424.84999999578577,"outcome":1,"trial":58,"correct":2,"trial_type":"three-arm-trial","trial_index":65,"time_elapsed":254435,"internal_node_id":"0.0-64.0-0.0","task_version":"screening-prolific","missing":false,"accuracy":1},{"contexts":["red","blue","green"],"outcomes":[0,0,1],"key":39,"choice":2,"rt":10.31499999226071,"outcome":1,"trial":59,"correct":2,"trial_type":"three-arm-trial","trial_index":66,"time_elapsed":255680,"internal_node_id":"0.0-65.0-0.0","task_version":"screening-prolific","missing":false,"accuracy":1},{"contexts":["red","blue","green"],"outcomes":[0,0,0],"key":39,"choice":2,"rt":81.85499999672174,"outcome":0,"trial":60,"correct":2,"trial_type":"three-arm-trial","trial_index":67,"time_elapsed":256986,"internal_node_id":"0.0-66.0-0.0","task_version":"screening-prolific","missing":false,"accuracy":1},{"contexts":["red","blue","green"],"outcomes":[1,0,0],"key":38,"choice":1,"rt":353.7999999971362,"outcome":0,"trial":61,"correct":0,"trial_type":"three-arm-trial","trial_index":68,"time_elapsed":258564,"internal_node_id":"0.0-67.0-0.0","task_version":"screening-prolific","missing":false,"accuracy":0},{"contexts":["red","blue","green"],"outcomes":[1,0,0],"key":38,"choice":1,"rt":362.9999999975553,"outcome":0,"trial":62,"correct":0,"trial_type":"three-arm-trial","trial_index":69,"time_elapsed":260189,"internal_node_id":"0.0-68.0-0.0","task_version":"screening-prolific","missing":false,"accuracy":0},{"contexts":["red","blue","green"],"outcomes":[1,0,0],"key":39,"choice":2,"rt":55.2800000004936,"outcome":0,"trial":63,"correct":0,"trial_type":"three-arm-trial","trial_index":70,"time_elapsed":261476,"internal_node_id":"0.0-69.0-0.0","task_version":"screening-prolific","missing":false,"accuracy":0},{"contexts":["red","blue","green"],"outcomes":[0,0,0],"key":37,"choice":0,"rt":143.97999999346212,"outcome":0,"trial":64,"correct":0,"trial_type":"three-arm-trial","trial_index":71,"time_elapsed":262884,"internal_node_id":"0.0-70.0-0.0","task_version":"screening-prolific","missing":false,"accuracy":1},{"contexts":["red","blue","green"],"outcomes":[1,0,0],"key":39,"choice":2,"rt":0.7599999953527004,"outcome":0,"trial":65,"correct":0,"trial_type":"three-arm-trial","trial_index":72,"time_elapsed":264146,"internal_node_id":"0.0-71.0-0.0","task_version":"screening-prolific","missing":false,"accuracy":0},{"contexts":["red","blue","green"],"outcomes":[1,0,1],"key":38,"choice":1,"rt":44.47000000800472,"outcome":0,"trial":66,"correct":0,"trial_type":"three-arm-trial","trial_index":73,"time_elapsed":265417,"internal_node_id":"0.0-72.0-0.0","task_version":"screening-prolific","missing":false,"accuracy":0},{"contexts":["red","blue","green"],"outcomes":[1,0,0],"key":39,"choice":2,"rt":13.955000002169982,"outcome":0,"trial":67,"correct":0,"trial_type":"three-arm-trial","trial_index":74,"time_elapsed":266665,"internal_node_id":"0.0-73.0-0.0","task_version":"screening-prolific","missing":false,"accuracy":0},{"contexts":["red","blue","green"],"outcomes":[1,0,1],"key":39,"choice":2,"rt":346.1249999963911,"outcome":1,"trial":68,"correct":0,"trial_type":"three-arm-trial","trial_index":75,"time_elapsed":268238,"internal_node_id":"0.0-74.0-0.0","task_version":"screening-prolific","missing":false,"accuracy":0},{"contexts":["red","blue","green"],"outcomes":[1,1,0],"key":39,"choice":2,"rt":0.6649999995715916,"outcome":0,"trial":69,"correct":0,"trial_type":"three-arm-trial","trial_index":76,"time_elapsed":269492,"internal_node_id":"0.0-75.0-0.0","task_version":"screening-prolific","missing":false,"accuracy":0},{"contexts":["red","blue","green"],"outcomes":[0,0,0],"key":38,"choice":1,"rt":0.9649999992689118,"outcome":0,"trial":70,"correct":0,"trial_type":"three-arm-trial","trial_index":77,"time_elapsed":270753,"internal_node_id":"0.0-76.0-0.0","task_version":"screening-prolific","missing":false,"accuracy":0},{"contexts":["red","blue","green"],"outcomes":[1,0,0],"key":38,"choice":1,"rt":1.0400000028312206,"outcome":0,"trial":71,"correct":0,"trial_type":"three-arm-trial","trial_index":78,"time_elapsed":272018,"internal_node_id":"0.0-77.0-0.0","task_version":"screening-prolific","missing":false,"accuracy":0},{"contexts":["red","blue","green"],"outcomes":[1,1,0],"key":38,"choice":1,"rt":403.1950000062352,"outcome":1,"trial":72,"correct":0,"trial_type":"three-arm-trial","trial_index":79,"time_elapsed":273672,"internal_node_id":"0.0-78.0-0.0","task_version":"screening-prolific","missing":false,"accuracy":0},{"contexts":["red","blue","green"],"outcomes":[1,0,0],"key":38,"choice":1,"rt":81.66999999957625,"outcome":0,"trial":73,"correct":0,"trial_type":"three-arm-trial","trial_index":80,"time_elapsed":275007,"internal_node_id":"0.0-79.0-0.0","task_version":"screening-prolific","missing":false,"accuracy":0},{"contexts":["red","blue","green"],"outcomes":[1,0,0],"key":38,"choice":1,"rt":343.30000000773,"outcome":0,"trial":74,"correct":0,"trial_type":"three-arm-trial","trial_index":81,"time_elapsed":276626,"internal_node_id":"0.0-80.0-0.0","task_version":"screening-prolific","missing":false,"accuracy":0},{"contexts":["red","blue","green"],"outcomes":[0,0,0],"key":39,"choice":2,"rt":187.64000000373926,"outcome":0,"trial":75,"correct":0,"trial_type":"three-arm-trial","trial_index":82,"time_elapsed":278060,"internal_node_id":"0.0-81.0-0.0","task_version":"screening-prolific","missing":false,"accuracy":0},{"contexts":["red","blue","green"],"outcomes":[0,0,0],"key":37,"choice":0,"rt":202.34499999787658,"outcome":0,"trial":76,"correct":1,"trial_type":"three-arm-trial","trial_index":83,"time_elapsed":279527,"internal_node_id":"0.0-82.0-0.0","task_version":"screening-prolific","missing":false,"accuracy":0},{"contexts":["red","blue","green"],"outcomes":[0,1,0],"key":39,"choice":2,"rt":167.01999999349937,"outcome":0,"trial":77,"correct":1,"trial_type":"three-arm-trial","trial_index":84,"time_elapsed":280956,"internal_node_id":"0.0-83.0-0.0","task_version":"screening-prolific","missing":false,"accuracy":0},{"contexts":["red","blue","green"],"outcomes":[0,1,0],"key":38,"choice":1,"rt":115.72000000160187,"outcome":1,"trial":78,"correct":1,"trial_type":"three-arm-trial","trial_index":85,"time_elapsed":282341,"internal_node_id":"0.0-84.0-0.0","task_version":"screening-prolific","missing":false,"accuracy":1},{"contexts":["red","blue","green"],"outcomes":[0,0,0],"key":38,"choice":1,"rt":196.1849999934202,"outcome":0,"trial":79,"correct":1,"trial_type":"three-arm-trial","trial_index":86,"time_elapsed":283770,"internal_node_id":"0.0-85.0-0.0","task_version":"screening-prolific","missing":false,"accuracy":1},{"contexts":["red","blue","green"],"outcomes":[0,1,0],"key":39,"choice":2,"rt":174.0250000002561,"outcome":0,"trial":80,"correct":1,"trial_type":"three-arm-trial","trial_index":87,"time_elapsed":285190,"internal_node_id":"0.0-86.0-0.0","task_version":"screening-prolific","missing":false,"accuracy":0},{"contexts":["red","blue","green"],"outcomes":[0,1,0],"key":38,"choice":1,"rt":1211.1299999960465,"outcome":1,"trial":81,"correct":1,"trial_type":"three-arm-trial","trial_index":88,"time_elapsed":287622,"internal_node_id":"0.0-87.0-0.0","task_version":"screening-prolific","missing":false,"accuracy":1},{"contexts":["red","blue","green"],"outcomes":[0,1,0],"key":38,"choice":1,"rt":16.3849999953527,"outcome":1,"trial":82,"correct":1,"trial_type":"three-arm-trial","trial_index":89,"time_elapsed":288861,"internal_node_id":"0.0-88.0-0.0","task_version":"screening-prolific","missing":false,"accuracy":1},{"contexts":["red","blue","green"],"outcomes":[1,1,0],"key":38,"choice":1,"rt":95.63499999057967,"outcome":1,"trial":83,"correct":1,"trial_type":"three-arm-trial","trial_index":90,"time_elapsed":290178,"internal_node_id":"0.0-89.0-0.0","task_version":"screening-prolific","missing":false,"accuracy":1},{"contexts":["red","blue","green"],"outcomes":[0,1,0],"key":38,"choice":1,"rt":25.395000004209578,"outcome":1,"trial":84,"correct":1,"trial_type":"three-arm-trial","trial_index":91,"time_elapsed":291426,"internal_node_id":"0.0-90.0-0.0","task_version":"screening-prolific","missing":false,"accuracy":1},{"contexts":["red","blue","green"],"outcomes":[0,1,0],"key":38,"choice":1,"rt":620.5950000003213,"outcome":1,"trial":85,"correct":1,"trial_type":"three-arm-trial","trial_index":92,"time_elapsed":293306,"internal_node_id":"0.0-91.0-0.0","task_version":"screening-prolific","missing":false,"accuracy":1},{"contexts":["red","blue","green"],"outcomes":[0,0,0],"key":38,"choice":1,"rt":31.954999998561107,"outcome":0,"trial":86,"correct":1,"trial_type":"three-arm-trial","trial_index":93,"time_elapsed":294597,"internal_node_id":"0.0-92.0-0.0","task_version":"screening-prolific","missing":false,"accuracy":1},{"contexts":["red","blue","green"],"outcomes":[0,1,0],"key":39,"choice":2,"rt":3190.409999995609,"outcome":0,"trial":87,"correct":1,"trial_type":"three-arm-trial","trial_index":94,"time_elapsed":299043,"internal_node_id":"0.0-93.0-0.0","task_version":"screening-prolific","missing":false,"accuracy":0},{"contexts":["red","blue","green"],"outcomes":[0,0,0],"key":38,"choice":1,"rt":260.5550000007497,"outcome":0,"trial":88,"correct":1,"trial_type":"three-arm-trial","trial_index":95,"time_elapsed":300584,"internal_node_id":"0.0-94.0-0.0","task_version":"screening-prolific","missing":false,"accuracy":1},{"contexts":["red","blue","green"],"outcomes":[0,1,0],"key":38,"choice":1,"rt":1784.639999998035,"outcome":1,"trial":89,"correct":1,"trial_type":"three-arm-trial","trial_index":96,"time_elapsed":303623,"internal_node_id":"0.0-95.0-0.0","task_version":"screening-prolific","missing":false,"accuracy":1},{"contexts":["red","blue","green"],"outcomes":[0,1,1],"key":38,"choice":1,"rt":1824.6450000006007,"outcome":1,"trial":90,"correct":1,"trial_type":"three-arm-trial","trial_index":97,"time_elapsed":306672,"internal_node_id":"0.0-96.0-0.0","task_version":"screening-prolific","missing":false,"accuracy":1},{"rt":12565.020000009099,"responses":{"age":"29","gender-categorical":"Male","gender-free-response":"","ethnicity":"Not Hispanic or Latino","race":["Asian"],"language":"Yes","fluency":"Very well","mturk":"No","mturk-this-study":"No"},"survey":"demographics","trial_type":"survey-demo","trial_index":98,"time_elapsed":319322,"internal_node_id":"0.0-97.0","task_version":"screening-prolific","interactions":"[]"}]