[{"responses":{"Q01":"2","Q03":"1","Q02":"3"},"rt":10696.205000000191,"survey":"pswq","trial_type":"survey-template","trial_index":0,"time_elapsed":10706,"internal_node_id":"0.0-0.0","task_version":"screening-prolific"},{"responses":{"Q02":"0","Q13":"3","Q03":"2","Q11":"0","Q06":"2","Q09":"1","Q04":"2","Q12":"1","Q01":"0","Q08":"2","Q07":"3","Q05":"3","Q10":"3"},"rt":60390.52499999525,"survey":"bisbas","trial_type":"survey-template","trial_index":1,"time_elapsed":71099,"internal_node_id":"0.0-1.0","task_version":"screening-prolific"},{"responses":{"Q11":"2","Q12":"2","Q14":"3","Q01":"3","Q07":"3","Q03":"2","Q13":"2","Q05":"1","Q10":"3","Q09":"3","Q08":"2","Q02":"2","Q06":"2","Q04":"2","Q15":"3"},"rt":39862.12999999407,"survey":"shaps","trial_type":"survey-template","trial_index":2,"time_elapsed":110964,"internal_node_id":"0.0-2.0","task_version":"screening-prolific"},{"responses":{"Q08":"0","Q02":"1","Q07":"1","Q03":"2","Q06":"2","Q01":"1","Q04":"0","Q05":"0"},"rt":19074.714999995194,"survey":"gad7","trial_type":"survey-template","trial_index":3,"time_elapsed":130042,"internal_node_id":"0.0-3.0","task_version":"screening-prolific"},{"responses":{"Q01":"1","Q06":"1","Q08":"0","Q02":"1","Q04":"1","Q03":"1","Q13":"1","Q15":"1","Q07":"2","Q09":"1","Q05":"1","Q11":"2","Q10":"2","Q14":"1","Q12":"1"},"rt":49200.124999988475,"survey":"7up7down","trial_type":"survey-template","trial_index":4,"time_elapsed":179245,"internal_node_id":"0.0-4.0","task_version":"screening-prolific"},{"view_history":"[{\"page_index\":0,\"viewing_time\":3965.750000003027},{\"page_index\":1,\"viewing_time\":2794.5250000047963},{\"page_index\":2,\"viewing_time\":5880.9499999915715},{\"page_index\":3,\"viewing_time\":4223.100000002887},{\"page_index\":4,\"viewing_time\":1990.0550000020303},{\"page_index\":5,\"viewing_time\":2931.924999997136},{\"page_index\":6,\"viewing_time\":4325.135000006412},{\"page_index\":7,\"viewing_time\":3110.950000002049}]","rt":29223.140000001877,"trial_type":"instructions","trial_index":5,"time_elapsed":208469,"internal_node_id":"0.0-5.0-0.0","task_version":"screening-prolific"},{"responses":["True","True","True","False","True"],"num_errors":1,"rt":14583.070000007865,"trial_type":"three-arm-comprehension","trial_index":6,"time_elapsed":223055,"internal_node_id":"0.0-5.0-1.0","task_version":"screening-prolific"},{"view_history":"[{\"page_index\":0,\"viewing_time\":3671.570000005886},{\"page_index\":1,\"viewing_time\":9244.879999998375},{\"page_index\":2,\"viewing_time\":2844.985000003362},{\"page_index\":3,\"viewing_time\":2418.0300000007264},{\"page_index\":4,\"viewing_time\":7130.0349999946775},{\"page_index\":5,\"viewing_time\":3727.0250000001397},{\"page_index\":6,\"viewing_time\":1854.9349999957485},{\"page_index\":7,\"viewing_time\":1043.9100000075996}]","rt":31935.720000008587,"trial_type":"instructions","trial_index":7,"time_elapsed":254994,"internal_node_id":"0.0-5.1-0.1","task_version":"screening-prolific"},{"responses":["True","True","False","False","True"],"num_errors":0,"rt":10582.934999998542,"trial_type":"three-arm-comprehension","trial_index":8,"time_elapsed":265579,"internal_node_id":"0.0-5.1-1.1","task_version":"screening-prolific"},{"view_history":"[{\"page_index\":0,\"viewing_time\":2313.594999999623}]","rt":2313.9550000050804,"trial_type":"instructions","trial_index":9,"time_elapsed":267895,"internal_node_id":"0.0-6.0","task_version":"screening-prolific"},{"contexts":["green","red","blue"],"outcomes":[1,0,1],"key":38,"choice":1,"rt":3026.9100000004983,"outcome":0,"trial":1,"correct":2,"trial_type":"three-arm-trial","trial_index":10,"time_elapsed":272126,"internal_node_id":"0.0-7.0-0.0","task_version":"screening-prolific","missing":false,"accuracy":0},{"contexts":["green","red","blue"],"outcomes":[0,0,1],"key":39,"choice":2,"rt":6.524999989778735,"outcome":1,"trial":2,"correct":2,"trial_type":"three-arm-trial","trial_index":11,"time_elapsed":273335,"internal_node_id":"0.0-8.0-0.0","task_version":"screening-prolific","missing":false,"accuracy":1},{"contexts":["green","red","blue"],"outcomes":[0,0,1],"key":39,"choice":2,"rt":419.1750000027241,"outcome":1,"trial":3,"correct":2,"trial_type":"three-arm-trial","trial_index":12,"time_elapsed":274956,"internal_node_id":"0.0-9.0-0.0","task_version":"screening-prolific","missing":false,"accuracy":1},{"contexts":["green","red","blue"],"outcomes":[1,0,0],"key":39,"choice":2,"rt":275.3649999940535,"outcome":0,"trial":4,"correct":2,"trial_type":"three-arm-trial","trial_index":13,"time_elapsed":276433,"internal_node_id":"0.0-10.0-0.0","task_version":"screening-prolific","missing":false,"accuracy":1},{"contexts":["green","red","blue"],"outcomes":[0,0,0],"key":37,"choice":0,"rt":352.2499999962747,"outcome":0,"trial":5,"correct":2,"trial_type":"three-arm-trial","trial_index":14,"time_elapsed":277988,"internal_node_id":"0.0-11.0-0.0","task_version":"screening-prolific","missing":false,"accuracy":0},{"contexts":["green","red","blue"],"outcomes":[0,1,1],"key":38,"choice":1,"rt":46.10500000126194,"outcome":1,"trial":6,"correct":2,"trial_type":"three-arm-trial","trial_index":15,"time_elapsed":279236,"internal_node_id":"0.0-12.0-0.0","task_version":"screening-prolific","missing":false,"accuracy":0},{"contexts":["green","red","blue"],"outcomes":[1,0,0],"key":39,"choice":2,"rt":232.15999999956694,"outcome":0,"trial":7,"correct":2,"trial_type":"three-arm-trial","trial_index":16,"time_elapsed":280669,"internal_node_id":"0.0-13.0-0.0","task_version":"screening-prolific","missing":false,"accuracy":1},{"contexts":["green","red","blue"],"outcomes":[0,1,1],"key":38,"choice":1,"rt":337.2850000014296,"outcome":1,"trial":8,"correct":2,"trial_type":"three-arm-trial","trial_index":17,"time_elapsed":282209,"internal_node_id":"0.0-14.0-0.0","task_version":"screening-prolific","missing":false,"accuracy":0},{"contexts":["green","red","blue"],"outcomes":[0,0,1],"key":37,"choice":0,"rt":253.15499999851454,"outcome":0,"trial":9,"correct":2,"trial_type":"three-arm-trial","trial_index":18,"time_elapsed":283665,"internal_node_id":"0.0-15.0-0.0","task_version":"screening-prolific","missing":false,"accuracy":0},{"contexts":["green","red","blue"],"outcomes":[0,1,1],"key":38,"choice":1,"rt":151.6950000077486,"outcome":1,"trial":10,"correct":2,"trial_type":"three-arm-trial","trial_index":19,"time_elapsed":285019,"internal_node_id":"0.0-16.0-0.0","task_version":"screening-prolific","missing":false,"accuracy":0},{"contexts":["green","red","blue"],"outcomes":[0,0,1],"key":37,"choice":0,"rt":499.30500000482425,"outcome":0,"trial":11,"correct":2,"trial_type":"three-arm-trial","trial_index":20,"time_elapsed":286720,"internal_node_id":"0.0-17.0-0.0","task_version":"screening-prolific","missing":false,"accuracy":0},{"contexts":["green","red","blue"],"outcomes":[1,0,1],"key":38,"choice":1,"rt":127.7399999962654,"outcome":0,"trial":12,"correct":2,"trial_type":"three-arm-trial","trial_index":21,"time_elapsed":288050,"internal_node_id":"0.0-18.0-0.0","task_version":"screening-prolific","missing":false,"accuracy":0},{"contexts":["green","red","blue"],"outcomes":[0,0,0],"key":39,"choice":2,"rt":129.2750000138767,"outcome":0,"trial":13,"correct":2,"trial_type":"three-arm-trial","trial_index":22,"time_elapsed":289382,"internal_node_id":"0.0-19.0-0.0","task_version":"screening-prolific","missing":false,"accuracy":1},{"contexts":["green","red","blue"],"outcomes":[0,0,1],"key":37,"choice":0,"rt":364.47500000940636,"outcome":0,"trial":14,"correct":2,"trial_type":"three-arm-trial","trial_index":23,"time_elapsed":290949,"internal_node_id":"0.0-20.0-0.0","task_version":"screening-prolific","missing":false,"accuracy":0},{"contexts":["green","red","blue"],"outcomes":[0,0,1],"key":38,"choice":1,"rt":78.20999999239575,"outcome":0,"trial":15,"correct":2,"trial_type":"three-arm-trial","trial_index":24,"time_elapsed":292229,"internal_node_id":"0.0-21.0-0.0","task_version":"screening-prolific","missing":false,"accuracy":0},{"contexts":["green","red","blue"],"outcomes":[1,0,0],"key":39,"choice":2,"rt":343.02000000025146,"outcome":0,"trial":16,"correct":0,"trial_type":"three-arm-trial","trial_index":25,"time_elapsed":293775,"internal_node_id":"0.0-22.0-0.0","task_version":"screening-prolific","missing":false,"accuracy":0},{"contexts":["green","red","blue"],"outcomes":[0,0,0],"key":37,"choice":0,"rt":113.37000000639819,"outcome":0,"trial":17,"correct":0,"trial_type":"three-arm-trial","trial_index":26,"time_elapsed":295091,"internal_node_id":"0.0-23.0-0.0","task_version":"screening-prolific","missing":false,"accuracy":1},{"contexts":["green","red","blue"],"outcomes":[1,0,0],"key":38,"choice":1,"rt":366.649999996298,"outcome":0,"trial":18,"correct":0,"trial_type":"three-arm-trial","trial_index":27,"time_elapsed":296660,"internal_node_id":"0.0-24.0-0.0","task_version":"screening-prolific","missing":false,"accuracy":0},{"contexts":["green","red","blue"],"outcomes":[1,1,0],"key":38,"choice":1,"rt":15.950000000884756,"outcome":1,"trial":19,"correct":0,"trial_type":"three-arm-trial","trial_index":28,"time_elapsed":297878,"internal_node_id":"0.0-25.0-0.0","task_version":"screening-prolific","missing":false,"accuracy":0},{"contexts":["green","red","blue"],"outcomes":[1,0,0],"key":39,"choice":2,"rt":187.8300000098534,"outcome":0,"trial":20,"correct":0,"trial_type":"three-arm-trial","trial_index":29,"time_elapsed":299268,"internal_node_id":"0.0-26.0-0.0","task_version":"screening-prolific","missing":false,"accuracy":0},{"contexts":["green","red","blue"],"outcomes":[1,0,0],"key":37,"choice":0,"rt":330.53999999538064,"outcome":1,"trial":21,"correct":0,"trial_type":"three-arm-trial","trial_index":30,"time_elapsed":300801,"internal_node_id":"0.0-27.0-0.0","task_version":"screening-prolific","missing":false,"accuracy":1},{"contexts":["green","red","blue"],"outcomes":[1,0,0],"key":38,"choice":1,"rt":198.869999992894,"outcome":0,"trial":22,"correct":0,"trial_type":"three-arm-trial","trial_index":31,"time_elapsed":302202,"internal_node_id":"0.0-28.0-0.0","task_version":"screening-prolific","missing":false,"accuracy":0},{"contexts":["green","red","blue"],"outcomes":[1,0,0],"key":37,"choice":0,"rt":109.88500001258217,"outcome":1,"trial":23,"correct":0,"trial_type":"three-arm-trial","trial_index":32,"time_elapsed":303515,"internal_node_id":"0.0-29.0-0.0","task_version":"screening-prolific","missing":false,"accuracy":1},{"contexts":["green","red","blue"],"outcomes":[1,0,0],"key":39,"choice":2,"rt":98.26499999326188,"outcome":0,"trial":24,"correct":0,"trial_type":"three-arm-trial","trial_index":33,"time_elapsed":304815,"internal_node_id":"0.0-30.0-0.0","task_version":"screening-prolific","missing":false,"accuracy":0},{"contexts":["green","red","blue"],"outcomes":[1,0,0],"key":37,"choice":0,"rt":121.41500000143424,"outcome":1,"trial":25,"correct":0,"trial_type":"three-arm-trial","trial_index":34,"time_elapsed":306138,"internal_node_id":"0.0-31.0-0.0","task_version":"screening-prolific","missing":false,"accuracy":1},{"contexts":["green","red","blue"],"outcomes":[1,0,1],"key":38,"choice":1,"rt":319.9849999946309,"outcome":0,"trial":26,"correct":0,"trial_type":"three-arm-trial","trial_index":35,"time_elapsed":307661,"internal_node_id":"0.0-32.0-0.0","task_version":"screening-prolific","missing":false,"accuracy":0},{"contexts":["green","red","blue"],"outcomes":[1,0,1],"key":37,"choice":0,"rt":41.3399999961257,"outcome":1,"trial":27,"correct":0,"trial_type":"three-arm-trial","trial_index":36,"time_elapsed":308906,"internal_node_id":"0.0-33.0-0.0","task_version":"screening-prolific","missing":false,"accuracy":1},{"contexts":["green","red","blue"],"outcomes":[0,0,0],"key":37,"choice":0,"rt":372.9849999945145,"outcome":0,"trial":28,"correct":0,"trial_type":"three-arm-trial","trial_index":37,"time_elapsed":310481,"internal_node_id":"0.0-34.0-0.0","task_version":"screening-prolific","missing":false,"accuracy":1},{"contexts":["green","red","blue"],"outcomes":[1,0,0],"key":39,"choice":2,"rt":129.98499999230262,"outcome":0,"trial":29,"correct":0,"trial_type":"three-arm-trial","trial_index":38,"time_elapsed":311815,"internal_node_id":"0.0-35.0-0.0","task_version":"screening-prolific","missing":false,"accuracy":0},{"contexts":["green","red","blue"],"outcomes":[1,1,0],"key":38,"choice":1,"rt":95.64999998838175,"outcome":1,"trial":30,"correct":0,"trial_type":"three-arm-trial","trial_index":39,"time_elapsed":313112,"internal_node_id":"0.0-36.0-0.0","task_version":"screening-prolific","missing":false,"accuracy":0},{"contexts":["green","red","blue"],"outcomes":[0,1,0],"key":37,"choice":0,"rt":43.93500000878703,"outcome":0,"trial":31,"correct":1,"trial_type":"three-arm-trial","trial_index":40,"time_elapsed":314360,"internal_node_id":"0.0-37.0-0.0","task_version":"screening-prolific","missing":false,"accuracy":0},{"contexts":["green","red","blue"],"outcomes":[0,1,1],"key":37,"choice":0,"rt":100.3400000045076,"outcome":0,"trial":32,"correct":1,"trial_type":"three-arm-trial","trial_index":41,"time_elapsed":315661,"internal_node_id":"0.0-38.0-0.0","task_version":"screening-prolific","missing":false,"accuracy":0},{"contexts":["green","red","blue"],"outcomes":[0,1,0],"key":38,"choice":1,"rt":145.0650000042515,"outcome":1,"trial":33,"correct":1,"trial_type":"three-arm-trial","trial_index":42,"time_elapsed":317009,"internal_node_id":"0.0-39.0-0.0","task_version":"screening-prolific","missing":false,"accuracy":1},{"contexts":["green","red","blue"],"outcomes":[0,1,0],"key":38,"choice":1,"rt":107.66500000318047,"outcome":1,"trial":34,"correct":1,"trial_type":"three-arm-trial","trial_index":43,"time_elapsed":318319,"internal_node_id":"0.0-40.0-0.0","task_version":"screening-prolific","missing":false,"accuracy":1},{"contexts":["green","red","blue"],"outcomes":[0,1,0],"key":38,"choice":1,"rt":155.57000000262633,"outcome":1,"trial":35,"correct":1,"trial_type":"three-arm-trial","trial_index":44,"time_elapsed":319676,"internal_node_id":"0.0-41.0-0.0","task_version":"screening-prolific","missing":false,"accuracy":1},{"contexts":["green","red","blue"],"outcomes":[0,1,0],"key":38,"choice":1,"rt":165.11499999614898,"outcome":1,"trial":36,"correct":1,"trial_type":"three-arm-trial","trial_index":45,"time_elapsed":321045,"internal_node_id":"0.0-42.0-0.0","task_version":"screening-prolific","missing":false,"accuracy":1},{"contexts":["green","red","blue"],"outcomes":[0,1,0],"key":38,"choice":1,"rt":140.24500000232365,"outcome":1,"trial":37,"correct":1,"trial_type":"three-arm-trial","trial_index":46,"time_elapsed":322388,"internal_node_id":"0.0-43.0-0.0","task_version":"screening-prolific","missing":false,"accuracy":1},{"contexts":["green","red","blue"],"outcomes":[1,1,0],"key":38,"choice":1,"rt":83.33500000298955,"outcome":1,"trial":38,"correct":1,"trial_type":"three-arm-trial","trial_index":47,"time_elapsed":323674,"internal_node_id":"0.0-44.0-0.0","task_version":"screening-prolific","missing":false,"accuracy":1},{"contexts":["green","red","blue"],"outcomes":[1,1,0],"key":38,"choice":1,"rt":32.50000000116415,"outcome":1,"trial":39,"correct":1,"trial_type":"three-arm-trial","trial_index":48,"time_elapsed":324910,"internal_node_id":"0.0-45.0-0.0","task_version":"screening-prolific","missing":false,"accuracy":1},{"contexts":["green","red","blue"],"outcomes":[1,0,0],"key":38,"choice":1,"rt":27.090000003227033,"outcome":0,"trial":40,"correct":1,"trial_type":"three-arm-trial","trial_index":49,"time_elapsed":326140,"internal_node_id":"0.0-46.0-0.0","task_version":"screening-prolific","missing":false,"accuracy":1},{"contexts":["green","red","blue"],"outcomes":[0,1,0],"key":37,"choice":0,"rt":66.41500000841916,"outcome":0,"trial":41,"correct":1,"trial_type":"three-arm-trial","trial_index":50,"time_elapsed":327409,"internal_node_id":"0.0-47.0-0.0","task_version":"screening-prolific","missing":false,"accuracy":0},{"contexts":["green","red","blue"],"outcomes":[0,1,1],"key":38,"choice":1,"rt":144.79999999457505,"outcome":1,"trial":42,"correct":1,"trial_type":"three-arm-trial","trial_index":51,"time_elapsed":328757,"internal_node_id":"0.0-48.0-0.0","task_version":"screening-prolific","missing":false,"accuracy":1},{"contexts":["green","red","blue"],"outcomes":[0,1,0],"key":38,"choice":1,"rt":63.234999994165264,"outcome":1,"trial":43,"correct":1,"trial_type":"three-arm-trial","trial_index":52,"time_elapsed":330025,"internal_node_id":"0.0-49.0-0.0","task_version":"screening-prolific","missing":false,"accuracy":1},{"contexts":["green","red","blue"],"outcomes":[1,1,0],"key":38,"choice":1,"rt":238.47500000556465,"outcome":1,"trial":44,"correct":1,"trial_type":"three-arm-trial","trial_index":53,"time_elapsed":331466,"internal_node_id":"0.0-50.0-0.0","task_version":"screening-prolific","missing":false,"accuracy":1},{"contexts":["green","red","blue"],"outcomes":[0,1,0],"key":38,"choice":1,"rt":10.030000004917383,"outcome":1,"trial":45,"correct":1,"trial_type":"three-arm-trial","trial_index":54,"time_elapsed":332677,"internal_node_id":"0.0-51.0-0.0","task_version":"screening-prolific","missing":false,"accuracy":1},{"contexts":["green","red","blue"],"outcomes":[1,0,0],"key":38,"choice":1,"rt":23.559999986900948,"outcome":0,"trial":46,"correct":0,"trial_type":"three-arm-trial","trial_index":55,"time_elapsed":333903,"internal_node_id":"0.0-52.0-0.0","task_version":"screening-prolific","missing":false,"accuracy":0},{"contexts":["green","red","blue"],"outcomes":[1,0,1],"key":37,"choice":0,"rt":112.99999999755528,"outcome":1,"trial":47,"correct":0,"trial_type":"three-arm-trial","trial_index":56,"time_elapsed":335218,"internal_node_id":"0.0-53.0-0.0","task_version":"screening-prolific","missing":false,"accuracy":1},{"contexts":["green","red","blue"],"outcomes":[1,0,0],"key":37,"choice":0,"rt":32.52500000235159,"outcome":1,"trial":48,"correct":0,"trial_type":"three-arm-trial","trial_index":57,"time_elapsed":336454,"internal_node_id":"0.0-54.0-0.0","task_version":"screening-prolific","missing":false,"accuracy":1},{"contexts":["green","red","blue"],"outcomes":[1,1,0],"key":37,"choice":0,"rt":193.35499999579042,"outcome":1,"trial":49,"correct":0,"trial_type":"three-arm-trial","trial_index":58,"time_elapsed":337850,"internal_node_id":"0.0-55.0-0.0","task_version":"screening-prolific","missing":false,"accuracy":1},{"contexts":["green","red","blue"],"outcomes":[1,0,1],"key":37,"choice":0,"rt":341.23999999428634,"outcome":1,"trial":50,"correct":0,"trial_type":"three-arm-trial","trial_index":59,"time_elapsed":339393,"internal_node_id":"0.0-56.0-0.0","task_version":"screening-prolific","missing":false,"accuracy":1},{"contexts":["green","red","blue"],"outcomes":[0,0,0],"key":37,"choice":0,"rt":109.03500000131316,"outcome":0,"trial":51,"correct":0,"trial_type":"three-arm-trial","trial_index":60,"time_elapsed":340704,"internal_node_id":"0.0-57.0-0.0","task_version":"screening-prolific","missing":false,"accuracy":1},{"contexts":["green","red","blue"],"outcomes":[1,0,0],"key":38,"choice":1,"rt":112.83000001276378,"outcome":0,"trial":52,"correct":0,"trial_type":"three-arm-trial","trial_index":61,"time_elapsed":342020,"internal_node_id":"0.0-58.0-0.0","task_version":"screening-prolific","missing":false,"accuracy":0},{"contexts":["green","red","blue"],"outcomes":[1,0,0],"key":39,"choice":2,"rt":36.95500000321772,"outcome":0,"trial":53,"correct":0,"trial_type":"three-arm-trial","trial_index":62,"time_elapsed":343261,"internal_node_id":"0.0-59.0-0.0","task_version":"screening-prolific","missing":false,"accuracy":0},{"contexts":["green","red","blue"],"outcomes":[1,1,0],"key":38,"choice":1,"rt":108.84000000078231,"outcome":1,"trial":54,"correct":0,"trial_type":"three-arm-trial","trial_index":63,"time_elapsed":344572,"internal_node_id":"0.0-60.0-0.0","task_version":"screening-prolific","missing":false,"accuracy":0},{"contexts":["green","red","blue"],"outcomes":[1,0,0],"key":38,"choice":1,"rt":109.73999999987427,"outcome":0,"trial":55,"correct":0,"trial_type":"three-arm-trial","trial_index":64,"time_elapsed":345884,"internal_node_id":"0.0-61.0-0.0","task_version":"screening-prolific","missing":false,"accuracy":0},{"contexts":["green","red","blue"],"outcomes":[1,0,1],"key":37,"choice":0,"rt":101.49999998975545,"outcome":1,"trial":56,"correct":0,"trial_type":"three-arm-trial","trial_index":65,"time_elapsed":347188,"internal_node_id":"0.0-62.0-0.0","task_version":"screening-prolific","missing":false,"accuracy":1},{"contexts":["green","red","blue"],"outcomes":[1,1,0],"key":37,"choice":0,"rt":59.29999999352731,"outcome":1,"trial":57,"correct":0,"trial_type":"three-arm-trial","trial_index":66,"time_elapsed":348450,"internal_node_id":"0.0-63.0-0.0","task_version":"screening-prolific","missing":false,"accuracy":1},{"contexts":["green","red","blue"],"outcomes":[1,1,0],"key":37,"choice":0,"rt":71.8499999929918,"outcome":1,"trial":58,"correct":0,"trial_type":"three-arm-trial","trial_index":67,"time_elapsed":349725,"internal_node_id":"0.0-64.0-0.0","task_version":"screening-prolific","missing":false,"accuracy":1},{"contexts":["green","red","blue"],"outcomes":[1,1,0],"key":37,"choice":0,"rt":17.094999988330528,"outcome":1,"trial":59,"correct":0,"trial_type":"three-arm-trial","trial_index":68,"time_elapsed":350944,"internal_node_id":"0.0-65.0-0.0","task_version":"screening-prolific","missing":false,"accuracy":1},{"contexts":["green","red","blue"],"outcomes":[1,0,0],"key":37,"choice":0,"rt":17.850000003818423,"outcome":1,"trial":60,"correct":0,"trial_type":"three-arm-trial","trial_index":69,"time_elapsed":352165,"internal_node_id":"0.0-66.0-0.0","task_version":"screening-prolific","missing":false,"accuracy":1},{"contexts":["green","red","blue"],"outcomes":[0,0,1],"key":37,"choice":0,"rt":0.25999998615588993,"outcome":0,"trial":61,"correct":2,"trial_type":"three-arm-trial","trial_index":70,"time_elapsed":353368,"internal_node_id":"0.0-67.0-0.0","task_version":"screening-prolific","missing":false,"accuracy":0},{"contexts":["green","red","blue"],"outcomes":[1,1,1],"key":38,"choice":1,"rt":109.88000000361353,"outcome":1,"trial":62,"correct":2,"trial_type":"three-arm-trial","trial_index":71,"time_elapsed":354680,"internal_node_id":"0.0-68.0-0.0","task_version":"screening-prolific","missing":false,"accuracy":0},{"contexts":["green","red","blue"],"outcomes":[0,0,1],"key":38,"choice":1,"rt":60.125000003608875,"outcome":0,"trial":63,"correct":2,"trial_type":"three-arm-trial","trial_index":72,"time_elapsed":355942,"internal_node_id":"0.0-69.0-0.0","task_version":"screening-prolific","missing":false,"accuracy":0},{"contexts":["green","red","blue"],"outcomes":[1,1,1],"key":37,"choice":0,"rt":110.13000000093598,"outcome":1,"trial":64,"correct":2,"trial_type":"three-arm-trial","trial_index":73,"time_elapsed":357255,"internal_node_id":"0.0-70.0-0.0","task_version":"screening-prolific","missing":false,"accuracy":0},{"contexts":["green","red","blue"],"outcomes":[0,0,1],"key":37,"choice":0,"rt":193.9600000041537,"outcome":0,"trial":65,"correct":2,"trial_type":"three-arm-trial","trial_index":74,"time_elapsed":358651,"internal_node_id":"0.0-71.0-0.0","task_version":"screening-prolific","missing":false,"accuracy":0},{"contexts":["green","red","blue"],"outcomes":[0,1,1],"key":38,"choice":1,"rt":155.18499999598134,"outcome":1,"trial":66,"correct":2,"trial_type":"three-arm-trial","trial_index":75,"time_elapsed":360009,"internal_node_id":"0.0-72.0-0.0","task_version":"screening-prolific","missing":false,"accuracy":0},{"contexts":["green","red","blue"],"outcomes":[0,0,0],"key":38,"choice":1,"rt":91.60500000871252,"outcome":0,"trial":67,"correct":2,"trial_type":"three-arm-trial","trial_index":76,"time_elapsed":361303,"internal_node_id":"0.0-73.0-0.0","task_version":"screening-prolific","missing":false,"accuracy":0},{"contexts":["green","red","blue"],"outcomes":[0,0,1],"key":37,"choice":0,"rt":94.81500000401866,"outcome":0,"trial":68,"correct":2,"trial_type":"three-arm-trial","trial_index":77,"time_elapsed":362600,"internal_node_id":"0.0-74.0-0.0","task_version":"screening-prolific","missing":false,"accuracy":0},{"contexts":["green","red","blue"],"outcomes":[0,0,1],"key":39,"choice":2,"rt":82.84000000276137,"outcome":1,"trial":69,"correct":2,"trial_type":"three-arm-trial","trial_index":78,"time_elapsed":363885,"internal_node_id":"0.0-75.0-0.0","task_version":"screening-prolific","missing":false,"accuracy":1},{"contexts":["green","red","blue"],"outcomes":[0,0,1],"key":39,"choice":2,"rt":11.984999990090728,"outcome":1,"trial":70,"correct":2,"trial_type":"three-arm-trial","trial_index":79,"time_elapsed":365099,"internal_node_id":"0.0-76.0-0.0","task_version":"screening-prolific","missing":false,"accuracy":1},{"contexts":["green","red","blue"],"outcomes":[1,1,1],"key":39,"choice":2,"rt":218.5449999960838,"outcome":1,"trial":71,"correct":2,"trial_type":"three-arm-trial","trial_index":80,"time_elapsed":366520,"internal_node_id":"0.0-77.0-0.0","task_version":"screening-prolific","missing":false,"accuracy":1},{"contexts":["green","red","blue"],"outcomes":[0,0,1],"key":39,"choice":2,"rt":47.66000001109205,"outcome":1,"trial":72,"correct":2,"trial_type":"three-arm-trial","trial_index":81,"time_elapsed":367769,"internal_node_id":"0.0-78.0-0.0","task_version":"screening-prolific","missing":false,"accuracy":1},{"contexts":["green","red","blue"],"outcomes":[0,1,1],"key":39,"choice":2,"rt":177.335000000312,"outcome":1,"trial":73,"correct":2,"trial_type":"three-arm-trial","trial_index":82,"time_elapsed":369150,"internal_node_id":"0.0-79.0-0.0","task_version":"screening-prolific","missing":false,"accuracy":1},{"contexts":["green","red","blue"],"outcomes":[0,0,0],"key":39,"choice":2,"rt":179.66499998874497,"outcome":0,"trial":74,"correct":2,"trial_type":"three-arm-trial","trial_index":83,"time_elapsed":370532,"internal_node_id":"0.0-80.0-0.0","task_version":"screening-prolific","missing":false,"accuracy":1},{"contexts":["green","red","blue"],"outcomes":[0,0,0],"key":38,"choice":1,"rt":113.4499999898253,"outcome":0,"trial":75,"correct":2,"trial_type":"three-arm-trial","trial_index":84,"time_elapsed":371848,"internal_node_id":"0.0-81.0-0.0","task_version":"screening-prolific","missing":false,"accuracy":0},{"contexts":["green","red","blue"],"outcomes":[1,1,0],"key":37,"choice":0,"rt":12.53000000724569,"outcome":1,"trial":76,"correct":0,"trial_type":"three-arm-trial","trial_index":85,"time_elapsed":373063,"internal_node_id":"0.0-82.0-0.0","task_version":"screening-prolific","missing":false,"accuracy":1},{"contexts":["green","red","blue"],"outcomes":[1,0,0],"key":37,"choice":0,"rt":171.1549999890849,"outcome":1,"trial":77,"correct":0,"trial_type":"three-arm-trial","trial_index":86,"time_elapsed":374437,"internal_node_id":"0.0-83.0-0.0","task_version":"screening-prolific","missing":false,"accuracy":1},{"contexts":["green","red","blue"],"outcomes":[1,0,1],"key":37,"choice":0,"rt":124.29999999585561,"outcome":1,"trial":78,"correct":0,"trial_type":"three-arm-trial","trial_index":87,"time_elapsed":375764,"internal_node_id":"0.0-84.0-0.0","task_version":"screening-prolific","missing":false,"accuracy":1},{"contexts":["green","red","blue"],"outcomes":[1,0,0],"key":37,"choice":0,"rt":90.20999999484047,"outcome":1,"trial":79,"correct":0,"trial_type":"three-arm-trial","trial_index":88,"time_elapsed":377057,"internal_node_id":"0.0-85.0-0.0","task_version":"screening-prolific","missing":false,"accuracy":1},{"contexts":["green","red","blue"],"outcomes":[1,0,0],"key":38,"choice":1,"rt":34.759999995003454,"outcome":0,"trial":80,"correct":0,"trial_type":"three-arm-trial","trial_index":89,"time_elapsed":378294,"internal_node_id":"0.0-86.0-0.0","task_version":"screening-prolific","missing":false,"accuracy":0},{"contexts":["green","red","blue"],"outcomes":[1,0,0],"key":37,"choice":0,"rt":3.2499999942956492,"outcome":1,"trial":81,"correct":0,"trial_type":"three-arm-trial","trial_index":90,"time_elapsed":379500,"internal_node_id":"0.0-87.0-0.0","task_version":"screening-prolific","missing":false,"accuracy":1},{"contexts":["green","red","blue"],"outcomes":[1,1,0],"key":37,"choice":0,"rt":28.734999999869615,"outcome":1,"trial":82,"correct":0,"trial_type":"three-arm-trial","trial_index":91,"time_elapsed":380731,"internal_node_id":"0.0-88.0-0.0","task_version":"screening-prolific","missing":false,"accuracy":1},{"contexts":["green","red","blue"],"outcomes":[1,0,0],"key":38,"choice":1,"rt":115.98000000230968,"outcome":0,"trial":83,"correct":0,"trial_type":"three-arm-trial","trial_index":92,"time_elapsed":382049,"internal_node_id":"0.0-89.0-0.0","task_version":"screening-prolific","missing":false,"accuracy":0},{"contexts":["green","red","blue"],"outcomes":[1,0,0],"key":37,"choice":0,"rt":208.96000000357162,"outcome":1,"trial":84,"correct":0,"trial_type":"three-arm-trial","trial_index":93,"time_elapsed":383460,"internal_node_id":"0.0-90.0-0.0","task_version":"screening-prolific","missing":false,"accuracy":1},{"contexts":["green","red","blue"],"outcomes":[1,1,0],"key":37,"choice":0,"rt":201.30499999504536,"outcome":1,"trial":85,"correct":0,"trial_type":"three-arm-trial","trial_index":94,"time_elapsed":384865,"internal_node_id":"0.0-91.0-0.0","task_version":"screening-prolific","missing":false,"accuracy":1},{"contexts":["green","red","blue"],"outcomes":[1,0,1],"key":37,"choice":0,"rt":15.100000004167669,"outcome":1,"trial":86,"correct":0,"trial_type":"three-arm-trial","trial_index":95,"time_elapsed":386083,"internal_node_id":"0.0-92.0-0.0","task_version":"screening-prolific","missing":false,"accuracy":1},{"contexts":["green","red","blue"],"outcomes":[1,0,0],"key":37,"choice":0,"rt":7.6849999895785,"outcome":1,"trial":87,"correct":0,"trial_type":"three-arm-trial","trial_index":96,"time_elapsed":387293,"internal_node_id":"0.0-93.0-0.0","task_version":"screening-prolific","missing":false,"accuracy":1},{"contexts":["green","red","blue"],"outcomes":[1,1,0],"key":37,"choice":0,"rt":2.470000006724149,"outcome":1,"trial":88,"correct":0,"trial_type":"three-arm-trial","trial_index":97,"time_elapsed":388498,"internal_node_id":"0.0-94.0-0.0","task_version":"screening-prolific","missing":false,"accuracy":1},{"contexts":["green","red","blue"],"outcomes":[1,0,0],"key":37,"choice":0,"rt":47.43999999482185,"outcome":1,"trial":89,"correct":0,"trial_type":"three-arm-trial","trial_index":98,"time_elapsed":389748,"internal_node_id":"0.0-95.0-0.0","task_version":"screening-prolific","missing":false,"accuracy":1},{"contexts":["green","red","blue"],"outcomes":[1,0,0],"key":37,"choice":0,"rt":5.100000009406358,"outcome":1,"trial":90,"correct":0,"trial_type":"three-arm-trial","trial_index":99,"time_elapsed":390956,"internal_node_id":"0.0-96.0-0.0","task_version":"screening-prolific","missing":false,"accuracy":1},{"rt":25049.364999998943,"responses":{"age":"24","gender-categorical":"Male","gender-free-response":"","ethnicity":"Not Hispanic or Latino","race":["Asian"],"language":"Yes","fluency":"Very well","mturk":"No","mturk-this-study":"No"},"survey":"demographics","trial_type":"survey-demo","trial_index":100,"time_elapsed":416009,"internal_node_id":"0.0-97.0","task_version":"screening-prolific","interactions":"[]"}]