[{"responses":{"Q08":"0","Q04":"0","Q07":"0","Q02":"0","Q03":"0","Q05":"0","Q01":"0","Q06":"0"},"rt":29155.420000082813,"survey":"gad7","trial_type":"survey-template","trial_index":0,"time_elapsed":29189,"internal_node_id":"0.0-0.0","task_version":"screening-prolific"},{"responses":{"Q11":"2","Q13":"3","Q04":"2","Q05":"3","Q10":"3","Q08":"3","Q06":"2","Q01":"2","Q07":"3","Q03":"3","Q12":"2","Q09":"3","Q02":"3"},"rt":107607.39000001922,"survey":"bisbas","trial_type":"survey-template","trial_index":1,"time_elapsed":136806,"internal_node_id":"0.0-1.0","task_version":"screening-prolific"},{"responses":{"Q03":"1","Q12":"0","Q15":"0","Q04":"0","Q06":"0","Q02":"0","Q01":"0","Q05":"0","Q14":"0","Q09":"1","Q11":"0","Q10":"0","Q13":"0","Q07":"0","Q08":"0"},"rt":151082.2150000604,"survey":"7up7down","trial_type":"survey-template","trial_index":2,"time_elapsed":287898,"internal_node_id":"0.0-2.0","task_version":"screening-prolific"},{"responses":{"Q06":"3","Q11":"3","Q01":"3","Q05":"2","Q04":"3","Q02":"3","Q08":"2","Q14":"3","Q03":"3","Q09":"3","Q10":"3","Q07":"3","Q13":"3","Q12":"3","Q15":"2"},"rt":65055.96000002697,"survey":"shaps","trial_type":"survey-template","trial_index":3,"time_elapsed":352963,"internal_node_id":"0.0-3.0","task_version":"screening-prolific"},{"responses":{"Q01":"1","Q02":"0","Q03":"0"},"rt":16479.580000042915,"survey":"pswq","trial_type":"survey-template","trial_index":4,"time_elapsed":369450,"internal_node_id":"0.0-4.0","task_version":"screening-prolific"},{"view_history":"[{\"page_index\":0,\"viewing_time\":6538.180000032298},{\"page_index\":1,\"viewing_time\":8950.71000000462},{\"page_index\":2,\"viewing_time\":12651.384999975562},{\"page_index\":3,\"viewing_time\":6049.6750000165775},{\"page_index\":4,\"viewing_time\":9343.894999939948},{\"page_index\":5,\"viewing_time\":5683.43500001356},{\"page_index\":6,\"viewing_time\":2425.374999991618},{\"page_index\":7,\"viewing_time\":6865.880000055768}]","rt":58511.39500003774,"trial_type":"instructions","trial_index":5,"time_elapsed":427964,"internal_node_id":"0.0-5.0-0.0","task_version":"screening-prolific"},{"responses":["True","True","True","False","True"],"num_errors":1,"rt":35942.550000036135,"trial_type":"three-arm-comprehension","trial_index":6,"time_elapsed":463916,"internal_node_id":"0.0-5.0-1.0","task_version":"screening-prolific"},{"view_history":"[{\"page_index\":0,\"viewing_time\":4282.985000056215},{\"page_index\":1,\"viewing_time\":4483.914999989793},{\"page_index\":2,\"viewing_time\":2616.730000008829},{\"page_index\":3,\"viewing_time\":3069.744999986142},{\"page_index\":4,\"viewing_time\":3517.4600000027567},{\"page_index\":5,\"viewing_time\":2354.8899999586865},{\"page_index\":6,\"viewing_time\":1798.9100000122562},{\"page_index\":7,\"viewing_time\":1869.635000010021}]","rt":23995.080000022426,"trial_type":"instructions","trial_index":7,"time_elapsed":487922,"internal_node_id":"0.0-5.1-0.1","task_version":"screening-prolific"},{"responses":["True","True","False","False","True"],"num_errors":0,"rt":15475.450000027195,"trial_type":"three-arm-comprehension","trial_index":8,"time_elapsed":503405,"internal_node_id":"0.0-5.1-1.1","task_version":"screening-prolific"},{"view_history":"[{\"page_index\":0,\"viewing_time\":2885.810000007041}]","rt":2886.685000034049,"trial_type":"instructions","trial_index":9,"time_elapsed":506298,"internal_node_id":"0.0-6.0","task_version":"screening-prolific"},{"contexts":["red","green","blue"],"outcomes":[1,0,1],"key":38,"choice":1,"rt":7594.369999947958,"outcome":0,"trial":1,"correct":2,"trial_type":"three-arm-trial","trial_index":10,"time_elapsed":515104,"internal_node_id":"0.0-7.0-0.0","task_version":"screening-prolific","missing":false,"accuracy":0},{"contexts":["red","green","blue"],"outcomes":[0,0,1],"key":38,"choice":1,"rt":933.7400000076741,"outcome":0,"trial":2,"correct":2,"trial_type":"three-arm-trial","trial_index":11,"time_elapsed":517254,"internal_node_id":"0.0-8.0-0.0","task_version":"screening-prolific","missing":false,"accuracy":0},{"contexts":["red","green","blue"],"outcomes":[0,0,1],"key":38,"choice":1,"rt":760.7900000875816,"outcome":0,"trial":3,"correct":2,"trial_type":"three-arm-trial","trial_index":12,"time_elapsed":519227,"internal_node_id":"0.0-9.0-0.0","task_version":"screening-prolific","missing":false,"accuracy":0},{"contexts":["red","green","blue"],"outcomes":[0,0,1],"key":39,"choice":2,"rt":1879.8999999416992,"outcome":1,"trial":4,"correct":2,"trial_type":"three-arm-trial","trial_index":13,"time_elapsed":522320,"internal_node_id":"0.0-10.0-0.0","task_version":"screening-prolific","missing":false,"accuracy":1},{"contexts":["red","green","blue"],"outcomes":[1,0,0],"key":39,"choice":2,"rt":580.4550000466406,"outcome":0,"trial":5,"correct":2,"trial_type":"three-arm-trial","trial_index":14,"time_elapsed":524108,"internal_node_id":"0.0-11.0-0.0","task_version":"screening-prolific","missing":false,"accuracy":1},{"contexts":["red","green","blue"],"outcomes":[0,0,1],"key":39,"choice":2,"rt":447.3650000290945,"outcome":1,"trial":6,"correct":2,"trial_type":"three-arm-trial","trial_index":15,"time_elapsed":525768,"internal_node_id":"0.0-12.0-0.0","task_version":"screening-prolific","missing":false,"accuracy":1},{"contexts":["red","green","blue"],"outcomes":[0,0,1],"key":39,"choice":2,"rt":531.4500000094995,"outcome":1,"trial":7,"correct":2,"trial_type":"three-arm-trial","trial_index":16,"time_elapsed":527512,"internal_node_id":"0.0-13.0-0.0","task_version":"screening-prolific","missing":false,"accuracy":1},{"contexts":["red","green","blue"],"outcomes":[0,0,1],"key":39,"choice":2,"rt":527.6050000684336,"outcome":1,"trial":8,"correct":2,"trial_type":"three-arm-trial","trial_index":17,"time_elapsed":529255,"internal_node_id":"0.0-14.0-0.0","task_version":"screening-prolific","missing":false,"accuracy":1},{"contexts":["red","green","blue"],"outcomes":[0,0,0],"key":39,"choice":2,"rt":827.6550000300631,"outcome":0,"trial":9,"correct":2,"trial_type":"three-arm-trial","trial_index":18,"time_elapsed":531294,"internal_node_id":"0.0-15.0-0.0","task_version":"screening-prolific","missing":false,"accuracy":1},{"contexts":["red","green","blue"],"outcomes":[0,0,1],"key":39,"choice":2,"rt":373.48999991081655,"outcome":1,"trial":10,"correct":2,"trial_type":"three-arm-trial","trial_index":19,"time_elapsed":532877,"internal_node_id":"0.0-16.0-0.0","task_version":"screening-prolific","missing":false,"accuracy":1},{"contexts":["red","green","blue"],"outcomes":[0,1,0],"key":39,"choice":2,"rt":513.9699999708682,"outcome":0,"trial":11,"correct":2,"trial_type":"three-arm-trial","trial_index":20,"time_elapsed":534603,"internal_node_id":"0.0-17.0-0.0","task_version":"screening-prolific","missing":false,"accuracy":1},{"contexts":["red","green","blue"],"outcomes":[1,0,1],"key":37,"choice":0,"rt":369.2550000268966,"outcome":1,"trial":12,"correct":2,"trial_type":"three-arm-trial","trial_index":21,"time_elapsed":536186,"internal_node_id":"0.0-18.0-0.0","task_version":"screening-prolific","missing":false,"accuracy":0},{"contexts":["red","green","blue"],"outcomes":[1,1,1],"key":37,"choice":0,"rt":435.96499995328486,"outcome":1,"trial":13,"correct":2,"trial_type":"three-arm-trial","trial_index":22,"time_elapsed":537835,"internal_node_id":"0.0-19.0-0.0","task_version":"screening-prolific","missing":false,"accuracy":0},{"contexts":["red","green","blue"],"outcomes":[0,1,0],"key":37,"choice":0,"rt":481.2199999578297,"outcome":0,"trial":14,"correct":2,"trial_type":"three-arm-trial","trial_index":23,"time_elapsed":539525,"internal_node_id":"0.0-20.0-0.0","task_version":"screening-prolific","missing":false,"accuracy":0},{"contexts":["red","green","blue"],"outcomes":[0,0,1],"key":37,"choice":0,"rt":547.6550000021234,"outcome":0,"trial":15,"correct":2,"trial_type":"three-arm-trial","trial_index":24,"time_elapsed":541285,"internal_node_id":"0.0-21.0-0.0","task_version":"screening-prolific","missing":false,"accuracy":0},{"contexts":["red","green","blue"],"outcomes":[1,0,0],"key":37,"choice":0,"rt":414.1600000439212,"outcome":1,"trial":16,"correct":0,"trial_type":"three-arm-trial","trial_index":25,"time_elapsed":542918,"internal_node_id":"0.0-22.0-0.0","task_version":"screening-prolific","missing":false,"accuracy":1},{"contexts":["red","green","blue"],"outcomes":[1,0,0],"key":37,"choice":0,"rt":520.6950000720099,"outcome":1,"trial":17,"correct":0,"trial_type":"three-arm-trial","trial_index":26,"time_elapsed":544651,"internal_node_id":"0.0-23.0-0.0","task_version":"screening-prolific","missing":false,"accuracy":1},{"contexts":["red","green","blue"],"outcomes":[0,1,0],"key":37,"choice":0,"rt":815.6550000421703,"outcome":0,"trial":18,"correct":0,"trial_type":"three-arm-trial","trial_index":27,"time_elapsed":546675,"internal_node_id":"0.0-24.0-0.0","task_version":"screening-prolific","missing":false,"accuracy":1},{"contexts":["red","green","blue"],"outcomes":[0,1,0],"key":37,"choice":0,"rt":397.5649999920279,"outcome":0,"trial":19,"correct":0,"trial_type":"three-arm-trial","trial_index":28,"time_elapsed":548287,"internal_node_id":"0.0-25.0-0.0","task_version":"screening-prolific","missing":false,"accuracy":1},{"contexts":["red","green","blue"],"outcomes":[1,0,0],"key":38,"choice":1,"rt":19.884999957866967,"outcome":0,"trial":20,"correct":0,"trial_type":"three-arm-trial","trial_index":29,"time_elapsed":549520,"internal_node_id":"0.0-26.0-0.0","task_version":"screening-prolific","missing":false,"accuracy":0},{"contexts":["red","green","blue"],"outcomes":[0,0,0],"key":38,"choice":1,"rt":400.2799999434501,"outcome":0,"trial":21,"correct":0,"trial_type":"three-arm-trial","trial_index":30,"time_elapsed":551135,"internal_node_id":"0.0-27.0-0.0","task_version":"screening-prolific","missing":false,"accuracy":0},{"contexts":["red","green","blue"],"outcomes":[0,0,0],"key":38,"choice":1,"rt":736.3149999873713,"outcome":0,"trial":22,"correct":0,"trial_type":"three-arm-trial","trial_index":31,"time_elapsed":553087,"internal_node_id":"0.0-28.0-0.0","task_version":"screening-prolific","missing":false,"accuracy":0},{"contexts":["red","green","blue"],"outcomes":[1,1,0],"key":39,"choice":2,"rt":902.754999930039,"outcome":0,"trial":23,"correct":0,"trial_type":"three-arm-trial","trial_index":32,"time_elapsed":555202,"internal_node_id":"0.0-29.0-0.0","task_version":"screening-prolific","missing":false,"accuracy":0},{"contexts":["red","green","blue"],"outcomes":[1,0,0],"key":39,"choice":2,"rt":397.6099999854341,"outcome":0,"trial":24,"correct":0,"trial_type":"three-arm-trial","trial_index":33,"time_elapsed":556809,"internal_node_id":"0.0-30.0-0.0","task_version":"screening-prolific","missing":false,"accuracy":0},{"contexts":["red","green","blue"],"outcomes":[0,0,0],"key":37,"choice":0,"rt":426.0200000135228,"outcome":0,"trial":25,"correct":0,"trial_type":"three-arm-trial","trial_index":34,"time_elapsed":558443,"internal_node_id":"0.0-31.0-0.0","task_version":"screening-prolific","missing":false,"accuracy":1},{"contexts":["red","green","blue"],"outcomes":[1,0,0],"key":37,"choice":0,"rt":407.0949999149889,"outcome":1,"trial":26,"correct":0,"trial_type":"three-arm-trial","trial_index":35,"time_elapsed":560068,"internal_node_id":"0.0-32.0-0.0","task_version":"screening-prolific","missing":false,"accuracy":1},{"contexts":["red","green","blue"],"outcomes":[0,0,0],"key":37,"choice":0,"rt":647.9549999348819,"outcome":0,"trial":27,"correct":0,"trial_type":"three-arm-trial","trial_index":36,"time_elapsed":561926,"internal_node_id":"0.0-33.0-0.0","task_version":"screening-prolific","missing":false,"accuracy":1},{"contexts":["red","green","blue"],"outcomes":[1,0,0],"key":37,"choice":0,"rt":507.5199999846518,"outcome":1,"trial":28,"correct":0,"trial_type":"three-arm-trial","trial_index":37,"time_elapsed":563641,"internal_node_id":"0.0-34.0-0.0","task_version":"screening-prolific","missing":false,"accuracy":1},{"contexts":["red","green","blue"],"outcomes":[1,0,0],"key":37,"choice":0,"rt":547.264999942854,"outcome":1,"trial":29,"correct":0,"trial_type":"three-arm-trial","trial_index":38,"time_elapsed":565401,"internal_node_id":"0.0-35.0-0.0","task_version":"screening-prolific","missing":false,"accuracy":1},{"contexts":["red","green","blue"],"outcomes":[1,1,1],"key":37,"choice":0,"rt":681.1549999983981,"outcome":1,"trial":30,"correct":0,"trial_type":"three-arm-trial","trial_index":39,"time_elapsed":567291,"internal_node_id":"0.0-36.0-0.0","task_version":"screening-prolific","missing":false,"accuracy":1},{"contexts":["red","green","blue"],"outcomes":[0,1,1],"key":37,"choice":0,"rt":630.0650000339374,"outcome":0,"trial":31,"correct":2,"trial_type":"three-arm-trial","trial_index":40,"time_elapsed":569135,"internal_node_id":"0.0-37.0-0.0","task_version":"screening-prolific","missing":false,"accuracy":0},{"contexts":["red","green","blue"],"outcomes":[1,0,1],"key":37,"choice":0,"rt":487.9850000143051,"outcome":1,"trial":32,"correct":2,"trial_type":"three-arm-trial","trial_index":41,"time_elapsed":570835,"internal_node_id":"0.0-38.0-0.0","task_version":"screening-prolific","missing":false,"accuracy":0},{"contexts":["red","green","blue"],"outcomes":[0,0,1],"key":37,"choice":0,"rt":748.1099999276921,"outcome":0,"trial":33,"correct":2,"trial_type":"three-arm-trial","trial_index":42,"time_elapsed":572792,"internal_node_id":"0.0-39.0-0.0","task_version":"screening-prolific","missing":false,"accuracy":0},{"contexts":["red","green","blue"],"outcomes":[1,0,1],"key":37,"choice":0,"rt":489.2900000559166,"outcome":1,"trial":34,"correct":2,"trial_type":"three-arm-trial","trial_index":43,"time_elapsed":574502,"internal_node_id":"0.0-40.0-0.0","task_version":"screening-prolific","missing":false,"accuracy":0},{"contexts":["red","green","blue"],"outcomes":[0,0,1],"key":37,"choice":0,"rt":364.2999998992309,"outcome":0,"trial":35,"correct":2,"trial_type":"three-arm-trial","trial_index":44,"time_elapsed":576076,"internal_node_id":"0.0-41.0-0.0","task_version":"screening-prolific","missing":false,"accuracy":0},{"contexts":["red","green","blue"],"outcomes":[1,0,1],"key":37,"choice":0,"rt":363.98500006180257,"outcome":1,"trial":36,"correct":2,"trial_type":"three-arm-trial","trial_index":45,"time_elapsed":577649,"internal_node_id":"0.0-42.0-0.0","task_version":"screening-prolific","missing":false,"accuracy":0},{"contexts":["red","green","blue"],"outcomes":[0,0,1],"key":37,"choice":0,"rt":332.9399999929592,"outcome":0,"trial":37,"correct":2,"trial_type":"three-arm-trial","trial_index":46,"time_elapsed":579194,"internal_node_id":"0.0-43.0-0.0","task_version":"screening-prolific","missing":false,"accuracy":0},{"contexts":["red","green","blue"],"outcomes":[0,0,1],"key":39,"choice":2,"rt":1171.6299999970943,"outcome":1,"trial":38,"correct":2,"trial_type":"three-arm-trial","trial_index":47,"time_elapsed":581576,"internal_node_id":"0.0-44.0-0.0","task_version":"screening-prolific","missing":false,"accuracy":1},{"contexts":["red","green","blue"],"outcomes":[0,1,1],"key":39,"choice":2,"rt":564.0150000108406,"outcome":1,"trial":39,"correct":2,"trial_type":"three-arm-trial","trial_index":48,"time_elapsed":583348,"internal_node_id":"0.0-45.0-0.0","task_version":"screening-prolific","missing":false,"accuracy":1},{"contexts":["red","green","blue"],"outcomes":[0,0,1],"key":39,"choice":2,"rt":416.2550000473857,"outcome":1,"trial":40,"correct":2,"trial_type":"three-arm-trial","trial_index":49,"time_elapsed":584976,"internal_node_id":"0.0-46.0-0.0","task_version":"screening-prolific","missing":false,"accuracy":1},{"contexts":["red","green","blue"],"outcomes":[0,0,0],"key":39,"choice":2,"rt":274.33500008191913,"outcome":0,"trial":41,"correct":2,"trial_type":"three-arm-trial","trial_index":50,"time_elapsed":586467,"internal_node_id":"0.0-47.0-0.0","task_version":"screening-prolific","missing":false,"accuracy":1},{"contexts":["red","green","blue"],"outcomes":[0,0,1],"key":39,"choice":2,"rt":422.1499999985099,"outcome":1,"trial":42,"correct":2,"trial_type":"three-arm-trial","trial_index":51,"time_elapsed":588102,"internal_node_id":"0.0-48.0-0.0","task_version":"screening-prolific","missing":false,"accuracy":1},{"contexts":["red","green","blue"],"outcomes":[0,1,1],"key":39,"choice":2,"rt":379.25999995786697,"outcome":1,"trial":43,"correct":2,"trial_type":"three-arm-trial","trial_index":52,"time_elapsed":589693,"internal_node_id":"0.0-49.0-0.0","task_version":"screening-prolific","missing":false,"accuracy":1},{"contexts":["red","green","blue"],"outcomes":[0,0,1],"key":39,"choice":2,"rt":373.1650001136586,"outcome":1,"trial":44,"correct":2,"trial_type":"three-arm-trial","trial_index":53,"time_elapsed":591277,"internal_node_id":"0.0-50.0-0.0","task_version":"screening-prolific","missing":false,"accuracy":1},{"contexts":["red","green","blue"],"outcomes":[0,0,1],"key":39,"choice":2,"rt":388.04000010713935,"outcome":1,"trial":45,"correct":2,"trial_type":"three-arm-trial","trial_index":54,"time_elapsed":592876,"internal_node_id":"0.0-51.0-0.0","task_version":"screening-prolific","missing":false,"accuracy":1},{"contexts":["red","green","blue"],"outcomes":[0,1,1],"key":39,"choice":2,"rt":330.7600000407547,"outcome":1,"trial":46,"correct":1,"trial_type":"three-arm-trial","trial_index":55,"time_elapsed":594419,"internal_node_id":"0.0-52.0-0.0","task_version":"screening-prolific","missing":false,"accuracy":0},{"contexts":["red","green","blue"],"outcomes":[0,1,1],"key":39,"choice":2,"rt":380.754999932833,"outcome":1,"trial":47,"correct":1,"trial_type":"three-arm-trial","trial_index":56,"time_elapsed":596018,"internal_node_id":"0.0-53.0-0.0","task_version":"screening-prolific","missing":false,"accuracy":0},{"contexts":["red","green","blue"],"outcomes":[0,1,0],"key":39,"choice":2,"rt":362.6500000245869,"outcome":0,"trial":48,"correct":1,"trial_type":"three-arm-trial","trial_index":57,"time_elapsed":597591,"internal_node_id":"0.0-54.0-0.0","task_version":"screening-prolific","missing":false,"accuracy":0},{"contexts":["red","green","blue"],"outcomes":[0,1,1],"key":39,"choice":2,"rt":359.0250000124797,"outcome":1,"trial":49,"correct":1,"trial_type":"three-arm-trial","trial_index":58,"time_elapsed":599159,"internal_node_id":"0.0-55.0-0.0","task_version":"screening-prolific","missing":false,"accuracy":0},{"contexts":["red","green","blue"],"outcomes":[0,1,0],"key":39,"choice":2,"rt":378.2399999909103,"outcome":0,"trial":50,"correct":1,"trial_type":"three-arm-trial","trial_index":59,"time_elapsed":600752,"internal_node_id":"0.0-56.0-0.0","task_version":"screening-prolific","missing":false,"accuracy":0},{"contexts":["red","green","blue"],"outcomes":[0,0,0],"key":39,"choice":2,"rt":453.50499998312443,"outcome":0,"trial":51,"correct":1,"trial_type":"three-arm-trial","trial_index":60,"time_elapsed":602419,"internal_node_id":"0.0-57.0-0.0","task_version":"screening-prolific","missing":false,"accuracy":0},{"contexts":["red","green","blue"],"outcomes":[0,1,0],"key":37,"choice":0,"rt":913.8449999736622,"outcome":0,"trial":52,"correct":1,"trial_type":"three-arm-trial","trial_index":61,"time_elapsed":604552,"internal_node_id":"0.0-58.0-0.0","task_version":"screening-prolific","missing":false,"accuracy":0},{"contexts":["red","green","blue"],"outcomes":[0,1,0],"key":37,"choice":0,"rt":530.9549999656156,"outcome":0,"trial":53,"correct":1,"trial_type":"three-arm-trial","trial_index":62,"time_elapsed":606301,"internal_node_id":"0.0-59.0-0.0","task_version":"screening-prolific","missing":false,"accuracy":0},{"contexts":["red","green","blue"],"outcomes":[0,1,1],"key":38,"choice":1,"rt":854.2649999726564,"outcome":1,"trial":54,"correct":1,"trial_type":"three-arm-trial","trial_index":63,"time_elapsed":608367,"internal_node_id":"0.0-60.0-0.0","task_version":"screening-prolific","missing":false,"accuracy":1},{"contexts":["red","green","blue"],"outcomes":[0,1,1],"key":38,"choice":1,"rt":404.22500006388873,"outcome":1,"trial":55,"correct":1,"trial_type":"three-arm-trial","trial_index":64,"time_elapsed":609983,"internal_node_id":"0.0-61.0-0.0","task_version":"screening-prolific","missing":false,"accuracy":1},{"contexts":["red","green","blue"],"outcomes":[0,1,0],"key":38,"choice":1,"rt":370.07000006269664,"outcome":1,"trial":56,"correct":1,"trial_type":"three-arm-trial","trial_index":65,"time_elapsed":611563,"internal_node_id":"0.0-62.0-0.0","task_version":"screening-prolific","missing":false,"accuracy":1},{"contexts":["red","green","blue"],"outcomes":[1,1,0],"key":38,"choice":1,"rt":308.9649999747053,"outcome":1,"trial":57,"correct":1,"trial_type":"three-arm-trial","trial_index":66,"time_elapsed":613085,"internal_node_id":"0.0-63.0-0.0","task_version":"screening-prolific","missing":false,"accuracy":1},{"contexts":["red","green","blue"],"outcomes":[0,1,0],"key":38,"choice":1,"rt":388.02499999292195,"outcome":1,"trial":58,"correct":1,"trial_type":"three-arm-trial","trial_index":67,"time_elapsed":614681,"internal_node_id":"0.0-64.0-0.0","task_version":"screening-prolific","missing":false,"accuracy":1},{"contexts":["red","green","blue"],"outcomes":[0,1,1],"key":38,"choice":1,"rt":233.28499996569008,"outcome":1,"trial":59,"correct":1,"trial_type":"three-arm-trial","trial_index":68,"time_elapsed":616136,"internal_node_id":"0.0-65.0-0.0","task_version":"screening-prolific","missing":false,"accuracy":1},{"contexts":["red","green","blue"],"outcomes":[0,0,1],"key":38,"choice":1,"rt":227.4749999633059,"outcome":0,"trial":60,"correct":1,"trial_type":"three-arm-trial","trial_index":69,"time_elapsed":617575,"internal_node_id":"0.0-66.0-0.0","task_version":"screening-prolific","missing":false,"accuracy":1},{"contexts":["red","green","blue"],"outcomes":[0,0,1],"key":38,"choice":1,"rt":424.50999992433935,"outcome":0,"trial":61,"correct":2,"trial_type":"three-arm-trial","trial_index":70,"time_elapsed":619210,"internal_node_id":"0.0-67.0-0.0","task_version":"screening-prolific","missing":false,"accuracy":0},{"contexts":["red","green","blue"],"outcomes":[0,0,1],"key":37,"choice":0,"rt":1240.1250000111759,"outcome":0,"trial":62,"correct":2,"trial_type":"three-arm-trial","trial_index":71,"time_elapsed":621657,"internal_node_id":"0.0-68.0-0.0","task_version":"screening-prolific","missing":false,"accuracy":0},{"contexts":["red","green","blue"],"outcomes":[0,0,1],"key":37,"choice":0,"rt":423.82000002544373,"outcome":0,"trial":63,"correct":2,"trial_type":"three-arm-trial","trial_index":72,"time_elapsed":623291,"internal_node_id":"0.0-69.0-0.0","task_version":"screening-prolific","missing":false,"accuracy":0},{"contexts":["red","green","blue"],"outcomes":[0,0,1],"key":39,"choice":2,"rt":1091.2399999797344,"outcome":1,"trial":64,"correct":2,"trial_type":"three-arm-trial","trial_index":73,"time_elapsed":625600,"internal_node_id":"0.0-70.0-0.0","task_version":"screening-prolific","missing":false,"accuracy":1},{"contexts":["red","green","blue"],"outcomes":[0,0,1],"key":39,"choice":2,"rt":8.880000095814466,"outcome":1,"trial":65,"correct":2,"trial_type":"three-arm-trial","trial_index":74,"time_elapsed":626818,"internal_node_id":"0.0-71.0-0.0","task_version":"screening-prolific","missing":false,"accuracy":1},{"contexts":["red","green","blue"],"outcomes":[0,0,1],"key":39,"choice":2,"rt":403.28999992925674,"outcome":1,"trial":66,"correct":2,"trial_type":"three-arm-trial","trial_index":75,"time_elapsed":628434,"internal_node_id":"0.0-72.0-0.0","task_version":"screening-prolific","missing":false,"accuracy":1},{"contexts":["red","green","blue"],"outcomes":[0,0,1],"key":39,"choice":2,"rt":170.44999997597188,"outcome":1,"trial":67,"correct":2,"trial_type":"three-arm-trial","trial_index":76,"time_elapsed":629816,"internal_node_id":"0.0-73.0-0.0","task_version":"screening-prolific","missing":false,"accuracy":1},{"contexts":["red","green","blue"],"outcomes":[0,0,1],"key":39,"choice":2,"rt":1320.259999949485,"outcome":1,"trial":68,"correct":2,"trial_type":"three-arm-trial","trial_index":77,"time_elapsed":632348,"internal_node_id":"0.0-74.0-0.0","task_version":"screening-prolific","missing":false,"accuracy":1},{"contexts":["red","green","blue"],"outcomes":[0,1,1],"key":39,"choice":2,"rt":138.22999992407858,"outcome":1,"trial":69,"correct":2,"trial_type":"three-arm-trial","trial_index":78,"time_elapsed":633699,"internal_node_id":"0.0-75.0-0.0","task_version":"screening-prolific","missing":false,"accuracy":1},{"contexts":["red","green","blue"],"outcomes":[0,0,0],"key":39,"choice":2,"rt":21.40500000678003,"outcome":0,"trial":70,"correct":2,"trial_type":"three-arm-trial","trial_index":79,"time_elapsed":634932,"internal_node_id":"0.0-76.0-0.0","task_version":"screening-prolific","missing":false,"accuracy":1},{"contexts":["red","green","blue"],"outcomes":[0,0,1],"key":39,"choice":2,"rt":737.0400000363588,"outcome":1,"trial":71,"correct":2,"trial_type":"three-arm-trial","trial_index":80,"time_elapsed":636882,"internal_node_id":"0.0-77.0-0.0","task_version":"screening-prolific","missing":false,"accuracy":1},{"contexts":["red","green","blue"],"outcomes":[0,0,0],"key":39,"choice":2,"rt":414.36000005342066,"outcome":0,"trial":72,"correct":2,"trial_type":"three-arm-trial","trial_index":81,"time_elapsed":638508,"internal_node_id":"0.0-78.0-0.0","task_version":"screening-prolific","missing":false,"accuracy":1},{"contexts":["red","green","blue"],"outcomes":[0,0,1],"key":39,"choice":2,"rt":439.04500000644475,"outcome":1,"trial":73,"correct":2,"trial_type":"three-arm-trial","trial_index":82,"time_elapsed":640154,"internal_node_id":"0.0-79.0-0.0","task_version":"screening-prolific","missing":false,"accuracy":1},{"contexts":["red","green","blue"],"outcomes":[0,0,1],"key":39,"choice":2,"rt":382.63999996706843,"outcome":1,"trial":74,"correct":2,"trial_type":"three-arm-trial","trial_index":83,"time_elapsed":641748,"internal_node_id":"0.0-80.0-0.0","task_version":"screening-prolific","missing":false,"accuracy":1},{"contexts":["red","green","blue"],"outcomes":[0,0,1],"key":39,"choice":2,"rt":398.47999997437,"outcome":1,"trial":75,"correct":2,"trial_type":"three-arm-trial","trial_index":84,"time_elapsed":643365,"internal_node_id":"0.0-81.0-0.0","task_version":"screening-prolific","missing":false,"accuracy":1},{"contexts":["red","green","blue"],"outcomes":[0,1,0],"key":39,"choice":2,"rt":20.769999944604933,"outcome":0,"trial":76,"correct":1,"trial_type":"three-arm-trial","trial_index":85,"time_elapsed":644599,"internal_node_id":"0.0-82.0-0.0","task_version":"screening-prolific","missing":false,"accuracy":0},{"contexts":["red","green","blue"],"outcomes":[1,0,0],"key":39,"choice":2,"rt":819.4099999964237,"outcome":0,"trial":77,"correct":1,"trial_type":"three-arm-trial","trial_index":86,"time_elapsed":646633,"internal_node_id":"0.0-83.0-0.0","task_version":"screening-prolific","missing":false,"accuracy":0},{"contexts":["red","green","blue"],"outcomes":[0,1,0],"key":38,"choice":1,"rt":883.6450000526384,"outcome":1,"trial":78,"correct":1,"trial_type":"three-arm-trial","trial_index":87,"time_elapsed":648732,"internal_node_id":"0.0-84.0-0.0","task_version":"screening-prolific","missing":false,"accuracy":1},{"contexts":["red","green","blue"],"outcomes":[0,1,0],"key":38,"choice":1,"rt":421.36999999638647,"outcome":1,"trial":79,"correct":1,"trial_type":"three-arm-trial","trial_index":88,"time_elapsed":650366,"internal_node_id":"0.0-85.0-0.0","task_version":"screening-prolific","missing":false,"accuracy":1},{"contexts":["red","green","blue"],"outcomes":[1,1,0],"key":38,"choice":1,"rt":263.6550000170246,"outcome":1,"trial":80,"correct":1,"trial_type":"three-arm-trial","trial_index":89,"time_elapsed":651839,"internal_node_id":"0.0-86.0-0.0","task_version":"screening-prolific","missing":false,"accuracy":1},{"contexts":["red","green","blue"],"outcomes":[0,1,0],"key":38,"choice":1,"rt":362.96499997843057,"outcome":1,"trial":81,"correct":1,"trial_type":"three-arm-trial","trial_index":90,"time_elapsed":653416,"internal_node_id":"0.0-87.0-0.0","task_version":"screening-prolific","missing":false,"accuracy":1},{"contexts":["red","green","blue"],"outcomes":[1,1,1],"key":38,"choice":1,"rt":114.61999989114702,"outcome":1,"trial":82,"correct":1,"trial_type":"three-arm-trial","trial_index":91,"time_elapsed":654739,"internal_node_id":"0.0-88.0-0.0","task_version":"screening-prolific","missing":false,"accuracy":1},{"contexts":["red","green","blue"],"outcomes":[0,1,1],"key":38,"choice":1,"rt":224.50000001117587,"outcome":1,"trial":83,"correct":1,"trial_type":"three-arm-trial","trial_index":92,"time_elapsed":656172,"internal_node_id":"0.0-89.0-0.0","task_version":"screening-prolific","missing":false,"accuracy":1},{"contexts":["red","green","blue"],"outcomes":[0,1,0],"key":38,"choice":1,"rt":0.49999996554106474,"outcome":1,"trial":84,"correct":1,"trial_type":"three-arm-trial","trial_index":93,"time_elapsed":657382,"internal_node_id":"0.0-90.0-0.0","task_version":"screening-prolific","missing":false,"accuracy":1},{"contexts":["red","green","blue"],"outcomes":[0,1,0],"key":38,"choice":1,"rt":220.46500002034009,"outcome":1,"trial":85,"correct":1,"trial_type":"three-arm-trial","trial_index":94,"time_elapsed":658816,"internal_node_id":"0.0-91.0-0.0","task_version":"screening-prolific","missing":false,"accuracy":1},{"contexts":["red","green","blue"],"outcomes":[0,1,0],"key":38,"choice":1,"rt":320.62500005122274,"outcome":1,"trial":86,"correct":1,"trial_type":"three-arm-trial","trial_index":95,"time_elapsed":660349,"internal_node_id":"0.0-92.0-0.0","task_version":"screening-prolific","missing":false,"accuracy":1},{"contexts":["red","green","blue"],"outcomes":[1,1,0],"key":38,"choice":1,"rt":331.0649999184534,"outcome":1,"trial":87,"correct":1,"trial_type":"three-arm-trial","trial_index":96,"time_elapsed":661890,"internal_node_id":"0.0-93.0-0.0","task_version":"screening-prolific","missing":false,"accuracy":1},{"contexts":["red","green","blue"],"outcomes":[0,1,1],"key":38,"choice":1,"rt":657.4350000591949,"outcome":1,"trial":88,"correct":1,"trial_type":"three-arm-trial","trial_index":97,"time_elapsed":663757,"internal_node_id":"0.0-94.0-0.0","task_version":"screening-prolific","missing":false,"accuracy":1},{"contexts":["red","green","blue"],"outcomes":[0,1,1],"key":38,"choice":1,"rt":370.7799999974668,"outcome":1,"trial":89,"correct":1,"trial_type":"three-arm-trial","trial_index":98,"time_elapsed":665339,"internal_node_id":"0.0-95.0-0.0","task_version":"screening-prolific","missing":false,"accuracy":1},{"contexts":["red","green","blue"],"outcomes":[1,1,0],"key":38,"choice":1,"rt":412.0850000763312,"outcome":1,"trial":90,"correct":1,"trial_type":"three-arm-trial","trial_index":99,"time_elapsed":666957,"internal_node_id":"0.0-96.0-0.0","task_version":"screening-prolific","missing":false,"accuracy":1},{"rt":30746.60000007134,"responses":{"age":"37","gender-categorical":"Female","gender-free-response":"","ethnicity":"Not Hispanic or Latino","race":["White"],"language":"Yes","fluency":"Very well","mturk":"No","mturk-this-study":"No"},"survey":"demographics","trial_type":"survey-demo","trial_index":100,"time_elapsed":697729,"internal_node_id":"0.0-97.0","task_version":"screening-prolific","interactions":"[]"}]