[{"responses":{"Q02":"2","Q07":"3","Q13":"3","Q06":"3","Q11":"1","Q10":"1","Q04":"2","Q08":"2","Q12":"1","Q03":"2","Q01":"2","Q09":"1","Q05":"3"},"rt":45856.02999999901,"survey":"bisbas","trial_type":"survey-template","trial_index":0,"time_elapsed":45870,"internal_node_id":"0.0-0.0","task_version":"screening-prolific"},{"responses":{"Q01":"2","Q02":"1","Q03":"1"},"rt":6088.804999999411,"survey":"pswq","trial_type":"survey-template","trial_index":1,"time_elapsed":51971,"internal_node_id":"0.0-1.0","task_version":"screening-prolific"},{"responses":{"Q03":"2","Q05":"0","Q06":"0","Q02":"1","Q07":"1","Q01":"1","Q04":"2","Q08":"0"},"rt":21474.1099999992,"survey":"gad7","trial_type":"survey-template","trial_index":2,"time_elapsed":73454,"internal_node_id":"0.0-2.0","task_version":"screening-prolific"},{"responses":{"Q11":"1","Q12":"1","Q15":"0","Q08":"1","Q07":"2","Q13":"1","Q06":"0","Q04":"0","Q01":"0","Q03":"1","Q05":"1","Q10":"1","Q14":"0","Q09":"0","Q02":"0"},"rt":74533.18500000023,"survey":"7up7down","trial_type":"survey-template","trial_index":3,"time_elapsed":147996,"internal_node_id":"0.0-3.0","task_version":"screening-prolific"},{"responses":{"Q07":"2","Q13":"2","Q11":"2","Q05":"3","Q14":"3","Q09":"2","Q04":"3","Q10":"3","Q12":"3","Q03":"3","Q06":"2","Q08":"3","Q15":"3","Q01":"2","Q02":"3"},"rt":37090.619999999035,"survey":"shaps","trial_type":"survey-template","trial_index":4,"time_elapsed":185095,"internal_node_id":"0.0-4.0","task_version":"screening-prolific"},{"view_history":"[{\"page_index\":0,\"viewing_time\":5615.090000002965},{\"page_index\":1,\"viewing_time\":5659.990000000107},{\"page_index\":2,\"viewing_time\":8062.799999999697},{\"page_index\":3,\"viewing_time\":4576.779999999417},{\"page_index\":4,\"viewing_time\":4749.289999999746},{\"page_index\":5,\"viewing_time\":3557.3850000000675},{\"page_index\":6,\"viewing_time\":3075.8549999991374},{\"page_index\":7,\"viewing_time\":3696.350000001985}]","rt":38994.31000000186,"trial_type":"instructions","trial_index":5,"time_elapsed":224095,"internal_node_id":"0.0-5.0-0.0","task_version":"screening-prolific"},{"responses":["True","True","False","False","True"],"num_errors":0,"rt":12410.944999999629,"trial_type":"three-arm-comprehension","trial_index":6,"time_elapsed":236509,"internal_node_id":"0.0-5.0-1.0","task_version":"screening-prolific"},{"view_history":"[{\"page_index\":0,\"viewing_time\":1619.2100000007486}]","rt":1619.4399999985762,"trial_type":"instructions","trial_index":7,"time_elapsed":238137,"internal_node_id":"0.0-6.0","task_version":"screening-prolific"},{"contexts":["green","red","blue"],"outcomes":[1,0,0],"key":37,"choice":0,"rt":3964.5049999999173,"outcome":1,"trial":1,"correct":0,"trial_type":"three-arm-trial","trial_index":8,"time_elapsed":243305,"internal_node_id":"0.0-7.0-0.0","task_version":"screening-prolific","missing":false,"accuracy":1},{"contexts":["green","red","blue"],"outcomes":[1,0,0],"key":38,"choice":1,"rt":3401.6450000017358,"outcome":0,"trial":2,"correct":0,"trial_type":"three-arm-trial","trial_index":9,"time_elapsed":247924,"internal_node_id":"0.0-8.0-0.0","task_version":"screening-prolific","missing":false,"accuracy":0},{"contexts":["green","red","blue"],"outcomes":[1,0,0],"key":39,"choice":2,"rt":1530.9750000014901,"outcome":0,"trial":3,"correct":0,"trial_type":"three-arm-trial","trial_index":10,"time_elapsed":250673,"internal_node_id":"0.0-9.0-0.0","task_version":"screening-prolific","missing":false,"accuracy":0},{"contexts":["green","red","blue"],"outcomes":[1,1,0],"key":39,"choice":2,"rt":619.2599999994854,"outcome":0,"trial":4,"correct":0,"trial_type":"three-arm-trial","trial_index":11,"time_elapsed":252510,"internal_node_id":"0.0-10.0-0.0","task_version":"screening-prolific","missing":false,"accuracy":0},{"contexts":["green","red","blue"],"outcomes":[0,1,0],"key":38,"choice":1,"rt":362.13499999939813,"outcome":1,"trial":5,"correct":0,"trial_type":"three-arm-trial","trial_index":12,"time_elapsed":254081,"internal_node_id":"0.0-11.0-0.0","task_version":"screening-prolific","missing":false,"accuracy":0},{"contexts":["green","red","blue"],"outcomes":[1,0,0],"key":38,"choice":1,"rt":516.5799999995215,"outcome":0,"trial":6,"correct":0,"trial_type":"three-arm-trial","trial_index":13,"time_elapsed":255812,"internal_node_id":"0.0-12.0-0.0","task_version":"screening-prolific","missing":false,"accuracy":0},{"contexts":["green","red","blue"],"outcomes":[1,1,0],"key":37,"choice":0,"rt":375.42000000030384,"outcome":1,"trial":7,"correct":0,"trial_type":"three-arm-trial","trial_index":14,"time_elapsed":257402,"internal_node_id":"0.0-13.0-0.0","task_version":"screening-prolific","missing":false,"accuracy":1},{"contexts":["green","red","blue"],"outcomes":[0,0,1],"key":37,"choice":0,"rt":300.6700000005367,"outcome":0,"trial":8,"correct":0,"trial_type":"three-arm-trial","trial_index":15,"time_elapsed":258914,"internal_node_id":"0.0-14.0-0.0","task_version":"screening-prolific","missing":false,"accuracy":1},{"contexts":["green","red","blue"],"outcomes":[1,0,0],"key":39,"choice":2,"rt":465.0099999998929,"outcome":0,"trial":9,"correct":0,"trial_type":"three-arm-trial","trial_index":16,"time_elapsed":260594,"internal_node_id":"0.0-15.0-0.0","task_version":"screening-prolific","missing":false,"accuracy":0},{"contexts":["green","red","blue"],"outcomes":[0,0,0],"key":38,"choice":1,"rt":271.4449999984936,"outcome":0,"trial":10,"correct":0,"trial_type":"three-arm-trial","trial_index":17,"time_elapsed":262080,"internal_node_id":"0.0-16.0-0.0","task_version":"screening-prolific","missing":false,"accuracy":0},{"contexts":["green","red","blue"],"outcomes":[0,0,0],"key":38,"choice":1,"rt":180.84000000089873,"outcome":0,"trial":11,"correct":0,"trial_type":"three-arm-trial","trial_index":18,"time_elapsed":263470,"internal_node_id":"0.0-17.0-0.0","task_version":"screening-prolific","missing":false,"accuracy":0},{"contexts":["green","red","blue"],"outcomes":[0,0,0],"key":39,"choice":2,"rt":341.1450000021141,"outcome":0,"trial":12,"correct":0,"trial_type":"three-arm-trial","trial_index":19,"time_elapsed":265026,"internal_node_id":"0.0-18.0-0.0","task_version":"screening-prolific","missing":false,"accuracy":0},{"contexts":["green","red","blue"],"outcomes":[1,0,0],"key":37,"choice":0,"rt":335.6100000019651,"outcome":1,"trial":13,"correct":0,"trial_type":"three-arm-trial","trial_index":20,"time_elapsed":266583,"internal_node_id":"0.0-19.0-0.0","task_version":"screening-prolific","missing":false,"accuracy":1},{"contexts":["green","red","blue"],"outcomes":[1,0,0],"key":37,"choice":0,"rt":307.700000001234,"outcome":1,"trial":14,"correct":0,"trial_type":"three-arm-trial","trial_index":21,"time_elapsed":268100,"internal_node_id":"0.0-20.0-0.0","task_version":"screening-prolific","missing":false,"accuracy":1},{"contexts":["green","red","blue"],"outcomes":[1,1,0],"key":37,"choice":0,"rt":333.0000000023283,"outcome":1,"trial":15,"correct":0,"trial_type":"three-arm-trial","trial_index":22,"time_elapsed":269641,"internal_node_id":"0.0-21.0-0.0","task_version":"screening-prolific","missing":false,"accuracy":1},{"contexts":["green","red","blue"],"outcomes":[0,1,0],"key":37,"choice":0,"rt":327.89499999856343,"outcome":0,"trial":16,"correct":1,"trial_type":"three-arm-trial","trial_index":23,"time_elapsed":271183,"internal_node_id":"0.0-22.0-0.0","task_version":"screening-prolific","missing":false,"accuracy":0},{"contexts":["green","red","blue"],"outcomes":[0,1,0],"key":37,"choice":0,"rt":276.68500000069616,"outcome":0,"trial":17,"correct":1,"trial_type":"three-arm-trial","trial_index":24,"time_elapsed":272669,"internal_node_id":"0.0-23.0-0.0","task_version":"screening-prolific","missing":false,"accuracy":0},{"contexts":["green","red","blue"],"outcomes":[0,1,1],"key":38,"choice":1,"rt":304.7549999973271,"outcome":1,"trial":18,"correct":1,"trial_type":"three-arm-trial","trial_index":25,"time_elapsed":274189,"internal_node_id":"0.0-24.0-0.0","task_version":"screening-prolific","missing":false,"accuracy":1},{"contexts":["green","red","blue"],"outcomes":[0,1,0],"key":38,"choice":1,"rt":213.18500000052154,"outcome":1,"trial":19,"correct":1,"trial_type":"three-arm-trial","trial_index":26,"time_elapsed":275617,"internal_node_id":"0.0-25.0-0.0","task_version":"screening-prolific","missing":false,"accuracy":1},{"contexts":["green","red","blue"],"outcomes":[0,1,0],"key":38,"choice":1,"rt":358.43499999830965,"outcome":1,"trial":20,"correct":1,"trial_type":"three-arm-trial","trial_index":27,"time_elapsed":277191,"internal_node_id":"0.0-26.0-0.0","task_version":"screening-prolific","missing":false,"accuracy":1},{"contexts":["green","red","blue"],"outcomes":[0,1,0],"key":38,"choice":1,"rt":304.28000000026077,"outcome":1,"trial":21,"correct":1,"trial_type":"three-arm-trial","trial_index":28,"time_elapsed":278703,"internal_node_id":"0.0-27.0-0.0","task_version":"screening-prolific","missing":false,"accuracy":1},{"contexts":["green","red","blue"],"outcomes":[1,1,0],"key":38,"choice":1,"rt":379.76999999955297,"outcome":1,"trial":22,"correct":1,"trial_type":"three-arm-trial","trial_index":29,"time_elapsed":280298,"internal_node_id":"0.0-28.0-0.0","task_version":"screening-prolific","missing":false,"accuracy":1},{"contexts":["green","red","blue"],"outcomes":[1,1,1],"key":38,"choice":1,"rt":143.099999997532,"outcome":1,"trial":23,"correct":1,"trial_type":"three-arm-trial","trial_index":30,"time_elapsed":281652,"internal_node_id":"0.0-29.0-0.0","task_version":"screening-prolific","missing":false,"accuracy":1},{"contexts":["green","red","blue"],"outcomes":[0,1,0],"key":38,"choice":1,"rt":343.6699999984121,"outcome":1,"trial":24,"correct":1,"trial_type":"three-arm-trial","trial_index":31,"time_elapsed":283215,"internal_node_id":"0.0-30.0-0.0","task_version":"screening-prolific","missing":false,"accuracy":1},{"contexts":["green","red","blue"],"outcomes":[0,1,0],"key":38,"choice":1,"rt":273.26499999983935,"outcome":1,"trial":25,"correct":1,"trial_type":"three-arm-trial","trial_index":32,"time_elapsed":284696,"internal_node_id":"0.0-31.0-0.0","task_version":"screening-prolific","missing":false,"accuracy":1},{"contexts":["green","red","blue"],"outcomes":[1,1,0],"key":38,"choice":1,"rt":54.52499999955762,"outcome":1,"trial":26,"correct":1,"trial_type":"three-arm-trial","trial_index":33,"time_elapsed":285968,"internal_node_id":"0.0-32.0-0.0","task_version":"screening-prolific","missing":false,"accuracy":1},{"contexts":["green","red","blue"],"outcomes":[0,1,0],"key":38,"choice":1,"rt":607.6450000000768,"outcome":1,"trial":27,"correct":1,"trial_type":"three-arm-trial","trial_index":34,"time_elapsed":287787,"internal_node_id":"0.0-33.0-0.0","task_version":"screening-prolific","missing":false,"accuracy":1},{"contexts":["green","red","blue"],"outcomes":[0,1,0],"key":38,"choice":1,"rt":334.6799999999348,"outcome":1,"trial":28,"correct":1,"trial_type":"three-arm-trial","trial_index":35,"time_elapsed":289341,"internal_node_id":"0.0-34.0-0.0","task_version":"screening-prolific","missing":false,"accuracy":1},{"contexts":["green","red","blue"],"outcomes":[0,1,0],"key":38,"choice":1,"rt":359.22999999817694,"outcome":1,"trial":29,"correct":1,"trial_type":"three-arm-trial","trial_index":36,"time_elapsed":290919,"internal_node_id":"0.0-35.0-0.0","task_version":"screening-prolific","missing":false,"accuracy":1},{"contexts":["green","red","blue"],"outcomes":[1,1,1],"key":38,"choice":1,"rt":154.79499999858672,"outcome":1,"trial":30,"correct":1,"trial_type":"three-arm-trial","trial_index":37,"time_elapsed":292291,"internal_node_id":"0.0-36.0-0.0","task_version":"screening-prolific","missing":false,"accuracy":1},{"contexts":["green","red","blue"],"outcomes":[0,0,1],"key":38,"choice":1,"rt":481.6449999997858,"outcome":0,"trial":31,"correct":2,"trial_type":"three-arm-trial","trial_index":38,"time_elapsed":293986,"internal_node_id":"0.0-37.0-0.0","task_version":"screening-prolific","missing":false,"accuracy":0},{"contexts":["green","red","blue"],"outcomes":[0,0,0],"key":38,"choice":1,"rt":316.2000000011176,"outcome":0,"trial":32,"correct":2,"trial_type":"three-arm-trial","trial_index":39,"time_elapsed":295518,"internal_node_id":"0.0-38.0-0.0","task_version":"screening-prolific","missing":false,"accuracy":0},{"contexts":["green","red","blue"],"outcomes":[0,0,1],"key":39,"choice":2,"rt":365.1000000027125,"outcome":1,"trial":33,"correct":2,"trial_type":"three-arm-trial","trial_index":40,"time_elapsed":297098,"internal_node_id":"0.0-39.0-0.0","task_version":"screening-prolific","missing":false,"accuracy":1},{"contexts":["green","red","blue"],"outcomes":[0,0,1],"key":39,"choice":2,"rt":300.9700000002631,"outcome":1,"trial":34,"correct":2,"trial_type":"three-arm-trial","trial_index":41,"time_elapsed":298607,"internal_node_id":"0.0-40.0-0.0","task_version":"screening-prolific","missing":false,"accuracy":1},{"contexts":["green","red","blue"],"outcomes":[0,0,0],"key":39,"choice":2,"rt":364.9699999986915,"outcome":0,"trial":35,"correct":2,"trial_type":"three-arm-trial","trial_index":42,"time_elapsed":300189,"internal_node_id":"0.0-41.0-0.0","task_version":"screening-prolific","missing":false,"accuracy":1},{"contexts":["green","red","blue"],"outcomes":[0,1,1],"key":39,"choice":2,"rt":307.8849999983795,"outcome":1,"trial":36,"correct":2,"trial_type":"three-arm-trial","trial_index":43,"time_elapsed":301705,"internal_node_id":"0.0-42.0-0.0","task_version":"screening-prolific","missing":false,"accuracy":1},{"contexts":["green","red","blue"],"outcomes":[1,1,1],"key":39,"choice":2,"rt":177.40000000048894,"outcome":1,"trial":37,"correct":2,"trial_type":"three-arm-trial","trial_index":44,"time_elapsed":303100,"internal_node_id":"0.0-43.0-0.0","task_version":"screening-prolific","missing":false,"accuracy":1},{"contexts":["green","red","blue"],"outcomes":[0,1,1],"key":39,"choice":2,"rt":222.63000000017928,"outcome":1,"trial":38,"correct":2,"trial_type":"three-arm-trial","trial_index":45,"time_elapsed":304530,"internal_node_id":"0.0-44.0-0.0","task_version":"screening-prolific","missing":false,"accuracy":1},{"contexts":["green","red","blue"],"outcomes":[0,1,1],"key":39,"choice":2,"rt":147.67999999818858,"outcome":1,"trial":39,"correct":2,"trial_type":"three-arm-trial","trial_index":46,"time_elapsed":305893,"internal_node_id":"0.0-45.0-0.0","task_version":"screening-prolific","missing":false,"accuracy":1},{"contexts":["green","red","blue"],"outcomes":[0,0,1],"key":39,"choice":2,"rt":178.29499999788823,"outcome":1,"trial":40,"correct":2,"trial_type":"three-arm-trial","trial_index":47,"time_elapsed":307279,"internal_node_id":"0.0-46.0-0.0","task_version":"screening-prolific","missing":false,"accuracy":1},{"contexts":["green","red","blue"],"outcomes":[0,0,1],"key":39,"choice":2,"rt":249.32000000262633,"outcome":1,"trial":41,"correct":2,"trial_type":"three-arm-trial","trial_index":48,"time_elapsed":308745,"internal_node_id":"0.0-47.0-0.0","task_version":"screening-prolific","missing":false,"accuracy":1},{"contexts":["green","red","blue"],"outcomes":[0,0,1],"key":39,"choice":2,"rt":322.38499999954365,"outcome":1,"trial":42,"correct":2,"trial_type":"three-arm-trial","trial_index":49,"time_elapsed":310277,"internal_node_id":"0.0-48.0-0.0","task_version":"screening-prolific","missing":false,"accuracy":1},{"contexts":["green","red","blue"],"outcomes":[1,0,1],"key":39,"choice":2,"rt":372.85500000137836,"outcome":1,"trial":43,"correct":2,"trial_type":"three-arm-trial","trial_index":50,"time_elapsed":311866,"internal_node_id":"0.0-49.0-0.0","task_version":"screening-prolific","missing":false,"accuracy":1},{"contexts":["green","red","blue"],"outcomes":[0,0,1],"key":39,"choice":2,"rt":304.8349999990314,"outcome":1,"trial":44,"correct":2,"trial_type":"three-arm-trial","trial_index":51,"time_elapsed":313380,"internal_node_id":"0.0-50.0-0.0","task_version":"screening-prolific","missing":false,"accuracy":1},{"contexts":["green","red","blue"],"outcomes":[1,1,1],"key":39,"choice":2,"rt":233.895000001241,"outcome":1,"trial":45,"correct":2,"trial_type":"three-arm-trial","trial_index":52,"time_elapsed":314823,"internal_node_id":"0.0-51.0-0.0","task_version":"screening-prolific","missing":false,"accuracy":1},{"contexts":["green","red","blue"],"outcomes":[0,0,0],"key":39,"choice":2,"rt":572.920000002312,"outcome":0,"trial":46,"correct":1,"trial_type":"three-arm-trial","trial_index":53,"time_elapsed":316608,"internal_node_id":"0.0-52.0-0.0","task_version":"screening-prolific","missing":false,"accuracy":0},{"contexts":["green","red","blue"],"outcomes":[0,1,0],"key":39,"choice":2,"rt":442.22499999887077,"outcome":0,"trial":47,"correct":1,"trial_type":"three-arm-trial","trial_index":54,"time_elapsed":318262,"internal_node_id":"0.0-53.0-0.0","task_version":"screening-prolific","missing":false,"accuracy":0},{"contexts":["green","red","blue"],"outcomes":[1,1,0],"key":37,"choice":0,"rt":323.0999999977648,"outcome":1,"trial":48,"correct":1,"trial_type":"three-arm-trial","trial_index":55,"time_elapsed":319800,"internal_node_id":"0.0-54.0-0.0","task_version":"screening-prolific","missing":false,"accuracy":0},{"contexts":["green","red","blue"],"outcomes":[0,1,1],"key":37,"choice":0,"rt":299.7800000011921,"outcome":0,"trial":49,"correct":1,"trial_type":"three-arm-trial","trial_index":56,"time_elapsed":321318,"internal_node_id":"0.0-55.0-0.0","task_version":"screening-prolific","missing":false,"accuracy":0},{"contexts":["green","red","blue"],"outcomes":[0,1,0],"key":37,"choice":0,"rt":366.1499999980442,"outcome":0,"trial":50,"correct":1,"trial_type":"three-arm-trial","trial_index":57,"time_elapsed":322900,"internal_node_id":"0.0-56.0-0.0","task_version":"screening-prolific","missing":false,"accuracy":0},{"contexts":["green","red","blue"],"outcomes":[1,1,0],"key":38,"choice":1,"rt":196.8349999988568,"outcome":1,"trial":51,"correct":1,"trial_type":"three-arm-trial","trial_index":58,"time_elapsed":324305,"internal_node_id":"0.0-57.0-0.0","task_version":"screening-prolific","missing":false,"accuracy":1},{"contexts":["green","red","blue"],"outcomes":[1,0,1],"key":38,"choice":1,"rt":267.1300000002375,"outcome":0,"trial":52,"correct":1,"trial_type":"three-arm-trial","trial_index":59,"time_elapsed":325790,"internal_node_id":"0.0-58.0-0.0","task_version":"screening-prolific","missing":false,"accuracy":1},{"contexts":["green","red","blue"],"outcomes":[0,1,0],"key":38,"choice":1,"rt":162.15999999985797,"outcome":1,"trial":53,"correct":1,"trial_type":"three-arm-trial","trial_index":60,"time_elapsed":327169,"internal_node_id":"0.0-59.0-0.0","task_version":"screening-prolific","missing":false,"accuracy":1},{"contexts":["green","red","blue"],"outcomes":[0,1,0],"key":38,"choice":1,"rt":162.44999999983702,"outcome":1,"trial":54,"correct":1,"trial_type":"three-arm-trial","trial_index":61,"time_elapsed":328548,"internal_node_id":"0.0-60.0-0.0","task_version":"screening-prolific","missing":false,"accuracy":1},{"contexts":["green","red","blue"],"outcomes":[0,1,0],"key":38,"choice":1,"rt":148.35499999753665,"outcome":1,"trial":55,"correct":1,"trial_type":"three-arm-trial","trial_index":62,"time_elapsed":329913,"internal_node_id":"0.0-61.0-0.0","task_version":"screening-prolific","missing":false,"accuracy":1},{"contexts":["green","red","blue"],"outcomes":[0,1,0],"key":38,"choice":1,"rt":113.85499999957392,"outcome":1,"trial":56,"correct":1,"trial_type":"three-arm-trial","trial_index":63,"time_elapsed":331241,"internal_node_id":"0.0-62.0-0.0","task_version":"screening-prolific","missing":false,"accuracy":1},{"contexts":["green","red","blue"],"outcomes":[0,1,0],"key":38,"choice":1,"rt":254.29000000079395,"outcome":1,"trial":57,"correct":1,"trial_type":"three-arm-trial","trial_index":64,"time_elapsed":332702,"internal_node_id":"0.0-63.0-0.0","task_version":"screening-prolific","missing":false,"accuracy":1},{"contexts":["green","red","blue"],"outcomes":[0,1,0],"key":38,"choice":1,"rt":264.02999999845633,"outcome":1,"trial":58,"correct":1,"trial_type":"three-arm-trial","trial_index":65,"time_elapsed":334173,"internal_node_id":"0.0-64.0-0.0","task_version":"screening-prolific","missing":false,"accuracy":1},{"contexts":["green","red","blue"],"outcomes":[0,1,0],"key":38,"choice":1,"rt":256.53000000241445,"outcome":1,"trial":59,"correct":1,"trial_type":"three-arm-trial","trial_index":66,"time_elapsed":335640,"internal_node_id":"0.0-65.0-0.0","task_version":"screening-prolific","missing":false,"accuracy":1},{"contexts":["green","red","blue"],"outcomes":[1,1,1],"key":38,"choice":1,"rt":313.10499999747844,"outcome":1,"trial":60,"correct":1,"trial_type":"three-arm-trial","trial_index":67,"time_elapsed":337167,"internal_node_id":"0.0-66.0-0.0","task_version":"screening-prolific","missing":false,"accuracy":1},{"contexts":["green","red","blue"],"outcomes":[0,0,0],"key":38,"choice":1,"rt":387.0099999984959,"outcome":0,"trial":61,"correct":2,"trial_type":"three-arm-trial","trial_index":68,"time_elapsed":338765,"internal_node_id":"0.0-67.0-0.0","task_version":"screening-prolific","missing":false,"accuracy":0},{"contexts":["green","red","blue"],"outcomes":[0,0,1],"key":38,"choice":1,"rt":234.61500000121305,"outcome":0,"trial":62,"correct":2,"trial_type":"three-arm-trial","trial_index":69,"time_elapsed":340223,"internal_node_id":"0.0-68.0-0.0","task_version":"screening-prolific","missing":false,"accuracy":0},{"contexts":["green","red","blue"],"outcomes":[0,0,1],"key":39,"choice":2,"rt":397.320000000007,"outcome":1,"trial":63,"correct":2,"trial_type":"three-arm-trial","trial_index":70,"time_elapsed":341830,"internal_node_id":"0.0-69.0-0.0","task_version":"screening-prolific","missing":false,"accuracy":1},{"contexts":["green","red","blue"],"outcomes":[1,0,1],"key":39,"choice":2,"rt":261.28500000049826,"outcome":1,"trial":64,"correct":2,"trial_type":"three-arm-trial","trial_index":71,"time_elapsed":343308,"internal_node_id":"0.0-70.0-0.0","task_version":"screening-prolific","missing":false,"accuracy":1},{"contexts":["green","red","blue"],"outcomes":[0,0,0],"key":39,"choice":2,"rt":143.33500000066124,"outcome":0,"trial":65,"correct":2,"trial_type":"three-arm-trial","trial_index":72,"time_elapsed":344668,"internal_node_id":"0.0-71.0-0.0","task_version":"screening-prolific","missing":false,"accuracy":1},{"contexts":["green","red","blue"],"outcomes":[0,1,1],"key":39,"choice":2,"rt":286.90500000084285,"outcome":1,"trial":66,"correct":2,"trial_type":"three-arm-trial","trial_index":73,"time_elapsed":346170,"internal_node_id":"0.0-72.0-0.0","task_version":"screening-prolific","missing":false,"accuracy":1},{"contexts":["green","red","blue"],"outcomes":[0,1,0],"key":39,"choice":2,"rt":354.2249999991618,"outcome":0,"trial":67,"correct":2,"trial_type":"three-arm-trial","trial_index":74,"time_elapsed":347730,"internal_node_id":"0.0-73.0-0.0","task_version":"screening-prolific","missing":false,"accuracy":1},{"contexts":["green","red","blue"],"outcomes":[0,0,1],"key":39,"choice":2,"rt":316.0749999987893,"outcome":1,"trial":68,"correct":2,"trial_type":"three-arm-trial","trial_index":75,"time_elapsed":349255,"internal_node_id":"0.0-74.0-0.0","task_version":"screening-prolific","missing":false,"accuracy":1},{"contexts":["green","red","blue"],"outcomes":[0,0,0],"key":39,"choice":2,"rt":291.96500000031665,"outcome":0,"trial":69,"correct":2,"trial_type":"three-arm-trial","trial_index":76,"time_elapsed":350754,"internal_node_id":"0.0-75.0-0.0","task_version":"screening-prolific","missing":false,"accuracy":1},{"contexts":["green","red","blue"],"outcomes":[1,0,1],"key":39,"choice":2,"rt":392.27000000025146,"outcome":1,"trial":70,"correct":2,"trial_type":"three-arm-trial","trial_index":77,"time_elapsed":352357,"internal_node_id":"0.0-76.0-0.0","task_version":"screening-prolific","missing":false,"accuracy":1},{"contexts":["green","red","blue"],"outcomes":[0,0,1],"key":37,"choice":0,"rt":323.2549999993644,"outcome":0,"trial":71,"correct":2,"trial_type":"three-arm-trial","trial_index":78,"time_elapsed":353893,"internal_node_id":"0.0-77.0-0.0","task_version":"screening-prolific","missing":false,"accuracy":0},{"contexts":["green","red","blue"],"outcomes":[0,0,0],"key":39,"choice":2,"rt":238.8150000005844,"outcome":0,"trial":72,"correct":2,"trial_type":"three-arm-trial","trial_index":79,"time_elapsed":355345,"internal_node_id":"0.0-78.0-0.0","task_version":"screening-prolific","missing":false,"accuracy":1},{"contexts":["green","red","blue"],"outcomes":[0,0,1],"key":39,"choice":2,"rt":305.5500000009779,"outcome":1,"trial":73,"correct":2,"trial_type":"three-arm-trial","trial_index":80,"time_elapsed":356866,"internal_node_id":"0.0-79.0-0.0","task_version":"screening-prolific","missing":false,"accuracy":1},{"contexts":["green","red","blue"],"outcomes":[1,0,1],"key":39,"choice":2,"rt":311.34000000020023,"outcome":1,"trial":74,"correct":2,"trial_type":"three-arm-trial","trial_index":81,"time_elapsed":358394,"internal_node_id":"0.0-80.0-0.0","task_version":"screening-prolific","missing":false,"accuracy":1},{"contexts":["green","red","blue"],"outcomes":[0,0,0],"key":39,"choice":2,"rt":314.28999999840744,"outcome":0,"trial":75,"correct":2,"trial_type":"three-arm-trial","trial_index":82,"time_elapsed":359924,"internal_node_id":"0.0-81.0-0.0","task_version":"screening-prolific","missing":false,"accuracy":1},{"contexts":["green","red","blue"],"outcomes":[1,0,0],"key":39,"choice":2,"rt":310.075000001234,"outcome":0,"trial":76,"correct":0,"trial_type":"three-arm-trial","trial_index":83,"time_elapsed":361452,"internal_node_id":"0.0-82.0-0.0","task_version":"screening-prolific","missing":false,"accuracy":0},{"contexts":["green","red","blue"],"outcomes":[1,0,0],"key":38,"choice":1,"rt":125.4899999985355,"outcome":0,"trial":77,"correct":0,"trial_type":"three-arm-trial","trial_index":84,"time_elapsed":362793,"internal_node_id":"0.0-83.0-0.0","task_version":"screening-prolific","missing":false,"accuracy":0},{"contexts":["green","red","blue"],"outcomes":[0,1,0],"key":38,"choice":1,"rt":38.94000000221422,"outcome":1,"trial":78,"correct":0,"trial_type":"three-arm-trial","trial_index":85,"time_elapsed":364042,"internal_node_id":"0.0-84.0-0.0","task_version":"screening-prolific","missing":false,"accuracy":0},{"contexts":["green","red","blue"],"outcomes":[1,0,0],"key":38,"choice":1,"rt":193.4499999989057,"outcome":0,"trial":79,"correct":0,"trial_type":"three-arm-trial","trial_index":86,"time_elapsed":365448,"internal_node_id":"0.0-85.0-0.0","task_version":"screening-prolific","missing":false,"accuracy":0},{"contexts":["green","red","blue"],"outcomes":[1,0,0],"key":37,"choice":0,"rt":400.23999999905936,"outcome":1,"trial":80,"correct":0,"trial_type":"three-arm-trial","trial_index":87,"time_elapsed":367071,"internal_node_id":"0.0-86.0-0.0","task_version":"screening-prolific","missing":false,"accuracy":1},{"contexts":["green","red","blue"],"outcomes":[1,0,0],"key":37,"choice":0,"rt":369.50500000239117,"outcome":1,"trial":81,"correct":0,"trial_type":"three-arm-trial","trial_index":88,"time_elapsed":368653,"internal_node_id":"0.0-87.0-0.0","task_version":"screening-prolific","missing":false,"accuracy":1},{"contexts":["green","red","blue"],"outcomes":[1,0,0],"key":37,"choice":0,"rt":340.2750000022934,"outcome":1,"trial":82,"correct":0,"trial_type":"three-arm-trial","trial_index":89,"time_elapsed":370209,"internal_node_id":"0.0-88.0-0.0","task_version":"screening-prolific","missing":false,"accuracy":1},{"contexts":["green","red","blue"],"outcomes":[1,0,0],"key":37,"choice":0,"rt":377.56000000075437,"outcome":1,"trial":83,"correct":0,"trial_type":"three-arm-trial","trial_index":90,"time_elapsed":371801,"internal_node_id":"0.0-89.0-0.0","task_version":"screening-prolific","missing":false,"accuracy":1},{"contexts":["green","red","blue"],"outcomes":[1,0,0],"key":37,"choice":0,"rt":99.33000000088941,"outcome":1,"trial":84,"correct":0,"trial_type":"three-arm-trial","trial_index":91,"time_elapsed":373111,"internal_node_id":"0.0-90.0-0.0","task_version":"screening-prolific","missing":false,"accuracy":1},{"contexts":["green","red","blue"],"outcomes":[1,1,0],"key":37,"choice":0,"rt":279.64499999867985,"outcome":1,"trial":85,"correct":0,"trial_type":"three-arm-trial","trial_index":92,"time_elapsed":374598,"internal_node_id":"0.0-91.0-0.0","task_version":"screening-prolific","missing":false,"accuracy":1},{"contexts":["green","red","blue"],"outcomes":[1,0,1],"key":37,"choice":0,"rt":379.63500000111526,"outcome":1,"trial":86,"correct":0,"trial_type":"three-arm-trial","trial_index":93,"time_elapsed":376193,"internal_node_id":"0.0-92.0-0.0","task_version":"screening-prolific","missing":false,"accuracy":1},{"contexts":["green","red","blue"],"outcomes":[1,0,1],"key":37,"choice":0,"rt":303.3099999992992,"outcome":1,"trial":87,"correct":0,"trial_type":"three-arm-trial","trial_index":94,"time_elapsed":377704,"internal_node_id":"0.0-93.0-0.0","task_version":"screening-prolific","missing":false,"accuracy":1},{"contexts":["green","red","blue"],"outcomes":[1,0,0],"key":37,"choice":0,"rt":50.374999998894054,"outcome":1,"trial":88,"correct":0,"trial_type":"three-arm-trial","trial_index":95,"time_elapsed":378973,"internal_node_id":"0.0-94.0-0.0","task_version":"screening-prolific","missing":false,"accuracy":1},{"contexts":["green","red","blue"],"outcomes":[1,0,1],"key":37,"choice":0,"rt":323.6800000013318,"outcome":1,"trial":89,"correct":0,"trial_type":"three-arm-trial","trial_index":96,"time_elapsed":380506,"internal_node_id":"0.0-95.0-0.0","task_version":"screening-prolific","missing":false,"accuracy":1},{"contexts":["green","red","blue"],"outcomes":[1,0,1],"key":37,"choice":0,"rt":305.7599999992526,"outcome":1,"trial":90,"correct":0,"trial_type":"three-arm-trial","trial_index":97,"time_elapsed":382020,"internal_node_id":"0.0-96.0-0.0","task_version":"screening-prolific","missing":false,"accuracy":1},{"rt":17902.189999997092,"responses":{"age":"23","gender-categorical":"Male","gender-free-response":"","ethnicity":"Not Hispanic or Latino","race":["White"],"language":"Yes","fluency":"Very well","mturk":"No","mturk-this-study":"No"},"survey":"demographics","trial_type":"survey-demo","trial_index":98,"time_elapsed":399948,"internal_node_id":"0.0-97.0","task_version":"screening-prolific","interactions":"[]"}]