[{"responses":{"Q15":"2","Q08":"3","Q09":"3","Q05":"3","Q10":"3","Q14":"3","Q04":"3","Q12":"3","Q06":"3","Q11":"3","Q13":"3","Q03":"3","Q07":"3","Q02":"3","Q01":"3"},"rt":33700.73499999989,"survey":"shaps","trial_type":"survey-template","trial_index":0,"time_elapsed":33719,"internal_node_id":"0.0-0.0","task_version":"screening-prolific"},{"responses":{"Q05":"2","Q13":"3","Q12":"2","Q04":"3","Q03":"3","Q02":"3","Q07":"3","Q11":"3","Q09":"3","Q01":"3","Q08":"3","Q06":"3","Q10":"2"},"rt":30624.874999999978,"survey":"bisbas","trial_type":"survey-template","trial_index":1,"time_elapsed":64351,"internal_node_id":"0.0-1.0","task_version":"screening-prolific"},{"responses":{"Q03":"3","Q02":"3","Q01":"3"},"rt":4682.440000000031,"survey":"pswq","trial_type":"survey-template","trial_index":2,"time_elapsed":69039,"internal_node_id":"0.0-2.0","task_version":"screening-prolific"},{"responses":{"Q07":"2","Q01":"2","Q05":"1","Q04":"1","Q06":"1","Q08":"0","Q03":"2","Q02":"2"},"rt":13667.419999999984,"survey":"gad7","trial_type":"survey-template","trial_index":3,"time_elapsed":82713,"internal_node_id":"0.0-3.0","task_version":"screening-prolific"},{"responses":{"Q14":"1","Q11":"2","Q01":"2","Q15":"2","Q02":"1","Q05":"1","Q09":"1","Q03":"1","Q12":"1","Q04":"2","Q08":"2","Q10":"2","Q07":"2","Q06":"2","Q13":"2"},"rt":30189.9350000001,"survey":"7up7down","trial_type":"survey-template","trial_index":4,"time_elapsed":112911,"internal_node_id":"0.0-4.0","task_version":"screening-prolific"},{"view_history":"[{\"page_index\":0,\"viewing_time\":3199.7699999999313},{\"page_index\":1,\"viewing_time\":4188.740000000063},{\"page_index\":2,\"viewing_time\":3993.6649999999645},{\"page_index\":3,\"viewing_time\":2665.2549999998882},{\"page_index\":4,\"viewing_time\":2256.700000000128},{\"page_index\":5,\"viewing_time\":2054.625},{\"page_index\":6,\"viewing_time\":2036.6050000000105},{\"page_index\":7,\"viewing_time\":1891.2099999999919}]","rt":22287.284999999887,"trial_type":"instructions","trial_index":5,"time_elapsed":135203,"internal_node_id":"0.0-5.0-0.0","task_version":"screening-prolific"},{"responses":["True","True","True","True","True"],"num_errors":2,"rt":12576.72000000003,"trial_type":"three-arm-comprehension","trial_index":6,"time_elapsed":147783,"internal_node_id":"0.0-5.0-1.0","task_version":"screening-prolific"},{"view_history":"[{\"page_index\":0,\"viewing_time\":1563.859999999957},{\"page_index\":1,\"viewing_time\":1393.2700000000477},{\"page_index\":2,\"viewing_time\":1011.0300000001153},{\"page_index\":3,\"viewing_time\":864.5599999999686},{\"page_index\":4,\"viewing_time\":3674.2600000000093},{\"page_index\":5,\"viewing_time\":1002.4099999998289},{\"page_index\":6,\"viewing_time\":750.8150000000896},{\"page_index\":7,\"viewing_time\":676.5450000000419}]","rt":10937.19000000009,"trial_type":"instructions","trial_index":7,"time_elapsed":158729,"internal_node_id":"0.0-5.1-0.1","task_version":"screening-prolific"},{"responses":["True","True","False","False","True"],"num_errors":0,"rt":16580.810000000143,"trial_type":"three-arm-comprehension","trial_index":8,"time_elapsed":175312,"internal_node_id":"0.0-5.1-1.1","task_version":"screening-prolific"},{"view_history":"[{\"page_index\":0,\"viewing_time\":1280.8049999998766}]","rt":1281.189999999915,"trial_type":"instructions","trial_index":9,"time_elapsed":176599,"internal_node_id":"0.0-6.0","task_version":"screening-prolific"},{"contexts":["blue","green","red"],"outcomes":[0,1,0],"key":38,"choice":1,"rt":4419.47000000003,"outcome":1,"trial":1,"correct":1,"trial_type":"three-arm-trial","trial_index":10,"time_elapsed":182221,"internal_node_id":"0.0-7.0-0.0","task_version":"screening-prolific","missing":false,"accuracy":1},{"contexts":["blue","green","red"],"outcomes":[0,1,0],"key":37,"choice":0,"rt":1034.6550000001735,"outcome":0,"trial":2,"correct":1,"trial_type":"three-arm-trial","trial_index":11,"time_elapsed":184464,"internal_node_id":"0.0-8.0-0.0","task_version":"screening-prolific","missing":false,"accuracy":0},{"contexts":["blue","green","red"],"outcomes":[0,0,0],"key":38,"choice":1,"rt":415.9399999998568,"outcome":0,"trial":3,"correct":1,"trial_type":"three-arm-trial","trial_index":12,"time_elapsed":186085,"internal_node_id":"0.0-9.0-0.0","task_version":"screening-prolific","missing":false,"accuracy":1},{"contexts":["blue","green","red"],"outcomes":[1,0,0],"key":39,"choice":2,"rt":117.68499999993946,"outcome":0,"trial":4,"correct":1,"trial_type":"three-arm-trial","trial_index":13,"time_elapsed":187408,"internal_node_id":"0.0-10.0-0.0","task_version":"screening-prolific","missing":false,"accuracy":0},{"contexts":["blue","green","red"],"outcomes":[1,1,0],"key":38,"choice":1,"rt":470.67500000001746,"outcome":1,"trial":5,"correct":1,"trial_type":"three-arm-trial","trial_index":14,"time_elapsed":189088,"internal_node_id":"0.0-11.0-0.0","task_version":"screening-prolific","missing":false,"accuracy":1},{"contexts":["blue","green","red"],"outcomes":[0,1,1],"key":38,"choice":1,"rt":8.440000000060536,"outcome":1,"trial":6,"correct":1,"trial_type":"three-arm-trial","trial_index":15,"time_elapsed":190304,"internal_node_id":"0.0-12.0-0.0","task_version":"screening-prolific","missing":false,"accuracy":1},{"contexts":["blue","green","red"],"outcomes":[0,0,0],"key":38,"choice":1,"rt":526.8249999999243,"outcome":0,"trial":7,"correct":1,"trial_type":"three-arm-trial","trial_index":16,"time_elapsed":192037,"internal_node_id":"0.0-13.0-0.0","task_version":"screening-prolific","missing":false,"accuracy":1},{"contexts":["blue","green","red"],"outcomes":[0,1,0],"key":37,"choice":0,"rt":18.064999999973224,"outcome":0,"trial":8,"correct":1,"trial_type":"three-arm-trial","trial_index":17,"time_elapsed":193264,"internal_node_id":"0.0-14.0-0.0","task_version":"screening-prolific","missing":false,"accuracy":0},{"contexts":["blue","green","red"],"outcomes":[0,1,0],"key":39,"choice":2,"rt":347.24500000016997,"outcome":0,"trial":9,"correct":1,"trial_type":"three-arm-trial","trial_index":18,"time_elapsed":194819,"internal_node_id":"0.0-15.0-0.0","task_version":"screening-prolific","missing":false,"accuracy":0},{"contexts":["blue","green","red"],"outcomes":[0,1,0],"key":38,"choice":1,"rt":80.12000000008265,"outcome":1,"trial":10,"correct":1,"trial_type":"three-arm-trial","trial_index":19,"time_elapsed":196104,"internal_node_id":"0.0-16.0-0.0","task_version":"screening-prolific","missing":false,"accuracy":1},{"contexts":["blue","green","red"],"outcomes":[0,0,0],"key":38,"choice":1,"rt":1269.1449999999895,"outcome":0,"trial":11,"correct":1,"trial_type":"three-arm-trial","trial_index":20,"time_elapsed":198581,"internal_node_id":"0.0-17.0-0.0","task_version":"screening-prolific","missing":false,"accuracy":1},{"contexts":["blue","green","red"],"outcomes":[0,1,0],"key":39,"choice":2,"rt":383.15499999999884,"outcome":0,"trial":12,"correct":1,"trial_type":"three-arm-trial","trial_index":21,"time_elapsed":200171,"internal_node_id":"0.0-18.0-0.0","task_version":"screening-prolific","missing":false,"accuracy":0},{"contexts":["blue","green","red"],"outcomes":[1,1,0],"key":37,"choice":0,"rt":261.7949999998964,"outcome":1,"trial":13,"correct":1,"trial_type":"three-arm-trial","trial_index":22,"time_elapsed":201639,"internal_node_id":"0.0-19.0-0.0","task_version":"screening-prolific","missing":false,"accuracy":0},{"contexts":["blue","green","red"],"outcomes":[1,1,0],"key":37,"choice":0,"rt":318.7150000001129,"outcome":1,"trial":14,"correct":1,"trial_type":"three-arm-trial","trial_index":23,"time_elapsed":203166,"internal_node_id":"0.0-20.0-0.0","task_version":"screening-prolific","missing":false,"accuracy":0},{"contexts":["blue","green","red"],"outcomes":[1,1,1],"key":37,"choice":0,"rt":333.3199999999488,"outcome":1,"trial":15,"correct":1,"trial_type":"three-arm-trial","trial_index":24,"time_elapsed":204709,"internal_node_id":"0.0-21.0-0.0","task_version":"screening-prolific","missing":false,"accuracy":0},{"contexts":["blue","green","red"],"outcomes":[1,1,1],"key":37,"choice":0,"rt":23.654999999969732,"outcome":1,"trial":16,"correct":0,"trial_type":"three-arm-trial","trial_index":25,"time_elapsed":205938,"internal_node_id":"0.0-22.0-0.0","task_version":"screening-prolific","missing":false,"accuracy":1},{"contexts":["blue","green","red"],"outcomes":[1,0,0],"key":37,"choice":0,"rt":88.67000000007101,"outcome":1,"trial":17,"correct":0,"trial_type":"three-arm-trial","trial_index":26,"time_elapsed":207235,"internal_node_id":"0.0-23.0-0.0","task_version":"screening-prolific","missing":false,"accuracy":1},{"contexts":["blue","green","red"],"outcomes":[1,0,0],"key":38,"choice":1,"rt":682.5449999998964,"outcome":0,"trial":18,"correct":0,"trial_type":"three-arm-trial","trial_index":27,"time_elapsed":209126,"internal_node_id":"0.0-24.0-0.0","task_version":"screening-prolific","missing":false,"accuracy":0},{"contexts":["blue","green","red"],"outcomes":[1,0,0],"key":37,"choice":0,"rt":111.19000000008964,"outcome":1,"trial":19,"correct":0,"trial_type":"three-arm-trial","trial_index":28,"time_elapsed":210443,"internal_node_id":"0.0-25.0-0.0","task_version":"screening-prolific","missing":false,"accuracy":1},{"contexts":["blue","green","red"],"outcomes":[1,0,0],"key":37,"choice":0,"rt":154.06499999994412,"outcome":1,"trial":20,"correct":0,"trial_type":"three-arm-trial","trial_index":29,"time_elapsed":211802,"internal_node_id":"0.0-26.0-0.0","task_version":"screening-prolific","missing":false,"accuracy":1},{"contexts":["blue","green","red"],"outcomes":[1,0,0],"key":37,"choice":0,"rt":268.6149999999616,"outcome":1,"trial":21,"correct":0,"trial_type":"three-arm-trial","trial_index":30,"time_elapsed":213278,"internal_node_id":"0.0-27.0-0.0","task_version":"screening-prolific","missing":false,"accuracy":1},{"contexts":["blue","green","red"],"outcomes":[1,0,0],"key":37,"choice":0,"rt":128.02000000010594,"outcome":1,"trial":22,"correct":0,"trial_type":"three-arm-trial","trial_index":31,"time_elapsed":214612,"internal_node_id":"0.0-28.0-0.0","task_version":"screening-prolific","missing":false,"accuracy":1},{"contexts":["blue","green","red"],"outcomes":[1,1,0],"key":37,"choice":0,"rt":616.5750000000116,"outcome":1,"trial":23,"correct":0,"trial_type":"three-arm-trial","trial_index":32,"time_elapsed":216436,"internal_node_id":"0.0-29.0-0.0","task_version":"screening-prolific","missing":false,"accuracy":1},{"contexts":["blue","green","red"],"outcomes":[1,1,0],"key":37,"choice":0,"rt":213.2500000000291,"outcome":1,"trial":24,"correct":0,"trial_type":"three-arm-trial","trial_index":33,"time_elapsed":217857,"internal_node_id":"0.0-30.0-0.0","task_version":"screening-prolific","missing":false,"accuracy":1},{"contexts":["blue","green","red"],"outcomes":[0,0,0],"key":37,"choice":0,"rt":114.38999999995576,"outcome":0,"trial":25,"correct":0,"trial_type":"three-arm-trial","trial_index":34,"time_elapsed":219180,"internal_node_id":"0.0-31.0-0.0","task_version":"screening-prolific","missing":false,"accuracy":1},{"contexts":["blue","green","red"],"outcomes":[0,0,0],"key":39,"choice":2,"rt":26.14999999993597,"outcome":0,"trial":26,"correct":0,"trial_type":"three-arm-trial","trial_index":35,"time_elapsed":220413,"internal_node_id":"0.0-32.0-0.0","task_version":"screening-prolific","missing":false,"accuracy":0},{"contexts":["blue","green","red"],"outcomes":[1,0,0],"key":38,"choice":1,"rt":345.5600000002014,"outcome":0,"trial":27,"correct":0,"trial_type":"three-arm-trial","trial_index":36,"time_elapsed":221966,"internal_node_id":"0.0-33.0-0.0","task_version":"screening-prolific","missing":false,"accuracy":0},{"contexts":["blue","green","red"],"outcomes":[1,0,1],"key":37,"choice":0,"rt":244.80999999991036,"outcome":1,"trial":28,"correct":0,"trial_type":"three-arm-trial","trial_index":37,"time_elapsed":223416,"internal_node_id":"0.0-34.0-0.0","task_version":"screening-prolific","missing":false,"accuracy":1},{"contexts":["blue","green","red"],"outcomes":[1,0,0],"key":37,"choice":0,"rt":175.82500000004075,"outcome":1,"trial":29,"correct":0,"trial_type":"three-arm-trial","trial_index":38,"time_elapsed":224798,"internal_node_id":"0.0-35.0-0.0","task_version":"screening-prolific","missing":false,"accuracy":1},{"contexts":["blue","green","red"],"outcomes":[0,0,0],"key":37,"choice":0,"rt":982.4599999999336,"outcome":0,"trial":30,"correct":0,"trial_type":"three-arm-trial","trial_index":39,"time_elapsed":226986,"internal_node_id":"0.0-36.0-0.0","task_version":"screening-prolific","missing":false,"accuracy":1},{"contexts":["blue","green","red"],"outcomes":[0,0,1],"key":38,"choice":1,"rt":183.7499999999418,"outcome":0,"trial":31,"correct":1,"trial_type":"three-arm-trial","trial_index":40,"time_elapsed":228377,"internal_node_id":"0.0-37.0-0.0","task_version":"screening-prolific","missing":false,"accuracy":1},{"contexts":["blue","green","red"],"outcomes":[0,1,0],"key":39,"choice":2,"rt":133.18000000002212,"outcome":0,"trial":32,"correct":1,"trial_type":"three-arm-trial","trial_index":41,"time_elapsed":229721,"internal_node_id":"0.0-38.0-0.0","task_version":"screening-prolific","missing":false,"accuracy":0},{"contexts":["blue","green","red"],"outcomes":[1,1,0],"key":37,"choice":0,"rt":194.3750000000291,"outcome":1,"trial":33,"correct":1,"trial_type":"three-arm-trial","trial_index":42,"time_elapsed":231121,"internal_node_id":"0.0-39.0-0.0","task_version":"screening-prolific","missing":false,"accuracy":0},{"contexts":["blue","green","red"],"outcomes":[0,0,0],"key":37,"choice":0,"rt":126.86499999993248,"outcome":0,"trial":34,"correct":1,"trial_type":"three-arm-trial","trial_index":43,"time_elapsed":232457,"internal_node_id":"0.0-40.0-0.0","task_version":"screening-prolific","missing":false,"accuracy":0},{"contexts":["blue","green","red"],"outcomes":[1,1,0],"key":38,"choice":1,"rt":206.90499999999884,"outcome":1,"trial":35,"correct":1,"trial_type":"three-arm-trial","trial_index":44,"time_elapsed":233870,"internal_node_id":"0.0-41.0-0.0","task_version":"screening-prolific","missing":false,"accuracy":1},{"contexts":["blue","green","red"],"outcomes":[0,1,1],"key":38,"choice":1,"rt":113.83499999987544,"outcome":1,"trial":36,"correct":1,"trial_type":"three-arm-trial","trial_index":45,"time_elapsed":235189,"internal_node_id":"0.0-42.0-0.0","task_version":"screening-prolific","missing":false,"accuracy":1},{"contexts":["blue","green","red"],"outcomes":[0,1,1],"key":38,"choice":1,"rt":30.5199999998149,"outcome":1,"trial":37,"correct":1,"trial_type":"three-arm-trial","trial_index":46,"time_elapsed":236425,"internal_node_id":"0.0-43.0-0.0","task_version":"screening-prolific","missing":false,"accuracy":1},{"contexts":["blue","green","red"],"outcomes":[1,1,0],"key":38,"choice":1,"rt":203.28000000017346,"outcome":1,"trial":38,"correct":1,"trial_type":"three-arm-trial","trial_index":47,"time_elapsed":237835,"internal_node_id":"0.0-44.0-0.0","task_version":"screening-prolific","missing":false,"accuracy":1},{"contexts":["blue","green","red"],"outcomes":[0,1,0],"key":38,"choice":1,"rt":272.1499999999942,"outcome":1,"trial":39,"correct":1,"trial_type":"three-arm-trial","trial_index":48,"time_elapsed":239316,"internal_node_id":"0.0-45.0-0.0","task_version":"screening-prolific","missing":false,"accuracy":1},{"contexts":["blue","green","red"],"outcomes":[0,1,0],"key":38,"choice":1,"rt":267.20999999999185,"outcome":1,"trial":40,"correct":1,"trial_type":"three-arm-trial","trial_index":49,"time_elapsed":240792,"internal_node_id":"0.0-46.0-0.0","task_version":"screening-prolific","missing":false,"accuracy":1},{"contexts":["blue","green","red"],"outcomes":[0,1,0],"key":38,"choice":1,"rt":186.57500000018626,"outcome":1,"trial":41,"correct":1,"trial_type":"three-arm-trial","trial_index":50,"time_elapsed":242185,"internal_node_id":"0.0-47.0-0.0","task_version":"screening-prolific","missing":false,"accuracy":1},{"contexts":["blue","green","red"],"outcomes":[0,1,0],"key":38,"choice":1,"rt":84.34499999997206,"outcome":1,"trial":42,"correct":1,"trial_type":"three-arm-trial","trial_index":51,"time_elapsed":243477,"internal_node_id":"0.0-48.0-0.0","task_version":"screening-prolific","missing":false,"accuracy":1},{"contexts":["blue","green","red"],"outcomes":[1,1,0],"key":38,"choice":1,"rt":234.27999999988242,"outcome":1,"trial":43,"correct":1,"trial_type":"three-arm-trial","trial_index":52,"time_elapsed":244918,"internal_node_id":"0.0-49.0-0.0","task_version":"screening-prolific","missing":false,"accuracy":1},{"contexts":["blue","green","red"],"outcomes":[1,1,0],"key":38,"choice":1,"rt":208.59500000005937,"outcome":1,"trial":44,"correct":1,"trial_type":"three-arm-trial","trial_index":53,"time_elapsed":246337,"internal_node_id":"0.0-50.0-0.0","task_version":"screening-prolific","missing":false,"accuracy":1},{"contexts":["blue","green","red"],"outcomes":[0,1,0],"key":38,"choice":1,"rt":244.06999999994878,"outcome":1,"trial":45,"correct":1,"trial_type":"three-arm-trial","trial_index":54,"time_elapsed":247790,"internal_node_id":"0.0-51.0-0.0","task_version":"screening-prolific","missing":false,"accuracy":1},{"contexts":["blue","green","red"],"outcomes":[0,0,1],"key":38,"choice":1,"rt":530.9250000000466,"outcome":0,"trial":46,"correct":2,"trial_type":"three-arm-trial","trial_index":55,"time_elapsed":249529,"internal_node_id":"0.0-52.0-0.0","task_version":"screening-prolific","missing":false,"accuracy":0},{"contexts":["blue","green","red"],"outcomes":[0,0,1],"key":37,"choice":0,"rt":195.00500000003376,"outcome":0,"trial":47,"correct":2,"trial_type":"three-arm-trial","trial_index":56,"time_elapsed":250931,"internal_node_id":"0.0-53.0-0.0","task_version":"screening-prolific","missing":false,"accuracy":0},{"contexts":["blue","green","red"],"outcomes":[0,0,1],"key":39,"choice":2,"rt":402.6499999999942,"outcome":1,"trial":48,"correct":2,"trial_type":"three-arm-trial","trial_index":57,"time_elapsed":252542,"internal_node_id":"0.0-54.0-0.0","task_version":"screening-prolific","missing":false,"accuracy":1},{"contexts":["blue","green","red"],"outcomes":[0,0,1],"key":39,"choice":2,"rt":11.845000000001164,"outcome":1,"trial":49,"correct":2,"trial_type":"three-arm-trial","trial_index":58,"time_elapsed":253761,"internal_node_id":"0.0-55.0-0.0","task_version":"screening-prolific","missing":false,"accuracy":1},{"contexts":["blue","green","red"],"outcomes":[0,0,0],"key":39,"choice":2,"rt":431.43000000010943,"outcome":0,"trial":50,"correct":2,"trial_type":"three-arm-trial","trial_index":59,"time_elapsed":255401,"internal_node_id":"0.0-56.0-0.0","task_version":"screening-prolific","missing":false,"accuracy":1},{"contexts":["blue","green","red"],"outcomes":[1,0,1],"key":37,"choice":0,"rt":0.19500000006519258,"outcome":1,"trial":51,"correct":2,"trial_type":"three-arm-trial","trial_index":60,"time_elapsed":256607,"internal_node_id":"0.0-57.0-0.0","task_version":"screening-prolific","missing":false,"accuracy":0},{"contexts":["blue","green","red"],"outcomes":[0,0,1],"key":37,"choice":0,"rt":120.76999999998952,"outcome":0,"trial":52,"correct":2,"trial_type":"three-arm-trial","trial_index":61,"time_elapsed":257932,"internal_node_id":"0.0-58.0-0.0","task_version":"screening-prolific","missing":false,"accuracy":0},{"contexts":["blue","green","red"],"outcomes":[0,0,0],"key":38,"choice":1,"rt":342.00499999997555,"outcome":0,"trial":53,"correct":2,"trial_type":"three-arm-trial","trial_index":62,"time_elapsed":259484,"internal_node_id":"0.0-59.0-0.0","task_version":"screening-prolific","missing":false,"accuracy":0},{"contexts":["blue","green","red"],"outcomes":[0,0,1],"key":38,"choice":1,"rt":50.15000000002328,"outcome":0,"trial":54,"correct":2,"trial_type":"three-arm-trial","trial_index":63,"time_elapsed":260741,"internal_node_id":"0.0-60.0-0.0","task_version":"screening-prolific","missing":false,"accuracy":0},{"contexts":["blue","green","red"],"outcomes":[0,0,0],"key":37,"choice":0,"rt":45.18000000010943,"outcome":0,"trial":55,"correct":2,"trial_type":"three-arm-trial","trial_index":64,"time_elapsed":261993,"internal_node_id":"0.0-61.0-0.0","task_version":"screening-prolific","missing":false,"accuracy":0},{"contexts":["blue","green","red"],"outcomes":[0,0,1],"key":39,"choice":2,"rt":89.2400000000489,"outcome":1,"trial":56,"correct":2,"trial_type":"three-arm-trial","trial_index":65,"time_elapsed":263292,"internal_node_id":"0.0-62.0-0.0","task_version":"screening-prolific","missing":false,"accuracy":1},{"contexts":["blue","green","red"],"outcomes":[0,1,1],"key":39,"choice":2,"rt":89.52500000008149,"outcome":1,"trial":57,"correct":2,"trial_type":"three-arm-trial","trial_index":66,"time_elapsed":264587,"internal_node_id":"0.0-63.0-0.0","task_version":"screening-prolific","missing":false,"accuracy":1},{"contexts":["blue","green","red"],"outcomes":[0,0,1],"key":39,"choice":2,"rt":32.405000000144355,"outcome":1,"trial":58,"correct":2,"trial_type":"three-arm-trial","trial_index":67,"time_elapsed":265826,"internal_node_id":"0.0-64.0-0.0","task_version":"screening-prolific","missing":false,"accuracy":1},{"contexts":["blue","green","red"],"outcomes":[0,0,0],"key":39,"choice":2,"rt":527.2649999999558,"outcome":0,"trial":59,"correct":2,"trial_type":"three-arm-trial","trial_index":68,"time_elapsed":267560,"internal_node_id":"0.0-65.0-0.0","task_version":"screening-prolific","missing":false,"accuracy":1},{"contexts":["blue","green","red"],"outcomes":[0,1,0],"key":38,"choice":1,"rt":43.73000000009779,"outcome":1,"trial":60,"correct":2,"trial_type":"three-arm-trial","trial_index":69,"time_elapsed":268811,"internal_node_id":"0.0-66.0-0.0","task_version":"screening-prolific","missing":false,"accuracy":0},{"contexts":["blue","green","red"],"outcomes":[1,1,0],"key":38,"choice":1,"rt":603.2000000000116,"outcome":1,"trial":61,"correct":0,"trial_type":"three-arm-trial","trial_index":70,"time_elapsed":270622,"internal_node_id":"0.0-67.0-0.0","task_version":"screening-prolific","missing":false,"accuracy":0},{"contexts":["blue","green","red"],"outcomes":[1,0,0],"key":38,"choice":1,"rt":250.8299999999581,"outcome":0,"trial":62,"correct":0,"trial_type":"three-arm-trial","trial_index":71,"time_elapsed":272079,"internal_node_id":"0.0-68.0-0.0","task_version":"screening-prolific","missing":false,"accuracy":0},{"contexts":["blue","green","red"],"outcomes":[1,0,0],"key":37,"choice":0,"rt":57.735000000102445,"outcome":1,"trial":63,"correct":0,"trial_type":"three-arm-trial","trial_index":72,"time_elapsed":273342,"internal_node_id":"0.0-69.0-0.0","task_version":"screening-prolific","missing":false,"accuracy":1},{"contexts":["blue","green","red"],"outcomes":[1,0,0],"key":37,"choice":0,"rt":411.04999999993015,"outcome":1,"trial":64,"correct":0,"trial_type":"three-arm-trial","trial_index":73,"time_elapsed":274958,"internal_node_id":"0.0-70.0-0.0","task_version":"screening-prolific","missing":false,"accuracy":1},{"contexts":["blue","green","red"],"outcomes":[1,0,0],"key":37,"choice":0,"rt":196.99500000005355,"outcome":1,"trial":65,"correct":0,"trial_type":"three-arm-trial","trial_index":74,"time_elapsed":276364,"internal_node_id":"0.0-71.0-0.0","task_version":"screening-prolific","missing":false,"accuracy":1},{"contexts":["blue","green","red"],"outcomes":[1,0,0],"key":37,"choice":0,"rt":256.0100000000675,"outcome":1,"trial":66,"correct":0,"trial_type":"three-arm-trial","trial_index":75,"time_elapsed":277826,"internal_node_id":"0.0-72.0-0.0","task_version":"screening-prolific","missing":false,"accuracy":1},{"contexts":["blue","green","red"],"outcomes":[1,0,0],"key":37,"choice":0,"rt":0.1750000001047738,"outcome":1,"trial":67,"correct":0,"trial_type":"three-arm-trial","trial_index":76,"time_elapsed":279031,"internal_node_id":"0.0-73.0-0.0","task_version":"screening-prolific","missing":false,"accuracy":1},{"contexts":["blue","green","red"],"outcomes":[0,0,0],"key":37,"choice":0,"rt":54.570000000006985,"outcome":0,"trial":68,"correct":0,"trial_type":"three-arm-trial","trial_index":77,"time_elapsed":280293,"internal_node_id":"0.0-74.0-0.0","task_version":"screening-prolific","missing":false,"accuracy":1},{"contexts":["blue","green","red"],"outcomes":[1,0,0],"key":39,"choice":2,"rt":479.39999999990687,"outcome":0,"trial":69,"correct":0,"trial_type":"three-arm-trial","trial_index":78,"time_elapsed":281980,"internal_node_id":"0.0-75.0-0.0","task_version":"screening-prolific","missing":false,"accuracy":0},{"contexts":["blue","green","red"],"outcomes":[1,1,0],"key":38,"choice":1,"rt":117.79999999998836,"outcome":1,"trial":70,"correct":0,"trial_type":"three-arm-trial","trial_index":79,"time_elapsed":283307,"internal_node_id":"0.0-76.0-0.0","task_version":"screening-prolific","missing":false,"accuracy":0},{"contexts":["blue","green","red"],"outcomes":[1,0,0],"key":38,"choice":1,"rt":16.800000000104774,"outcome":0,"trial":71,"correct":0,"trial_type":"three-arm-trial","trial_index":80,"time_elapsed":284532,"internal_node_id":"0.0-77.0-0.0","task_version":"screening-prolific","missing":false,"accuracy":0},{"contexts":["blue","green","red"],"outcomes":[0,0,1],"key":37,"choice":0,"rt":595.4799999999232,"outcome":0,"trial":72,"correct":0,"trial_type":"three-arm-trial","trial_index":81,"time_elapsed":286335,"internal_node_id":"0.0-78.0-0.0","task_version":"screening-prolific","missing":false,"accuracy":1},{"contexts":["blue","green","red"],"outcomes":[0,0,0],"key":39,"choice":2,"rt":177.75500000017928,"outcome":0,"trial":73,"correct":0,"trial_type":"three-arm-trial","trial_index":82,"time_elapsed":287720,"internal_node_id":"0.0-79.0-0.0","task_version":"screening-prolific","missing":false,"accuracy":0},{"contexts":["blue","green","red"],"outcomes":[1,0,0],"key":37,"choice":0,"rt":87.85000000009313,"outcome":1,"trial":74,"correct":0,"trial_type":"three-arm-trial","trial_index":83,"time_elapsed":289015,"internal_node_id":"0.0-80.0-0.0","task_version":"screening-prolific","missing":false,"accuracy":1},{"contexts":["blue","green","red"],"outcomes":[0,0,0],"key":37,"choice":0,"rt":69.05500000016764,"outcome":0,"trial":75,"correct":0,"trial_type":"three-arm-trial","trial_index":84,"time_elapsed":290295,"internal_node_id":"0.0-81.0-0.0","task_version":"screening-prolific","missing":false,"accuracy":1},{"contexts":["blue","green","red"],"outcomes":[0,0,1],"key":38,"choice":1,"rt":49.51499999995576,"outcome":0,"trial":76,"correct":2,"trial_type":"three-arm-trial","trial_index":85,"time_elapsed":291554,"internal_node_id":"0.0-82.0-0.0","task_version":"screening-prolific","missing":false,"accuracy":0},{"contexts":["blue","green","red"],"outcomes":[0,0,1],"key":39,"choice":2,"rt":87.96999999985565,"outcome":1,"trial":77,"correct":2,"trial_type":"three-arm-trial","trial_index":86,"time_elapsed":292849,"internal_node_id":"0.0-83.0-0.0","task_version":"screening-prolific","missing":false,"accuracy":1},{"contexts":["blue","green","red"],"outcomes":[0,1,1],"key":39,"choice":2,"rt":263.0349999999162,"outcome":1,"trial":78,"correct":2,"trial_type":"three-arm-trial","trial_index":87,"time_elapsed":294319,"internal_node_id":"0.0-84.0-0.0","task_version":"screening-prolific","missing":false,"accuracy":1},{"contexts":["blue","green","red"],"outcomes":[0,0,1],"key":39,"choice":2,"rt":194.23499999992782,"outcome":1,"trial":79,"correct":2,"trial_type":"three-arm-trial","trial_index":88,"time_elapsed":295718,"internal_node_id":"0.0-85.0-0.0","task_version":"screening-prolific","missing":false,"accuracy":1},{"contexts":["blue","green","red"],"outcomes":[0,0,1],"key":39,"choice":2,"rt":682.6150000001653,"outcome":1,"trial":80,"correct":2,"trial_type":"three-arm-trial","trial_index":89,"time_elapsed":297606,"internal_node_id":"0.0-86.0-0.0","task_version":"screening-prolific","missing":false,"accuracy":1},{"contexts":["blue","green","red"],"outcomes":[0,0,0],"key":39,"choice":2,"rt":159.27500000002328,"outcome":0,"trial":81,"correct":2,"trial_type":"three-arm-trial","trial_index":90,"time_elapsed":298972,"internal_node_id":"0.0-87.0-0.0","task_version":"screening-prolific","missing":false,"accuracy":1},{"contexts":["blue","green","red"],"outcomes":[0,0,1],"key":37,"choice":0,"rt":544.7550000001211,"outcome":0,"trial":82,"correct":2,"trial_type":"three-arm-trial","trial_index":91,"time_elapsed":300722,"internal_node_id":"0.0-88.0-0.0","task_version":"screening-prolific","missing":false,"accuracy":0},{"contexts":["blue","green","red"],"outcomes":[0,0,0],"key":38,"choice":1,"rt":119.95000000001164,"outcome":0,"trial":83,"correct":2,"trial_type":"three-arm-trial","trial_index":92,"time_elapsed":302048,"internal_node_id":"0.0-89.0-0.0","task_version":"screening-prolific","missing":false,"accuracy":0},{"contexts":["blue","green","red"],"outcomes":[1,1,1],"key":39,"choice":2,"rt":340.2699999999022,"outcome":1,"trial":84,"correct":2,"trial_type":"three-arm-trial","trial_index":93,"time_elapsed":303595,"internal_node_id":"0.0-90.0-0.0","task_version":"screening-prolific","missing":false,"accuracy":1},{"contexts":["blue","green","red"],"outcomes":[0,1,1],"key":39,"choice":2,"rt":172.48999999993248,"outcome":1,"trial":85,"correct":2,"trial_type":"three-arm-trial","trial_index":94,"time_elapsed":304975,"internal_node_id":"0.0-91.0-0.0","task_version":"screening-prolific","missing":false,"accuracy":1},{"contexts":["blue","green","red"],"outcomes":[0,1,1],"key":39,"choice":2,"rt":115.95499999995809,"outcome":1,"trial":86,"correct":2,"trial_type":"three-arm-trial","trial_index":95,"time_elapsed":306300,"internal_node_id":"0.0-92.0-0.0","task_version":"screening-prolific","missing":false,"accuracy":1},{"contexts":["blue","green","red"],"outcomes":[0,0,1],"key":39,"choice":2,"rt":85.04500000004191,"outcome":1,"trial":87,"correct":2,"trial_type":"three-arm-trial","trial_index":96,"time_elapsed":307595,"internal_node_id":"0.0-93.0-0.0","task_version":"screening-prolific","missing":false,"accuracy":1},{"contexts":["blue","green","red"],"outcomes":[0,0,1],"key":39,"choice":2,"rt":143.44499999989057,"outcome":1,"trial":88,"correct":2,"trial_type":"three-arm-trial","trial_index":97,"time_elapsed":308948,"internal_node_id":"0.0-94.0-0.0","task_version":"screening-prolific","missing":false,"accuracy":1},{"contexts":["blue","green","red"],"outcomes":[0,0,1],"key":39,"choice":2,"rt":574.820000000007,"outcome":1,"trial":89,"correct":2,"trial_type":"three-arm-trial","trial_index":98,"time_elapsed":310730,"internal_node_id":"0.0-95.0-0.0","task_version":"screening-prolific","missing":false,"accuracy":1},{"contexts":["blue","green","red"],"outcomes":[0,1,1],"key":39,"choice":2,"rt":202.0099999999511,"outcome":1,"trial":90,"correct":2,"trial_type":"three-arm-trial","trial_index":99,"time_elapsed":312138,"internal_node_id":"0.0-96.0-0.0","task_version":"screening-prolific","missing":false,"accuracy":1},{"rt":12866.43499999994,"responses":{"age":"22","gender-categorical":"Female","gender-free-response":"","ethnicity":"Not Hispanic or Latino","race":["Asian"],"language":"Yes","fluency":"Very well","mturk":"No","mturk-this-study":"No"},"survey":"demographics","trial_type":"survey-demo","trial_index":100,"time_elapsed":325016,"internal_node_id":"0.0-97.0","task_version":"screening-prolific","interactions":"[]"}]