[{"responses":{"Q01":"1","Q08":"0","Q07":"0","Q06":"1","Q02":"0","Q03":"0","Q04":"1","Q05":"1"},"rt":19473.43000024557,"survey":"gad7","trial_type":"survey-template","trial_index":0,"time_elapsed":19488,"internal_node_id":"0.0-0.0","task_version":"screening-prolific"},{"responses":{"Q02":"1","Q08":"1","Q07":"2","Q03":"1","Q14":"1","Q06":"2","Q10":"1","Q13":"3","Q01":"2","Q09":"1","Q05":"1","Q04":"2","Q11":"2","Q12":"2","Q15":"0"},"rt":114074.04499966651,"survey":"7up7down","trial_type":"survey-template","trial_index":1,"time_elapsed":133568,"internal_node_id":"0.0-1.0","task_version":"screening-prolific"},{"responses":{"Q01":"2","Q02":"1","Q03":"2"},"rt":6059.909999836236,"survey":"pswq","trial_type":"survey-template","trial_index":2,"time_elapsed":139635,"internal_node_id":"0.0-2.0","task_version":"screening-prolific"},{"responses":{"Q13":"2","Q07":"2","Q01":"2","Q09":"2","Q10":"2","Q02":"2","Q03":"2","Q05":"2","Q11":"2","Q12":"2","Q04":"2","Q14":"2","Q08":"0","Q15":"3","Q06":"1"},"rt":43842.639999929816,"survey":"shaps","trial_type":"survey-template","trial_index":3,"time_elapsed":183485,"internal_node_id":"0.0-3.0","task_version":"screening-prolific"},{"responses":{"Q10":"1","Q11":"1","Q01":"2","Q08":"1","Q12":"1","Q07":"2","Q13":"3","Q05":"3","Q09":"1","Q02":"1","Q06":"3","Q03":"1","Q04":"3"},"rt":49445.33000001684,"survey":"bisbas","trial_type":"survey-template","trial_index":4,"time_elapsed":232937,"internal_node_id":"0.0-4.0","task_version":"screening-prolific"},{"view_history":"[{\"page_index\":0,\"viewing_time\":4912.854999769479},{\"page_index\":1,\"viewing_time\":6960.55500023067},{\"page_index\":2,\"viewing_time\":5040.624999906868},{\"page_index\":3,\"viewing_time\":4118.840000126511},{\"page_index\":4,\"viewing_time\":4541.919999755919},{\"page_index\":5,\"viewing_time\":3157.9800001345575},{\"page_index\":6,\"viewing_time\":3273.1550000607967},{\"page_index\":7,\"viewing_time\":15070.719999726862}]","rt":47077.329999767244,"trial_type":"instructions","trial_index":5,"time_elapsed":280015,"internal_node_id":"0.0-5.0-0.0","task_version":"screening-prolific"},{"responses":["True","True","False","False","True"],"num_errors":0,"rt":10252.650000154972,"trial_type":"three-arm-comprehension","trial_index":6,"time_elapsed":290274,"internal_node_id":"0.0-5.0-1.0","task_version":"screening-prolific"},{"view_history":"[{\"page_index\":0,\"viewing_time\":1916.399999987334}]","rt":1916.7649997398257,"trial_type":"instructions","trial_index":7,"time_elapsed":292202,"internal_node_id":"0.0-6.0","task_version":"screening-prolific"},{"contexts":["blue","green","red"],"outcomes":[0,1,0],"key":38,"choice":1,"rt":1732.7700001187623,"outcome":1,"trial":1,"correct":1,"trial_type":"three-arm-trial","trial_index":8,"time_elapsed":295141,"internal_node_id":"0.0-7.0-0.0","task_version":"screening-prolific","missing":false,"accuracy":1},{"contexts":["blue","green","red"],"outcomes":[0,1,0],"key":38,"choice":1,"rt":529.8600001260638,"outcome":1,"trial":2,"correct":1,"trial_type":"three-arm-trial","trial_index":9,"time_elapsed":296877,"internal_node_id":"0.0-8.0-0.0","task_version":"screening-prolific","missing":false,"accuracy":1},{"contexts":["blue","green","red"],"outcomes":[0,0,0],"key":38,"choice":1,"rt":338.95500004291534,"outcome":0,"trial":3,"correct":1,"trial_type":"three-arm-trial","trial_index":10,"time_elapsed":298421,"internal_node_id":"0.0-9.0-0.0","task_version":"screening-prolific","missing":false,"accuracy":1},{"contexts":["blue","green","red"],"outcomes":[1,0,0],"key":38,"choice":1,"rt":146.8600002117455,"outcome":0,"trial":4,"correct":1,"trial_type":"three-arm-trial","trial_index":11,"time_elapsed":299773,"internal_node_id":"0.0-10.0-0.0","task_version":"screening-prolific","missing":false,"accuracy":1},{"contexts":["blue","green","red"],"outcomes":[0,1,0],"key":38,"choice":1,"rt":70.35499997437,"outcome":1,"trial":5,"correct":1,"trial_type":"three-arm-trial","trial_index":12,"time_elapsed":301048,"internal_node_id":"0.0-11.0-0.0","task_version":"screening-prolific","missing":false,"accuracy":1},{"contexts":["blue","green","red"],"outcomes":[0,0,0],"key":38,"choice":1,"rt":386.0999997705221,"outcome":0,"trial":6,"correct":1,"trial_type":"three-arm-trial","trial_index":13,"time_elapsed":302639,"internal_node_id":"0.0-12.0-0.0","task_version":"screening-prolific","missing":false,"accuracy":1},{"contexts":["blue","green","red"],"outcomes":[0,1,0],"key":38,"choice":1,"rt":530.7649997994304,"outcome":1,"trial":7,"correct":1,"trial_type":"three-arm-trial","trial_index":14,"time_elapsed":304375,"internal_node_id":"0.0-13.0-0.0","task_version":"screening-prolific","missing":false,"accuracy":1},{"contexts":["blue","green","red"],"outcomes":[0,0,0],"key":39,"choice":2,"rt":223.91499998047948,"outcome":0,"trial":8,"correct":1,"trial_type":"three-arm-trial","trial_index":15,"time_elapsed":305804,"internal_node_id":"0.0-14.0-0.0","task_version":"screening-prolific","missing":false,"accuracy":0},{"contexts":["blue","green","red"],"outcomes":[0,1,0],"key":39,"choice":2,"rt":108.65500010550022,"outcome":0,"trial":9,"correct":1,"trial_type":"three-arm-trial","trial_index":16,"time_elapsed":307118,"internal_node_id":"0.0-15.0-0.0","task_version":"screening-prolific","missing":false,"accuracy":0},{"contexts":["blue","green","red"],"outcomes":[1,1,0],"key":37,"choice":0,"rt":91.09999984502792,"outcome":1,"trial":10,"correct":1,"trial_type":"three-arm-trial","trial_index":17,"time_elapsed":308414,"internal_node_id":"0.0-16.0-0.0","task_version":"screening-prolific","missing":false,"accuracy":0},{"contexts":["blue","green","red"],"outcomes":[0,1,0],"key":37,"choice":0,"rt":289.8650001734495,"outcome":0,"trial":11,"correct":1,"trial_type":"three-arm-trial","trial_index":18,"time_elapsed":309909,"internal_node_id":"0.0-17.0-0.0","task_version":"screening-prolific","missing":false,"accuracy":0},{"contexts":["blue","green","red"],"outcomes":[1,1,0],"key":37,"choice":0,"rt":108.64000022411346,"outcome":1,"trial":12,"correct":1,"trial_type":"three-arm-trial","trial_index":19,"time_elapsed":311223,"internal_node_id":"0.0-18.0-0.0","task_version":"screening-prolific","missing":false,"accuracy":0},{"contexts":["blue","green","red"],"outcomes":[1,0,1],"key":37,"choice":0,"rt":185.86999969556928,"outcome":1,"trial":13,"correct":1,"trial_type":"three-arm-trial","trial_index":20,"time_elapsed":312614,"internal_node_id":"0.0-19.0-0.0","task_version":"screening-prolific","missing":false,"accuracy":0},{"contexts":["blue","green","red"],"outcomes":[1,1,0],"key":37,"choice":0,"rt":108.01000008359551,"outcome":1,"trial":14,"correct":1,"trial_type":"three-arm-trial","trial_index":21,"time_elapsed":313928,"internal_node_id":"0.0-20.0-0.0","task_version":"screening-prolific","missing":false,"accuracy":0},{"contexts":["blue","green","red"],"outcomes":[1,1,0],"key":37,"choice":0,"rt":70.30500005930662,"outcome":1,"trial":15,"correct":1,"trial_type":"three-arm-trial","trial_index":22,"time_elapsed":315203,"internal_node_id":"0.0-21.0-0.0","task_version":"screening-prolific","missing":false,"accuracy":0},{"contexts":["blue","green","red"],"outcomes":[0,0,1],"key":37,"choice":0,"rt":59.645000379532576,"outcome":0,"trial":16,"correct":2,"trial_type":"three-arm-trial","trial_index":23,"time_elapsed":316468,"internal_node_id":"0.0-22.0-0.0","task_version":"screening-prolific","missing":false,"accuracy":0},{"contexts":["blue","green","red"],"outcomes":[0,0,1],"key":37,"choice":0,"rt":338.6300001293421,"outcome":0,"trial":17,"correct":2,"trial_type":"three-arm-trial","trial_index":24,"time_elapsed":318012,"internal_node_id":"0.0-23.0-0.0","task_version":"screening-prolific","missing":false,"accuracy":0},{"contexts":["blue","green","red"],"outcomes":[0,0,1],"key":38,"choice":1,"rt":223.90499990433455,"outcome":0,"trial":18,"correct":2,"trial_type":"three-arm-trial","trial_index":25,"time_elapsed":319441,"internal_node_id":"0.0-24.0-0.0","task_version":"screening-prolific","missing":false,"accuracy":0},{"contexts":["blue","green","red"],"outcomes":[0,1,1],"key":38,"choice":1,"rt":300.57500023394823,"outcome":1,"trial":19,"correct":2,"trial_type":"three-arm-trial","trial_index":26,"time_elapsed":320947,"internal_node_id":"0.0-25.0-0.0","task_version":"screening-prolific","missing":false,"accuracy":0},{"contexts":["blue","green","red"],"outcomes":[0,0,1],"key":38,"choice":1,"rt":185.49499986693263,"outcome":0,"trial":20,"correct":2,"trial_type":"three-arm-trial","trial_index":27,"time_elapsed":322338,"internal_node_id":"0.0-26.0-0.0","task_version":"screening-prolific","missing":false,"accuracy":0},{"contexts":["blue","green","red"],"outcomes":[0,0,0],"key":38,"choice":1,"rt":185.2100002579391,"outcome":0,"trial":21,"correct":2,"trial_type":"three-arm-trial","trial_index":28,"time_elapsed":323727,"internal_node_id":"0.0-27.0-0.0","task_version":"screening-prolific","missing":false,"accuracy":0},{"contexts":["blue","green","red"],"outcomes":[0,0,1],"key":39,"choice":2,"rt":72.28499976918101,"outcome":1,"trial":22,"correct":2,"trial_type":"three-arm-trial","trial_index":29,"time_elapsed":325003,"internal_node_id":"0.0-28.0-0.0","task_version":"screening-prolific","missing":false,"accuracy":1},{"contexts":["blue","green","red"],"outcomes":[0,0,0],"key":39,"choice":2,"rt":384.5250001177192,"outcome":0,"trial":23,"correct":2,"trial_type":"three-arm-trial","trial_index":30,"time_elapsed":326592,"internal_node_id":"0.0-29.0-0.0","task_version":"screening-prolific","missing":false,"accuracy":1},{"contexts":["blue","green","red"],"outcomes":[0,0,1],"key":39,"choice":2,"rt":147.92499970644712,"outcome":1,"trial":24,"correct":2,"trial_type":"three-arm-trial","trial_index":31,"time_elapsed":327945,"internal_node_id":"0.0-30.0-0.0","task_version":"screening-prolific","missing":false,"accuracy":1},{"contexts":["blue","green","red"],"outcomes":[0,0,1],"key":39,"choice":2,"rt":347.3799997009337,"outcome":1,"trial":25,"correct":2,"trial_type":"three-arm-trial","trial_index":32,"time_elapsed":329494,"internal_node_id":"0.0-31.0-0.0","task_version":"screening-prolific","missing":false,"accuracy":1},{"contexts":["blue","green","red"],"outcomes":[0,0,1],"key":39,"choice":2,"rt":32.115000300109386,"outcome":1,"trial":26,"correct":2,"trial_type":"three-arm-trial","trial_index":33,"time_elapsed":330732,"internal_node_id":"0.0-32.0-0.0","task_version":"screening-prolific","missing":false,"accuracy":1},{"contexts":["blue","green","red"],"outcomes":[0,0,1],"key":39,"choice":2,"rt":262.27999990805984,"outcome":1,"trial":27,"correct":2,"trial_type":"three-arm-trial","trial_index":34,"time_elapsed":332200,"internal_node_id":"0.0-33.0-0.0","task_version":"screening-prolific","missing":false,"accuracy":1},{"contexts":["blue","green","red"],"outcomes":[0,0,1],"key":39,"choice":2,"rt":300.9199998341501,"outcome":1,"trial":28,"correct":2,"trial_type":"three-arm-trial","trial_index":35,"time_elapsed":333706,"internal_node_id":"0.0-34.0-0.0","task_version":"screening-prolific","missing":false,"accuracy":1},{"contexts":["blue","green","red"],"outcomes":[0,0,1],"key":39,"choice":2,"rt":168.08500001206994,"outcome":1,"trial":29,"correct":2,"trial_type":"three-arm-trial","trial_index":36,"time_elapsed":335080,"internal_node_id":"0.0-35.0-0.0","task_version":"screening-prolific","missing":false,"accuracy":1},{"contexts":["blue","green","red"],"outcomes":[1,0,1],"key":39,"choice":2,"rt":166.28999961540103,"outcome":1,"trial":30,"correct":2,"trial_type":"three-arm-trial","trial_index":37,"time_elapsed":336452,"internal_node_id":"0.0-36.0-0.0","task_version":"screening-prolific","missing":false,"accuracy":1},{"contexts":["blue","green","red"],"outcomes":[1,1,0],"key":39,"choice":2,"rt":31.8100000731647,"outcome":0,"trial":31,"correct":1,"trial_type":"three-arm-trial","trial_index":38,"time_elapsed":337689,"internal_node_id":"0.0-37.0-0.0","task_version":"screening-prolific","missing":false,"accuracy":0},{"contexts":["blue","green","red"],"outcomes":[0,0,1],"key":39,"choice":2,"rt":591.0949995741248,"outcome":1,"trial":32,"correct":1,"trial_type":"three-arm-trial","trial_index":39,"time_elapsed":339485,"internal_node_id":"0.0-38.0-0.0","task_version":"screening-prolific","missing":false,"accuracy":0},{"contexts":["blue","green","red"],"outcomes":[0,1,0],"key":39,"choice":2,"rt":262.190000154078,"outcome":0,"trial":33,"correct":1,"trial_type":"three-arm-trial","trial_index":40,"time_elapsed":340952,"internal_node_id":"0.0-39.0-0.0","task_version":"screening-prolific","missing":false,"accuracy":0},{"contexts":["blue","green","red"],"outcomes":[1,1,0],"key":37,"choice":0,"rt":70.58499986305833,"outcome":1,"trial":34,"correct":1,"trial_type":"three-arm-trial","trial_index":41,"time_elapsed":342228,"internal_node_id":"0.0-40.0-0.0","task_version":"screening-prolific","missing":false,"accuracy":0},{"contexts":["blue","green","red"],"outcomes":[0,0,0],"key":37,"choice":0,"rt":345.875000115484,"outcome":0,"trial":35,"correct":1,"trial_type":"three-arm-trial","trial_index":42,"time_elapsed":343779,"internal_node_id":"0.0-41.0-0.0","task_version":"screening-prolific","missing":false,"accuracy":0},{"contexts":["blue","green","red"],"outcomes":[0,0,0],"key":37,"choice":0,"rt":263.3099998347461,"outcome":0,"trial":36,"correct":1,"trial_type":"three-arm-trial","trial_index":43,"time_elapsed":345247,"internal_node_id":"0.0-42.0-0.0","task_version":"screening-prolific","missing":false,"accuracy":0},{"contexts":["blue","green","red"],"outcomes":[0,1,0],"key":38,"choice":1,"rt":261.5199997089803,"outcome":1,"trial":37,"correct":1,"trial_type":"three-arm-trial","trial_index":44,"time_elapsed":346714,"internal_node_id":"0.0-43.0-0.0","task_version":"screening-prolific","missing":false,"accuracy":1},{"contexts":["blue","green","red"],"outcomes":[1,1,0],"key":38,"choice":1,"rt":193.3450000360608,"outcome":1,"trial":38,"correct":1,"trial_type":"three-arm-trial","trial_index":45,"time_elapsed":348112,"internal_node_id":"0.0-44.0-0.0","task_version":"screening-prolific","missing":false,"accuracy":1},{"contexts":["blue","green","red"],"outcomes":[0,1,0],"key":38,"choice":1,"rt":300.91500002890825,"outcome":1,"trial":39,"correct":1,"trial_type":"three-arm-trial","trial_index":46,"time_elapsed":349618,"internal_node_id":"0.0-45.0-0.0","task_version":"screening-prolific","missing":false,"accuracy":1},{"contexts":["blue","green","red"],"outcomes":[0,0,1],"key":38,"choice":1,"rt":262.5199998728931,"outcome":0,"trial":40,"correct":1,"trial_type":"three-arm-trial","trial_index":47,"time_elapsed":351086,"internal_node_id":"0.0-46.0-0.0","task_version":"screening-prolific","missing":false,"accuracy":1},{"contexts":["blue","green","red"],"outcomes":[0,1,1],"key":38,"choice":1,"rt":70.03499986603856,"outcome":1,"trial":41,"correct":1,"trial_type":"three-arm-trial","trial_index":48,"time_elapsed":352361,"internal_node_id":"0.0-47.0-0.0","task_version":"screening-prolific","missing":false,"accuracy":1},{"contexts":["blue","green","red"],"outcomes":[0,1,0],"key":38,"choice":1,"rt":146.86500001698732,"outcome":1,"trial":42,"correct":1,"trial_type":"three-arm-trial","trial_index":49,"time_elapsed":353713,"internal_node_id":"0.0-48.0-0.0","task_version":"screening-prolific","missing":false,"accuracy":1},{"contexts":["blue","green","red"],"outcomes":[0,1,0],"key":38,"choice":1,"rt":70.17500000074506,"outcome":1,"trial":43,"correct":1,"trial_type":"three-arm-trial","trial_index":50,"time_elapsed":354988,"internal_node_id":"0.0-49.0-0.0","task_version":"screening-prolific","missing":false,"accuracy":1},{"contexts":["blue","green","red"],"outcomes":[0,1,0],"key":38,"choice":1,"rt":109.39999995753169,"outcome":1,"trial":44,"correct":1,"trial_type":"three-arm-trial","trial_index":51,"time_elapsed":356302,"internal_node_id":"0.0-50.0-0.0","task_version":"screening-prolific","missing":false,"accuracy":1},{"contexts":["blue","green","red"],"outcomes":[0,1,1],"key":38,"choice":1,"rt":251.68500002473593,"outcome":1,"trial":45,"correct":1,"trial_type":"three-arm-trial","trial_index":52,"time_elapsed":357760,"internal_node_id":"0.0-51.0-0.0","task_version":"screening-prolific","missing":false,"accuracy":1},{"contexts":["blue","green","red"],"outcomes":[0,0,1],"key":38,"choice":1,"rt":108.20499993860722,"outcome":0,"trial":46,"correct":2,"trial_type":"three-arm-trial","trial_index":53,"time_elapsed":359073,"internal_node_id":"0.0-52.0-0.0","task_version":"screening-prolific","missing":false,"accuracy":0},{"contexts":["blue","green","red"],"outcomes":[0,1,1],"key":38,"choice":1,"rt":32.15000033378601,"outcome":1,"trial":47,"correct":2,"trial_type":"three-arm-trial","trial_index":54,"time_elapsed":360310,"internal_node_id":"0.0-53.0-0.0","task_version":"screening-prolific","missing":false,"accuracy":0},{"contexts":["blue","green","red"],"outcomes":[0,0,0],"key":38,"choice":1,"rt":70.43500011786819,"outcome":0,"trial":48,"correct":2,"trial_type":"three-arm-trial","trial_index":55,"time_elapsed":361585,"internal_node_id":"0.0-54.0-0.0","task_version":"screening-prolific","missing":false,"accuracy":0},{"contexts":["blue","green","red"],"outcomes":[0,0,1],"key":null,"rt":null,"trial":49,"correct":2,"trial_type":"three-arm-trial","trial_index":56,"time_elapsed":376592,"internal_node_id":"0.0-55.0-0.0","task_version":"screening-prolific","missing":true},{"contexts":["blue","green","red"],"outcomes":[0,0,1],"key":38,"choice":1,"rt":932.6049997471273,"outcome":0,"trial":49,"correct":2,"trial_type":"three-arm-trial","trial_index":57,"time_elapsed":378730,"internal_node_id":"0.0-55.1-0.1","task_version":"screening-prolific","missing":false,"accuracy":0},{"contexts":["blue","green","red"],"outcomes":[0,1,1],"key":37,"choice":0,"rt":723.5349998809397,"outcome":0,"trial":50,"correct":2,"trial_type":"three-arm-trial","trial_index":58,"time_elapsed":380659,"internal_node_id":"0.0-56.0-0.0","task_version":"screening-prolific","missing":false,"accuracy":0},{"contexts":["blue","green","red"],"outcomes":[0,1,1],"key":39,"choice":2,"rt":1090.12999990955,"outcome":1,"trial":51,"correct":2,"trial_type":"three-arm-trial","trial_index":59,"time_elapsed":382955,"internal_node_id":"0.0-57.0-0.0","task_version":"screening-prolific","missing":false,"accuracy":1},{"contexts":["blue","green","red"],"outcomes":[0,1,1],"key":39,"choice":2,"rt":646.7550001107156,"outcome":1,"trial":52,"correct":2,"trial_type":"three-arm-trial","trial_index":60,"time_elapsed":384806,"internal_node_id":"0.0-58.0-0.0","task_version":"screening-prolific","missing":false,"accuracy":1},{"contexts":["blue","green","red"],"outcomes":[0,0,1],"key":39,"choice":2,"rt":2529.4449999928474,"outcome":1,"trial":53,"correct":2,"trial_type":"three-arm-trial","trial_index":61,"time_elapsed":388541,"internal_node_id":"0.0-59.0-0.0","task_version":"screening-prolific","missing":false,"accuracy":1},{"contexts":["blue","green","red"],"outcomes":[0,0,1],"key":39,"choice":2,"rt":300.9500000625849,"outcome":1,"trial":54,"correct":2,"trial_type":"three-arm-trial","trial_index":62,"time_elapsed":390044,"internal_node_id":"0.0-60.0-0.0","task_version":"screening-prolific","missing":false,"accuracy":1},{"contexts":["blue","green","red"],"outcomes":[0,0,1],"key":39,"choice":2,"rt":300.7050002925098,"outcome":1,"trial":55,"correct":2,"trial_type":"three-arm-trial","trial_index":63,"time_elapsed":391735,"internal_node_id":"0.0-61.0-0.0","task_version":"screening-prolific","missing":false,"accuracy":1},{"contexts":["blue","green","red"],"outcomes":[1,0,1],"key":39,"choice":2,"rt":1537.1449999511242,"outcome":1,"trial":56,"correct":2,"trial_type":"three-arm-trial","trial_index":64,"time_elapsed":394477,"internal_node_id":"0.0-62.0-0.0","task_version":"screening-prolific","missing":false,"accuracy":1},{"contexts":["blue","green","red"],"outcomes":[1,0,0],"key":39,"choice":2,"rt":262.6399998553097,"outcome":0,"trial":57,"correct":2,"trial_type":"three-arm-trial","trial_index":65,"time_elapsed":395949,"internal_node_id":"0.0-63.0-0.0","task_version":"screening-prolific","missing":false,"accuracy":1},{"contexts":["blue","green","red"],"outcomes":[0,0,1],"key":39,"choice":2,"rt":872.4799999035895,"outcome":1,"trial":58,"correct":2,"trial_type":"three-arm-trial","trial_index":66,"time_elapsed":398028,"internal_node_id":"0.0-64.0-0.0","task_version":"screening-prolific","missing":false,"accuracy":1},{"contexts":["blue","green","red"],"outcomes":[0,0,1],"key":39,"choice":2,"rt":35.944999661296606,"outcome":1,"trial":59,"correct":2,"trial_type":"three-arm-trial","trial_index":67,"time_elapsed":399269,"internal_node_id":"0.0-65.0-0.0","task_version":"screening-prolific","missing":false,"accuracy":1},{"contexts":["blue","green","red"],"outcomes":[0,0,1],"key":39,"choice":2,"rt":220.17999971285462,"outcome":1,"trial":60,"correct":2,"trial_type":"three-arm-trial","trial_index":68,"time_elapsed":400694,"internal_node_id":"0.0-66.0-0.0","task_version":"screening-prolific","missing":false,"accuracy":1},{"contexts":["blue","green","red"],"outcomes":[0,1,0],"key":39,"choice":2,"rt":377.34000012278557,"outcome":0,"trial":61,"correct":1,"trial_type":"three-arm-trial","trial_index":69,"time_elapsed":402277,"internal_node_id":"0.0-67.0-0.0","task_version":"screening-prolific","missing":false,"accuracy":0},{"contexts":["blue","green","red"],"outcomes":[0,0,1],"key":38,"choice":1,"rt":416.38000030070543,"outcome":0,"trial":62,"correct":1,"trial_type":"three-arm-trial","trial_index":70,"time_elapsed":403898,"internal_node_id":"0.0-68.0-0.0","task_version":"screening-prolific","missing":false,"accuracy":1},{"contexts":["blue","green","red"],"outcomes":[0,1,0],"key":37,"choice":0,"rt":146.65000000968575,"outcome":0,"trial":63,"correct":1,"trial_type":"three-arm-trial","trial_index":71,"time_elapsed":405250,"internal_node_id":"0.0-69.0-0.0","task_version":"screening-prolific","missing":false,"accuracy":0},{"contexts":["blue","green","red"],"outcomes":[0,0,0],"key":38,"choice":1,"rt":374.40000008791685,"outcome":0,"trial":64,"correct":1,"trial_type":"three-arm-trial","trial_index":72,"time_elapsed":406829,"internal_node_id":"0.0-70.0-0.0","task_version":"screening-prolific","missing":false,"accuracy":1},{"contexts":["blue","green","red"],"outcomes":[0,0,0],"key":37,"choice":0,"rt":108.92000002786517,"outcome":0,"trial":65,"correct":1,"trial_type":"three-arm-trial","trial_index":73,"time_elapsed":408143,"internal_node_id":"0.0-71.0-0.0","task_version":"screening-prolific","missing":false,"accuracy":0},{"contexts":["blue","green","red"],"outcomes":[0,1,0],"key":39,"choice":2,"rt":377.73000029847026,"outcome":0,"trial":66,"correct":1,"trial_type":"three-arm-trial","trial_index":74,"time_elapsed":409726,"internal_node_id":"0.0-72.0-0.0","task_version":"screening-prolific","missing":false,"accuracy":0},{"contexts":["blue","green","red"],"outcomes":[0,1,0],"key":39,"choice":2,"rt":415.55000003427267,"outcome":0,"trial":67,"correct":1,"trial_type":"three-arm-trial","trial_index":75,"time_elapsed":411347,"internal_node_id":"0.0-73.0-0.0","task_version":"screening-prolific","missing":false,"accuracy":0},{"contexts":["blue","green","red"],"outcomes":[0,1,0],"key":39,"choice":2,"rt":2107.1849996224046,"outcome":0,"trial":68,"correct":1,"trial_type":"three-arm-trial","trial_index":76,"time_elapsed":414659,"internal_node_id":"0.0-74.0-0.0","task_version":"screening-prolific","missing":false,"accuracy":0},{"contexts":["blue","green","red"],"outcomes":[0,1,0],"key":39,"choice":2,"rt":261.8449996225536,"outcome":0,"trial":69,"correct":1,"trial_type":"three-arm-trial","trial_index":77,"time_elapsed":416127,"internal_node_id":"0.0-75.0-0.0","task_version":"screening-prolific","missing":false,"accuracy":0},{"contexts":["blue","green","red"],"outcomes":[0,0,0],"key":37,"choice":0,"rt":2245.139999780804,"outcome":0,"trial":70,"correct":1,"trial_type":"three-arm-trial","trial_index":78,"time_elapsed":419576,"internal_node_id":"0.0-76.0-0.0","task_version":"screening-prolific","missing":false,"accuracy":0},{"contexts":["blue","green","red"],"outcomes":[0,1,0],"key":38,"choice":1,"rt":340.24500008672476,"outcome":1,"trial":71,"correct":1,"trial_type":"three-arm-trial","trial_index":79,"time_elapsed":421121,"internal_node_id":"0.0-77.0-0.0","task_version":"screening-prolific","missing":false,"accuracy":1},{"contexts":["blue","green","red"],"outcomes":[0,1,0],"key":39,"choice":2,"rt":2444.4300001487136,"outcome":0,"trial":72,"correct":1,"trial_type":"three-arm-trial","trial_index":80,"time_elapsed":424775,"internal_node_id":"0.0-78.0-0.0","task_version":"screening-prolific","missing":false,"accuracy":0},{"contexts":["blue","green","red"],"outcomes":[0,0,1],"key":39,"choice":2,"rt":454.0399997495115,"outcome":1,"trial":73,"correct":1,"trial_type":"three-arm-trial","trial_index":81,"time_elapsed":426434,"internal_node_id":"0.0-79.0-0.0","task_version":"screening-prolific","missing":false,"accuracy":0},{"contexts":["blue","green","red"],"outcomes":[0,1,0],"key":39,"choice":2,"rt":1300.0050000846386,"outcome":0,"trial":74,"correct":1,"trial_type":"three-arm-trial","trial_index":82,"time_elapsed":428939,"internal_node_id":"0.0-80.0-0.0","task_version":"screening-prolific","missing":false,"accuracy":0},{"contexts":["blue","green","red"],"outcomes":[0,1,0],"key":38,"choice":1,"rt":751.1999998241663,"outcome":1,"trial":75,"correct":1,"trial_type":"three-arm-trial","trial_index":83,"time_elapsed":430895,"internal_node_id":"0.0-81.0-0.0","task_version":"screening-prolific","missing":false,"accuracy":1},{"contexts":["blue","green","red"],"outcomes":[0,0,1],"key":38,"choice":1,"rt":263.09000002220273,"outcome":0,"trial":76,"correct":2,"trial_type":"three-arm-trial","trial_index":84,"time_elapsed":432363,"internal_node_id":"0.0-82.0-0.0","task_version":"screening-prolific","missing":false,"accuracy":0},{"contexts":["blue","green","red"],"outcomes":[0,0,1],"key":37,"choice":0,"rt":146.72499988228083,"outcome":0,"trial":77,"correct":2,"trial_type":"three-arm-trial","trial_index":85,"time_elapsed":433715,"internal_node_id":"0.0-83.0-0.0","task_version":"screening-prolific","missing":false,"accuracy":0},{"contexts":["blue","green","red"],"outcomes":[0,0,0],"key":39,"choice":2,"rt":70.00500010326505,"outcome":0,"trial":78,"correct":2,"trial_type":"three-arm-trial","trial_index":86,"time_elapsed":434990,"internal_node_id":"0.0-84.0-0.0","task_version":"screening-prolific","missing":false,"accuracy":1},{"contexts":["blue","green","red"],"outcomes":[1,0,1],"key":38,"choice":1,"rt":345.07500007748604,"outcome":0,"trial":79,"correct":2,"trial_type":"three-arm-trial","trial_index":87,"time_elapsed":436542,"internal_node_id":"0.0-85.0-0.0","task_version":"screening-prolific","missing":false,"accuracy":0},{"contexts":["blue","green","red"],"outcomes":[0,0,1],"key":37,"choice":0,"rt":70.20499976351857,"outcome":0,"trial":80,"correct":2,"trial_type":"three-arm-trial","trial_index":88,"time_elapsed":437817,"internal_node_id":"0.0-86.0-0.0","task_version":"screening-prolific","missing":false,"accuracy":0},{"contexts":["blue","green","red"],"outcomes":[0,0,1],"key":39,"choice":2,"rt":347.1300001256168,"outcome":1,"trial":81,"correct":2,"trial_type":"three-arm-trial","trial_index":89,"time_elapsed":439369,"internal_node_id":"0.0-87.0-0.0","task_version":"screening-prolific","missing":false,"accuracy":1},{"contexts":["blue","green","red"],"outcomes":[1,0,0],"key":39,"choice":2,"rt":70.76000003144145,"outcome":0,"trial":82,"correct":2,"trial_type":"three-arm-trial","trial_index":90,"time_elapsed":440645,"internal_node_id":"0.0-88.0-0.0","task_version":"screening-prolific","missing":false,"accuracy":1},{"contexts":["blue","green","red"],"outcomes":[0,0,0],"key":39,"choice":2,"rt":31.46500000730157,"outcome":0,"trial":83,"correct":2,"trial_type":"three-arm-trial","trial_index":91,"time_elapsed":441881,"internal_node_id":"0.0-89.0-0.0","task_version":"screening-prolific","missing":false,"accuracy":1},{"contexts":["blue","green","red"],"outcomes":[1,1,1],"key":38,"choice":1,"rt":301.94499995559454,"outcome":1,"trial":84,"correct":2,"trial_type":"three-arm-trial","trial_index":92,"time_elapsed":443388,"internal_node_id":"0.0-90.0-0.0","task_version":"screening-prolific","missing":false,"accuracy":0},{"contexts":["blue","green","red"],"outcomes":[0,0,1],"key":38,"choice":1,"rt":31.330000143498182,"outcome":0,"trial":85,"correct":2,"trial_type":"three-arm-trial","trial_index":93,"time_elapsed":444624,"internal_node_id":"0.0-91.0-0.0","task_version":"screening-prolific","missing":false,"accuracy":0},{"contexts":["blue","green","red"],"outcomes":[1,0,1],"key":37,"choice":0,"rt":33.09000004082918,"outcome":1,"trial":86,"correct":2,"trial_type":"three-arm-trial","trial_index":94,"time_elapsed":445862,"internal_node_id":"0.0-92.0-0.0","task_version":"screening-prolific","missing":false,"accuracy":0},{"contexts":["blue","green","red"],"outcomes":[0,0,1],"key":37,"choice":0,"rt":212.19999995082617,"outcome":0,"trial":87,"correct":2,"trial_type":"three-arm-trial","trial_index":95,"time_elapsed":447280,"internal_node_id":"0.0-93.0-0.0","task_version":"screening-prolific","missing":false,"accuracy":0},{"contexts":["blue","green","red"],"outcomes":[0,0,1],"key":38,"choice":1,"rt":301.1999996379018,"outcome":0,"trial":88,"correct":2,"trial_type":"three-arm-trial","trial_index":96,"time_elapsed":448786,"internal_node_id":"0.0-94.0-0.0","task_version":"screening-prolific","missing":false,"accuracy":0},{"contexts":["blue","green","red"],"outcomes":[0,1,1],"key":39,"choice":2,"rt":262.5500001013279,"outcome":1,"trial":89,"correct":2,"trial_type":"three-arm-trial","trial_index":97,"time_elapsed":450250,"internal_node_id":"0.0-95.0-0.0","task_version":"screening-prolific","missing":false,"accuracy":1},{"contexts":["blue","green","red"],"outcomes":[0,0,1],"key":39,"choice":2,"rt":301.35999992489815,"outcome":1,"trial":90,"correct":2,"trial_type":"three-arm-trial","trial_index":98,"time_elapsed":451757,"internal_node_id":"0.0-96.0-0.0","task_version":"screening-prolific","missing":false,"accuracy":1},{"rt":16292.214999906719,"responses":{"age":"36","gender-categorical":"Male","gender-free-response":"","ethnicity":"Not Hispanic or Latino","race":["White"],"language":"Yes","fluency":"Very well","mturk":"Yes","mturk-this-study":"No"},"survey":"demographics","trial_type":"survey-demo","trial_index":99,"time_elapsed":468059,"internal_node_id":"0.0-97.0","task_version":"screening-prolific","interactions":"[{\"event\":\"blur\",\"trial\":63,\"time\":390850},{\"event\":\"focus\",\"trial\":64,\"time\":392563},{\"event\":\"blur\",\"trial\":64,\"time\":392585},{\"event\":\"focus\",\"trial\":64,\"time\":393154},{\"event\":\"blur\",\"trial\":65,\"time\":395936},{\"event\":\"focus\",\"trial\":66,\"time\":396739},{\"event\":\"blur\",\"trial\":69,\"time\":401360},{\"event\":\"focus\",\"trial\":69,\"time\":402106},{\"event\":\"blur\",\"trial\":76,\"time\":411440},{\"event\":\"focus\",\"trial\":76,\"time\":413338},{\"event\":\"blur\",\"trial\":77,\"time\":415552},{\"event\":\"focus\",\"trial\":78,\"time\":418243},{\"event\":\"blur\",\"trial\":79,\"time\":420152},{\"event\":\"focus\",\"trial\":80,\"time\":423378}]"}]