[{"responses":{"Q03":"2","Q01":"2","Q02":"2"},"rt":8056.365000084043,"survey":"pswq","trial_type":"survey-template","trial_index":0,"time_elapsed":8080,"internal_node_id":"0.0-0.0","task_version":"screening-prolific"},{"responses":{"Q04":"2","Q14":"2","Q09":"2","Q05":"2","Q02":"2","Q15":"2","Q12":"3","Q11":"1","Q10":"2","Q07":"2","Q01":"2","Q13":"2","Q06":"2","Q03":"2","Q08":"2"},"rt":27845.050000585616,"survey":"shaps","trial_type":"survey-template","trial_index":1,"time_elapsed":35937,"internal_node_id":"0.0-1.0","task_version":"screening-prolific"},{"responses":{"Q02":"2","Q03":"2","Q01":"2","Q07":"2","Q05":"2","Q13":"1","Q12":"2","Q11":"2","Q06":"2","Q04":"2","Q10":"2","Q08":"2","Q09":"1"},"rt":17465.525000356138,"survey":"bisbas","trial_type":"survey-template","trial_index":2,"time_elapsed":53416,"internal_node_id":"0.0-2.0","task_version":"screening-prolific"},{"responses":{"Q11":"2","Q08":"1","Q12":"2","Q14":"2","Q05":"1","Q13":"1","Q07":"2","Q09":"1","Q04":"1","Q06":"2","Q15":"2","Q10":"2","Q01":"1","Q02":"2","Q03":"2"},"rt":22027.01000031084,"survey":"7up7down","trial_type":"survey-template","trial_index":3,"time_elapsed":75454,"internal_node_id":"0.0-3.0","task_version":"screening-prolific"},{"responses":{"Q06":"1","Q08":"2","Q04":"2","Q05":"1","Q02":"1","Q01":"1","Q07":"1","Q03":"2"},"rt":15323.645000346005,"survey":"gad7","trial_type":"survey-template","trial_index":4,"time_elapsed":90788,"internal_node_id":"0.0-4.0","task_version":"screening-prolific"},{"view_history":"[{\"page_index\":0,\"viewing_time\":4354.625000618398},{\"page_index\":1,\"viewing_time\":5770.124999806285},{\"page_index\":2,\"viewing_time\":2227.4500001221895},{\"page_index\":3,\"viewing_time\":2324.5350001379848},{\"page_index\":4,\"viewing_time\":2975.879999808967},{\"page_index\":5,\"viewing_time\":1277.5900000706315},{\"page_index\":6,\"viewing_time\":3586.1099995672703},{\"page_index\":7,\"viewing_time\":4223.974999971688}]","rt":26741.31500069052,"trial_type":"instructions","trial_index":5,"time_elapsed":117535,"internal_node_id":"0.0-5.0-0.0","task_version":"screening-prolific"},{"responses":["True","True","True","False","True"],"num_errors":1,"rt":16081.544999964535,"trial_type":"three-arm-comprehension","trial_index":6,"time_elapsed":133622,"internal_node_id":"0.0-5.0-1.0","task_version":"screening-prolific"},{"view_history":"[{\"page_index\":0,\"viewing_time\":1831.9100001826882},{\"page_index\":1,\"viewing_time\":3499.7600000351667},{\"page_index\":2,\"viewing_time\":1396.1649993434548},{\"page_index\":3,\"viewing_time\":1603.6849999800324},{\"page_index\":4,\"viewing_time\":2930.140000768006},{\"page_index\":5,\"viewing_time\":1124.0249993279576},{\"page_index\":6,\"viewing_time\":675.8799999952316},{\"page_index\":7,\"viewing_time\":1840.340000577271}]","rt":14902.339999563992,"trial_type":"instructions","trial_index":7,"time_elapsed":148535,"internal_node_id":"0.0-5.1-0.1","task_version":"screening-prolific"},{"responses":["True","True","True","True","True"],"num_errors":2,"rt":5343.849999830127,"trial_type":"three-arm-comprehension","trial_index":8,"time_elapsed":153883,"internal_node_id":"0.0-5.1-1.1","task_version":"screening-prolific"},{"view_history":"[{\"page_index\":0,\"viewing_time\":2115.0650000199676},{\"page_index\":1,\"viewing_time\":4006.1400001868606},{\"page_index\":2,\"viewing_time\":2079.900000244379},{\"page_index\":3,\"viewing_time\":3126.155000180006},{\"page_index\":4,\"viewing_time\":8946.03499956429},{\"page_index\":5,\"viewing_time\":5111.835000105202},{\"page_index\":6,\"viewing_time\":990.1750003919005},{\"page_index\":7,\"viewing_time\":2058.244999498129}]","rt":28433.970000594854,"trial_type":"instructions","trial_index":9,"time_elapsed":182324,"internal_node_id":"0.0-5.2-0.2","task_version":"screening-prolific"},{"responses":["True","True","False","False","True"],"num_errors":0,"rt":15316.139999777079,"trial_type":"three-arm-comprehension","trial_index":10,"time_elapsed":197644,"internal_node_id":"0.0-5.2-1.2","task_version":"screening-prolific"},{"view_history":"[{\"page_index\":0,\"viewing_time\":1618.9649999141693}]","rt":1619.319999590516,"trial_type":"instructions","trial_index":11,"time_elapsed":199272,"internal_node_id":"0.0-6.0","task_version":"screening-prolific"},{"contexts":["blue","red","green"],"outcomes":[0,0,1],"key":null,"rt":null,"trial":1,"correct":2,"trial_type":"three-arm-trial","trial_index":12,"time_elapsed":214281,"internal_node_id":"0.0-7.0-0.0","task_version":"screening-prolific","missing":true},{"contexts":["blue","red","green"],"outcomes":[0,0,1],"key":37,"choice":0,"rt":5271.244999952614,"outcome":0,"trial":1,"correct":2,"trial_type":"three-arm-trial","trial_index":13,"time_elapsed":220758,"internal_node_id":"0.0-7.1-0.1","task_version":"screening-prolific","missing":false,"accuracy":0},{"contexts":["blue","red","green"],"outcomes":[0,0,1],"key":38,"choice":1,"rt":2879.244999960065,"outcome":0,"trial":2,"correct":2,"trial_type":"three-arm-trial","trial_index":14,"time_elapsed":224851,"internal_node_id":"0.0-8.0-0.0","task_version":"screening-prolific","missing":false,"accuracy":0},{"contexts":["blue","red","green"],"outcomes":[0,0,0],"key":38,"choice":1,"rt":571.7200003564358,"outcome":0,"trial":3,"correct":2,"trial_type":"three-arm-trial","trial_index":15,"time_elapsed":226637,"internal_node_id":"0.0-9.0-0.0","task_version":"screening-prolific","missing":false,"accuracy":0},{"contexts":["blue","red","green"],"outcomes":[0,0,1],"key":39,"choice":2,"rt":120.7250002771616,"outcome":1,"trial":4,"correct":2,"trial_type":"three-arm-trial","trial_index":16,"time_elapsed":227971,"internal_node_id":"0.0-10.0-0.0","task_version":"screening-prolific","missing":false,"accuracy":1},{"contexts":["blue","red","green"],"outcomes":[0,0,1],"key":37,"choice":0,"rt":961.6050003096461,"outcome":0,"trial":5,"correct":2,"trial_type":"three-arm-trial","trial_index":17,"time_elapsed":230147,"internal_node_id":"0.0-11.0-0.0","task_version":"screening-prolific","missing":false,"accuracy":0},{"contexts":["blue","red","green"],"outcomes":[1,0,1],"key":38,"choice":1,"rt":39.84500002115965,"outcome":0,"trial":6,"correct":2,"trial_type":"three-arm-trial","trial_index":18,"time_elapsed":231400,"internal_node_id":"0.0-12.0-0.0","task_version":"screening-prolific","missing":false,"accuracy":0},{"contexts":["blue","red","green"],"outcomes":[1,0,1],"key":39,"choice":2,"rt":332.61500019580126,"outcome":1,"trial":7,"correct":2,"trial_type":"three-arm-trial","trial_index":19,"time_elapsed":232948,"internal_node_id":"0.0-13.0-0.0","task_version":"screening-prolific","missing":false,"accuracy":1},{"contexts":["blue","red","green"],"outcomes":[0,0,1],"key":39,"choice":2,"rt":50.06000027060509,"outcome":1,"trial":8,"correct":2,"trial_type":"three-arm-trial","trial_index":20,"time_elapsed":234211,"internal_node_id":"0.0-14.0-0.0","task_version":"screening-prolific","missing":false,"accuracy":1},{"contexts":["blue","red","green"],"outcomes":[0,1,1],"key":39,"choice":2,"rt":30.864999629557133,"outcome":1,"trial":9,"correct":2,"trial_type":"three-arm-trial","trial_index":21,"time_elapsed":235453,"internal_node_id":"0.0-15.0-0.0","task_version":"screening-prolific","missing":false,"accuracy":1},{"contexts":["blue","red","green"],"outcomes":[0,0,1],"key":39,"choice":2,"rt":43.71999949216843,"outcome":1,"trial":10,"correct":2,"trial_type":"three-arm-trial","trial_index":22,"time_elapsed":236710,"internal_node_id":"0.0-16.0-0.0","task_version":"screening-prolific","missing":false,"accuracy":1},{"contexts":["blue","red","green"],"outcomes":[0,0,0],"key":39,"choice":2,"rt":43.56999974697828,"outcome":0,"trial":11,"correct":2,"trial_type":"three-arm-trial","trial_index":23,"time_elapsed":237967,"internal_node_id":"0.0-17.0-0.0","task_version":"screening-prolific","missing":false,"accuracy":1},{"contexts":["blue","red","green"],"outcomes":[0,0,1],"key":37,"choice":0,"rt":590.544999577105,"outcome":0,"trial":12,"correct":2,"trial_type":"three-arm-trial","trial_index":24,"time_elapsed":239773,"internal_node_id":"0.0-18.0-0.0","task_version":"screening-prolific","missing":false,"accuracy":0},{"contexts":["blue","red","green"],"outcomes":[0,0,1],"key":39,"choice":2,"rt":448.4950006008148,"outcome":1,"trial":13,"correct":2,"trial_type":"three-arm-trial","trial_index":25,"time_elapsed":241436,"internal_node_id":"0.0-19.0-0.0","task_version":"screening-prolific","missing":false,"accuracy":1},{"contexts":["blue","red","green"],"outcomes":[0,0,1],"key":39,"choice":2,"rt":48.825000412762165,"outcome":1,"trial":14,"correct":2,"trial_type":"three-arm-trial","trial_index":26,"time_elapsed":242700,"internal_node_id":"0.0-20.0-0.0","task_version":"screening-prolific","missing":false,"accuracy":1},{"contexts":["blue","red","green"],"outcomes":[1,0,1],"key":39,"choice":2,"rt":45.660000294446945,"outcome":1,"trial":15,"correct":2,"trial_type":"three-arm-trial","trial_index":27,"time_elapsed":243959,"internal_node_id":"0.0-21.0-0.0","task_version":"screening-prolific","missing":false,"accuracy":1},{"contexts":["blue","red","green"],"outcomes":[0,1,0],"key":39,"choice":2,"rt":47.079999931156635,"outcome":0,"trial":16,"correct":1,"trial_type":"three-arm-trial","trial_index":28,"time_elapsed":245220,"internal_node_id":"0.0-22.0-0.0","task_version":"screening-prolific","missing":false,"accuracy":0},{"contexts":["blue","red","green"],"outcomes":[0,1,0],"key":38,"choice":1,"rt":193.4000002220273,"outcome":1,"trial":17,"correct":1,"trial_type":"three-arm-trial","trial_index":29,"time_elapsed":246626,"internal_node_id":"0.0-23.0-0.0","task_version":"screening-prolific","missing":false,"accuracy":1},{"contexts":["blue","red","green"],"outcomes":[0,0,0],"key":38,"choice":1,"rt":0.2749999985098839,"outcome":0,"trial":18,"correct":1,"trial_type":"three-arm-trial","trial_index":30,"time_elapsed":247836,"internal_node_id":"0.0-24.0-0.0","task_version":"screening-prolific","missing":false,"accuracy":1},{"contexts":["blue","red","green"],"outcomes":[0,1,1],"key":38,"choice":1,"rt":42.479999363422394,"outcome":1,"trial":19,"correct":1,"trial_type":"three-arm-trial","trial_index":31,"time_elapsed":249092,"internal_node_id":"0.0-25.0-0.0","task_version":"screening-prolific","missing":false,"accuracy":1},{"contexts":["blue","red","green"],"outcomes":[0,1,0],"key":38,"choice":1,"rt":56.71500042080879,"outcome":1,"trial":20,"correct":1,"trial_type":"three-arm-trial","trial_index":32,"time_elapsed":250363,"internal_node_id":"0.0-26.0-0.0","task_version":"screening-prolific","missing":false,"accuracy":1},{"contexts":["blue","red","green"],"outcomes":[1,1,0],"key":38,"choice":1,"rt":73.8149993121624,"outcome":1,"trial":21,"correct":1,"trial_type":"three-arm-trial","trial_index":33,"time_elapsed":251650,"internal_node_id":"0.0-27.0-0.0","task_version":"screening-prolific","missing":false,"accuracy":1},{"contexts":["blue","red","green"],"outcomes":[0,1,0],"key":38,"choice":1,"rt":107.7499995008111,"outcome":1,"trial":22,"correct":1,"trial_type":"three-arm-trial","trial_index":34,"time_elapsed":252971,"internal_node_id":"0.0-28.0-0.0","task_version":"screening-prolific","missing":false,"accuracy":1},{"contexts":["blue","red","green"],"outcomes":[1,0,0],"key":38,"choice":1,"rt":45.27499992400408,"outcome":0,"trial":23,"correct":1,"trial_type":"three-arm-trial","trial_index":35,"time_elapsed":254229,"internal_node_id":"0.0-29.0-0.0","task_version":"screening-prolific","missing":false,"accuracy":1},{"contexts":["blue","red","green"],"outcomes":[0,1,1],"key":38,"choice":1,"rt":104.6199994161725,"outcome":1,"trial":24,"correct":1,"trial_type":"three-arm-trial","trial_index":36,"time_elapsed":255547,"internal_node_id":"0.0-30.0-0.0","task_version":"screening-prolific","missing":false,"accuracy":1},{"contexts":["blue","red","green"],"outcomes":[0,1,0],"key":38,"choice":1,"rt":63.94500005990267,"outcome":1,"trial":25,"correct":1,"trial_type":"three-arm-trial","trial_index":37,"time_elapsed":256828,"internal_node_id":"0.0-31.0-0.0","task_version":"screening-prolific","missing":false,"accuracy":1},{"contexts":["blue","red","green"],"outcomes":[1,1,1],"key":38,"choice":1,"rt":0.36999955773353577,"outcome":1,"trial":26,"correct":1,"trial_type":"three-arm-trial","trial_index":38,"time_elapsed":258042,"internal_node_id":"0.0-32.0-0.0","task_version":"screening-prolific","missing":false,"accuracy":1},{"contexts":["blue","red","green"],"outcomes":[0,0,0],"key":38,"choice":1,"rt":90.73999989777803,"outcome":0,"trial":27,"correct":1,"trial_type":"three-arm-trial","trial_index":39,"time_elapsed":259346,"internal_node_id":"0.0-33.0-0.0","task_version":"screening-prolific","missing":false,"accuracy":1},{"contexts":["blue","red","green"],"outcomes":[0,1,0],"key":38,"choice":1,"rt":32.949999906122684,"outcome":1,"trial":28,"correct":1,"trial_type":"three-arm-trial","trial_index":40,"time_elapsed":260590,"internal_node_id":"0.0-34.0-0.0","task_version":"screening-prolific","missing":false,"accuracy":1},{"contexts":["blue","red","green"],"outcomes":[0,0,0],"key":38,"choice":1,"rt":160.42499989271164,"outcome":0,"trial":29,"correct":1,"trial_type":"three-arm-trial","trial_index":41,"time_elapsed":261963,"internal_node_id":"0.0-35.0-0.0","task_version":"screening-prolific","missing":false,"accuracy":1},{"contexts":["blue","red","green"],"outcomes":[0,1,0],"key":38,"choice":1,"rt":131.02500047534704,"outcome":1,"trial":30,"correct":1,"trial_type":"three-arm-trial","trial_index":42,"time_elapsed":263307,"internal_node_id":"0.0-36.0-0.0","task_version":"screening-prolific","missing":false,"accuracy":1},{"contexts":["blue","red","green"],"outcomes":[0,0,1],"key":38,"choice":1,"rt":39.4099997356534,"outcome":0,"trial":31,"correct":2,"trial_type":"three-arm-trial","trial_index":43,"time_elapsed":264560,"internal_node_id":"0.0-37.0-0.0","task_version":"screening-prolific","missing":false,"accuracy":0},{"contexts":["blue","red","green"],"outcomes":[0,1,1],"key":37,"choice":0,"rt":52.42499988526106,"outcome":0,"trial":32,"correct":2,"trial_type":"three-arm-trial","trial_index":44,"time_elapsed":265827,"internal_node_id":"0.0-38.0-0.0","task_version":"screening-prolific","missing":false,"accuracy":0},{"contexts":["blue","red","green"],"outcomes":[0,0,1],"key":39,"choice":2,"rt":275.00499971210957,"outcome":1,"trial":33,"correct":2,"trial_type":"three-arm-trial","trial_index":45,"time_elapsed":267316,"internal_node_id":"0.0-39.0-0.0","task_version":"screening-prolific","missing":false,"accuracy":1},{"contexts":["blue","red","green"],"outcomes":[0,0,1],"key":39,"choice":2,"rt":98.03500026464462,"outcome":1,"trial":34,"correct":2,"trial_type":"three-arm-trial","trial_index":46,"time_elapsed":268626,"internal_node_id":"0.0-40.0-0.0","task_version":"screening-prolific","missing":false,"accuracy":1},{"contexts":["blue","red","green"],"outcomes":[0,0,1],"key":39,"choice":2,"rt":82.55500067025423,"outcome":1,"trial":35,"correct":2,"trial_type":"three-arm-trial","trial_index":47,"time_elapsed":269924,"internal_node_id":"0.0-41.0-0.0","task_version":"screening-prolific","missing":false,"accuracy":1},{"contexts":["blue","red","green"],"outcomes":[1,1,0],"key":39,"choice":2,"rt":65.84000028669834,"outcome":0,"trial":36,"correct":2,"trial_type":"three-arm-trial","trial_index":48,"time_elapsed":271203,"internal_node_id":"0.0-42.0-0.0","task_version":"screening-prolific","missing":false,"accuracy":1},{"contexts":["blue","red","green"],"outcomes":[0,0,0],"key":39,"choice":2,"rt":32.49999973922968,"outcome":0,"trial":37,"correct":2,"trial_type":"three-arm-trial","trial_index":49,"time_elapsed":272449,"internal_node_id":"0.0-43.0-0.0","task_version":"screening-prolific","missing":false,"accuracy":1},{"contexts":["blue","red","green"],"outcomes":[0,0,1],"key":39,"choice":2,"rt":260.92000026255846,"outcome":1,"trial":38,"correct":2,"trial_type":"three-arm-trial","trial_index":50,"time_elapsed":273924,"internal_node_id":"0.0-44.0-0.0","task_version":"screening-prolific","missing":false,"accuracy":1},{"contexts":["blue","red","green"],"outcomes":[0,0,1],"key":39,"choice":2,"rt":473.97000063210726,"outcome":1,"trial":39,"correct":2,"trial_type":"three-arm-trial","trial_index":51,"time_elapsed":275612,"internal_node_id":"0.0-45.0-0.0","task_version":"screening-prolific","missing":false,"accuracy":1},{"contexts":["blue","red","green"],"outcomes":[0,1,0],"key":39,"choice":2,"rt":162.33500000089407,"outcome":0,"trial":40,"correct":2,"trial_type":"three-arm-trial","trial_index":52,"time_elapsed":276987,"internal_node_id":"0.0-46.0-0.0","task_version":"screening-prolific","missing":false,"accuracy":1},{"contexts":["blue","red","green"],"outcomes":[0,1,1],"key":39,"choice":2,"rt":39.6349998190999,"outcome":1,"trial":41,"correct":2,"trial_type":"three-arm-trial","trial_index":53,"time_elapsed":278240,"internal_node_id":"0.0-47.0-0.0","task_version":"screening-prolific","missing":false,"accuracy":1},{"contexts":["blue","red","green"],"outcomes":[0,0,1],"key":39,"choice":2,"rt":17.729999497532845,"outcome":1,"trial":42,"correct":2,"trial_type":"three-arm-trial","trial_index":54,"time_elapsed":279473,"internal_node_id":"0.0-48.0-0.0","task_version":"screening-prolific","missing":false,"accuracy":1},{"contexts":["blue","red","green"],"outcomes":[1,0,0],"key":39,"choice":2,"rt":100.22999998182058,"outcome":0,"trial":43,"correct":2,"trial_type":"three-arm-trial","trial_index":55,"time_elapsed":280787,"internal_node_id":"0.0-49.0-0.0","task_version":"screening-prolific","missing":false,"accuracy":1},{"contexts":["blue","red","green"],"outcomes":[0,0,1],"key":39,"choice":2,"rt":42.985000647604465,"outcome":1,"trial":44,"correct":2,"trial_type":"three-arm-trial","trial_index":56,"time_elapsed":282043,"internal_node_id":"0.0-50.0-0.0","task_version":"screening-prolific","missing":false,"accuracy":1},{"contexts":["blue","red","green"],"outcomes":[1,1,1],"key":39,"choice":2,"rt":250.94499997794628,"outcome":1,"trial":45,"correct":2,"trial_type":"three-arm-trial","trial_index":57,"time_elapsed":283508,"internal_node_id":"0.0-51.0-0.0","task_version":"screening-prolific","missing":false,"accuracy":1},{"contexts":["blue","red","green"],"outcomes":[0,1,0],"key":39,"choice":2,"rt":27.37999986857176,"outcome":0,"trial":46,"correct":0,"trial_type":"three-arm-trial","trial_index":58,"time_elapsed":284749,"internal_node_id":"0.0-52.0-0.0","task_version":"screening-prolific","missing":false,"accuracy":0},{"contexts":["blue","red","green"],"outcomes":[1,1,0],"key":39,"choice":2,"rt":184.5949999988079,"outcome":0,"trial":47,"correct":0,"trial_type":"three-arm-trial","trial_index":59,"time_elapsed":286147,"internal_node_id":"0.0-53.0-0.0","task_version":"screening-prolific","missing":false,"accuracy":0},{"contexts":["blue","red","green"],"outcomes":[1,0,0],"key":38,"choice":1,"rt":113.92499972134829,"outcome":0,"trial":48,"correct":0,"trial_type":"three-arm-trial","trial_index":60,"time_elapsed":287474,"internal_node_id":"0.0-54.0-0.0","task_version":"screening-prolific","missing":false,"accuracy":0},{"contexts":["blue","red","green"],"outcomes":[1,0,0],"key":38,"choice":1,"rt":179.43499982357025,"outcome":0,"trial":49,"correct":0,"trial_type":"three-arm-trial","trial_index":61,"time_elapsed":288867,"internal_node_id":"0.0-55.0-0.0","task_version":"screening-prolific","missing":false,"accuracy":0},{"contexts":["blue","red","green"],"outcomes":[1,0,1],"key":37,"choice":0,"rt":20.735000260174274,"outcome":1,"trial":50,"correct":0,"trial_type":"three-arm-trial","trial_index":62,"time_elapsed":290100,"internal_node_id":"0.0-56.0-0.0","task_version":"screening-prolific","missing":false,"accuracy":1},{"contexts":["blue","red","green"],"outcomes":[1,0,0],"key":37,"choice":0,"rt":13.335000723600388,"outcome":1,"trial":51,"correct":0,"trial_type":"three-arm-trial","trial_index":63,"time_elapsed":291327,"internal_node_id":"0.0-57.0-0.0","task_version":"screening-prolific","missing":false,"accuracy":1},{"contexts":["blue","red","green"],"outcomes":[1,0,0],"key":37,"choice":0,"rt":117.91499983519316,"outcome":1,"trial":52,"correct":0,"trial_type":"three-arm-trial","trial_index":64,"time_elapsed":292659,"internal_node_id":"0.0-58.0-0.0","task_version":"screening-prolific","missing":false,"accuracy":1},{"contexts":["blue","red","green"],"outcomes":[1,0,0],"key":37,"choice":0,"rt":0.35499967634677887,"outcome":1,"trial":53,"correct":0,"trial_type":"three-arm-trial","trial_index":65,"time_elapsed":293876,"internal_node_id":"0.0-59.0-0.0","task_version":"screening-prolific","missing":false,"accuracy":1},{"contexts":["blue","red","green"],"outcomes":[1,0,0],"key":37,"choice":0,"rt":162.08500042557716,"outcome":1,"trial":54,"correct":0,"trial_type":"three-arm-trial","trial_index":66,"time_elapsed":295251,"internal_node_id":"0.0-60.0-0.0","task_version":"screening-prolific","missing":false,"accuracy":1},{"contexts":["blue","red","green"],"outcomes":[1,0,0],"key":37,"choice":0,"rt":106.39999993145466,"outcome":1,"trial":55,"correct":0,"trial_type":"three-arm-trial","trial_index":67,"time_elapsed":296572,"internal_node_id":"0.0-61.0-0.0","task_version":"screening-prolific","missing":false,"accuracy":1},{"contexts":["blue","red","green"],"outcomes":[0,0,1],"key":37,"choice":0,"rt":88.30500021576881,"outcome":0,"trial":56,"correct":0,"trial_type":"three-arm-trial","trial_index":68,"time_elapsed":297877,"internal_node_id":"0.0-62.0-0.0","task_version":"screening-prolific","missing":false,"accuracy":1},{"contexts":["blue","red","green"],"outcomes":[1,0,1],"key":37,"choice":0,"rt":195.22499945014715,"outcome":1,"trial":57,"correct":0,"trial_type":"three-arm-trial","trial_index":69,"time_elapsed":299293,"internal_node_id":"0.0-63.0-0.0","task_version":"screening-prolific","missing":false,"accuracy":1},{"contexts":["blue","red","green"],"outcomes":[1,0,0],"key":37,"choice":0,"rt":173.42500016093254,"outcome":1,"trial":58,"correct":0,"trial_type":"three-arm-trial","trial_index":70,"time_elapsed":300674,"internal_node_id":"0.0-64.0-0.0","task_version":"screening-prolific","missing":false,"accuracy":1},{"contexts":["blue","red","green"],"outcomes":[1,1,0],"key":37,"choice":0,"rt":175.41499994695187,"outcome":1,"trial":59,"correct":0,"trial_type":"three-arm-trial","trial_index":71,"time_elapsed":302060,"internal_node_id":"0.0-65.0-0.0","task_version":"screening-prolific","missing":false,"accuracy":1},{"contexts":["blue","red","green"],"outcomes":[0,0,1],"key":37,"choice":0,"rt":72.66499940305948,"outcome":0,"trial":60,"correct":0,"trial_type":"three-arm-trial","trial_index":72,"time_elapsed":303347,"internal_node_id":"0.0-66.0-0.0","task_version":"screening-prolific","missing":false,"accuracy":1},{"contexts":["blue","red","green"],"outcomes":[0,1,1],"key":37,"choice":0,"rt":47.29500040411949,"outcome":0,"trial":61,"correct":1,"trial_type":"three-arm-trial","trial_index":73,"time_elapsed":304603,"internal_node_id":"0.0-67.0-0.0","task_version":"screening-prolific","missing":false,"accuracy":0},{"contexts":["blue","red","green"],"outcomes":[0,1,0],"key":37,"choice":0,"rt":51.455000415444374,"outcome":0,"trial":62,"correct":1,"trial_type":"three-arm-trial","trial_index":74,"time_elapsed":305867,"internal_node_id":"0.0-68.0-0.0","task_version":"screening-prolific","missing":false,"accuracy":0},{"contexts":["blue","red","green"],"outcomes":[0,1,0],"key":38,"choice":1,"rt":19.295000471174717,"outcome":1,"trial":63,"correct":1,"trial_type":"three-arm-trial","trial_index":75,"time_elapsed":307097,"internal_node_id":"0.0-69.0-0.0","task_version":"screening-prolific","missing":false,"accuracy":1},{"contexts":["blue","red","green"],"outcomes":[0,1,0],"key":38,"choice":1,"rt":121.8099994584918,"outcome":1,"trial":64,"correct":1,"trial_type":"three-arm-trial","trial_index":76,"time_elapsed":308435,"internal_node_id":"0.0-70.0-0.0","task_version":"screening-prolific","missing":false,"accuracy":1},{"contexts":["blue","red","green"],"outcomes":[0,1,0],"key":38,"choice":1,"rt":65.8799996599555,"outcome":1,"trial":65,"correct":1,"trial_type":"three-arm-trial","trial_index":77,"time_elapsed":309714,"internal_node_id":"0.0-71.0-0.0","task_version":"screening-prolific","missing":false,"accuracy":1},{"contexts":["blue","red","green"],"outcomes":[0,1,0],"key":38,"choice":1,"rt":42.55999997258186,"outcome":1,"trial":66,"correct":1,"trial_type":"three-arm-trial","trial_index":78,"time_elapsed":310972,"internal_node_id":"0.0-72.0-0.0","task_version":"screening-prolific","missing":false,"accuracy":1},{"contexts":["blue","red","green"],"outcomes":[0,0,1],"key":38,"choice":1,"rt":0.36999955773353577,"outcome":0,"trial":67,"correct":1,"trial_type":"three-arm-trial","trial_index":79,"time_elapsed":312186,"internal_node_id":"0.0-73.0-0.0","task_version":"screening-prolific","missing":false,"accuracy":1},{"contexts":["blue","red","green"],"outcomes":[0,1,0],"key":38,"choice":1,"rt":120.27999944984913,"outcome":1,"trial":68,"correct":1,"trial_type":"three-arm-trial","trial_index":80,"time_elapsed":313517,"internal_node_id":"0.0-74.0-0.0","task_version":"screening-prolific","missing":false,"accuracy":1},{"contexts":["blue","red","green"],"outcomes":[0,1,0],"key":38,"choice":1,"rt":135.42500045150518,"outcome":1,"trial":69,"correct":1,"trial_type":"three-arm-trial","trial_index":81,"time_elapsed":314866,"internal_node_id":"0.0-75.0-0.0","task_version":"screening-prolific","missing":false,"accuracy":1},{"contexts":["blue","red","green"],"outcomes":[0,1,0],"key":38,"choice":1,"rt":134.90999955683947,"outcome":1,"trial":70,"correct":1,"trial_type":"three-arm-trial","trial_index":82,"time_elapsed":316211,"internal_node_id":"0.0-76.0-0.0","task_version":"screening-prolific","missing":false,"accuracy":1},{"contexts":["blue","red","green"],"outcomes":[0,1,0],"key":38,"choice":1,"rt":89.07500002533197,"outcome":1,"trial":71,"correct":1,"trial_type":"three-arm-trial","trial_index":83,"time_elapsed":317515,"internal_node_id":"0.0-77.0-0.0","task_version":"screening-prolific","missing":false,"accuracy":1},{"contexts":["blue","red","green"],"outcomes":[0,0,0],"key":38,"choice":1,"rt":129.76500019431114,"outcome":0,"trial":72,"correct":1,"trial_type":"three-arm-trial","trial_index":84,"time_elapsed":318859,"internal_node_id":"0.0-78.0-0.0","task_version":"screening-prolific","missing":false,"accuracy":1},{"contexts":["blue","red","green"],"outcomes":[0,1,0],"key":38,"choice":1,"rt":65.98000042140484,"outcome":1,"trial":73,"correct":1,"trial_type":"three-arm-trial","trial_index":85,"time_elapsed":320139,"internal_node_id":"0.0-79.0-0.0","task_version":"screening-prolific","missing":false,"accuracy":1},{"contexts":["blue","red","green"],"outcomes":[0,1,0],"key":38,"choice":1,"rt":58.980000205338,"outcome":1,"trial":74,"correct":1,"trial_type":"three-arm-trial","trial_index":86,"time_elapsed":321411,"internal_node_id":"0.0-80.0-0.0","task_version":"screening-prolific","missing":false,"accuracy":1},{"contexts":["blue","red","green"],"outcomes":[0,1,0],"key":38,"choice":1,"rt":79.7749999910593,"outcome":1,"trial":75,"correct":1,"trial_type":"three-arm-trial","trial_index":87,"time_elapsed":322700,"internal_node_id":"0.0-81.0-0.0","task_version":"screening-prolific","missing":false,"accuracy":1},{"contexts":["blue","red","green"],"outcomes":[0,0,1],"key":38,"choice":1,"rt":127.9650004580617,"outcome":0,"trial":76,"correct":2,"trial_type":"three-arm-trial","trial_index":88,"time_elapsed":324043,"internal_node_id":"0.0-82.0-0.0","task_version":"screening-prolific","missing":false,"accuracy":0},{"contexts":["blue","red","green"],"outcomes":[0,0,1],"key":38,"choice":1,"rt":50.044999457895756,"outcome":0,"trial":77,"correct":2,"trial_type":"three-arm-trial","trial_index":89,"time_elapsed":325308,"internal_node_id":"0.0-83.0-0.0","task_version":"screening-prolific","missing":false,"accuracy":0},{"contexts":["blue","red","green"],"outcomes":[1,0,0],"key":38,"choice":1,"rt":81.15999959409237,"outcome":0,"trial":78,"correct":2,"trial_type":"three-arm-trial","trial_index":90,"time_elapsed":326603,"internal_node_id":"0.0-84.0-0.0","task_version":"screening-prolific","missing":false,"accuracy":0},{"contexts":["blue","red","green"],"outcomes":[0,0,0],"key":39,"choice":2,"rt":0.40499959141016006,"outcome":0,"trial":79,"correct":2,"trial_type":"three-arm-trial","trial_index":91,"time_elapsed":327817,"internal_node_id":"0.0-85.0-0.0","task_version":"screening-prolific","missing":false,"accuracy":1},{"contexts":["blue","red","green"],"outcomes":[0,1,1],"key":37,"choice":0,"rt":60.565000399947166,"outcome":0,"trial":80,"correct":2,"trial_type":"three-arm-trial","trial_index":92,"time_elapsed":329091,"internal_node_id":"0.0-86.0-0.0","task_version":"screening-prolific","missing":false,"accuracy":0},{"contexts":["blue","red","green"],"outcomes":[0,0,1],"key":38,"choice":1,"rt":19.785000011324883,"outcome":0,"trial":81,"correct":2,"trial_type":"three-arm-trial","trial_index":93,"time_elapsed":330325,"internal_node_id":"0.0-87.0-0.0","task_version":"screening-prolific","missing":false,"accuracy":0},{"contexts":["blue","red","green"],"outcomes":[1,0,1],"key":39,"choice":2,"rt":144.31000035256147,"outcome":1,"trial":82,"correct":2,"trial_type":"three-arm-trial","trial_index":94,"time_elapsed":331684,"internal_node_id":"0.0-88.0-0.0","task_version":"screening-prolific","missing":false,"accuracy":1},{"contexts":["blue","red","green"],"outcomes":[0,0,1],"key":39,"choice":2,"rt":47.9100001975894,"outcome":1,"trial":83,"correct":2,"trial_type":"three-arm-trial","trial_index":95,"time_elapsed":332945,"internal_node_id":"0.0-89.0-0.0","task_version":"screening-prolific","missing":false,"accuracy":1},{"contexts":["blue","red","green"],"outcomes":[0,0,1],"key":39,"choice":2,"rt":116.53499957174063,"outcome":1,"trial":84,"correct":2,"trial_type":"three-arm-trial","trial_index":96,"time_elapsed":334275,"internal_node_id":"0.0-90.0-0.0","task_version":"screening-prolific","missing":false,"accuracy":1},{"contexts":["blue","red","green"],"outcomes":[1,0,0],"key":39,"choice":2,"rt":43.07000059634447,"outcome":0,"trial":85,"correct":2,"trial_type":"three-arm-trial","trial_index":97,"time_elapsed":335531,"internal_node_id":"0.0-91.0-0.0","task_version":"screening-prolific","missing":false,"accuracy":1},{"contexts":["blue","red","green"],"outcomes":[0,0,0],"key":39,"choice":2,"rt":89.45499919354916,"outcome":0,"trial":86,"correct":2,"trial_type":"three-arm-trial","trial_index":98,"time_elapsed":336835,"internal_node_id":"0.0-92.0-0.0","task_version":"screening-prolific","missing":false,"accuracy":1},{"contexts":["blue","red","green"],"outcomes":[0,0,1],"key":39,"choice":2,"rt":21.515000611543655,"outcome":1,"trial":87,"correct":2,"trial_type":"three-arm-trial","trial_index":99,"time_elapsed":338070,"internal_node_id":"0.0-93.0-0.0","task_version":"screening-prolific","missing":false,"accuracy":1},{"contexts":["blue","red","green"],"outcomes":[0,0,0],"key":39,"choice":2,"rt":158.94999913871288,"outcome":0,"trial":88,"correct":2,"trial_type":"three-arm-trial","trial_index":100,"time_elapsed":339442,"internal_node_id":"0.0-94.0-0.0","task_version":"screening-prolific","missing":false,"accuracy":1},{"contexts":["blue","red","green"],"outcomes":[0,1,1],"key":37,"choice":0,"rt":88.18999957293272,"outcome":0,"trial":89,"correct":2,"trial_type":"three-arm-trial","trial_index":101,"time_elapsed":340740,"internal_node_id":"0.0-95.0-0.0","task_version":"screening-prolific","missing":false,"accuracy":0},{"contexts":["blue","red","green"],"outcomes":[0,1,0],"key":38,"choice":1,"rt":123.61500039696693,"outcome":1,"trial":90,"correct":2,"trial_type":"three-arm-trial","trial_index":102,"time_elapsed":342077,"internal_node_id":"0.0-96.0-0.0","task_version":"screening-prolific","missing":false,"accuracy":0},{"rt":23137.34500017017,"responses":{"age":"29","gender-categorical":"Male","gender-free-response":"","ethnicity":"Not Hispanic or Latino","race":"Asian","language":"No","fluency":"Very well","mturk":"No","mturk-this-study":"No"},"survey":"demographics","trial_type":"survey-demo","trial_index":103,"time_elapsed":365231,"internal_node_id":"0.0-97.0","task_version":"screening-prolific","interactions":"[]"}]