[{"responses":{"Q03":"1","Q02":"1","Q01":"2"},"rt":20009.149999998044,"survey":"pswq","trial_type":"survey-template","trial_index":0,"time_elapsed":20022,"internal_node_id":"0.0-0.0","task_version":"screening-prolific"},{"responses":{"Q07":"0","Q06":"2","Q04":"1","Q03":"1","Q01":"1","Q08":"0","Q05":"0","Q02":"0"},"rt":45811.65999999939,"survey":"gad7","trial_type":"survey-template","trial_index":1,"time_elapsed":65856,"internal_node_id":"0.0-1.0","task_version":"screening-prolific"},{"responses":{"Q01":"2","Q11":"2","Q10":"3","Q14":"3","Q04":"3","Q05":"3","Q03":"3","Q12":"3","Q13":"3","Q08":"3","Q09":"2","Q02":"2","Q06":"2","Q07":"3","Q15":"3"},"rt":45983.375000003434,"survey":"shaps","trial_type":"survey-template","trial_index":2,"time_elapsed":111860,"internal_node_id":"0.0-2.0","task_version":"screening-prolific"},{"responses":{"Q03":"1","Q07":"3","Q09":"2","Q13":"3","Q02":"2","Q12":"1","Q11":"1","Q04":"2","Q08":"2","Q06":"2","Q01":"1","Q05":"2","Q10":"2"},"rt":73211.30999999878,"survey":"bisbas","trial_type":"survey-template","trial_index":3,"time_elapsed":185098,"internal_node_id":"0.0-3.0","task_version":"screening-prolific"},{"responses":{"Q15":"0","Q13":"1","Q01":"0","Q04":"1","Q02":"0","Q05":"1","Q09":"0","Q12":"0","Q11":"1","Q03":"1","Q06":"0","Q14":"0","Q10":"1","Q08":"1","Q07":"1"},"rt":117048.2650000049,"survey":"7up7down","trial_type":"survey-template","trial_index":4,"time_elapsed":302168,"internal_node_id":"0.0-4.0","task_version":"screening-prolific"},{"view_history":"[{\"page_index\":0,\"viewing_time\":6277.57500000007},{\"page_index\":1,\"viewing_time\":12060.975000000326},{\"page_index\":2,\"viewing_time\":10181.440000000293},{\"page_index\":3,\"viewing_time\":10451.554999999644},{\"page_index\":4,\"viewing_time\":8178.599999999278},{\"page_index\":5,\"viewing_time\":3622.654999999213},{\"page_index\":6,\"viewing_time\":4736.3800000021},{\"page_index\":7,\"viewing_time\":4623.559999999998}]","rt":60134.12499999686,"trial_type":"instructions","trial_index":5,"time_elapsed":362319,"internal_node_id":"0.0-5.0-0.0","task_version":"screening-prolific"},{"responses":["True","True","True","False","True"],"num_errors":1,"rt":20336.90000000206,"trial_type":"three-arm-comprehension","trial_index":6,"time_elapsed":382661,"internal_node_id":"0.0-5.0-1.0","task_version":"screening-prolific"},{"view_history":"[{\"page_index\":0,\"viewing_time\":5553.749999999127},{\"page_index\":1,\"viewing_time\":4556.335000001127},{\"page_index\":2,\"viewing_time\":1058.0550000013318},{\"page_index\":3,\"viewing_time\":3363.35500000132},{\"page_index\":4,\"viewing_time\":8133.8399999949615},{\"page_index\":5,\"viewing_time\":3644.8900000032154},{\"page_index\":6,\"viewing_time\":1721.384999997099},{\"page_index\":7,\"viewing_time\":990.1900000040769}]","rt":29022.335000001476,"trial_type":"instructions","trial_index":7,"time_elapsed":411707,"internal_node_id":"0.0-5.1-0.1","task_version":"screening-prolific"},{"responses":["True","True","False","False","True"],"num_errors":0,"rt":14104.989999999816,"trial_type":"three-arm-comprehension","trial_index":8,"time_elapsed":425815,"internal_node_id":"0.0-5.1-1.1","task_version":"screening-prolific"},{"view_history":"[{\"page_index\":0,\"viewing_time\":1838.4549999973387}]","rt":1838.8550000017858,"trial_type":"instructions","trial_index":9,"time_elapsed":427670,"internal_node_id":"0.0-6.0","task_version":"screening-prolific"},{"contexts":["red","green","blue"],"outcomes":[1,1,0],"key":38,"choice":1,"rt":3334.565000004659,"outcome":1,"trial":1,"correct":1,"trial_type":"three-arm-trial","trial_index":10,"time_elapsed":432210,"internal_node_id":"0.0-7.0-0.0","task_version":"screening-prolific","missing":false,"accuracy":1},{"contexts":["red","green","blue"],"outcomes":[1,1,0],"key":38,"choice":1,"rt":1947.5099999981467,"outcome":1,"trial":2,"correct":1,"trial_type":"three-arm-trial","trial_index":11,"time_elapsed":435380,"internal_node_id":"0.0-8.0-0.0","task_version":"screening-prolific","missing":false,"accuracy":1},{"contexts":["red","green","blue"],"outcomes":[0,1,0],"key":38,"choice":1,"rt":730.969999996887,"outcome":1,"trial":3,"correct":1,"trial_type":"three-arm-trial","trial_index":12,"time_elapsed":437333,"internal_node_id":"0.0-9.0-0.0","task_version":"screening-prolific","missing":false,"accuracy":1},{"contexts":["red","green","blue"],"outcomes":[0,1,0],"key":38,"choice":1,"rt":693.3849999986705,"outcome":1,"trial":4,"correct":1,"trial_type":"three-arm-trial","trial_index":13,"time_elapsed":439254,"internal_node_id":"0.0-10.0-0.0","task_version":"screening-prolific","missing":false,"accuracy":1},{"contexts":["red","green","blue"],"outcomes":[0,1,0],"key":38,"choice":1,"rt":743.8250000050175,"outcome":1,"trial":5,"correct":1,"trial_type":"three-arm-trial","trial_index":14,"time_elapsed":441217,"internal_node_id":"0.0-11.0-0.0","task_version":"screening-prolific","missing":false,"accuracy":1},{"contexts":["red","green","blue"],"outcomes":[0,1,0],"key":38,"choice":1,"rt":399.53000000241445,"outcome":1,"trial":6,"correct":1,"trial_type":"three-arm-trial","trial_index":15,"time_elapsed":442839,"internal_node_id":"0.0-12.0-0.0","task_version":"screening-prolific","missing":false,"accuracy":1},{"contexts":["red","green","blue"],"outcomes":[0,0,0],"key":38,"choice":1,"rt":281.169999994745,"outcome":0,"trial":7,"correct":1,"trial_type":"three-arm-trial","trial_index":16,"time_elapsed":444342,"internal_node_id":"0.0-13.0-0.0","task_version":"screening-prolific","missing":false,"accuracy":1},{"contexts":["red","green","blue"],"outcomes":[0,0,0],"key":37,"choice":0,"rt":92.1100000050501,"outcome":0,"trial":8,"correct":1,"trial_type":"three-arm-trial","trial_index":17,"time_elapsed":445658,"internal_node_id":"0.0-14.0-0.0","task_version":"screening-prolific","missing":false,"accuracy":0},{"contexts":["red","green","blue"],"outcomes":[0,0,0],"key":39,"choice":2,"rt":558.2350000040606,"outcome":0,"trial":9,"correct":1,"trial_type":"three-arm-trial","trial_index":18,"time_elapsed":447437,"internal_node_id":"0.0-15.0-0.0","task_version":"screening-prolific","missing":false,"accuracy":0},{"contexts":["red","green","blue"],"outcomes":[0,1,0],"key":38,"choice":1,"rt":362.9350000046543,"outcome":1,"trial":10,"correct":1,"trial_type":"three-arm-trial","trial_index":19,"time_elapsed":449021,"internal_node_id":"0.0-16.0-0.0","task_version":"screening-prolific","missing":false,"accuracy":1},{"contexts":["red","green","blue"],"outcomes":[0,1,0],"key":38,"choice":1,"rt":300.41000000346685,"outcome":1,"trial":11,"correct":1,"trial_type":"three-arm-trial","trial_index":20,"time_elapsed":450542,"internal_node_id":"0.0-17.0-0.0","task_version":"screening-prolific","missing":false,"accuracy":1},{"contexts":["red","green","blue"],"outcomes":[0,1,1],"key":38,"choice":1,"rt":404.82499999779975,"outcome":1,"trial":12,"correct":1,"trial_type":"three-arm-trial","trial_index":21,"time_elapsed":452166,"internal_node_id":"0.0-18.0-0.0","task_version":"screening-prolific","missing":false,"accuracy":1},{"contexts":["red","green","blue"],"outcomes":[0,0,0],"key":38,"choice":1,"rt":282.50500000285683,"outcome":0,"trial":13,"correct":1,"trial_type":"three-arm-trial","trial_index":22,"time_elapsed":453672,"internal_node_id":"0.0-19.0-0.0","task_version":"screening-prolific","missing":false,"accuracy":1},{"contexts":["red","green","blue"],"outcomes":[1,1,1],"key":38,"choice":1,"rt":254.03999999980442,"outcome":1,"trial":14,"correct":1,"trial_type":"three-arm-trial","trial_index":23,"time_elapsed":455149,"internal_node_id":"0.0-20.0-0.0","task_version":"screening-prolific","missing":false,"accuracy":1},{"contexts":["red","green","blue"],"outcomes":[0,0,1],"key":38,"choice":1,"rt":270.5950000017765,"outcome":0,"trial":15,"correct":1,"trial_type":"three-arm-trial","trial_index":24,"time_elapsed":456650,"internal_node_id":"0.0-21.0-0.0","task_version":"screening-prolific","missing":false,"accuracy":1},{"contexts":["red","green","blue"],"outcomes":[1,1,1],"key":39,"choice":2,"rt":186.60999999701744,"outcome":1,"trial":16,"correct":0,"trial_type":"three-arm-trial","trial_index":25,"time_elapsed":458063,"internal_node_id":"0.0-22.0-0.0","task_version":"screening-prolific","missing":false,"accuracy":0},{"contexts":["red","green","blue"],"outcomes":[1,0,0],"key":39,"choice":2,"rt":201.9799999980023,"outcome":0,"trial":17,"correct":0,"trial_type":"three-arm-trial","trial_index":26,"time_elapsed":459485,"internal_node_id":"0.0-23.0-0.0","task_version":"screening-prolific","missing":false,"accuracy":0},{"contexts":["red","green","blue"],"outcomes":[1,0,0],"key":38,"choice":1,"rt":368.0549999990035,"outcome":0,"trial":18,"correct":0,"trial_type":"three-arm-trial","trial_index":27,"time_elapsed":461078,"internal_node_id":"0.0-24.0-0.0","task_version":"screening-prolific","missing":false,"accuracy":0},{"contexts":["red","green","blue"],"outcomes":[1,0,0],"key":37,"choice":0,"rt":75.10000000183936,"outcome":1,"trial":19,"correct":0,"trial_type":"three-arm-trial","trial_index":28,"time_elapsed":462374,"internal_node_id":"0.0-25.0-0.0","task_version":"screening-prolific","missing":false,"accuracy":1},{"contexts":["red","green","blue"],"outcomes":[1,0,0],"key":37,"choice":0,"rt":271.5250000037486,"outcome":1,"trial":20,"correct":0,"trial_type":"three-arm-trial","trial_index":29,"time_elapsed":463871,"internal_node_id":"0.0-26.0-0.0","task_version":"screening-prolific","missing":false,"accuracy":1},{"contexts":["red","green","blue"],"outcomes":[1,0,0],"key":37,"choice":0,"rt":660.3499999982887,"outcome":1,"trial":21,"correct":0,"trial_type":"three-arm-trial","trial_index":30,"time_elapsed":465749,"internal_node_id":"0.0-27.0-0.0","task_version":"screening-prolific","missing":false,"accuracy":1},{"contexts":["red","green","blue"],"outcomes":[1,0,0],"key":37,"choice":0,"rt":724.3650000018533,"outcome":1,"trial":22,"correct":0,"trial_type":"three-arm-trial","trial_index":31,"time_elapsed":467694,"internal_node_id":"0.0-28.0-0.0","task_version":"screening-prolific","missing":false,"accuracy":1},{"contexts":["red","green","blue"],"outcomes":[0,0,0],"key":37,"choice":0,"rt":604.9650000059046,"outcome":0,"trial":23,"correct":0,"trial_type":"three-arm-trial","trial_index":32,"time_elapsed":469524,"internal_node_id":"0.0-29.0-0.0","task_version":"screening-prolific","missing":false,"accuracy":1},{"contexts":["red","green","blue"],"outcomes":[1,0,1],"key":38,"choice":1,"rt":166.05500000150641,"outcome":0,"trial":24,"correct":0,"trial_type":"three-arm-trial","trial_index":33,"time_elapsed":470908,"internal_node_id":"0.0-30.0-0.0","task_version":"screening-prolific","missing":false,"accuracy":0},{"contexts":["red","green","blue"],"outcomes":[1,1,0],"key":39,"choice":2,"rt":330.3349999987404,"outcome":0,"trial":25,"correct":0,"trial_type":"three-arm-trial","trial_index":34,"time_elapsed":472461,"internal_node_id":"0.0-31.0-0.0","task_version":"screening-prolific","missing":false,"accuracy":0},{"contexts":["red","green","blue"],"outcomes":[1,0,0],"key":37,"choice":0,"rt":8.405000000493601,"outcome":1,"trial":26,"correct":0,"trial_type":"three-arm-trial","trial_index":35,"time_elapsed":473693,"internal_node_id":"0.0-32.0-0.0","task_version":"screening-prolific","missing":false,"accuracy":1},{"contexts":["red","green","blue"],"outcomes":[1,0,0],"key":37,"choice":0,"rt":49.11999999603722,"outcome":1,"trial":27,"correct":0,"trial_type":"three-arm-trial","trial_index":36,"time_elapsed":474964,"internal_node_id":"0.0-33.0-0.0","task_version":"screening-prolific","missing":false,"accuracy":1},{"contexts":["red","green","blue"],"outcomes":[1,0,0],"key":37,"choice":0,"rt":259.12000000244007,"outcome":1,"trial":28,"correct":0,"trial_type":"three-arm-trial","trial_index":37,"time_elapsed":476446,"internal_node_id":"0.0-34.0-0.0","task_version":"screening-prolific","missing":false,"accuracy":1},{"contexts":["red","green","blue"],"outcomes":[1,0,0],"key":37,"choice":0,"rt":308.5999999966589,"outcome":1,"trial":29,"correct":0,"trial_type":"three-arm-trial","trial_index":38,"time_elapsed":477983,"internal_node_id":"0.0-35.0-0.0","task_version":"screening-prolific","missing":false,"accuracy":1},{"contexts":["red","green","blue"],"outcomes":[0,0,0],"key":37,"choice":0,"rt":362.1650000059162,"outcome":0,"trial":30,"correct":0,"trial_type":"three-arm-trial","trial_index":39,"time_elapsed":479571,"internal_node_id":"0.0-36.0-0.0","task_version":"screening-prolific","missing":false,"accuracy":1},{"contexts":["red","green","blue"],"outcomes":[0,0,1],"key":38,"choice":1,"rt":138.31000000209315,"outcome":0,"trial":31,"correct":2,"trial_type":"three-arm-trial","trial_index":40,"time_elapsed":480933,"internal_node_id":"0.0-37.0-0.0","task_version":"screening-prolific","missing":false,"accuracy":0},{"contexts":["red","green","blue"],"outcomes":[0,0,1],"key":38,"choice":1,"rt":754.3300000033923,"outcome":0,"trial":32,"correct":2,"trial_type":"three-arm-trial","trial_index":41,"time_elapsed":482909,"internal_node_id":"0.0-38.0-0.0","task_version":"screening-prolific","missing":false,"accuracy":0},{"contexts":["red","green","blue"],"outcomes":[0,1,1],"key":39,"choice":2,"rt":63.819999995757826,"outcome":1,"trial":33,"correct":2,"trial_type":"three-arm-trial","trial_index":42,"time_elapsed":484197,"internal_node_id":"0.0-39.0-0.0","task_version":"screening-prolific","missing":false,"accuracy":1},{"contexts":["red","green","blue"],"outcomes":[0,1,1],"key":39,"choice":2,"rt":381.9149999981164,"outcome":1,"trial":34,"correct":2,"trial_type":"three-arm-trial","trial_index":43,"time_elapsed":485799,"internal_node_id":"0.0-40.0-0.0","task_version":"screening-prolific","missing":false,"accuracy":1},{"contexts":["red","green","blue"],"outcomes":[0,0,1],"key":39,"choice":2,"rt":0.2949999980046414,"outcome":1,"trial":35,"correct":2,"trial_type":"three-arm-trial","trial_index":44,"time_elapsed":487023,"internal_node_id":"0.0-41.0-0.0","task_version":"screening-prolific","missing":false,"accuracy":1},{"contexts":["red","green","blue"],"outcomes":[0,0,1],"key":39,"choice":2,"rt":383.414999996603,"outcome":1,"trial":36,"correct":2,"trial_type":"three-arm-trial","trial_index":45,"time_elapsed":488632,"internal_node_id":"0.0-42.0-0.0","task_version":"screening-prolific","missing":false,"accuracy":1},{"contexts":["red","green","blue"],"outcomes":[0,0,1],"key":39,"choice":2,"rt":165.95999999844935,"outcome":1,"trial":37,"correct":2,"trial_type":"three-arm-trial","trial_index":46,"time_elapsed":490021,"internal_node_id":"0.0-43.0-0.0","task_version":"screening-prolific","missing":false,"accuracy":1},{"contexts":["red","green","blue"],"outcomes":[1,0,1],"key":39,"choice":2,"rt":241.60000000119908,"outcome":1,"trial":38,"correct":2,"trial_type":"three-arm-trial","trial_index":47,"time_elapsed":491483,"internal_node_id":"0.0-44.0-0.0","task_version":"screening-prolific","missing":false,"accuracy":1},{"contexts":["red","green","blue"],"outcomes":[0,0,1],"key":39,"choice":2,"rt":186.7050000000745,"outcome":1,"trial":39,"correct":2,"trial_type":"three-arm-trial","trial_index":48,"time_elapsed":492893,"internal_node_id":"0.0-45.0-0.0","task_version":"screening-prolific","missing":false,"accuracy":1},{"contexts":["red","green","blue"],"outcomes":[0,0,1],"key":39,"choice":2,"rt":59.97499999648426,"outcome":1,"trial":40,"correct":2,"trial_type":"three-arm-trial","trial_index":49,"time_elapsed":494174,"internal_node_id":"0.0-46.0-0.0","task_version":"screening-prolific","missing":false,"accuracy":1},{"contexts":["red","green","blue"],"outcomes":[0,0,1],"key":39,"choice":2,"rt":0.3149999974993989,"outcome":1,"trial":41,"correct":2,"trial_type":"three-arm-trial","trial_index":50,"time_elapsed":495397,"internal_node_id":"0.0-47.0-0.0","task_version":"screening-prolific","missing":false,"accuracy":1},{"contexts":["red","green","blue"],"outcomes":[0,0,1],"key":39,"choice":2,"rt":638.3450000066659,"outcome":1,"trial":42,"correct":2,"trial_type":"three-arm-trial","trial_index":51,"time_elapsed":497261,"internal_node_id":"0.0-48.0-0.0","task_version":"screening-prolific","missing":false,"accuracy":1},{"contexts":["red","green","blue"],"outcomes":[0,0,1],"key":39,"choice":2,"rt":68.61499999649823,"outcome":1,"trial":43,"correct":2,"trial_type":"three-arm-trial","trial_index":52,"time_elapsed":498550,"internal_node_id":"0.0-49.0-0.0","task_version":"screening-prolific","missing":false,"accuracy":1},{"contexts":["red","green","blue"],"outcomes":[0,0,0],"key":39,"choice":2,"rt":611.04499999783,"outcome":0,"trial":44,"correct":2,"trial_type":"three-arm-trial","trial_index":53,"time_elapsed":500385,"internal_node_id":"0.0-50.0-0.0","task_version":"screening-prolific","missing":false,"accuracy":1},{"contexts":["red","green","blue"],"outcomes":[0,0,1],"key":37,"choice":0,"rt":165.15000000072177,"outcome":0,"trial":45,"correct":2,"trial_type":"three-arm-trial","trial_index":54,"time_elapsed":501772,"internal_node_id":"0.0-51.0-0.0","task_version":"screening-prolific","missing":false,"accuracy":0},{"contexts":["red","green","blue"],"outcomes":[0,1,0],"key":38,"choice":1,"rt":159.07000000152038,"outcome":1,"trial":46,"correct":1,"trial_type":"three-arm-trial","trial_index":55,"time_elapsed":503148,"internal_node_id":"0.0-52.0-0.0","task_version":"screening-prolific","missing":false,"accuracy":1},{"contexts":["red","green","blue"],"outcomes":[0,0,0],"key":38,"choice":1,"rt":17.455000001064036,"outcome":0,"trial":47,"correct":1,"trial_type":"three-arm-trial","trial_index":56,"time_elapsed":504389,"internal_node_id":"0.0-53.0-0.0","task_version":"screening-prolific","missing":false,"accuracy":1},{"contexts":["red","green","blue"],"outcomes":[0,1,0],"key":39,"choice":2,"rt":168.47499999857973,"outcome":0,"trial":48,"correct":1,"trial_type":"three-arm-trial","trial_index":57,"time_elapsed":505780,"internal_node_id":"0.0-54.0-0.0","task_version":"screening-prolific","missing":false,"accuracy":0},{"contexts":["red","green","blue"],"outcomes":[0,0,0],"key":37,"choice":0,"rt":66.64000000455417,"outcome":0,"trial":49,"correct":1,"trial_type":"three-arm-trial","trial_index":58,"time_elapsed":507067,"internal_node_id":"0.0-55.0-0.0","task_version":"screening-prolific","missing":false,"accuracy":0},{"contexts":["red","green","blue"],"outcomes":[0,1,0],"key":38,"choice":1,"rt":313.96500000118976,"outcome":1,"trial":50,"correct":1,"trial_type":"three-arm-trial","trial_index":59,"time_elapsed":508604,"internal_node_id":"0.0-56.0-0.0","task_version":"screening-prolific","missing":false,"accuracy":1},{"contexts":["red","green","blue"],"outcomes":[0,0,0],"key":38,"choice":1,"rt":174.30000000604196,"outcome":0,"trial":51,"correct":1,"trial_type":"three-arm-trial","trial_index":60,"time_elapsed":510004,"internal_node_id":"0.0-57.0-0.0","task_version":"screening-prolific","missing":false,"accuracy":1},{"contexts":["red","green","blue"],"outcomes":[0,1,0],"key":38,"choice":1,"rt":148.89499999844702,"outcome":1,"trial":52,"correct":1,"trial_type":"three-arm-trial","trial_index":61,"time_elapsed":511380,"internal_node_id":"0.0-58.0-0.0","task_version":"screening-prolific","missing":false,"accuracy":1},{"contexts":["red","green","blue"],"outcomes":[0,1,0],"key":38,"choice":1,"rt":107.47499999706633,"outcome":1,"trial":53,"correct":1,"trial_type":"three-arm-trial","trial_index":62,"time_elapsed":512713,"internal_node_id":"0.0-59.0-0.0","task_version":"screening-prolific","missing":false,"accuracy":1},{"contexts":["red","green","blue"],"outcomes":[1,1,0],"key":38,"choice":1,"rt":36.14999999990687,"outcome":1,"trial":54,"correct":1,"trial_type":"three-arm-trial","trial_index":63,"time_elapsed":513971,"internal_node_id":"0.0-60.0-0.0","task_version":"screening-prolific","missing":false,"accuracy":1},{"contexts":["red","green","blue"],"outcomes":[1,1,0],"key":38,"choice":1,"rt":172.08499999833293,"outcome":1,"trial":55,"correct":1,"trial_type":"three-arm-trial","trial_index":64,"time_elapsed":515365,"internal_node_id":"0.0-61.0-0.0","task_version":"screening-prolific","missing":false,"accuracy":1},{"contexts":["red","green","blue"],"outcomes":[0,1,0],"key":38,"choice":1,"rt":174.14499999722466,"outcome":1,"trial":56,"correct":1,"trial_type":"three-arm-trial","trial_index":65,"time_elapsed":516759,"internal_node_id":"0.0-62.0-0.0","task_version":"screening-prolific","missing":false,"accuracy":1},{"contexts":["red","green","blue"],"outcomes":[0,1,0],"key":38,"choice":1,"rt":66.5999999982887,"outcome":1,"trial":57,"correct":1,"trial_type":"three-arm-trial","trial_index":66,"time_elapsed":518045,"internal_node_id":"0.0-63.0-0.0","task_version":"screening-prolific","missing":false,"accuracy":1},{"contexts":["red","green","blue"],"outcomes":[0,1,0],"key":38,"choice":1,"rt":122.41499999799998,"outcome":1,"trial":58,"correct":1,"trial_type":"three-arm-trial","trial_index":67,"time_elapsed":519398,"internal_node_id":"0.0-64.0-0.0","task_version":"screening-prolific","missing":false,"accuracy":1},{"contexts":["red","green","blue"],"outcomes":[0,1,0],"key":38,"choice":1,"rt":444.4599999987986,"outcome":1,"trial":59,"correct":1,"trial_type":"three-arm-trial","trial_index":68,"time_elapsed":521068,"internal_node_id":"0.0-65.0-0.0","task_version":"screening-prolific","missing":false,"accuracy":1},{"contexts":["red","green","blue"],"outcomes":[0,1,0],"key":38,"choice":1,"rt":392.9349999962142,"outcome":1,"trial":60,"correct":1,"trial_type":"three-arm-trial","trial_index":69,"time_elapsed":522686,"internal_node_id":"0.0-66.0-0.0","task_version":"screening-prolific","missing":false,"accuracy":1},{"contexts":["red","green","blue"],"outcomes":[0,0,1],"key":38,"choice":1,"rt":260.2249999982305,"outcome":0,"trial":61,"correct":2,"trial_type":"three-arm-trial","trial_index":70,"time_elapsed":524168,"internal_node_id":"0.0-67.0-0.0","task_version":"screening-prolific","missing":false,"accuracy":0},{"contexts":["red","green","blue"],"outcomes":[0,0,1],"key":39,"choice":2,"rt":282.3399999978719,"outcome":1,"trial":62,"correct":2,"trial_type":"three-arm-trial","trial_index":71,"time_elapsed":525674,"internal_node_id":"0.0-68.0-0.0","task_version":"screening-prolific","missing":false,"accuracy":1},{"contexts":["red","green","blue"],"outcomes":[0,1,1],"key":39,"choice":2,"rt":0.35999999823980033,"outcome":1,"trial":63,"correct":2,"trial_type":"three-arm-trial","trial_index":72,"time_elapsed":526906,"internal_node_id":"0.0-69.0-0.0","task_version":"screening-prolific","missing":false,"accuracy":1},{"contexts":["red","green","blue"],"outcomes":[0,0,1],"key":39,"choice":2,"rt":410.0749999997206,"outcome":1,"trial":64,"correct":2,"trial_type":"three-arm-trial","trial_index":73,"time_elapsed":528543,"internal_node_id":"0.0-70.0-0.0","task_version":"screening-prolific","missing":false,"accuracy":1},{"contexts":["red","green","blue"],"outcomes":[0,0,1],"key":39,"choice":2,"rt":27.414999996777624,"outcome":1,"trial":65,"correct":2,"trial_type":"three-arm-trial","trial_index":74,"time_elapsed":529795,"internal_node_id":"0.0-71.0-0.0","task_version":"screening-prolific","missing":false,"accuracy":1},{"contexts":["red","green","blue"],"outcomes":[0,1,1],"key":39,"choice":2,"rt":132.3000000048196,"outcome":1,"trial":66,"correct":2,"trial_type":"three-arm-trial","trial_index":75,"time_elapsed":531158,"internal_node_id":"0.0-72.0-0.0","task_version":"screening-prolific","missing":false,"accuracy":1},{"contexts":["red","green","blue"],"outcomes":[0,1,1],"key":39,"choice":2,"rt":252.53499999956694,"outcome":1,"trial":67,"correct":2,"trial_type":"three-arm-trial","trial_index":76,"time_elapsed":532635,"internal_node_id":"0.0-73.0-0.0","task_version":"screening-prolific","missing":false,"accuracy":1},{"contexts":["red","green","blue"],"outcomes":[0,0,0],"key":39,"choice":2,"rt":163.60500000149477,"outcome":0,"trial":68,"correct":2,"trial_type":"three-arm-trial","trial_index":77,"time_elapsed":534022,"internal_node_id":"0.0-74.0-0.0","task_version":"screening-prolific","missing":false,"accuracy":1},{"contexts":["red","green","blue"],"outcomes":[1,0,0],"key":38,"choice":1,"rt":16.125000001862645,"outcome":0,"trial":69,"correct":2,"trial_type":"three-arm-trial","trial_index":78,"time_elapsed":535261,"internal_node_id":"0.0-75.0-0.0","task_version":"screening-prolific","missing":false,"accuracy":0},{"contexts":["red","green","blue"],"outcomes":[1,0,1],"key":37,"choice":0,"rt":88.38500000268687,"outcome":1,"trial":70,"correct":2,"trial_type":"three-arm-trial","trial_index":79,"time_elapsed":536568,"internal_node_id":"0.0-76.0-0.0","task_version":"screening-prolific","missing":false,"accuracy":0},{"contexts":["red","green","blue"],"outcomes":[0,0,1],"key":37,"choice":0,"rt":164.56500000646338,"outcome":0,"trial":71,"correct":2,"trial_type":"three-arm-trial","trial_index":80,"time_elapsed":537955,"internal_node_id":"0.0-77.0-0.0","task_version":"screening-prolific","missing":false,"accuracy":0},{"contexts":["red","green","blue"],"outcomes":[0,0,1],"key":38,"choice":1,"rt":5.610000000218861,"outcome":0,"trial":72,"correct":2,"trial_type":"three-arm-trial","trial_index":81,"time_elapsed":539182,"internal_node_id":"0.0-78.0-0.0","task_version":"screening-prolific","missing":false,"accuracy":0},{"contexts":["red","green","blue"],"outcomes":[0,0,1],"key":39,"choice":2,"rt":148.62500000162981,"outcome":1,"trial":73,"correct":2,"trial_type":"three-arm-trial","trial_index":82,"time_elapsed":540552,"internal_node_id":"0.0-79.0-0.0","task_version":"screening-prolific","missing":false,"accuracy":1},{"contexts":["red","green","blue"],"outcomes":[1,0,0],"key":39,"choice":2,"rt":173.23999999649823,"outcome":0,"trial":74,"correct":2,"trial_type":"three-arm-trial","trial_index":83,"time_elapsed":541950,"internal_node_id":"0.0-80.0-0.0","task_version":"screening-prolific","missing":false,"accuracy":1},{"contexts":["red","green","blue"],"outcomes":[1,1,0],"key":38,"choice":1,"rt":0.2749999985098839,"outcome":1,"trial":75,"correct":2,"trial_type":"three-arm-trial","trial_index":84,"time_elapsed":543177,"internal_node_id":"0.0-81.0-0.0","task_version":"screening-prolific","missing":false,"accuracy":0},{"contexts":["red","green","blue"],"outcomes":[1,1,1],"key":38,"choice":1,"rt":198.8100000016857,"outcome":1,"trial":76,"correct":1,"trial_type":"three-arm-trial","trial_index":85,"time_elapsed":544600,"internal_node_id":"0.0-82.0-0.0","task_version":"screening-prolific","missing":false,"accuracy":1},{"contexts":["red","green","blue"],"outcomes":[0,1,0],"key":38,"choice":1,"rt":143.49000000208616,"outcome":1,"trial":77,"correct":1,"trial_type":"three-arm-trial","trial_index":86,"time_elapsed":545971,"internal_node_id":"0.0-83.0-0.0","task_version":"screening-prolific","missing":false,"accuracy":1},{"contexts":["red","green","blue"],"outcomes":[0,0,0],"key":38,"choice":1,"rt":146.91500000481028,"outcome":0,"trial":78,"correct":1,"trial_type":"three-arm-trial","trial_index":87,"time_elapsed":547342,"internal_node_id":"0.0-84.0-0.0","task_version":"screening-prolific","missing":false,"accuracy":1},{"contexts":["red","green","blue"],"outcomes":[0,1,0],"key":38,"choice":1,"rt":0.31499999738298357,"outcome":1,"trial":79,"correct":1,"trial_type":"three-arm-trial","trial_index":88,"time_elapsed":548565,"internal_node_id":"0.0-85.0-0.0","task_version":"screening-prolific","missing":false,"accuracy":1},{"contexts":["red","green","blue"],"outcomes":[1,1,1],"key":38,"choice":1,"rt":67.87500000069849,"outcome":1,"trial":80,"correct":1,"trial_type":"three-arm-trial","trial_index":89,"time_elapsed":549860,"internal_node_id":"0.0-86.0-0.0","task_version":"screening-prolific","missing":false,"accuracy":1},{"contexts":["red","green","blue"],"outcomes":[1,0,0],"key":38,"choice":1,"rt":0.2749999985098839,"outcome":0,"trial":81,"correct":1,"trial_type":"three-arm-trial","trial_index":90,"time_elapsed":551083,"internal_node_id":"0.0-87.0-0.0","task_version":"screening-prolific","missing":false,"accuracy":1},{"contexts":["red","green","blue"],"outcomes":[0,1,0],"key":37,"choice":0,"rt":781.0749999990221,"outcome":0,"trial":82,"correct":1,"trial_type":"three-arm-trial","trial_index":91,"time_elapsed":553084,"internal_node_id":"0.0-88.0-0.0","task_version":"screening-prolific","missing":false,"accuracy":0},{"contexts":["red","green","blue"],"outcomes":[0,1,0],"key":38,"choice":1,"rt":0.33999999868683517,"outcome":1,"trial":83,"correct":1,"trial_type":"three-arm-trial","trial_index":92,"time_elapsed":554306,"internal_node_id":"0.0-89.0-0.0","task_version":"screening-prolific","missing":false,"accuracy":1},{"contexts":["red","green","blue"],"outcomes":[0,1,0],"key":38,"choice":1,"rt":17.435000001452863,"outcome":1,"trial":84,"correct":1,"trial_type":"three-arm-trial","trial_index":93,"time_elapsed":555543,"internal_node_id":"0.0-90.0-0.0","task_version":"screening-prolific","missing":false,"accuracy":1},{"contexts":["red","green","blue"],"outcomes":[0,0,0],"key":38,"choice":1,"rt":50.43499999737833,"outcome":0,"trial":85,"correct":1,"trial_type":"three-arm-trial","trial_index":94,"time_elapsed":556823,"internal_node_id":"0.0-91.0-0.0","task_version":"screening-prolific","missing":false,"accuracy":1},{"contexts":["red","green","blue"],"outcomes":[1,1,0],"key":39,"choice":2,"rt":254.20999999903142,"outcome":0,"trial":86,"correct":1,"trial_type":"three-arm-trial","trial_index":95,"time_elapsed":558302,"internal_node_id":"0.0-92.0-0.0","task_version":"screening-prolific","missing":false,"accuracy":0},{"contexts":["red","green","blue"],"outcomes":[0,1,0],"key":38,"choice":1,"rt":14.54500000551343,"outcome":1,"trial":87,"correct":1,"trial_type":"three-arm-trial","trial_index":96,"time_elapsed":559541,"internal_node_id":"0.0-93.0-0.0","task_version":"screening-prolific","missing":false,"accuracy":1},{"contexts":["red","green","blue"],"outcomes":[1,1,0],"key":38,"choice":1,"rt":11.57499999681022,"outcome":1,"trial":88,"correct":1,"trial_type":"three-arm-trial","trial_index":97,"time_elapsed":560779,"internal_node_id":"0.0-94.0-0.0","task_version":"screening-prolific","missing":false,"accuracy":1},{"contexts":["red","green","blue"],"outcomes":[0,1,0],"key":38,"choice":1,"rt":174.40500000526663,"outcome":1,"trial":89,"correct":1,"trial_type":"three-arm-trial","trial_index":98,"time_elapsed":562175,"internal_node_id":"0.0-95.0-0.0","task_version":"screening-prolific","missing":false,"accuracy":1},{"contexts":["red","green","blue"],"outcomes":[1,1,0],"key":38,"choice":1,"rt":8.730000001378357,"outcome":1,"trial":90,"correct":1,"trial_type":"three-arm-trial","trial_index":99,"time_elapsed":563405,"internal_node_id":"0.0-96.0-0.0","task_version":"screening-prolific","missing":false,"accuracy":1},{"rt":29779.764999999432,"responses":{"age":"33","gender-categorical":"Male","gender-free-response":"","ethnicity":"Not Hispanic or Latino","race":["Asian"],"language":"No","fluency":"Very well","mturk":"Yes","mturk-this-study":"No"},"survey":"demographics","trial_type":"survey-demo","trial_index":100,"time_elapsed":593212,"internal_node_id":"0.0-97.0","task_version":"screening-prolific","interactions":"[]"}]