[{"responses":{"Q03":"0","Q01":"1","Q02":"1"},"rt":10012.190000037663,"survey":"pswq","trial_type":"survey-template","trial_index":0,"time_elapsed":10018,"internal_node_id":"0.0-0.0","task_version":"screening-prolific"},{"responses":{"Q05":"1","Q03":"0","Q06":"1","Q01":"0","Q04":"0","Q08":"0","Q02":"0","Q07":"1"},"rt":25994.749999954365,"survey":"gad7","trial_type":"survey-template","trial_index":1,"time_elapsed":36014,"internal_node_id":"0.0-1.0","task_version":"screening-prolific"},{"responses":{"Q06":"2","Q08":"3","Q14":"2","Q15":"3","Q02":"2","Q12":"2","Q05":"3","Q07":"1","Q01":"2","Q13":"1","Q03":"3","Q11":"2","Q04":"3","Q10":"2","Q09":"2"},"rt":55116.48500000592,"survey":"shaps","trial_type":"survey-template","trial_index":2,"time_elapsed":91134,"internal_node_id":"0.0-2.0","task_version":"screening-prolific"},{"responses":{"Q05":"1","Q11":"0","Q07":"3","Q14":"0","Q03":"1","Q09":"1","Q12":"0","Q10":"0","Q01":"0","Q08":"2","Q06":"0","Q04":"1","Q15":"0","Q02":"0","Q13":"0"},"rt":109087.12499996182,"survey":"7up7down","trial_type":"survey-template","trial_index":3,"time_elapsed":200223,"internal_node_id":"0.0-3.0","task_version":"screening-prolific"},{"responses":{"Q13":"3","Q01":"2","Q07":"2","Q12":"1","Q04":"3","Q11":"2","Q06":"2","Q05":"2","Q03":"1","Q09":"2","Q08":"2","Q02":"1","Q10":"2"},"rt":62094.64500006288,"survey":"bisbas","trial_type":"survey-template","trial_index":4,"time_elapsed":262320,"internal_node_id":"0.0-4.0","task_version":"screening-prolific"},{"view_history":"[{\"page_index\":0,\"viewing_time\":6512.6450000097975},{\"page_index\":1,\"viewing_time\":8418.884999933653},{\"page_index\":2,\"viewing_time\":7960.010000038892},{\"page_index\":3,\"viewing_time\":3838.9599999645725},{\"page_index\":4,\"viewing_time\":5569.015000015497},{\"page_index\":5,\"viewing_time\":2972.025000024587},{\"page_index\":6,\"viewing_time\":3026.9850000040606},{\"page_index\":7,\"viewing_time\":7329.064999939874}]","rt":45628.09999997262,"trial_type":"instructions","trial_index":5,"time_elapsed":307949,"internal_node_id":"0.0-5.0-0.0","task_version":"screening-prolific"},{"responses":["True","True","False","False","True"],"num_errors":0,"rt":13355.749999987893,"trial_type":"three-arm-comprehension","trial_index":6,"time_elapsed":321306,"internal_node_id":"0.0-5.0-1.0","task_version":"screening-prolific"},{"view_history":"[{\"page_index\":0,\"viewing_time\":2420.4199999803677}]","rt":2420.6149999517947,"trial_type":"instructions","trial_index":7,"time_elapsed":323730,"internal_node_id":"0.0-6.0","task_version":"screening-prolific"},{"contexts":["green","blue","red"],"outcomes":[1,1,0],"key":null,"rt":null,"trial":1,"correct":1,"trial_type":"three-arm-trial","trial_index":8,"time_elapsed":338733,"internal_node_id":"0.0-7.0-0.0","task_version":"screening-prolific","missing":true},{"contexts":["green","blue","red"],"outcomes":[1,1,0],"key":37,"choice":0,"rt":706.7449999740347,"outcome":1,"trial":1,"correct":1,"trial_type":"three-arm-trial","trial_index":9,"time_elapsed":340642,"internal_node_id":"0.0-7.1-0.1","task_version":"screening-prolific","missing":false,"accuracy":0},{"contexts":["green","blue","red"],"outcomes":[0,1,0],"key":38,"choice":1,"rt":36.71999997459352,"outcome":1,"trial":2,"correct":1,"trial_type":"three-arm-trial","trial_index":10,"time_elapsed":341882,"internal_node_id":"0.0-8.0-0.0","task_version":"screening-prolific","missing":false,"accuracy":1},{"contexts":["green","blue","red"],"outcomes":[0,1,1],"key":39,"choice":2,"rt":540.2499999618158,"outcome":1,"trial":3,"correct":1,"trial_type":"three-arm-trial","trial_index":11,"time_elapsed":343624,"internal_node_id":"0.0-9.0-0.0","task_version":"screening-prolific","missing":false,"accuracy":0},{"contexts":["green","blue","red"],"outcomes":[0,1,0],"key":38,"choice":1,"rt":381.3999999547377,"outcome":1,"trial":4,"correct":1,"trial_type":"three-arm-trial","trial_index":12,"time_elapsed":345207,"internal_node_id":"0.0-10.0-0.0","task_version":"screening-prolific","missing":false,"accuracy":1},{"contexts":["green","blue","red"],"outcomes":[0,0,0],"key":37,"choice":0,"rt":281.60500002559274,"outcome":0,"trial":5,"correct":1,"trial_type":"three-arm-trial","trial_index":13,"time_elapsed":346691,"internal_node_id":"0.0-11.0-0.0","task_version":"screening-prolific","missing":false,"accuracy":0},{"contexts":["green","blue","red"],"outcomes":[0,1,0],"key":38,"choice":1,"rt":269.8049999307841,"outcome":1,"trial":6,"correct":1,"trial_type":"three-arm-trial","trial_index":14,"time_elapsed":348163,"internal_node_id":"0.0-12.0-0.0","task_version":"screening-prolific","missing":false,"accuracy":1},{"contexts":["green","blue","red"],"outcomes":[1,1,1],"key":39,"choice":2,"rt":220.95500002615154,"outcome":1,"trial":7,"correct":1,"trial_type":"three-arm-trial","trial_index":15,"time_elapsed":349586,"internal_node_id":"0.0-13.0-0.0","task_version":"screening-prolific","missing":false,"accuracy":0},{"contexts":["green","blue","red"],"outcomes":[0,1,1],"key":38,"choice":1,"rt":46.47500009741634,"outcome":1,"trial":8,"correct":1,"trial_type":"three-arm-trial","trial_index":16,"time_elapsed":350835,"internal_node_id":"0.0-14.0-0.0","task_version":"screening-prolific","missing":false,"accuracy":1},{"contexts":["green","blue","red"],"outcomes":[0,1,0],"key":39,"choice":2,"rt":200.36499993875623,"outcome":0,"trial":9,"correct":1,"trial_type":"three-arm-trial","trial_index":17,"time_elapsed":352237,"internal_node_id":"0.0-15.0-0.0","task_version":"screening-prolific","missing":false,"accuracy":0},{"contexts":["green","blue","red"],"outcomes":[0,1,0],"key":38,"choice":1,"rt":49.4950000429526,"outcome":1,"trial":10,"correct":1,"trial_type":"three-arm-trial","trial_index":18,"time_elapsed":353489,"internal_node_id":"0.0-16.0-0.0","task_version":"screening-prolific","missing":false,"accuracy":1},{"contexts":["green","blue","red"],"outcomes":[0,1,0],"key":38,"choice":1,"rt":375.8099999977276,"outcome":1,"trial":11,"correct":1,"trial_type":"three-arm-trial","trial_index":19,"time_elapsed":355066,"internal_node_id":"0.0-17.0-0.0","task_version":"screening-prolific","missing":false,"accuracy":1},{"contexts":["green","blue","red"],"outcomes":[0,0,0],"key":38,"choice":1,"rt":200.00499999150634,"outcome":0,"trial":12,"correct":1,"trial_type":"three-arm-trial","trial_index":20,"time_elapsed":356469,"internal_node_id":"0.0-18.0-0.0","task_version":"screening-prolific","missing":false,"accuracy":1},{"contexts":["green","blue","red"],"outcomes":[0,0,0],"key":37,"choice":0,"rt":207.83500000834465,"outcome":0,"trial":13,"correct":1,"trial_type":"three-arm-trial","trial_index":21,"time_elapsed":357879,"internal_node_id":"0.0-19.0-0.0","task_version":"screening-prolific","missing":false,"accuracy":0},{"contexts":["green","blue","red"],"outcomes":[0,1,0],"key":39,"choice":2,"rt":189.5850000437349,"outcome":0,"trial":14,"correct":1,"trial_type":"three-arm-trial","trial_index":22,"time_elapsed":359270,"internal_node_id":"0.0-20.0-0.0","task_version":"screening-prolific","missing":false,"accuracy":0},{"contexts":["green","blue","red"],"outcomes":[0,1,0],"key":38,"choice":1,"rt":207.61000004131347,"outcome":1,"trial":15,"correct":1,"trial_type":"three-arm-trial","trial_index":23,"time_elapsed":360680,"internal_node_id":"0.0-21.0-0.0","task_version":"screening-prolific","missing":false,"accuracy":1},{"contexts":["green","blue","red"],"outcomes":[0,0,0],"key":38,"choice":1,"rt":254.06500010285527,"outcome":0,"trial":16,"correct":2,"trial_type":"three-arm-trial","trial_index":24,"time_elapsed":362137,"internal_node_id":"0.0-22.0-0.0","task_version":"screening-prolific","missing":false,"accuracy":0},{"contexts":["green","blue","red"],"outcomes":[0,1,1],"key":39,"choice":2,"rt":1276.9500000867993,"outcome":1,"trial":17,"correct":2,"trial_type":"three-arm-trial","trial_index":25,"time_elapsed":364616,"internal_node_id":"0.0-23.0-0.0","task_version":"screening-prolific","missing":false,"accuracy":1},{"contexts":["green","blue","red"],"outcomes":[0,0,1],"key":37,"choice":0,"rt":94.61499995086342,"outcome":0,"trial":18,"correct":2,"trial_type":"three-arm-trial","trial_index":26,"time_elapsed":365913,"internal_node_id":"0.0-24.0-0.0","task_version":"screening-prolific","missing":false,"accuracy":0},{"contexts":["green","blue","red"],"outcomes":[0,1,1],"key":39,"choice":2,"rt":141.80999994277954,"outcome":1,"trial":19,"correct":2,"trial_type":"three-arm-trial","trial_index":27,"time_elapsed":367257,"internal_node_id":"0.0-25.0-0.0","task_version":"screening-prolific","missing":false,"accuracy":1},{"contexts":["green","blue","red"],"outcomes":[0,0,1],"key":39,"choice":2,"rt":141.6800000006333,"outcome":1,"trial":20,"correct":2,"trial_type":"three-arm-trial","trial_index":28,"time_elapsed":368601,"internal_node_id":"0.0-26.0-0.0","task_version":"screening-prolific","missing":false,"accuracy":1},{"contexts":["green","blue","red"],"outcomes":[0,0,1],"key":39,"choice":2,"rt":51.3049999717623,"outcome":1,"trial":21,"correct":2,"trial_type":"three-arm-trial","trial_index":29,"time_elapsed":369854,"internal_node_id":"0.0-27.0-0.0","task_version":"screening-prolific","missing":false,"accuracy":1},{"contexts":["green","blue","red"],"outcomes":[1,0,1],"key":39,"choice":2,"rt":395.04499989561737,"outcome":1,"trial":22,"correct":2,"trial_type":"three-arm-trial","trial_index":30,"time_elapsed":371451,"internal_node_id":"0.0-28.0-0.0","task_version":"screening-prolific","missing":false,"accuracy":1},{"contexts":["green","blue","red"],"outcomes":[1,0,1],"key":39,"choice":2,"rt":122.91000003460795,"outcome":1,"trial":23,"correct":2,"trial_type":"three-arm-trial","trial_index":31,"time_elapsed":372777,"internal_node_id":"0.0-29.0-0.0","task_version":"screening-prolific","missing":false,"accuracy":1},{"contexts":["green","blue","red"],"outcomes":[0,0,1],"key":39,"choice":2,"rt":221.35500004515052,"outcome":1,"trial":24,"correct":2,"trial_type":"three-arm-trial","trial_index":32,"time_elapsed":374201,"internal_node_id":"0.0-30.0-0.0","task_version":"screening-prolific","missing":false,"accuracy":1},{"contexts":["green","blue","red"],"outcomes":[1,0,1],"key":39,"choice":2,"rt":224.18999997898936,"outcome":1,"trial":25,"correct":2,"trial_type":"three-arm-trial","trial_index":33,"time_elapsed":375627,"internal_node_id":"0.0-31.0-0.0","task_version":"screening-prolific","missing":false,"accuracy":1},{"contexts":["green","blue","red"],"outcomes":[0,0,1],"key":39,"choice":2,"rt":213.03500002250075,"outcome":1,"trial":26,"correct":2,"trial_type":"three-arm-trial","trial_index":34,"time_elapsed":377043,"internal_node_id":"0.0-32.0-0.0","task_version":"screening-prolific","missing":false,"accuracy":1},{"contexts":["green","blue","red"],"outcomes":[0,0,0],"key":39,"choice":2,"rt":128.20999999530613,"outcome":0,"trial":27,"correct":2,"trial_type":"three-arm-trial","trial_index":35,"time_elapsed":378374,"internal_node_id":"0.0-33.0-0.0","task_version":"screening-prolific","missing":false,"accuracy":1},{"contexts":["green","blue","red"],"outcomes":[1,0,0],"key":37,"choice":0,"rt":89.269999996759,"outcome":1,"trial":28,"correct":2,"trial_type":"three-arm-trial","trial_index":36,"time_elapsed":379666,"internal_node_id":"0.0-34.0-0.0","task_version":"screening-prolific","missing":false,"accuracy":0},{"contexts":["green","blue","red"],"outcomes":[0,0,0],"key":38,"choice":1,"rt":77.46500009670854,"outcome":0,"trial":29,"correct":2,"trial_type":"three-arm-trial","trial_index":37,"time_elapsed":380946,"internal_node_id":"0.0-35.0-0.0","task_version":"screening-prolific","missing":false,"accuracy":0},{"contexts":["green","blue","red"],"outcomes":[1,0,0],"key":37,"choice":0,"rt":260.24500001221895,"outcome":1,"trial":30,"correct":2,"trial_type":"three-arm-trial","trial_index":38,"time_elapsed":382408,"internal_node_id":"0.0-36.0-0.0","task_version":"screening-prolific","missing":false,"accuracy":0},{"contexts":["green","blue","red"],"outcomes":[0,0,0],"key":37,"choice":0,"rt":106.72499996144325,"outcome":0,"trial":31,"correct":1,"trial_type":"three-arm-trial","trial_index":39,"time_elapsed":383718,"internal_node_id":"0.0-37.0-0.0","task_version":"screening-prolific","missing":false,"accuracy":0},{"contexts":["green","blue","red"],"outcomes":[0,1,1],"key":38,"choice":1,"rt":239.66500000096858,"outcome":1,"trial":32,"correct":1,"trial_type":"three-arm-trial","trial_index":40,"time_elapsed":385160,"internal_node_id":"0.0-38.0-0.0","task_version":"screening-prolific","missing":false,"accuracy":1},{"contexts":["green","blue","red"],"outcomes":[1,1,0],"key":38,"choice":1,"rt":16.339999972842634,"outcome":1,"trial":33,"correct":1,"trial_type":"three-arm-trial","trial_index":41,"time_elapsed":386377,"internal_node_id":"0.0-39.0-0.0","task_version":"screening-prolific","missing":false,"accuracy":1},{"contexts":["green","blue","red"],"outcomes":[0,1,0],"key":38,"choice":1,"rt":12.409999966621399,"outcome":1,"trial":34,"correct":1,"trial_type":"three-arm-trial","trial_index":42,"time_elapsed":387592,"internal_node_id":"0.0-40.0-0.0","task_version":"screening-prolific","missing":false,"accuracy":1},{"contexts":["green","blue","red"],"outcomes":[0,1,1],"key":38,"choice":1,"rt":100.14500003308058,"outcome":1,"trial":35,"correct":1,"trial_type":"three-arm-trial","trial_index":43,"time_elapsed":388895,"internal_node_id":"0.0-41.0-0.0","task_version":"screening-prolific","missing":false,"accuracy":1},{"contexts":["green","blue","red"],"outcomes":[0,1,1],"key":38,"choice":1,"rt":9.990000049583614,"outcome":1,"trial":36,"correct":1,"trial_type":"three-arm-trial","trial_index":44,"time_elapsed":390107,"internal_node_id":"0.0-42.0-0.0","task_version":"screening-prolific","missing":false,"accuracy":1},{"contexts":["green","blue","red"],"outcomes":[1,1,0],"key":38,"choice":1,"rt":155.72000003885478,"outcome":1,"trial":37,"correct":1,"trial_type":"three-arm-trial","trial_index":45,"time_elapsed":391465,"internal_node_id":"0.0-43.0-0.0","task_version":"screening-prolific","missing":false,"accuracy":1},{"contexts":["green","blue","red"],"outcomes":[0,1,0],"key":38,"choice":1,"rt":164.34999997727573,"outcome":1,"trial":38,"correct":1,"trial_type":"three-arm-trial","trial_index":46,"time_elapsed":392831,"internal_node_id":"0.0-44.0-0.0","task_version":"screening-prolific","missing":false,"accuracy":1},{"contexts":["green","blue","red"],"outcomes":[0,1,0],"key":38,"choice":1,"rt":94.0849999897182,"outcome":1,"trial":39,"correct":1,"trial_type":"three-arm-trial","trial_index":47,"time_elapsed":394128,"internal_node_id":"0.0-45.0-0.0","task_version":"screening-prolific","missing":false,"accuracy":1},{"contexts":["green","blue","red"],"outcomes":[1,1,0],"key":38,"choice":1,"rt":0.12500002048909664,"outcome":1,"trial":40,"correct":1,"trial_type":"three-arm-trial","trial_index":48,"time_elapsed":395331,"internal_node_id":"0.0-46.0-0.0","task_version":"screening-prolific","missing":false,"accuracy":1},{"contexts":["green","blue","red"],"outcomes":[0,0,0],"key":38,"choice":1,"rt":11.685000034049153,"outcome":0,"trial":41,"correct":1,"trial_type":"three-arm-trial","trial_index":49,"time_elapsed":396544,"internal_node_id":"0.0-47.0-0.0","task_version":"screening-prolific","missing":false,"accuracy":1},{"contexts":["green","blue","red"],"outcomes":[0,1,0],"key":37,"choice":0,"rt":273.9399999845773,"outcome":0,"trial":42,"correct":1,"trial_type":"three-arm-trial","trial_index":50,"time_elapsed":398020,"internal_node_id":"0.0-48.0-0.0","task_version":"screening-prolific","missing":false,"accuracy":0},{"contexts":["green","blue","red"],"outcomes":[1,1,0],"key":39,"choice":2,"rt":129.90000005811453,"outcome":0,"trial":43,"correct":1,"trial_type":"three-arm-trial","trial_index":51,"time_elapsed":399353,"internal_node_id":"0.0-49.0-0.0","task_version":"screening-prolific","missing":false,"accuracy":0},{"contexts":["green","blue","red"],"outcomes":[0,1,0],"key":39,"choice":2,"rt":218.65499997511506,"outcome":0,"trial":44,"correct":1,"trial_type":"three-arm-trial","trial_index":52,"time_elapsed":400774,"internal_node_id":"0.0-50.0-0.0","task_version":"screening-prolific","missing":false,"accuracy":0},{"contexts":["green","blue","red"],"outcomes":[1,1,0],"key":38,"choice":1,"rt":55.26499997358769,"outcome":1,"trial":45,"correct":1,"trial_type":"three-arm-trial","trial_index":53,"time_elapsed":402033,"internal_node_id":"0.0-51.0-0.0","task_version":"screening-prolific","missing":false,"accuracy":1},{"contexts":["green","blue","red"],"outcomes":[0,1,1],"key":38,"choice":1,"rt":43.064999976195395,"outcome":1,"trial":46,"correct":2,"trial_type":"three-arm-trial","trial_index":54,"time_elapsed":403278,"internal_node_id":"0.0-52.0-0.0","task_version":"screening-prolific","missing":false,"accuracy":0},{"contexts":["green","blue","red"],"outcomes":[0,0,1],"key":38,"choice":1,"rt":131.35000003967434,"outcome":0,"trial":47,"correct":2,"trial_type":"three-arm-trial","trial_index":55,"time_elapsed":404612,"internal_node_id":"0.0-53.0-0.0","task_version":"screening-prolific","missing":false,"accuracy":0},{"contexts":["green","blue","red"],"outcomes":[0,0,1],"key":37,"choice":0,"rt":209.17499996721745,"outcome":0,"trial":48,"correct":2,"trial_type":"three-arm-trial","trial_index":56,"time_elapsed":406023,"internal_node_id":"0.0-54.0-0.0","task_version":"screening-prolific","missing":false,"accuracy":0},{"contexts":["green","blue","red"],"outcomes":[0,0,1],"key":38,"choice":1,"rt":5.460000014863908,"outcome":0,"trial":49,"correct":2,"trial_type":"three-arm-trial","trial_index":57,"time_elapsed":407231,"internal_node_id":"0.0-55.0-0.0","task_version":"screening-prolific","missing":false,"accuracy":0},{"contexts":["green","blue","red"],"outcomes":[0,0,1],"key":39,"choice":2,"rt":80.51499992143363,"outcome":1,"trial":50,"correct":2,"trial_type":"three-arm-trial","trial_index":58,"time_elapsed":408513,"internal_node_id":"0.0-56.0-0.0","task_version":"screening-prolific","missing":false,"accuracy":1},{"contexts":["green","blue","red"],"outcomes":[1,0,1],"key":39,"choice":2,"rt":97.88999997545034,"outcome":1,"trial":51,"correct":2,"trial_type":"three-arm-trial","trial_index":59,"time_elapsed":409814,"internal_node_id":"0.0-57.0-0.0","task_version":"screening-prolific","missing":false,"accuracy":1},{"contexts":["green","blue","red"],"outcomes":[0,1,1],"key":39,"choice":2,"rt":79.42500000353903,"outcome":1,"trial":52,"correct":2,"trial_type":"three-arm-trial","trial_index":60,"time_elapsed":411095,"internal_node_id":"0.0-58.0-0.0","task_version":"screening-prolific","missing":false,"accuracy":1},{"contexts":["green","blue","red"],"outcomes":[0,0,1],"key":39,"choice":2,"rt":99.86499999649823,"outcome":1,"trial":53,"correct":2,"trial_type":"three-arm-trial","trial_index":61,"time_elapsed":412397,"internal_node_id":"0.0-59.0-0.0","task_version":"screening-prolific","missing":false,"accuracy":1},{"contexts":["green","blue","red"],"outcomes":[0,0,1],"key":39,"choice":2,"rt":104.52000005170703,"outcome":1,"trial":54,"correct":2,"trial_type":"three-arm-trial","trial_index":62,"time_elapsed":413705,"internal_node_id":"0.0-60.0-0.0","task_version":"screening-prolific","missing":false,"accuracy":1},{"contexts":["green","blue","red"],"outcomes":[0,1,0],"key":39,"choice":2,"rt":48.44499996397644,"outcome":0,"trial":55,"correct":2,"trial_type":"three-arm-trial","trial_index":63,"time_elapsed":414957,"internal_node_id":"0.0-61.0-0.0","task_version":"screening-prolific","missing":false,"accuracy":1},{"contexts":["green","blue","red"],"outcomes":[0,0,1],"key":38,"choice":1,"rt":22.539999918080866,"outcome":0,"trial":56,"correct":2,"trial_type":"three-arm-trial","trial_index":64,"time_elapsed":416181,"internal_node_id":"0.0-62.0-0.0","task_version":"screening-prolific","missing":false,"accuracy":0},{"contexts":["green","blue","red"],"outcomes":[0,0,0],"key":37,"choice":0,"rt":193.54000000748783,"outcome":0,"trial":57,"correct":2,"trial_type":"three-arm-trial","trial_index":65,"time_elapsed":417576,"internal_node_id":"0.0-63.0-0.0","task_version":"screening-prolific","missing":false,"accuracy":0},{"contexts":["green","blue","red"],"outcomes":[1,0,1],"key":39,"choice":2,"rt":76.17000001482666,"outcome":1,"trial":58,"correct":2,"trial_type":"three-arm-trial","trial_index":66,"time_elapsed":418855,"internal_node_id":"0.0-64.0-0.0","task_version":"screening-prolific","missing":false,"accuracy":1},{"contexts":["green","blue","red"],"outcomes":[0,0,1],"key":39,"choice":2,"rt":168.61499997321516,"outcome":1,"trial":59,"correct":2,"trial_type":"three-arm-trial","trial_index":67,"time_elapsed":420225,"internal_node_id":"0.0-65.0-0.0","task_version":"screening-prolific","missing":false,"accuracy":1},{"contexts":["green","blue","red"],"outcomes":[0,0,0],"key":39,"choice":2,"rt":194.190000067465,"outcome":0,"trial":60,"correct":2,"trial_type":"three-arm-trial","trial_index":68,"time_elapsed":421622,"internal_node_id":"0.0-66.0-0.0","task_version":"screening-prolific","missing":false,"accuracy":1},{"contexts":["green","blue","red"],"outcomes":[1,0,1],"key":38,"choice":1,"rt":216.7899999767542,"outcome":0,"trial":61,"correct":0,"trial_type":"three-arm-trial","trial_index":69,"time_elapsed":423041,"internal_node_id":"0.0-67.0-0.0","task_version":"screening-prolific","missing":false,"accuracy":0},{"contexts":["green","blue","red"],"outcomes":[1,1,0],"key":39,"choice":2,"rt":153.0000000493601,"outcome":0,"trial":62,"correct":0,"trial_type":"three-arm-trial","trial_index":70,"time_elapsed":424397,"internal_node_id":"0.0-68.0-0.0","task_version":"screening-prolific","missing":false,"accuracy":0},{"contexts":["green","blue","red"],"outcomes":[0,1,1],"key":37,"choice":0,"rt":175.5099999718368,"outcome":0,"trial":63,"correct":0,"trial_type":"three-arm-trial","trial_index":71,"time_elapsed":425774,"internal_node_id":"0.0-69.0-0.0","task_version":"screening-prolific","missing":false,"accuracy":1},{"contexts":["green","blue","red"],"outcomes":[1,0,0],"key":39,"choice":2,"rt":73.3100000070408,"outcome":0,"trial":64,"correct":0,"trial_type":"three-arm-trial","trial_index":72,"time_elapsed":427050,"internal_node_id":"0.0-70.0-0.0","task_version":"screening-prolific","missing":false,"accuracy":0},{"contexts":["green","blue","red"],"outcomes":[1,1,0],"key":38,"choice":1,"rt":113.45500010065734,"outcome":1,"trial":65,"correct":0,"trial_type":"three-arm-trial","trial_index":73,"time_elapsed":428365,"internal_node_id":"0.0-71.0-0.0","task_version":"screening-prolific","missing":false,"accuracy":0},{"contexts":["green","blue","red"],"outcomes":[1,0,0],"key":38,"choice":1,"rt":26.790000032633543,"outcome":0,"trial":66,"correct":0,"trial_type":"three-arm-trial","trial_index":74,"time_elapsed":429595,"internal_node_id":"0.0-72.0-0.0","task_version":"screening-prolific","missing":false,"accuracy":0},{"contexts":["green","blue","red"],"outcomes":[1,0,0],"key":37,"choice":0,"rt":145.06500004790723,"outcome":1,"trial":67,"correct":0,"trial_type":"three-arm-trial","trial_index":75,"time_elapsed":430942,"internal_node_id":"0.0-73.0-0.0","task_version":"screening-prolific","missing":false,"accuracy":1},{"contexts":["green","blue","red"],"outcomes":[1,0,0],"key":37,"choice":0,"rt":40.93499993905425,"outcome":1,"trial":68,"correct":0,"trial_type":"three-arm-trial","trial_index":76,"time_elapsed":432185,"internal_node_id":"0.0-74.0-0.0","task_version":"screening-prolific","missing":false,"accuracy":1},{"contexts":["green","blue","red"],"outcomes":[1,1,0],"key":37,"choice":0,"rt":92.21499995328486,"outcome":1,"trial":69,"correct":0,"trial_type":"three-arm-trial","trial_index":77,"time_elapsed":433480,"internal_node_id":"0.0-75.0-0.0","task_version":"screening-prolific","missing":false,"accuracy":1},{"contexts":["green","blue","red"],"outcomes":[1,1,0],"key":37,"choice":0,"rt":143.70999997481704,"outcome":1,"trial":70,"correct":0,"trial_type":"three-arm-trial","trial_index":78,"time_elapsed":434825,"internal_node_id":"0.0-76.0-0.0","task_version":"screening-prolific","missing":false,"accuracy":1},{"contexts":["green","blue","red"],"outcomes":[1,0,0],"key":37,"choice":0,"rt":108.23000001255423,"outcome":1,"trial":71,"correct":0,"trial_type":"three-arm-trial","trial_index":79,"time_elapsed":436135,"internal_node_id":"0.0-77.0-0.0","task_version":"screening-prolific","missing":false,"accuracy":1},{"contexts":["green","blue","red"],"outcomes":[1,0,0],"key":37,"choice":0,"rt":66.93999993149191,"outcome":1,"trial":72,"correct":0,"trial_type":"three-arm-trial","trial_index":80,"time_elapsed":437404,"internal_node_id":"0.0-78.0-0.0","task_version":"screening-prolific","missing":false,"accuracy":1},{"contexts":["green","blue","red"],"outcomes":[1,0,0],"key":37,"choice":0,"rt":83.23999994900078,"outcome":1,"trial":73,"correct":0,"trial_type":"three-arm-trial","trial_index":81,"time_elapsed":438690,"internal_node_id":"0.0-79.0-0.0","task_version":"screening-prolific","missing":false,"accuracy":1},{"contexts":["green","blue","red"],"outcomes":[1,0,0],"key":37,"choice":0,"rt":148.58500007539988,"outcome":1,"trial":74,"correct":0,"trial_type":"three-arm-trial","trial_index":82,"time_elapsed":440040,"internal_node_id":"0.0-80.0-0.0","task_version":"screening-prolific","missing":false,"accuracy":1},{"contexts":["green","blue","red"],"outcomes":[1,1,0],"key":37,"choice":0,"rt":255.26499992702156,"outcome":1,"trial":75,"correct":0,"trial_type":"three-arm-trial","trial_index":83,"time_elapsed":441497,"internal_node_id":"0.0-81.0-0.0","task_version":"screening-prolific","missing":false,"accuracy":1},{"contexts":["green","blue","red"],"outcomes":[0,1,0],"key":37,"choice":0,"rt":173.59000002034009,"outcome":0,"trial":76,"correct":1,"trial_type":"three-arm-trial","trial_index":84,"time_elapsed":442874,"internal_node_id":"0.0-82.0-0.0","task_version":"screening-prolific","missing":false,"accuracy":0},{"contexts":["green","blue","red"],"outcomes":[0,1,0],"key":39,"choice":2,"rt":121.3650000281632,"outcome":0,"trial":77,"correct":1,"trial_type":"three-arm-trial","trial_index":85,"time_elapsed":444198,"internal_node_id":"0.0-83.0-0.0","task_version":"screening-prolific","missing":false,"accuracy":0},{"contexts":["green","blue","red"],"outcomes":[0,1,0],"key":37,"choice":0,"rt":147.6349999429658,"outcome":0,"trial":78,"correct":1,"trial_type":"three-arm-trial","trial_index":86,"time_elapsed":445547,"internal_node_id":"0.0-84.0-0.0","task_version":"screening-prolific","missing":false,"accuracy":0},{"contexts":["green","blue","red"],"outcomes":[0,1,0],"key":38,"choice":1,"rt":20.420000073499978,"outcome":1,"trial":79,"correct":1,"trial_type":"three-arm-trial","trial_index":87,"time_elapsed":446771,"internal_node_id":"0.0-85.0-0.0","task_version":"screening-prolific","missing":false,"accuracy":1},{"contexts":["green","blue","red"],"outcomes":[0,1,0],"key":38,"choice":1,"rt":155.42500000447035,"outcome":1,"trial":80,"correct":1,"trial_type":"three-arm-trial","trial_index":88,"time_elapsed":448129,"internal_node_id":"0.0-86.0-0.0","task_version":"screening-prolific","missing":false,"accuracy":1},{"contexts":["green","blue","red"],"outcomes":[0,1,1],"key":38,"choice":1,"rt":71.40499993693084,"outcome":1,"trial":81,"correct":1,"trial_type":"three-arm-trial","trial_index":89,"time_elapsed":449402,"internal_node_id":"0.0-87.0-0.0","task_version":"screening-prolific","missing":false,"accuracy":1},{"contexts":["green","blue","red"],"outcomes":[0,0,0],"key":38,"choice":1,"rt":151.3600000180304,"outcome":0,"trial":82,"correct":1,"trial_type":"three-arm-trial","trial_index":90,"time_elapsed":450755,"internal_node_id":"0.0-88.0-0.0","task_version":"screening-prolific","missing":false,"accuracy":1},{"contexts":["green","blue","red"],"outcomes":[0,1,1],"key":39,"choice":2,"rt":137.81500002369285,"outcome":1,"trial":83,"correct":1,"trial_type":"three-arm-trial","trial_index":91,"time_elapsed":452096,"internal_node_id":"0.0-89.0-0.0","task_version":"screening-prolific","missing":false,"accuracy":0},{"contexts":["green","blue","red"],"outcomes":[1,0,0],"key":39,"choice":2,"rt":188.47499997355044,"outcome":0,"trial":84,"correct":1,"trial_type":"three-arm-trial","trial_index":92,"time_elapsed":453486,"internal_node_id":"0.0-90.0-0.0","task_version":"screening-prolific","missing":false,"accuracy":0},{"contexts":["green","blue","red"],"outcomes":[0,1,0],"key":37,"choice":0,"rt":378.34500009194016,"outcome":0,"trial":85,"correct":1,"trial_type":"three-arm-trial","trial_index":93,"time_elapsed":455066,"internal_node_id":"0.0-91.0-0.0","task_version":"screening-prolific","missing":false,"accuracy":0},{"contexts":["green","blue","red"],"outcomes":[1,0,1],"key":38,"choice":1,"rt":302.12000000756234,"outcome":0,"trial":86,"correct":1,"trial_type":"three-arm-trial","trial_index":94,"time_elapsed":456571,"internal_node_id":"0.0-92.0-0.0","task_version":"screening-prolific","missing":false,"accuracy":1},{"contexts":["green","blue","red"],"outcomes":[0,1,0],"key":39,"choice":2,"rt":172.3950000014156,"outcome":0,"trial":87,"correct":1,"trial_type":"three-arm-trial","trial_index":95,"time_elapsed":457945,"internal_node_id":"0.0-93.0-0.0","task_version":"screening-prolific","missing":false,"accuracy":0},{"contexts":["green","blue","red"],"outcomes":[0,1,0],"key":38,"choice":1,"rt":179.5200000051409,"outcome":1,"trial":88,"correct":1,"trial_type":"three-arm-trial","trial_index":96,"time_elapsed":459327,"internal_node_id":"0.0-94.0-0.0","task_version":"screening-prolific","missing":false,"accuracy":1},{"contexts":["green","blue","red"],"outcomes":[0,1,0],"key":38,"choice":1,"rt":33.820000011473894,"outcome":1,"trial":89,"correct":1,"trial_type":"three-arm-trial","trial_index":97,"time_elapsed":460563,"internal_node_id":"0.0-95.0-0.0","task_version":"screening-prolific","missing":false,"accuracy":1},{"contexts":["green","blue","red"],"outcomes":[1,0,0],"key":38,"choice":1,"rt":19.050000002607703,"outcome":0,"trial":90,"correct":1,"trial_type":"three-arm-trial","trial_index":98,"time_elapsed":461784,"internal_node_id":"0.0-96.0-0.0","task_version":"screening-prolific","missing":false,"accuracy":1},{"rt":23600.604999926873,"responses":{"age":"21","gender-categorical":"Male","gender-free-response":"","ethnicity":"Not Hispanic or Latino","race":["White"],"language":"Yes","fluency":"Very well","mturk":"No","mturk-this-study":"No"},"survey":"demographics","trial_type":"survey-demo","trial_index":99,"time_elapsed":485387,"internal_node_id":"0.0-97.0","task_version":"screening-prolific","interactions":"[]"}]