[{"responses":{"Q03":"1","Q06":"0","Q08":"0","Q02":"2","Q04":"1","Q05":"1","Q07":"1","Q01":"1"},"rt":66832.08499988541,"survey":"gad7","trial_type":"survey-template","trial_index":0,"time_elapsed":66855,"internal_node_id":"0.0-0.0","task_version":"screening-prolific"},{"responses":{"Q09":"1","Q01":"1","Q07":"0","Q11":"2","Q12":"0","Q05":"1","Q10":"1","Q08":"0","Q02":"1","Q13":"1","Q14":"0","Q06":"0","Q04":"1","Q15":"0","Q03":"1"},"rt":235190.44500007294,"survey":"7up7down","trial_type":"survey-template","trial_index":1,"time_elapsed":302101,"internal_node_id":"0.0-1.0","task_version":"screening-prolific"},{"responses":{"Q14":"2","Q01":"3","Q13":"3","Q03":"3","Q06":"3","Q12":"2","Q15":"1","Q11":"3","Q09":"3","Q05":"3","Q10":"3","Q02":"2","Q07":"3","Q08":"3","Q04":"3"},"rt":137379.8100000713,"survey":"shaps","trial_type":"survey-template","trial_index":2,"time_elapsed":439538,"internal_node_id":"0.0-2.0","task_version":"screening-prolific"},{"responses":{"Q01":"3","Q03":"2","Q02":"2"},"rt":30479.284999892116,"survey":"pswq","trial_type":"survey-template","trial_index":3,"time_elapsed":470068,"internal_node_id":"0.0-3.0","task_version":"screening-prolific"},{"responses":{"Q07":"2","Q10":"1","Q04":"3","Q11":"1","Q08":"2","Q01":"3","Q03":"1","Q06":"3","Q12":"1","Q05":"2","Q09":"1","Q02":"1","Q13":"3"},"rt":157065.60999993235,"survey":"bisbas","trial_type":"survey-template","trial_index":4,"time_elapsed":627187,"internal_node_id":"0.0-4.0","task_version":"screening-prolific"},{"view_history":"[{\"page_index\":0,\"viewing_time\":8674.850000068545},{\"page_index\":1,\"viewing_time\":14397.834999952465},{\"page_index\":2,\"viewing_time\":14956.83000003919},{\"page_index\":3,\"viewing_time\":8217.700000153854},{\"page_index\":4,\"viewing_time\":10456.624999875203},{\"page_index\":5,\"viewing_time\":7034.380000084639},{\"page_index\":6,\"viewing_time\":6873.439999995753},{\"page_index\":7,\"viewing_time\":8760.009999852628}]","rt":79372.54000012763,"trial_type":"instructions","trial_index":5,"time_elapsed":706607,"internal_node_id":"0.0-5.0-0.0","task_version":"screening-prolific"},{"responses":["True","True","False","False","True"],"num_errors":0,"rt":66835.6349999085,"trial_type":"three-arm-comprehension","trial_index":6,"time_elapsed":773451,"internal_node_id":"0.0-5.0-1.0","task_version":"screening-prolific"},{"view_history":"[{\"page_index\":0,\"viewing_time\":4828.979999991134}]","rt":4829.84000002034,"trial_type":"instructions","trial_index":7,"time_elapsed":778333,"internal_node_id":"0.0-6.0","task_version":"screening-prolific"},{"contexts":["green","blue","red"],"outcomes":[1,1,1],"key":37,"choice":0,"rt":5624.679999891669,"outcome":1,"trial":1,"correct":1,"trial_type":"three-arm-trial","trial_index":8,"time_elapsed":785171,"internal_node_id":"0.0-7.0-0.0","task_version":"screening-prolific","missing":false,"accuracy":0},{"contexts":["green","blue","red"],"outcomes":[0,1,0],"key":39,"choice":2,"rt":1556.2599999830127,"outcome":0,"trial":2,"correct":1,"trial_type":"three-arm-trial","trial_index":9,"time_elapsed":787993,"internal_node_id":"0.0-8.0-0.0","task_version":"screening-prolific","missing":false,"accuracy":0},{"contexts":["green","blue","red"],"outcomes":[0,1,0],"key":37,"choice":0,"rt":684.9199999123812,"outcome":0,"trial":3,"correct":1,"trial_type":"three-arm-trial","trial_index":10,"time_elapsed":789929,"internal_node_id":"0.0-9.0-0.0","task_version":"screening-prolific","missing":false,"accuracy":0},{"contexts":["green","blue","red"],"outcomes":[1,1,0],"key":38,"choice":1,"rt":349.32499984279275,"outcome":1,"trial":4,"correct":1,"trial_type":"three-arm-trial","trial_index":11,"time_elapsed":791550,"internal_node_id":"0.0-10.0-0.0","task_version":"screening-prolific","missing":false,"accuracy":1},{"contexts":["green","blue","red"],"outcomes":[0,1,0],"key":38,"choice":1,"rt":342.06000017002225,"outcome":1,"trial":5,"correct":1,"trial_type":"three-arm-trial","trial_index":12,"time_elapsed":793142,"internal_node_id":"0.0-11.0-0.0","task_version":"screening-prolific","missing":false,"accuracy":1},{"contexts":["green","blue","red"],"outcomes":[1,1,0],"key":38,"choice":1,"rt":347.58000005967915,"outcome":1,"trial":6,"correct":1,"trial_type":"three-arm-trial","trial_index":13,"time_elapsed":794743,"internal_node_id":"0.0-12.0-0.0","task_version":"screening-prolific","missing":false,"accuracy":1},{"contexts":["green","blue","red"],"outcomes":[1,1,0],"key":38,"choice":1,"rt":338.359999936074,"outcome":1,"trial":7,"correct":1,"trial_type":"three-arm-trial","trial_index":14,"time_elapsed":796346,"internal_node_id":"0.0-13.0-0.0","task_version":"screening-prolific","missing":false,"accuracy":1},{"contexts":["green","blue","red"],"outcomes":[1,1,0],"key":38,"choice":1,"rt":289.759999839589,"outcome":1,"trial":8,"correct":1,"trial_type":"three-arm-trial","trial_index":15,"time_elapsed":797889,"internal_node_id":"0.0-14.0-0.0","task_version":"screening-prolific","missing":false,"accuracy":1},{"contexts":["green","blue","red"],"outcomes":[0,1,0],"key":38,"choice":1,"rt":329.2450001463294,"outcome":1,"trial":9,"correct":1,"trial_type":"three-arm-trial","trial_index":16,"time_elapsed":799472,"internal_node_id":"0.0-15.0-0.0","task_version":"screening-prolific","missing":false,"accuracy":1},{"contexts":["green","blue","red"],"outcomes":[0,1,0],"key":38,"choice":1,"rt":340.9549999050796,"outcome":1,"trial":10,"correct":1,"trial_type":"three-arm-trial","trial_index":17,"time_elapsed":801067,"internal_node_id":"0.0-16.0-0.0","task_version":"screening-prolific","missing":false,"accuracy":1},{"contexts":["green","blue","red"],"outcomes":[0,1,0],"key":38,"choice":1,"rt":341.75999998115003,"outcome":1,"trial":11,"correct":1,"trial_type":"three-arm-trial","trial_index":18,"time_elapsed":802660,"internal_node_id":"0.0-17.0-0.0","task_version":"screening-prolific","missing":false,"accuracy":1},{"contexts":["green","blue","red"],"outcomes":[0,1,0],"key":38,"choice":1,"rt":329.7199998050928,"outcome":1,"trial":12,"correct":1,"trial_type":"three-arm-trial","trial_index":19,"time_elapsed":804242,"internal_node_id":"0.0-18.0-0.0","task_version":"screening-prolific","missing":false,"accuracy":1},{"contexts":["green","blue","red"],"outcomes":[0,1,0],"key":38,"choice":1,"rt":534.4849999528378,"outcome":1,"trial":13,"correct":1,"trial_type":"three-arm-trial","trial_index":20,"time_elapsed":806028,"internal_node_id":"0.0-19.0-0.0","task_version":"screening-prolific","missing":false,"accuracy":1},{"contexts":["green","blue","red"],"outcomes":[0,1,1],"key":38,"choice":1,"rt":327.76000001467764,"outcome":1,"trial":14,"correct":1,"trial_type":"three-arm-trial","trial_index":21,"time_elapsed":807606,"internal_node_id":"0.0-20.0-0.0","task_version":"screening-prolific","missing":false,"accuracy":1},{"contexts":["green","blue","red"],"outcomes":[0,1,0],"key":38,"choice":1,"rt":356.41500004567206,"outcome":1,"trial":15,"correct":1,"trial_type":"three-arm-trial","trial_index":22,"time_elapsed":809217,"internal_node_id":"0.0-21.0-0.0","task_version":"screening-prolific","missing":false,"accuracy":1},{"contexts":["green","blue","red"],"outcomes":[0,1,0],"key":38,"choice":1,"rt":328.86500004678965,"outcome":1,"trial":16,"correct":0,"trial_type":"three-arm-trial","trial_index":23,"time_elapsed":810797,"internal_node_id":"0.0-22.0-0.0","task_version":"screening-prolific","missing":false,"accuracy":0},{"contexts":["green","blue","red"],"outcomes":[1,0,0],"key":38,"choice":1,"rt":306.06499989517033,"outcome":0,"trial":17,"correct":0,"trial_type":"three-arm-trial","trial_index":24,"time_elapsed":812363,"internal_node_id":"0.0-23.0-0.0","task_version":"screening-prolific","missing":false,"accuracy":0},{"contexts":["green","blue","red"],"outcomes":[1,0,0],"key":37,"choice":0,"rt":344.70000001601875,"outcome":1,"trial":18,"correct":0,"trial_type":"three-arm-trial","trial_index":25,"time_elapsed":813958,"internal_node_id":"0.0-24.0-0.0","task_version":"screening-prolific","missing":false,"accuracy":1},{"contexts":["green","blue","red"],"outcomes":[0,0,0],"key":37,"choice":0,"rt":360.45999987982213,"outcome":0,"trial":19,"correct":0,"trial_type":"three-arm-trial","trial_index":26,"time_elapsed":815570,"internal_node_id":"0.0-25.0-0.0","task_version":"screening-prolific","missing":false,"accuracy":1},{"contexts":["green","blue","red"],"outcomes":[1,0,0],"key":39,"choice":2,"rt":359.8350000102073,"outcome":0,"trial":20,"correct":0,"trial_type":"three-arm-trial","trial_index":27,"time_elapsed":817181,"internal_node_id":"0.0-26.0-0.0","task_version":"screening-prolific","missing":false,"accuracy":0},{"contexts":["green","blue","red"],"outcomes":[1,0,1],"key":39,"choice":2,"rt":343.6900000087917,"outcome":1,"trial":21,"correct":0,"trial_type":"three-arm-trial","trial_index":28,"time_elapsed":818778,"internal_node_id":"0.0-27.0-0.0","task_version":"screening-prolific","missing":false,"accuracy":0},{"contexts":["green","blue","red"],"outcomes":[0,0,0],"key":39,"choice":2,"rt":329.69500008039176,"outcome":0,"trial":22,"correct":0,"trial_type":"three-arm-trial","trial_index":29,"time_elapsed":820364,"internal_node_id":"0.0-28.0-0.0","task_version":"screening-prolific","missing":false,"accuracy":0},{"contexts":["green","blue","red"],"outcomes":[0,0,1],"key":38,"choice":1,"rt":270.33500000834465,"outcome":0,"trial":23,"correct":0,"trial_type":"three-arm-trial","trial_index":30,"time_elapsed":821887,"internal_node_id":"0.0-29.0-0.0","task_version":"screening-prolific","missing":false,"accuracy":0},{"contexts":["green","blue","red"],"outcomes":[1,0,1],"key":37,"choice":0,"rt":333.64999992772937,"outcome":1,"trial":24,"correct":0,"trial_type":"three-arm-trial","trial_index":31,"time_elapsed":823475,"internal_node_id":"0.0-30.0-0.0","task_version":"screening-prolific","missing":false,"accuracy":1},{"contexts":["green","blue","red"],"outcomes":[1,1,0],"key":37,"choice":0,"rt":336.2200001720339,"outcome":1,"trial":25,"correct":0,"trial_type":"three-arm-trial","trial_index":32,"time_elapsed":825067,"internal_node_id":"0.0-31.0-0.0","task_version":"screening-prolific","missing":false,"accuracy":1},{"contexts":["green","blue","red"],"outcomes":[1,0,0],"key":37,"choice":0,"rt":337.6149998512119,"outcome":1,"trial":26,"correct":0,"trial_type":"three-arm-trial","trial_index":33,"time_elapsed":826657,"internal_node_id":"0.0-32.0-0.0","task_version":"screening-prolific","missing":false,"accuracy":1},{"contexts":["green","blue","red"],"outcomes":[1,1,0],"key":37,"choice":0,"rt":338.20999995805323,"outcome":1,"trial":27,"correct":0,"trial_type":"three-arm-trial","trial_index":34,"time_elapsed":828249,"internal_node_id":"0.0-33.0-0.0","task_version":"screening-prolific","missing":false,"accuracy":1},{"contexts":["green","blue","red"],"outcomes":[1,0,0],"key":37,"choice":0,"rt":357.8299998771399,"outcome":1,"trial":28,"correct":0,"trial_type":"three-arm-trial","trial_index":35,"time_elapsed":829869,"internal_node_id":"0.0-34.0-0.0","task_version":"screening-prolific","missing":false,"accuracy":1},{"contexts":["green","blue","red"],"outcomes":[1,0,0],"key":37,"choice":0,"rt":476.4300000388175,"outcome":1,"trial":29,"correct":0,"trial_type":"three-arm-trial","trial_index":36,"time_elapsed":831600,"internal_node_id":"0.0-35.0-0.0","task_version":"screening-prolific","missing":false,"accuracy":1},{"contexts":["green","blue","red"],"outcomes":[1,0,0],"key":37,"choice":0,"rt":329.3049999047071,"outcome":1,"trial":30,"correct":0,"trial_type":"three-arm-trial","trial_index":37,"time_elapsed":833187,"internal_node_id":"0.0-36.0-0.0","task_version":"screening-prolific","missing":false,"accuracy":1},{"contexts":["green","blue","red"],"outcomes":[1,0,1],"key":37,"choice":0,"rt":356.61500017158687,"outcome":1,"trial":31,"correct":2,"trial_type":"three-arm-trial","trial_index":38,"time_elapsed":834802,"internal_node_id":"0.0-37.0-0.0","task_version":"screening-prolific","missing":false,"accuracy":0},{"contexts":["green","blue","red"],"outcomes":[0,1,0],"key":37,"choice":0,"rt":374.91499981842935,"outcome":0,"trial":32,"correct":2,"trial_type":"three-arm-trial","trial_index":39,"time_elapsed":836432,"internal_node_id":"0.0-38.0-0.0","task_version":"screening-prolific","missing":false,"accuracy":0},{"contexts":["green","blue","red"],"outcomes":[0,0,1],"key":38,"choice":1,"rt":344.49000004678965,"outcome":0,"trial":33,"correct":2,"trial_type":"three-arm-trial","trial_index":40,"time_elapsed":838033,"internal_node_id":"0.0-39.0-0.0","task_version":"screening-prolific","missing":false,"accuracy":0},{"contexts":["green","blue","red"],"outcomes":[0,1,1],"key":39,"choice":2,"rt":346.48499987088144,"outcome":1,"trial":34,"correct":2,"trial_type":"three-arm-trial","trial_index":41,"time_elapsed":839636,"internal_node_id":"0.0-40.0-0.0","task_version":"screening-prolific","missing":false,"accuracy":1},{"contexts":["green","blue","red"],"outcomes":[0,0,1],"key":39,"choice":2,"rt":309.5599999651313,"outcome":1,"trial":35,"correct":2,"trial_type":"three-arm-trial","trial_index":42,"time_elapsed":841199,"internal_node_id":"0.0-41.0-0.0","task_version":"screening-prolific","missing":false,"accuracy":1},{"contexts":["green","blue","red"],"outcomes":[1,0,1],"key":39,"choice":2,"rt":326.0399999562651,"outcome":1,"trial":36,"correct":2,"trial_type":"three-arm-trial","trial_index":43,"time_elapsed":842783,"internal_node_id":"0.0-42.0-0.0","task_version":"screening-prolific","missing":false,"accuracy":1},{"contexts":["green","blue","red"],"outcomes":[0,0,1],"key":39,"choice":2,"rt":319.88000008277595,"outcome":1,"trial":37,"correct":2,"trial_type":"three-arm-trial","trial_index":44,"time_elapsed":844359,"internal_node_id":"0.0-43.0-0.0","task_version":"screening-prolific","missing":false,"accuracy":1},{"contexts":["green","blue","red"],"outcomes":[1,0,0],"key":39,"choice":2,"rt":316.58999994397163,"outcome":0,"trial":38,"correct":2,"trial_type":"three-arm-trial","trial_index":45,"time_elapsed":845929,"internal_node_id":"0.0-44.0-0.0","task_version":"screening-prolific","missing":false,"accuracy":1},{"contexts":["green","blue","red"],"outcomes":[0,1,1],"key":38,"choice":1,"rt":343.12500013038516,"outcome":1,"trial":39,"correct":2,"trial_type":"three-arm-trial","trial_index":46,"time_elapsed":847525,"internal_node_id":"0.0-45.0-0.0","task_version":"screening-prolific","missing":false,"accuracy":0},{"contexts":["green","blue","red"],"outcomes":[1,0,1],"key":38,"choice":1,"rt":327.19999994151294,"outcome":0,"trial":40,"correct":2,"trial_type":"three-arm-trial","trial_index":47,"time_elapsed":849106,"internal_node_id":"0.0-46.0-0.0","task_version":"screening-prolific","missing":false,"accuracy":0},{"contexts":["green","blue","red"],"outcomes":[0,0,1],"key":37,"choice":0,"rt":340.8549998421222,"outcome":0,"trial":41,"correct":2,"trial_type":"three-arm-trial","trial_index":48,"time_elapsed":850700,"internal_node_id":"0.0-47.0-0.0","task_version":"screening-prolific","missing":false,"accuracy":0},{"contexts":["green","blue","red"],"outcomes":[0,0,1],"key":39,"choice":2,"rt":340.00000008381903,"outcome":1,"trial":42,"correct":2,"trial_type":"three-arm-trial","trial_index":49,"time_elapsed":852296,"internal_node_id":"0.0-48.0-0.0","task_version":"screening-prolific","missing":false,"accuracy":1},{"contexts":["green","blue","red"],"outcomes":[0,0,1],"key":39,"choice":2,"rt":303.00000007264316,"outcome":1,"trial":43,"correct":2,"trial_type":"three-arm-trial","trial_index":50,"time_elapsed":853852,"internal_node_id":"0.0-49.0-0.0","task_version":"screening-prolific","missing":false,"accuracy":1},{"contexts":["green","blue","red"],"outcomes":[0,0,1],"key":39,"choice":2,"rt":346.7899998649955,"outcome":1,"trial":44,"correct":2,"trial_type":"three-arm-trial","trial_index":51,"time_elapsed":855450,"internal_node_id":"0.0-50.0-0.0","task_version":"screening-prolific","missing":false,"accuracy":1},{"contexts":["green","blue","red"],"outcomes":[1,0,1],"key":39,"choice":2,"rt":334.5050001516938,"outcome":1,"trial":45,"correct":2,"trial_type":"three-arm-trial","trial_index":52,"time_elapsed":857037,"internal_node_id":"0.0-51.0-0.0","task_version":"screening-prolific","missing":false,"accuracy":1},{"contexts":["green","blue","red"],"outcomes":[0,1,0],"key":39,"choice":2,"rt":329.0249998681247,"outcome":0,"trial":46,"correct":1,"trial_type":"three-arm-trial","trial_index":53,"time_elapsed":858621,"internal_node_id":"0.0-52.0-0.0","task_version":"screening-prolific","missing":false,"accuracy":0},{"contexts":["green","blue","red"],"outcomes":[0,1,0],"key":37,"choice":0,"rt":367.6099998410791,"outcome":0,"trial":47,"correct":1,"trial_type":"three-arm-trial","trial_index":54,"time_elapsed":860244,"internal_node_id":"0.0-53.0-0.0","task_version":"screening-prolific","missing":false,"accuracy":0},{"contexts":["green","blue","red"],"outcomes":[0,1,0],"key":37,"choice":0,"rt":351.9900001119822,"outcome":0,"trial":48,"correct":1,"trial_type":"three-arm-trial","trial_index":55,"time_elapsed":861847,"internal_node_id":"0.0-54.0-0.0","task_version":"screening-prolific","missing":false,"accuracy":0},{"contexts":["green","blue","red"],"outcomes":[1,1,0],"key":38,"choice":1,"rt":267.4000000115484,"outcome":1,"trial":49,"correct":1,"trial_type":"three-arm-trial","trial_index":56,"time_elapsed":863369,"internal_node_id":"0.0-55.0-0.0","task_version":"screening-prolific","missing":false,"accuracy":1},{"contexts":["green","blue","red"],"outcomes":[0,1,1],"key":38,"choice":1,"rt":332.7399999834597,"outcome":1,"trial":50,"correct":1,"trial_type":"three-arm-trial","trial_index":57,"time_elapsed":864957,"internal_node_id":"0.0-56.0-0.0","task_version":"screening-prolific","missing":false,"accuracy":1},{"contexts":["green","blue","red"],"outcomes":[0,0,0],"key":38,"choice":1,"rt":1154.3000000528991,"outcome":0,"trial":51,"correct":1,"trial_type":"three-arm-trial","trial_index":58,"time_elapsed":867366,"internal_node_id":"0.0-57.0-0.0","task_version":"screening-prolific","missing":false,"accuracy":1},{"contexts":["green","blue","red"],"outcomes":[0,1,0],"key":39,"choice":2,"rt":386.29499985836446,"outcome":0,"trial":52,"correct":1,"trial_type":"three-arm-trial","trial_index":59,"time_elapsed":869004,"internal_node_id":"0.0-58.0-0.0","task_version":"screening-prolific","missing":false,"accuracy":0},{"contexts":["green","blue","red"],"outcomes":[0,1,0],"key":39,"choice":2,"rt":291.1200001835823,"outcome":0,"trial":53,"correct":1,"trial_type":"three-arm-trial","trial_index":60,"time_elapsed":870550,"internal_node_id":"0.0-59.0-0.0","task_version":"screening-prolific","missing":false,"accuracy":0},{"contexts":["green","blue","red"],"outcomes":[0,0,0],"key":37,"choice":0,"rt":308.93999990075827,"outcome":0,"trial":54,"correct":1,"trial_type":"three-arm-trial","trial_index":61,"time_elapsed":872111,"internal_node_id":"0.0-60.0-0.0","task_version":"screening-prolific","missing":false,"accuracy":0},{"contexts":["green","blue","red"],"outcomes":[0,1,0],"key":38,"choice":1,"rt":292.35000000335276,"outcome":1,"trial":55,"correct":1,"trial_type":"three-arm-trial","trial_index":62,"time_elapsed":873654,"internal_node_id":"0.0-61.0-0.0","task_version":"screening-prolific","missing":false,"accuracy":1},{"contexts":["green","blue","red"],"outcomes":[0,1,0],"key":38,"choice":1,"rt":329.30999994277954,"outcome":1,"trial":56,"correct":1,"trial_type":"three-arm-trial","trial_index":63,"time_elapsed":875237,"internal_node_id":"0.0-62.0-0.0","task_version":"screening-prolific","missing":false,"accuracy":1},{"contexts":["green","blue","red"],"outcomes":[0,0,1],"key":38,"choice":1,"rt":675.6549999117851,"outcome":0,"trial":57,"correct":1,"trial_type":"three-arm-trial","trial_index":64,"time_elapsed":877167,"internal_node_id":"0.0-63.0-0.0","task_version":"screening-prolific","missing":false,"accuracy":1},{"contexts":["green","blue","red"],"outcomes":[1,1,0],"key":37,"choice":0,"rt":363.7850000523031,"outcome":1,"trial":58,"correct":1,"trial_type":"three-arm-trial","trial_index":65,"time_elapsed":878783,"internal_node_id":"0.0-64.0-0.0","task_version":"screening-prolific","missing":false,"accuracy":0},{"contexts":["green","blue","red"],"outcomes":[0,0,0],"key":37,"choice":0,"rt":402.56499988026917,"outcome":0,"trial":59,"correct":1,"trial_type":"three-arm-trial","trial_index":66,"time_elapsed":880439,"internal_node_id":"0.0-65.0-0.0","task_version":"screening-prolific","missing":false,"accuracy":0},{"contexts":["green","blue","red"],"outcomes":[0,1,0],"key":39,"choice":2,"rt":329.5050000306219,"outcome":0,"trial":60,"correct":1,"trial_type":"three-arm-trial","trial_index":67,"time_elapsed":882030,"internal_node_id":"0.0-66.0-0.0","task_version":"screening-prolific","missing":false,"accuracy":0},{"contexts":["green","blue","red"],"outcomes":[0,0,1],"key":39,"choice":2,"rt":274.7100000269711,"outcome":1,"trial":61,"correct":2,"trial_type":"three-arm-trial","trial_index":68,"time_elapsed":883559,"internal_node_id":"0.0-67.0-0.0","task_version":"screening-prolific","missing":false,"accuracy":1},{"contexts":["green","blue","red"],"outcomes":[0,0,1],"key":39,"choice":2,"rt":329.8100000247359,"outcome":1,"trial":62,"correct":2,"trial_type":"three-arm-trial","trial_index":69,"time_elapsed":885154,"internal_node_id":"0.0-68.0-0.0","task_version":"screening-prolific","missing":false,"accuracy":1},{"contexts":["green","blue","red"],"outcomes":[0,0,1],"key":39,"choice":2,"rt":291.7449998203665,"outcome":1,"trial":63,"correct":2,"trial_type":"three-arm-trial","trial_index":70,"time_elapsed":886702,"internal_node_id":"0.0-69.0-0.0","task_version":"screening-prolific","missing":false,"accuracy":1},{"contexts":["green","blue","red"],"outcomes":[0,0,1],"key":39,"choice":2,"rt":367.8749999962747,"outcome":1,"trial":64,"correct":2,"trial_type":"three-arm-trial","trial_index":71,"time_elapsed":888321,"internal_node_id":"0.0-70.0-0.0","task_version":"screening-prolific","missing":false,"accuracy":1},{"contexts":["green","blue","red"],"outcomes":[0,1,1],"key":39,"choice":2,"rt":330.22000011987984,"outcome":1,"trial":65,"correct":2,"trial_type":"three-arm-trial","trial_index":72,"time_elapsed":889904,"internal_node_id":"0.0-71.0-0.0","task_version":"screening-prolific","missing":false,"accuracy":1},{"contexts":["green","blue","red"],"outcomes":[0,0,0],"key":39,"choice":2,"rt":560.4499999899417,"outcome":0,"trial":66,"correct":2,"trial_type":"three-arm-trial","trial_index":73,"time_elapsed":891714,"internal_node_id":"0.0-72.0-0.0","task_version":"screening-prolific","missing":false,"accuracy":1},{"contexts":["green","blue","red"],"outcomes":[1,0,1],"key":38,"choice":1,"rt":365.67500000819564,"outcome":0,"trial":67,"correct":2,"trial_type":"three-arm-trial","trial_index":74,"time_elapsed":893333,"internal_node_id":"0.0-73.0-0.0","task_version":"screening-prolific","missing":false,"accuracy":0},{"contexts":["green","blue","red"],"outcomes":[0,1,1],"key":38,"choice":1,"rt":318.25500004924834,"outcome":1,"trial":68,"correct":2,"trial_type":"three-arm-trial","trial_index":75,"time_elapsed":894903,"internal_node_id":"0.0-74.0-0.0","task_version":"screening-prolific","missing":false,"accuracy":0},{"contexts":["green","blue","red"],"outcomes":[0,0,1],"key":38,"choice":1,"rt":333.9199998881668,"outcome":0,"trial":69,"correct":2,"trial_type":"three-arm-trial","trial_index":76,"time_elapsed":896489,"internal_node_id":"0.0-75.0-0.0","task_version":"screening-prolific","missing":false,"accuracy":0},{"contexts":["green","blue","red"],"outcomes":[0,1,1],"key":37,"choice":0,"rt":325.7150000426918,"outcome":0,"trial":70,"correct":2,"trial_type":"three-arm-trial","trial_index":77,"time_elapsed":898067,"internal_node_id":"0.0-76.0-0.0","task_version":"screening-prolific","missing":false,"accuracy":0},{"contexts":["green","blue","red"],"outcomes":[0,1,1],"key":37,"choice":0,"rt":312.42000008933246,"outcome":0,"trial":71,"correct":2,"trial_type":"three-arm-trial","trial_index":78,"time_elapsed":899633,"internal_node_id":"0.0-77.0-0.0","task_version":"screening-prolific","missing":false,"accuracy":0},{"contexts":["green","blue","red"],"outcomes":[0,0,1],"key":39,"choice":2,"rt":200.54499991238117,"outcome":1,"trial":72,"correct":2,"trial_type":"three-arm-trial","trial_index":79,"time_elapsed":901087,"internal_node_id":"0.0-78.0-0.0","task_version":"screening-prolific","missing":false,"accuracy":1},{"contexts":["green","blue","red"],"outcomes":[1,0,1],"key":39,"choice":2,"rt":363.1549999117851,"outcome":1,"trial":73,"correct":2,"trial_type":"three-arm-trial","trial_index":80,"time_elapsed":902704,"internal_node_id":"0.0-79.0-0.0","task_version":"screening-prolific","missing":false,"accuracy":1},{"contexts":["green","blue","red"],"outcomes":[0,0,0],"key":39,"choice":2,"rt":313.70999990031123,"outcome":0,"trial":74,"correct":2,"trial_type":"three-arm-trial","trial_index":81,"time_elapsed":904272,"internal_node_id":"0.0-80.0-0.0","task_version":"screening-prolific","missing":false,"accuracy":1},{"contexts":["green","blue","red"],"outcomes":[0,1,1],"key":39,"choice":2,"rt":287.6049999613315,"outcome":1,"trial":75,"correct":2,"trial_type":"three-arm-trial","trial_index":82,"time_elapsed":905815,"internal_node_id":"0.0-81.0-0.0","task_version":"screening-prolific","missing":false,"accuracy":1},{"contexts":["green","blue","red"],"outcomes":[1,0,0],"key":39,"choice":2,"rt":116.75000004470348,"outcome":0,"trial":76,"correct":0,"trial_type":"three-arm-trial","trial_index":83,"time_elapsed":907187,"internal_node_id":"0.0-82.0-0.0","task_version":"screening-prolific","missing":false,"accuracy":0},{"contexts":["green","blue","red"],"outcomes":[1,0,1],"key":37,"choice":0,"rt":353.2700000796467,"outcome":1,"trial":77,"correct":0,"trial_type":"three-arm-trial","trial_index":84,"time_elapsed":908792,"internal_node_id":"0.0-83.0-0.0","task_version":"screening-prolific","missing":false,"accuracy":1},{"contexts":["green","blue","red"],"outcomes":[1,0,0],"key":37,"choice":0,"rt":379.0449998341501,"outcome":1,"trial":78,"correct":0,"trial_type":"three-arm-trial","trial_index":85,"time_elapsed":910423,"internal_node_id":"0.0-84.0-0.0","task_version":"screening-prolific","missing":false,"accuracy":1},{"contexts":["green","blue","red"],"outcomes":[0,0,0],"key":37,"choice":0,"rt":328.5000000614673,"outcome":0,"trial":79,"correct":0,"trial_type":"three-arm-trial","trial_index":86,"time_elapsed":912003,"internal_node_id":"0.0-85.0-0.0","task_version":"screening-prolific","missing":false,"accuracy":1},{"contexts":["green","blue","red"],"outcomes":[1,0,0],"key":38,"choice":1,"rt":938.8949999120086,"outcome":0,"trial":80,"correct":0,"trial_type":"three-arm-trial","trial_index":87,"time_elapsed":914193,"internal_node_id":"0.0-86.0-0.0","task_version":"screening-prolific","missing":false,"accuracy":0},{"contexts":["green","blue","red"],"outcomes":[0,0,0],"key":38,"choice":1,"rt":331.66000014171004,"outcome":0,"trial":81,"correct":0,"trial_type":"three-arm-trial","trial_index":88,"time_elapsed":915777,"internal_node_id":"0.0-87.0-0.0","task_version":"screening-prolific","missing":false,"accuracy":0},{"contexts":["green","blue","red"],"outcomes":[1,0,0],"key":39,"choice":2,"rt":202.93500018306077,"outcome":0,"trial":82,"correct":0,"trial_type":"three-arm-trial","trial_index":89,"time_elapsed":917238,"internal_node_id":"0.0-88.0-0.0","task_version":"screening-prolific","missing":false,"accuracy":0},{"contexts":["green","blue","red"],"outcomes":[1,0,0],"key":37,"choice":0,"rt":311.2000001128763,"outcome":1,"trial":83,"correct":0,"trial_type":"three-arm-trial","trial_index":90,"time_elapsed":918801,"internal_node_id":"0.0-89.0-0.0","task_version":"screening-prolific","missing":false,"accuracy":1},{"contexts":["green","blue","red"],"outcomes":[1,1,0],"key":37,"choice":0,"rt":376.3950001448393,"outcome":1,"trial":84,"correct":0,"trial_type":"three-arm-trial","trial_index":91,"time_elapsed":920430,"internal_node_id":"0.0-90.0-0.0","task_version":"screening-prolific","missing":false,"accuracy":1},{"contexts":["green","blue","red"],"outcomes":[1,0,0],"key":37,"choice":0,"rt":370.54999987594783,"outcome":1,"trial":85,"correct":0,"trial_type":"three-arm-trial","trial_index":92,"time_elapsed":922052,"internal_node_id":"0.0-91.0-0.0","task_version":"screening-prolific","missing":false,"accuracy":1},{"contexts":["green","blue","red"],"outcomes":[1,0,0],"key":37,"choice":0,"rt":346.7550000641495,"outcome":1,"trial":86,"correct":0,"trial_type":"three-arm-trial","trial_index":93,"time_elapsed":923651,"internal_node_id":"0.0-92.0-0.0","task_version":"screening-prolific","missing":false,"accuracy":1},{"contexts":["green","blue","red"],"outcomes":[1,0,1],"key":37,"choice":0,"rt":331.17500017397106,"outcome":1,"trial":87,"correct":0,"trial_type":"three-arm-trial","trial_index":94,"time_elapsed":925241,"internal_node_id":"0.0-93.0-0.0","task_version":"screening-prolific","missing":false,"accuracy":1},{"contexts":["green","blue","red"],"outcomes":[1,0,0],"key":37,"choice":0,"rt":240.9700001589954,"outcome":1,"trial":88,"correct":0,"trial_type":"three-arm-trial","trial_index":95,"time_elapsed":926741,"internal_node_id":"0.0-94.0-0.0","task_version":"screening-prolific","missing":false,"accuracy":1},{"contexts":["green","blue","red"],"outcomes":[1,0,0],"key":37,"choice":0,"rt":274.51499993912876,"outcome":1,"trial":89,"correct":0,"trial_type":"three-arm-trial","trial_index":96,"time_elapsed":928270,"internal_node_id":"0.0-95.0-0.0","task_version":"screening-prolific","missing":false,"accuracy":1},{"contexts":["green","blue","red"],"outcomes":[1,1,0],"key":37,"choice":0,"rt":120.8899999037385,"outcome":1,"trial":90,"correct":0,"trial_type":"three-arm-trial","trial_index":97,"time_elapsed":929650,"internal_node_id":"0.0-96.0-0.0","task_version":"screening-prolific","missing":false,"accuracy":1},{"rt":36042.94000007212,"responses":{"age":"20","gender-categorical":"Female","gender-free-response":"","ethnicity":"Hispanic or Latino","race":["Black or African American"],"language":"Yes","fluency":"Very well","mturk":"No","mturk-this-study":"No"},"survey":"demographics","trial_type":"survey-demo","trial_index":98,"time_elapsed":965779,"internal_node_id":"0.0-97.0","task_version":"screening-prolific","interactions":"[{\"event\":\"blur\",\"trial\":3,\"time\":466993},{\"event\":\"focus\",\"trial\":3,\"time\":470015}]"}]