[{"responses":{"Q08":"0","Q01":"3","Q04":"3","Q03":"3","Q06":"2","Q05":"2","Q07":"1","Q02":"3"},"rt":43102.97999999602,"survey":"gad7","trial_type":"survey-template","trial_index":0,"time_elapsed":43113,"internal_node_id":"0.0-0.0","task_version":"screening-prolific"},{"responses":{"Q03":"3","Q02":"3","Q01":"3"},"rt":17064.070000000356,"survey":"pswq","trial_type":"survey-template","trial_index":1,"time_elapsed":60180,"internal_node_id":"0.0-1.0","task_version":"screening-prolific"},{"responses":{"Q04":"2","Q13":"2","Q03":"3","Q07":"3","Q15":"3","Q08":"2","Q12":"3","Q05":"3","Q10":"3","Q06":"3","Q14":"2","Q11":"2","Q09":"2","Q01":"2","Q02":"2"},"rt":66911.74499999761,"survey":"shaps","trial_type":"survey-template","trial_index":2,"time_elapsed":127098,"internal_node_id":"0.0-2.0","task_version":"screening-prolific"},{"responses":{"Q13":"1","Q06":"1","Q10":"1","Q11":"2","Q14":"1","Q07":"1","Q02":"2","Q03":"0","Q09":"2","Q08":"1","Q05":"2","Q04":"1","Q12":"1","Q01":"1","Q15":"0"},"rt":142154.11499999755,"survey":"7up7down","trial_type":"survey-template","trial_index":3,"time_elapsed":269263,"internal_node_id":"0.0-3.0","task_version":"screening-prolific"},{"responses":{"Q03":"3","Q07":"3","Q02":"3","Q10":"1","Q05":"2","Q11":"1","Q09":"0","Q01":"3","Q13":"3","Q06":"3","Q08":"2","Q04":"2","Q12":"0"},"rt":77226.64000000077,"survey":"bisbas","trial_type":"survey-template","trial_index":4,"time_elapsed":346500,"internal_node_id":"0.0-4.0","task_version":"screening-prolific"},{"view_history":"[{\"page_index\":0,\"viewing_time\":6339.849999996659},{\"page_index\":1,\"viewing_time\":10044.569999998203},{\"page_index\":2,\"viewing_time\":8741.005000003497},{\"page_index\":3,\"viewing_time\":5859.225000000151},{\"page_index\":4,\"viewing_time\":10309.789999999339},{\"page_index\":5,\"viewing_time\":7969.049999999697},{\"page_index\":6,\"viewing_time\":4558.924999997544},{\"page_index\":7,\"viewing_time\":7162.990000004356}]","rt":60986.24500000005,"trial_type":"instructions","trial_index":5,"time_elapsed":407492,"internal_node_id":"0.0-5.0-0.0","task_version":"screening-prolific"},{"responses":["True","True","False","False","True"],"num_errors":0,"rt":23859.134999998787,"trial_type":"three-arm-comprehension","trial_index":6,"time_elapsed":431353,"internal_node_id":"0.0-5.0-1.0","task_version":"screening-prolific"},{"view_history":"[{\"page_index\":0,\"viewing_time\":2393.8749999942956}]","rt":2394.059999998717,"trial_type":"instructions","trial_index":7,"time_elapsed":433749,"internal_node_id":"0.0-6.0","task_version":"screening-prolific"},{"contexts":["blue","green","red"],"outcomes":[1,1,1],"key":37,"choice":0,"rt":4189.720000002126,"outcome":1,"trial":1,"correct":0,"trial_type":"three-arm-trial","trial_index":8,"time_elapsed":439141,"internal_node_id":"0.0-7.0-0.0","task_version":"screening-prolific","missing":false,"accuracy":1},{"contexts":["blue","green","red"],"outcomes":[1,0,1],"key":38,"choice":1,"rt":1226.2849999970058,"outcome":0,"trial":2,"correct":0,"trial_type":"three-arm-trial","trial_index":9,"time_elapsed":441570,"internal_node_id":"0.0-8.0-0.0","task_version":"screening-prolific","missing":false,"accuracy":0},{"contexts":["blue","green","red"],"outcomes":[1,0,1],"key":39,"choice":2,"rt":314.38499999785563,"outcome":1,"trial":3,"correct":0,"trial_type":"three-arm-trial","trial_index":10,"time_elapsed":443087,"internal_node_id":"0.0-9.0-0.0","task_version":"screening-prolific","missing":false,"accuracy":0},{"contexts":["blue","green","red"],"outcomes":[1,0,1],"key":39,"choice":2,"rt":611.3449999975273,"outcome":1,"trial":4,"correct":0,"trial_type":"three-arm-trial","trial_index":11,"time_elapsed":444900,"internal_node_id":"0.0-10.0-0.0","task_version":"screening-prolific","missing":false,"accuracy":0},{"contexts":["blue","green","red"],"outcomes":[1,0,0],"key":37,"choice":0,"rt":406.22499999881256,"outcome":1,"trial":5,"correct":0,"trial_type":"three-arm-trial","trial_index":12,"time_elapsed":446509,"internal_node_id":"0.0-11.0-0.0","task_version":"screening-prolific","missing":false,"accuracy":1},{"contexts":["blue","green","red"],"outcomes":[1,0,0],"key":39,"choice":2,"rt":406.6300000049523,"outcome":0,"trial":6,"correct":0,"trial_type":"three-arm-trial","trial_index":13,"time_elapsed":448117,"internal_node_id":"0.0-12.0-0.0","task_version":"screening-prolific","missing":false,"accuracy":0},{"contexts":["blue","green","red"],"outcomes":[1,0,0],"key":38,"choice":1,"rt":375.73999999585794,"outcome":0,"trial":7,"correct":0,"trial_type":"three-arm-trial","trial_index":14,"time_elapsed":449695,"internal_node_id":"0.0-13.0-0.0","task_version":"screening-prolific","missing":false,"accuracy":0},{"contexts":["blue","green","red"],"outcomes":[0,0,0],"key":39,"choice":2,"rt":533.5750000012922,"outcome":0,"trial":8,"correct":0,"trial_type":"three-arm-trial","trial_index":15,"time_elapsed":451430,"internal_node_id":"0.0-14.0-0.0","task_version":"screening-prolific","missing":false,"accuracy":0},{"contexts":["blue","green","red"],"outcomes":[1,0,0],"key":37,"choice":0,"rt":339.41999999660766,"outcome":1,"trial":9,"correct":0,"trial_type":"three-arm-trial","trial_index":16,"time_elapsed":452972,"internal_node_id":"0.0-15.0-0.0","task_version":"screening-prolific","missing":false,"accuracy":1},{"contexts":["blue","green","red"],"outcomes":[1,0,0],"key":38,"choice":1,"rt":379.43000000086613,"outcome":0,"trial":10,"correct":0,"trial_type":"three-arm-trial","trial_index":17,"time_elapsed":454554,"internal_node_id":"0.0-16.0-0.0","task_version":"screening-prolific","missing":false,"accuracy":0},{"contexts":["blue","green","red"],"outcomes":[1,0,0],"key":39,"choice":2,"rt":276.3300000005984,"outcome":0,"trial":11,"correct":0,"trial_type":"three-arm-trial","trial_index":18,"time_elapsed":456033,"internal_node_id":"0.0-17.0-0.0","task_version":"screening-prolific","missing":false,"accuracy":0},{"contexts":["blue","green","red"],"outcomes":[1,0,0],"key":37,"choice":0,"rt":280.3649999987101,"outcome":1,"trial":12,"correct":0,"trial_type":"three-arm-trial","trial_index":19,"time_elapsed":457515,"internal_node_id":"0.0-18.0-0.0","task_version":"screening-prolific","missing":false,"accuracy":1},{"contexts":["blue","green","red"],"outcomes":[1,0,0],"key":38,"choice":1,"rt":553.7949999998091,"outcome":0,"trial":13,"correct":0,"trial_type":"three-arm-trial","trial_index":20,"time_elapsed":459272,"internal_node_id":"0.0-19.0-0.0","task_version":"screening-prolific","missing":false,"accuracy":0},{"contexts":["blue","green","red"],"outcomes":[1,0,0],"key":37,"choice":0,"rt":270.554999995511,"outcome":1,"trial":14,"correct":0,"trial_type":"three-arm-trial","trial_index":21,"time_elapsed":460745,"internal_node_id":"0.0-20.0-0.0","task_version":"screening-prolific","missing":false,"accuracy":1},{"contexts":["blue","green","red"],"outcomes":[1,1,0],"key":39,"choice":2,"rt":252.3700000019744,"outcome":0,"trial":15,"correct":0,"trial_type":"three-arm-trial","trial_index":22,"time_elapsed":462200,"internal_node_id":"0.0-21.0-0.0","task_version":"screening-prolific","missing":false,"accuracy":0},{"contexts":["blue","green","red"],"outcomes":[0,1,0],"key":37,"choice":0,"rt":272.77499999763677,"outcome":0,"trial":16,"correct":1,"trial_type":"three-arm-trial","trial_index":23,"time_elapsed":463675,"internal_node_id":"0.0-22.0-0.0","task_version":"screening-prolific","missing":false,"accuracy":0},{"contexts":["blue","green","red"],"outcomes":[0,0,0],"key":39,"choice":2,"rt":257.1699999971315,"outcome":0,"trial":17,"correct":1,"trial_type":"three-arm-trial","trial_index":24,"time_elapsed":465138,"internal_node_id":"0.0-23.0-0.0","task_version":"screening-prolific","missing":false,"accuracy":0},{"contexts":["blue","green","red"],"outcomes":[0,1,0],"key":37,"choice":0,"rt":398.4500000005937,"outcome":0,"trial":18,"correct":1,"trial_type":"three-arm-trial","trial_index":25,"time_elapsed":466739,"internal_node_id":"0.0-24.0-0.0","task_version":"screening-prolific","missing":false,"accuracy":0},{"contexts":["blue","green","red"],"outcomes":[0,1,0],"key":38,"choice":1,"rt":280.8099999965634,"outcome":1,"trial":19,"correct":1,"trial_type":"three-arm-trial","trial_index":26,"time_elapsed":468221,"internal_node_id":"0.0-25.0-0.0","task_version":"screening-prolific","missing":false,"accuracy":1},{"contexts":["blue","green","red"],"outcomes":[0,1,0],"key":38,"choice":1,"rt":299.14499999722466,"outcome":1,"trial":20,"correct":1,"trial_type":"three-arm-trial","trial_index":27,"time_elapsed":469722,"internal_node_id":"0.0-26.0-0.0","task_version":"screening-prolific","missing":false,"accuracy":1},{"contexts":["blue","green","red"],"outcomes":[0,1,0],"key":39,"choice":2,"rt":453.22999999916647,"outcome":0,"trial":21,"correct":1,"trial_type":"three-arm-trial","trial_index":28,"time_elapsed":471377,"internal_node_id":"0.0-27.0-0.0","task_version":"screening-prolific","missing":false,"accuracy":0},{"contexts":["blue","green","red"],"outcomes":[0,1,0],"key":38,"choice":1,"rt":284.12000000389526,"outcome":1,"trial":22,"correct":1,"trial_type":"three-arm-trial","trial_index":29,"time_elapsed":472864,"internal_node_id":"0.0-28.0-0.0","task_version":"screening-prolific","missing":false,"accuracy":1},{"contexts":["blue","green","red"],"outcomes":[0,0,0],"key":38,"choice":1,"rt":309.56000000151107,"outcome":0,"trial":23,"correct":1,"trial_type":"three-arm-trial","trial_index":30,"time_elapsed":474375,"internal_node_id":"0.0-29.0-0.0","task_version":"screening-prolific","missing":false,"accuracy":1},{"contexts":["blue","green","red"],"outcomes":[0,1,0],"key":37,"choice":0,"rt":273.0500000034226,"outcome":0,"trial":24,"correct":1,"trial_type":"three-arm-trial","trial_index":31,"time_elapsed":475851,"internal_node_id":"0.0-30.0-0.0","task_version":"screening-prolific","missing":false,"accuracy":0},{"contexts":["blue","green","red"],"outcomes":[0,1,0],"key":39,"choice":2,"rt":276.31499999552034,"outcome":0,"trial":25,"correct":1,"trial_type":"three-arm-trial","trial_index":32,"time_elapsed":477329,"internal_node_id":"0.0-31.0-0.0","task_version":"screening-prolific","missing":false,"accuracy":0},{"contexts":["blue","green","red"],"outcomes":[0,1,0],"key":38,"choice":1,"rt":256.39500000397675,"outcome":1,"trial":26,"correct":1,"trial_type":"three-arm-trial","trial_index":33,"time_elapsed":478788,"internal_node_id":"0.0-32.0-0.0","task_version":"screening-prolific","missing":false,"accuracy":1},{"contexts":["blue","green","red"],"outcomes":[0,1,0],"key":37,"choice":0,"rt":713.7350000048173,"outcome":0,"trial":27,"correct":1,"trial_type":"three-arm-trial","trial_index":34,"time_elapsed":480703,"internal_node_id":"0.0-33.0-0.0","task_version":"screening-prolific","missing":false,"accuracy":0},{"contexts":["blue","green","red"],"outcomes":[0,1,0],"key":39,"choice":2,"rt":427.4650000006659,"outcome":0,"trial":28,"correct":1,"trial_type":"three-arm-trial","trial_index":35,"time_elapsed":482333,"internal_node_id":"0.0-34.0-0.0","task_version":"screening-prolific","missing":false,"accuracy":0},{"contexts":["blue","green","red"],"outcomes":[0,1,0],"key":38,"choice":1,"rt":376.7149999985122,"outcome":1,"trial":29,"correct":1,"trial_type":"three-arm-trial","trial_index":36,"time_elapsed":483911,"internal_node_id":"0.0-35.0-0.0","task_version":"screening-prolific","missing":false,"accuracy":1},{"contexts":["blue","green","red"],"outcomes":[0,0,1],"key":38,"choice":1,"rt":310.92500000522705,"outcome":0,"trial":30,"correct":1,"trial_type":"three-arm-trial","trial_index":37,"time_elapsed":485425,"internal_node_id":"0.0-36.0-0.0","task_version":"screening-prolific","missing":false,"accuracy":1},{"contexts":["blue","green","red"],"outcomes":[0,0,0],"key":37,"choice":0,"rt":303.31000000296626,"outcome":0,"trial":31,"correct":0,"trial_type":"three-arm-trial","trial_index":38,"time_elapsed":486930,"internal_node_id":"0.0-37.0-0.0","task_version":"screening-prolific","missing":false,"accuracy":1},{"contexts":["blue","green","red"],"outcomes":[1,0,0],"key":39,"choice":2,"rt":279.6100000050501,"outcome":0,"trial":32,"correct":0,"trial_type":"three-arm-trial","trial_index":39,"time_elapsed":488413,"internal_node_id":"0.0-38.0-0.0","task_version":"screening-prolific","missing":false,"accuracy":0},{"contexts":["blue","green","red"],"outcomes":[1,1,0],"key":37,"choice":0,"rt":351.33499999938067,"outcome":1,"trial":33,"correct":0,"trial_type":"three-arm-trial","trial_index":40,"time_elapsed":489967,"internal_node_id":"0.0-39.0-0.0","task_version":"screening-prolific","missing":false,"accuracy":1},{"contexts":["blue","green","red"],"outcomes":[1,0,0],"key":39,"choice":2,"rt":296.4949999950477,"outcome":0,"trial":34,"correct":0,"trial_type":"three-arm-trial","trial_index":41,"time_elapsed":491466,"internal_node_id":"0.0-40.0-0.0","task_version":"screening-prolific","missing":false,"accuracy":0},{"contexts":["blue","green","red"],"outcomes":[1,0,0],"key":37,"choice":0,"rt":280.559999999241,"outcome":1,"trial":35,"correct":0,"trial_type":"three-arm-trial","trial_index":42,"time_elapsed":492948,"internal_node_id":"0.0-41.0-0.0","task_version":"screening-prolific","missing":false,"accuracy":1},{"contexts":["blue","green","red"],"outcomes":[1,1,0],"key":37,"choice":0,"rt":498.8200000007055,"outcome":1,"trial":36,"correct":0,"trial_type":"three-arm-trial","trial_index":43,"time_elapsed":494649,"internal_node_id":"0.0-42.0-0.0","task_version":"screening-prolific","missing":false,"accuracy":1},{"contexts":["blue","green","red"],"outcomes":[0,0,0],"key":37,"choice":0,"rt":376.4999999984866,"outcome":0,"trial":37,"correct":0,"trial_type":"three-arm-trial","trial_index":44,"time_elapsed":496227,"internal_node_id":"0.0-43.0-0.0","task_version":"screening-prolific","missing":false,"accuracy":1},{"contexts":["blue","green","red"],"outcomes":[1,0,0],"key":39,"choice":2,"rt":280.1550000003772,"outcome":0,"trial":38,"correct":0,"trial_type":"three-arm-trial","trial_index":45,"time_elapsed":497711,"internal_node_id":"0.0-44.0-0.0","task_version":"screening-prolific","missing":false,"accuracy":0},{"contexts":["blue","green","red"],"outcomes":[0,1,0],"key":38,"choice":1,"rt":257.0950000008452,"outcome":1,"trial":39,"correct":0,"trial_type":"three-arm-trial","trial_index":46,"time_elapsed":499170,"internal_node_id":"0.0-45.0-0.0","task_version":"screening-prolific","missing":false,"accuracy":0},{"contexts":["blue","green","red"],"outcomes":[1,0,0],"key":39,"choice":2,"rt":343.89999999984866,"outcome":0,"trial":40,"correct":0,"trial_type":"three-arm-trial","trial_index":47,"time_elapsed":500717,"internal_node_id":"0.0-46.0-0.0","task_version":"screening-prolific","missing":false,"accuracy":0},{"contexts":["blue","green","red"],"outcomes":[1,0,0],"key":38,"choice":1,"rt":366.05499999859603,"outcome":0,"trial":41,"correct":0,"trial_type":"three-arm-trial","trial_index":48,"time_elapsed":502285,"internal_node_id":"0.0-47.0-0.0","task_version":"screening-prolific","missing":false,"accuracy":0},{"contexts":["blue","green","red"],"outcomes":[1,1,0],"key":37,"choice":0,"rt":331.3399999969988,"outcome":1,"trial":42,"correct":0,"trial_type":"three-arm-trial","trial_index":49,"time_elapsed":503819,"internal_node_id":"0.0-48.0-0.0","task_version":"screening-prolific","missing":false,"accuracy":1},{"contexts":["blue","green","red"],"outcomes":[0,0,0],"key":37,"choice":0,"rt":418.90000000421423,"outcome":0,"trial":43,"correct":0,"trial_type":"three-arm-trial","trial_index":50,"time_elapsed":505440,"internal_node_id":"0.0-49.0-0.0","task_version":"screening-prolific","missing":false,"accuracy":1},{"contexts":["blue","green","red"],"outcomes":[0,0,0],"key":39,"choice":2,"rt":331.6000000049826,"outcome":0,"trial":44,"correct":0,"trial_type":"three-arm-trial","trial_index":51,"time_elapsed":506974,"internal_node_id":"0.0-50.0-0.0","task_version":"screening-prolific","missing":false,"accuracy":0},{"contexts":["blue","green","red"],"outcomes":[1,1,0],"key":39,"choice":2,"rt":230.70000000006985,"outcome":0,"trial":45,"correct":0,"trial_type":"three-arm-trial","trial_index":52,"time_elapsed":508406,"internal_node_id":"0.0-51.0-0.0","task_version":"screening-prolific","missing":false,"accuracy":0},{"contexts":["blue","green","red"],"outcomes":[0,1,0],"key":38,"choice":1,"rt":306.27000000094995,"outcome":1,"trial":46,"correct":1,"trial_type":"three-arm-trial","trial_index":53,"time_elapsed":509914,"internal_node_id":"0.0-52.0-0.0","task_version":"screening-prolific","missing":false,"accuracy":1},{"contexts":["blue","green","red"],"outcomes":[0,1,1],"key":38,"choice":1,"rt":465.8850000050734,"outcome":1,"trial":47,"correct":1,"trial_type":"three-arm-trial","trial_index":54,"time_elapsed":511582,"internal_node_id":"0.0-53.0-0.0","task_version":"screening-prolific","missing":false,"accuracy":1},{"contexts":["blue","green","red"],"outcomes":[0,0,0],"key":37,"choice":0,"rt":447.2749999986263,"outcome":0,"trial":48,"correct":1,"trial_type":"three-arm-trial","trial_index":55,"time_elapsed":513233,"internal_node_id":"0.0-54.0-0.0","task_version":"screening-prolific","missing":false,"accuracy":0},{"contexts":["blue","green","red"],"outcomes":[1,1,1],"key":38,"choice":1,"rt":289.3499999991036,"outcome":1,"trial":49,"correct":1,"trial_type":"three-arm-trial","trial_index":56,"time_elapsed":514724,"internal_node_id":"0.0-55.0-0.0","task_version":"screening-prolific","missing":false,"accuracy":1},{"contexts":["blue","green","red"],"outcomes":[1,1,0],"key":39,"choice":2,"rt":247.28499999764608,"outcome":0,"trial":50,"correct":1,"trial_type":"three-arm-trial","trial_index":57,"time_elapsed":516174,"internal_node_id":"0.0-56.0-0.0","task_version":"screening-prolific","missing":false,"accuracy":0},{"contexts":["blue","green","red"],"outcomes":[0,1,0],"key":38,"choice":1,"rt":31.61499999987427,"outcome":1,"trial":51,"correct":1,"trial_type":"three-arm-trial","trial_index":58,"time_elapsed":517408,"internal_node_id":"0.0-57.0-0.0","task_version":"screening-prolific","missing":false,"accuracy":1},{"contexts":["blue","green","red"],"outcomes":[0,1,0],"key":38,"choice":1,"rt":662.0750000001863,"outcome":1,"trial":52,"correct":1,"trial_type":"three-arm-trial","trial_index":59,"time_elapsed":519273,"internal_node_id":"0.0-58.0-0.0","task_version":"screening-prolific","missing":false,"accuracy":1},{"contexts":["blue","green","red"],"outcomes":[1,1,0],"key":38,"choice":1,"rt":330.39999999891734,"outcome":1,"trial":53,"correct":1,"trial_type":"three-arm-trial","trial_index":60,"time_elapsed":520806,"internal_node_id":"0.0-59.0-0.0","task_version":"screening-prolific","missing":false,"accuracy":1},{"contexts":["blue","green","red"],"outcomes":[0,1,0],"key":38,"choice":1,"rt":389.4349999973201,"outcome":1,"trial":54,"correct":1,"trial_type":"three-arm-trial","trial_index":61,"time_elapsed":522397,"internal_node_id":"0.0-60.0-0.0","task_version":"screening-prolific","missing":false,"accuracy":1},{"contexts":["blue","green","red"],"outcomes":[0,1,0],"key":38,"choice":1,"rt":315.614999999525,"outcome":1,"trial":55,"correct":1,"trial_type":"three-arm-trial","trial_index":62,"time_elapsed":523914,"internal_node_id":"0.0-61.0-0.0","task_version":"screening-prolific","missing":false,"accuracy":1},{"contexts":["blue","green","red"],"outcomes":[0,1,0],"key":38,"choice":1,"rt":315.41000000282656,"outcome":1,"trial":56,"correct":1,"trial_type":"three-arm-trial","trial_index":63,"time_elapsed":525435,"internal_node_id":"0.0-62.0-0.0","task_version":"screening-prolific","missing":false,"accuracy":1},{"contexts":["blue","green","red"],"outcomes":[0,1,0],"key":38,"choice":1,"rt":299.7400000022026,"outcome":1,"trial":57,"correct":1,"trial_type":"three-arm-trial","trial_index":64,"time_elapsed":526937,"internal_node_id":"0.0-63.0-0.0","task_version":"screening-prolific","missing":false,"accuracy":1},{"contexts":["blue","green","red"],"outcomes":[0,1,0],"key":38,"choice":1,"rt":540.7099999937927,"outcome":1,"trial":58,"correct":1,"trial_type":"three-arm-trial","trial_index":65,"time_elapsed":528680,"internal_node_id":"0.0-64.0-0.0","task_version":"screening-prolific","missing":false,"accuracy":1},{"contexts":["blue","green","red"],"outcomes":[0,1,0],"key":38,"choice":1,"rt":277.3700000033714,"outcome":1,"trial":59,"correct":1,"trial_type":"three-arm-trial","trial_index":66,"time_elapsed":530159,"internal_node_id":"0.0-65.0-0.0","task_version":"screening-prolific","missing":false,"accuracy":1},{"contexts":["blue","green","red"],"outcomes":[0,1,1],"key":38,"choice":1,"rt":424.3050000005169,"outcome":1,"trial":60,"correct":1,"trial_type":"three-arm-trial","trial_index":67,"time_elapsed":531786,"internal_node_id":"0.0-66.0-0.0","task_version":"screening-prolific","missing":false,"accuracy":1},{"contexts":["blue","green","red"],"outcomes":[0,0,0],"key":38,"choice":1,"rt":405.62499999953434,"outcome":0,"trial":61,"correct":2,"trial_type":"three-arm-trial","trial_index":68,"time_elapsed":533393,"internal_node_id":"0.0-67.0-0.0","task_version":"screening-prolific","missing":false,"accuracy":0},{"contexts":["blue","green","red"],"outcomes":[0,0,1],"key":39,"choice":2,"rt":457.3300000047311,"outcome":1,"trial":62,"correct":2,"trial_type":"three-arm-trial","trial_index":69,"time_elapsed":535052,"internal_node_id":"0.0-68.0-0.0","task_version":"screening-prolific","missing":false,"accuracy":1},{"contexts":["blue","green","red"],"outcomes":[0,0,1],"key":39,"choice":2,"rt":224.37499999790452,"outcome":1,"trial":63,"correct":2,"trial_type":"three-arm-trial","trial_index":70,"time_elapsed":536479,"internal_node_id":"0.0-69.0-0.0","task_version":"screening-prolific","missing":false,"accuracy":1},{"contexts":["blue","green","red"],"outcomes":[0,0,1],"key":39,"choice":2,"rt":234.59499999450054,"outcome":1,"trial":64,"correct":2,"trial_type":"three-arm-trial","trial_index":71,"time_elapsed":537915,"internal_node_id":"0.0-70.0-0.0","task_version":"screening-prolific","missing":false,"accuracy":1},{"contexts":["blue","green","red"],"outcomes":[0,1,1],"key":39,"choice":2,"rt":205.17500000284053,"outcome":1,"trial":65,"correct":2,"trial_type":"three-arm-trial","trial_index":72,"time_elapsed":539323,"internal_node_id":"0.0-71.0-0.0","task_version":"screening-prolific","missing":false,"accuracy":1},{"contexts":["blue","green","red"],"outcomes":[0,0,1],"key":39,"choice":2,"rt":318.60500000044703,"outcome":1,"trial":66,"correct":2,"trial_type":"three-arm-trial","trial_index":73,"time_elapsed":540844,"internal_node_id":"0.0-72.0-0.0","task_version":"screening-prolific","missing":false,"accuracy":1},{"contexts":["blue","green","red"],"outcomes":[0,0,1],"key":39,"choice":2,"rt":196.4349999979604,"outcome":1,"trial":67,"correct":2,"trial_type":"three-arm-trial","trial_index":74,"time_elapsed":542243,"internal_node_id":"0.0-73.0-0.0","task_version":"screening-prolific","missing":false,"accuracy":1},{"contexts":["blue","green","red"],"outcomes":[0,0,0],"key":39,"choice":2,"rt":201.35000000311993,"outcome":0,"trial":68,"correct":2,"trial_type":"three-arm-trial","trial_index":75,"time_elapsed":543647,"internal_node_id":"0.0-74.0-0.0","task_version":"screening-prolific","missing":false,"accuracy":1},{"contexts":["blue","green","red"],"outcomes":[0,0,1],"key":37,"choice":0,"rt":155.03000000177417,"outcome":0,"trial":69,"correct":2,"trial_type":"three-arm-trial","trial_index":76,"time_elapsed":545004,"internal_node_id":"0.0-75.0-0.0","task_version":"screening-prolific","missing":false,"accuracy":0},{"contexts":["blue","green","red"],"outcomes":[0,0,1],"key":38,"choice":1,"rt":451.7100000011269,"outcome":0,"trial":70,"correct":2,"trial_type":"three-arm-trial","trial_index":77,"time_elapsed":546658,"internal_node_id":"0.0-76.0-0.0","task_version":"screening-prolific","missing":false,"accuracy":0},{"contexts":["blue","green","red"],"outcomes":[0,0,1],"key":37,"choice":0,"rt":171.60000000149012,"outcome":0,"trial":71,"correct":2,"trial_type":"three-arm-trial","trial_index":78,"time_elapsed":548031,"internal_node_id":"0.0-77.0-0.0","task_version":"screening-prolific","missing":false,"accuracy":0},{"contexts":["blue","green","red"],"outcomes":[0,0,1],"key":39,"choice":2,"rt":372.59500000078697,"outcome":1,"trial":72,"correct":2,"trial_type":"three-arm-trial","trial_index":79,"time_elapsed":549606,"internal_node_id":"0.0-78.0-0.0","task_version":"screening-prolific","missing":false,"accuracy":1},{"contexts":["blue","green","red"],"outcomes":[0,1,1],"key":39,"choice":2,"rt":57.99500000278931,"outcome":1,"trial":73,"correct":2,"trial_type":"three-arm-trial","trial_index":80,"time_elapsed":550867,"internal_node_id":"0.0-79.0-0.0","task_version":"screening-prolific","missing":false,"accuracy":1},{"contexts":["blue","green","red"],"outcomes":[0,0,1],"key":39,"choice":2,"rt":71.7949999962002,"outcome":1,"trial":74,"correct":2,"trial_type":"three-arm-trial","trial_index":81,"time_elapsed":552141,"internal_node_id":"0.0-80.0-0.0","task_version":"screening-prolific","missing":false,"accuracy":1},{"contexts":["blue","green","red"],"outcomes":[0,0,1],"key":39,"choice":2,"rt":99.71500000392552,"outcome":1,"trial":75,"correct":2,"trial_type":"three-arm-trial","trial_index":82,"time_elapsed":553442,"internal_node_id":"0.0-81.0-0.0","task_version":"screening-prolific","missing":false,"accuracy":1},{"contexts":["blue","green","red"],"outcomes":[0,1,1],"key":39,"choice":2,"rt":101.07500000589062,"outcome":1,"trial":76,"correct":1,"trial_type":"three-arm-trial","trial_index":83,"time_elapsed":554746,"internal_node_id":"0.0-82.0-0.0","task_version":"screening-prolific","missing":false,"accuracy":0},{"contexts":["blue","green","red"],"outcomes":[0,1,0],"key":39,"choice":2,"rt":188.58999999798834,"outcome":0,"trial":77,"correct":1,"trial_type":"three-arm-trial","trial_index":84,"time_elapsed":556136,"internal_node_id":"0.0-83.0-0.0","task_version":"screening-prolific","missing":false,"accuracy":0},{"contexts":["blue","green","red"],"outcomes":[0,0,0],"key":37,"choice":0,"rt":442.1600000059698,"outcome":0,"trial":78,"correct":1,"trial_type":"three-arm-trial","trial_index":85,"time_elapsed":557780,"internal_node_id":"0.0-84.0-0.0","task_version":"screening-prolific","missing":false,"accuracy":0},{"contexts":["blue","green","red"],"outcomes":[1,1,1],"key":38,"choice":1,"rt":307.6650000002701,"outcome":1,"trial":79,"correct":1,"trial_type":"three-arm-trial","trial_index":86,"time_elapsed":559289,"internal_node_id":"0.0-85.0-0.0","task_version":"screening-prolific","missing":false,"accuracy":1},{"contexts":["blue","green","red"],"outcomes":[0,1,0],"key":38,"choice":1,"rt":496.8499999959022,"outcome":1,"trial":80,"correct":1,"trial_type":"three-arm-trial","trial_index":87,"time_elapsed":560989,"internal_node_id":"0.0-86.0-0.0","task_version":"screening-prolific","missing":false,"accuracy":1},{"contexts":["blue","green","red"],"outcomes":[0,0,0],"key":38,"choice":1,"rt":411.0849999997299,"outcome":0,"trial":81,"correct":1,"trial_type":"three-arm-trial","trial_index":88,"time_elapsed":562603,"internal_node_id":"0.0-87.0-0.0","task_version":"screening-prolific","missing":false,"accuracy":1},{"contexts":["blue","green","red"],"outcomes":[0,1,1],"key":39,"choice":2,"rt":280.48999999742955,"outcome":1,"trial":82,"correct":1,"trial_type":"three-arm-trial","trial_index":89,"time_elapsed":564086,"internal_node_id":"0.0-88.0-0.0","task_version":"screening-prolific","missing":false,"accuracy":0},{"contexts":["blue","green","red"],"outcomes":[0,1,0],"key":39,"choice":2,"rt":446.3199999954086,"outcome":0,"trial":83,"correct":1,"trial_type":"three-arm-trial","trial_index":90,"time_elapsed":565735,"internal_node_id":"0.0-89.0-0.0","task_version":"screening-prolific","missing":false,"accuracy":0},{"contexts":["blue","green","red"],"outcomes":[0,1,1],"key":37,"choice":0,"rt":397.3649999969639,"outcome":0,"trial":84,"correct":1,"trial_type":"three-arm-trial","trial_index":91,"time_elapsed":567335,"internal_node_id":"0.0-90.0-0.0","task_version":"screening-prolific","missing":false,"accuracy":0},{"contexts":["blue","green","red"],"outcomes":[1,1,1],"key":38,"choice":1,"rt":336.9600000004284,"outcome":1,"trial":85,"correct":1,"trial_type":"three-arm-trial","trial_index":92,"time_elapsed":568875,"internal_node_id":"0.0-91.0-0.0","task_version":"screening-prolific","missing":false,"accuracy":1},{"contexts":["blue","green","red"],"outcomes":[1,1,0],"key":38,"choice":1,"rt":391.6299999982584,"outcome":1,"trial":86,"correct":1,"trial_type":"three-arm-trial","trial_index":93,"time_elapsed":570468,"internal_node_id":"0.0-92.0-0.0","task_version":"screening-prolific","missing":false,"accuracy":1},{"contexts":["blue","green","red"],"outcomes":[0,1,1],"key":38,"choice":1,"rt":159.41000000026543,"outcome":1,"trial":87,"correct":1,"trial_type":"three-arm-trial","trial_index":94,"time_elapsed":571829,"internal_node_id":"0.0-93.0-0.0","task_version":"screening-prolific","missing":false,"accuracy":1},{"contexts":["blue","green","red"],"outcomes":[0,1,0],"key":38,"choice":1,"rt":225.97500000125729,"outcome":1,"trial":88,"correct":1,"trial_type":"three-arm-trial","trial_index":95,"time_elapsed":573257,"internal_node_id":"0.0-94.0-0.0","task_version":"screening-prolific","missing":false,"accuracy":1},{"contexts":["blue","green","red"],"outcomes":[0,1,0],"key":38,"choice":1,"rt":344.0100000007078,"outcome":1,"trial":89,"correct":1,"trial_type":"three-arm-trial","trial_index":96,"time_elapsed":574803,"internal_node_id":"0.0-95.0-0.0","task_version":"screening-prolific","missing":false,"accuracy":1},{"contexts":["blue","green","red"],"outcomes":[0,1,0],"key":38,"choice":1,"rt":568.715000001248,"outcome":1,"trial":90,"correct":1,"trial_type":"three-arm-trial","trial_index":97,"time_elapsed":576574,"internal_node_id":"0.0-96.0-0.0","task_version":"screening-prolific","missing":false,"accuracy":1},{"rt":41197.64500000025,"responses":{"age":"30","gender-categorical":"Female","gender-free-response":"","ethnicity":"Not Hispanic or Latino","race":["White"],"language":"Yes","fluency":"Very well","mturk":"No","mturk-this-study":"No"},"survey":"demographics","trial_type":"survey-demo","trial_index":98,"time_elapsed":617778,"internal_node_id":"0.0-97.0","task_version":"screening-prolific","interactions":"[]"}]