[{"responses":{"Q06":"1","Q12":"2","Q04":"0","Q05":"2","Q10":"2","Q08":"1","Q14":"1","Q03":"0","Q02":"1","Q09":"2","Q11":"1","Q13":"1","Q01":"0","Q15":"0","Q07":"3"},"rt":85454.53500002623,"survey":"7up7down","trial_type":"survey-template","trial_index":0,"time_elapsed":85476,"internal_node_id":"0.0-0.0","task_version":"screening-prolific"},{"responses":{"Q08":"0","Q07":"1","Q01":"1","Q05":"0","Q06":"1","Q04":"0","Q02":"3","Q03":"2"},"rt":21349.72000005655,"survey":"gad7","trial_type":"survey-template","trial_index":1,"time_elapsed":106830,"internal_node_id":"0.0-1.0","task_version":"screening-prolific"},{"responses":{"Q01":"2","Q03":"3","Q02":"2"},"rt":11050.210000015795,"survey":"pswq","trial_type":"survey-template","trial_index":2,"time_elapsed":117883,"internal_node_id":"0.0-2.0","task_version":"screening-prolific"},{"responses":{"Q06":"3","Q07":"3","Q13":"3","Q11":"3","Q01":"3","Q12":"2","Q02":"2","Q10":"3","Q09":"2","Q08":"2","Q05":"2","Q03":"2","Q04":"2"},"rt":47254.80999995489,"survey":"bisbas","trial_type":"survey-template","trial_index":3,"time_elapsed":165142,"internal_node_id":"0.0-3.0","task_version":"screening-prolific"},{"responses":{"Q08":"3","Q10":"2","Q14":"1","Q12":"1","Q06":"2","Q11":"2","Q09":"2","Q01":"2","Q15":"3","Q13":"3","Q07":"2","Q02":"2","Q03":"2","Q04":"2","Q05":"3"},"rt":44710.82500007469,"survey":"shaps","trial_type":"survey-template","trial_index":4,"time_elapsed":209856,"internal_node_id":"0.0-4.0","task_version":"screening-prolific"},{"view_history":"[{\"page_index\":0,\"viewing_time\":8203.459999989718},{\"page_index\":1,\"viewing_time\":7941.270000068471},{\"page_index\":2,\"viewing_time\":9897.679999936372},{\"page_index\":3,\"viewing_time\":4655.42500000447},{\"page_index\":4,\"viewing_time\":5322.204999974929},{\"page_index\":5,\"viewing_time\":2983.1400000257418},{\"page_index\":6,\"viewing_time\":2980.639999965206},{\"page_index\":7,\"viewing_time\":2691.2950000260025}]","rt":44676.2700000545,"trial_type":"instructions","trial_index":5,"time_elapsed":254534,"internal_node_id":"0.0-5.0-0.0","task_version":"screening-prolific"},{"responses":["True","True","False","False","True"],"num_errors":0,"rt":14118.210000102408,"trial_type":"three-arm-comprehension","trial_index":6,"time_elapsed":268656,"internal_node_id":"0.0-5.0-1.0","task_version":"screening-prolific"},{"view_history":"[{\"page_index\":0,\"viewing_time\":2079.090000013821}]","rt":2079.380000010133,"trial_type":"instructions","trial_index":7,"time_elapsed":270739,"internal_node_id":"0.0-6.0","task_version":"screening-prolific"},{"contexts":["red","green","blue"],"outcomes":[0,0,1],"key":38,"choice":1,"rt":1823.0050000129268,"outcome":0,"trial":1,"correct":2,"trial_type":"three-arm-trial","trial_index":8,"time_elapsed":273769,"internal_node_id":"0.0-7.0-0.0","task_version":"screening-prolific","missing":false,"accuracy":0},{"contexts":["red","green","blue"],"outcomes":[0,0,1],"key":37,"choice":0,"rt":691.080000018701,"outcome":0,"trial":2,"correct":2,"trial_type":"three-arm-trial","trial_index":9,"time_elapsed":275666,"internal_node_id":"0.0-8.0-0.0","task_version":"screening-prolific","missing":false,"accuracy":0},{"contexts":["red","green","blue"],"outcomes":[0,0,1],"key":38,"choice":1,"rt":225.11999995913357,"outcome":0,"trial":3,"correct":2,"trial_type":"three-arm-trial","trial_index":10,"time_elapsed":277097,"internal_node_id":"0.0-9.0-0.0","task_version":"screening-prolific","missing":false,"accuracy":0},{"contexts":["red","green","blue"],"outcomes":[0,1,1],"key":39,"choice":2,"rt":140.2999999700114,"outcome":1,"trial":4,"correct":2,"trial_type":"three-arm-trial","trial_index":11,"time_elapsed":278444,"internal_node_id":"0.0-10.0-0.0","task_version":"screening-prolific","missing":false,"accuracy":1},{"contexts":["red","green","blue"],"outcomes":[0,0,1],"key":38,"choice":1,"rt":498.1149999657646,"outcome":0,"trial":5,"correct":2,"trial_type":"three-arm-trial","trial_index":12,"time_elapsed":280151,"internal_node_id":"0.0-11.0-0.0","task_version":"screening-prolific","missing":false,"accuracy":0},{"contexts":["red","green","blue"],"outcomes":[0,0,1],"key":39,"choice":2,"rt":332.98500010278076,"outcome":1,"trial":6,"correct":2,"trial_type":"three-arm-trial","trial_index":13,"time_elapsed":281689,"internal_node_id":"0.0-12.0-0.0","task_version":"screening-prolific","missing":false,"accuracy":1},{"contexts":["red","green","blue"],"outcomes":[0,0,0],"key":39,"choice":2,"rt":569.4000000366941,"outcome":0,"trial":7,"correct":2,"trial_type":"three-arm-trial","trial_index":14,"time_elapsed":283463,"internal_node_id":"0.0-13.0-0.0","task_version":"screening-prolific","missing":false,"accuracy":1},{"contexts":["red","green","blue"],"outcomes":[0,0,1],"key":38,"choice":1,"rt":391.730000032112,"outcome":0,"trial":8,"correct":2,"trial_type":"three-arm-trial","trial_index":15,"time_elapsed":285062,"internal_node_id":"0.0-14.0-0.0","task_version":"screening-prolific","missing":false,"accuracy":0},{"contexts":["red","green","blue"],"outcomes":[0,1,1],"key":37,"choice":0,"rt":286.47000005003065,"outcome":0,"trial":9,"correct":2,"trial_type":"three-arm-trial","trial_index":16,"time_elapsed":286553,"internal_node_id":"0.0-15.0-0.0","task_version":"screening-prolific","missing":false,"accuracy":0},{"contexts":["red","green","blue"],"outcomes":[0,0,0],"key":38,"choice":1,"rt":243.26500005554408,"outcome":0,"trial":10,"correct":2,"trial_type":"three-arm-trial","trial_index":17,"time_elapsed":288001,"internal_node_id":"0.0-16.0-0.0","task_version":"screening-prolific","missing":false,"accuracy":0},{"contexts":["red","green","blue"],"outcomes":[0,0,0],"key":39,"choice":2,"rt":390.70500002708286,"outcome":0,"trial":11,"correct":2,"trial_type":"three-arm-trial","trial_index":18,"time_elapsed":289595,"internal_node_id":"0.0-17.0-0.0","task_version":"screening-prolific","missing":false,"accuracy":1},{"contexts":["red","green","blue"],"outcomes":[0,0,1],"key":38,"choice":1,"rt":253.12000000849366,"outcome":0,"trial":12,"correct":2,"trial_type":"three-arm-trial","trial_index":19,"time_elapsed":291053,"internal_node_id":"0.0-18.0-0.0","task_version":"screening-prolific","missing":false,"accuracy":0},{"contexts":["red","green","blue"],"outcomes":[0,0,0],"key":37,"choice":0,"rt":340.8449999988079,"outcome":0,"trial":13,"correct":2,"trial_type":"three-arm-trial","trial_index":20,"time_elapsed":292598,"internal_node_id":"0.0-19.0-0.0","task_version":"screening-prolific","missing":false,"accuracy":0},{"contexts":["red","green","blue"],"outcomes":[1,0,1],"key":37,"choice":0,"rt":311.83500005863607,"outcome":1,"trial":14,"correct":2,"trial_type":"three-arm-trial","trial_index":21,"time_elapsed":294114,"internal_node_id":"0.0-20.0-0.0","task_version":"screening-prolific","missing":false,"accuracy":0},{"contexts":["red","green","blue"],"outcomes":[1,0,1],"key":37,"choice":0,"rt":409.66999996453524,"outcome":1,"trial":15,"correct":2,"trial_type":"three-arm-trial","trial_index":22,"time_elapsed":295729,"internal_node_id":"0.0-21.0-0.0","task_version":"screening-prolific","missing":false,"accuracy":0},{"contexts":["red","green","blue"],"outcomes":[0,0,0],"key":38,"choice":1,"rt":456.0950000304729,"outcome":0,"trial":16,"correct":0,"trial_type":"three-arm-trial","trial_index":23,"time_elapsed":297390,"internal_node_id":"0.0-22.0-0.0","task_version":"screening-prolific","missing":false,"accuracy":0},{"contexts":["red","green","blue"],"outcomes":[1,0,0],"key":39,"choice":2,"rt":236.59999994561076,"outcome":0,"trial":17,"correct":0,"trial_type":"three-arm-trial","trial_index":24,"time_elapsed":298834,"internal_node_id":"0.0-23.0-0.0","task_version":"screening-prolific","missing":false,"accuracy":0},{"contexts":["red","green","blue"],"outcomes":[1,0,1],"key":39,"choice":2,"rt":352.9799999669194,"outcome":1,"trial":18,"correct":0,"trial_type":"three-arm-trial","trial_index":25,"time_elapsed":300400,"internal_node_id":"0.0-24.0-0.0","task_version":"screening-prolific","missing":false,"accuracy":0},{"contexts":["red","green","blue"],"outcomes":[0,0,0],"key":38,"choice":1,"rt":412.96999994665384,"outcome":0,"trial":19,"correct":0,"trial_type":"three-arm-trial","trial_index":26,"time_elapsed":302020,"internal_node_id":"0.0-25.0-0.0","task_version":"screening-prolific","missing":false,"accuracy":0},{"contexts":["red","green","blue"],"outcomes":[1,0,0],"key":37,"choice":0,"rt":297.554999939166,"outcome":1,"trial":20,"correct":0,"trial_type":"three-arm-trial","trial_index":27,"time_elapsed":303523,"internal_node_id":"0.0-26.0-0.0","task_version":"screening-prolific","missing":false,"accuracy":1},{"contexts":["red","green","blue"],"outcomes":[1,0,0],"key":37,"choice":0,"rt":402.33499999158084,"outcome":1,"trial":21,"correct":0,"trial_type":"three-arm-trial","trial_index":28,"time_elapsed":305135,"internal_node_id":"0.0-27.0-0.0","task_version":"screening-prolific","missing":false,"accuracy":1},{"contexts":["red","green","blue"],"outcomes":[0,0,0],"key":37,"choice":0,"rt":497.0200000097975,"outcome":0,"trial":22,"correct":0,"trial_type":"three-arm-trial","trial_index":29,"time_elapsed":306839,"internal_node_id":"0.0-28.0-0.0","task_version":"screening-prolific","missing":false,"accuracy":1},{"contexts":["red","green","blue"],"outcomes":[1,0,0],"key":38,"choice":1,"rt":173.56499994639307,"outcome":0,"trial":23,"correct":0,"trial_type":"three-arm-trial","trial_index":30,"time_elapsed":308221,"internal_node_id":"0.0-29.0-0.0","task_version":"screening-prolific","missing":false,"accuracy":0},{"contexts":["red","green","blue"],"outcomes":[1,0,0],"key":39,"choice":2,"rt":351.0699999751523,"outcome":0,"trial":24,"correct":0,"trial_type":"three-arm-trial","trial_index":31,"time_elapsed":309780,"internal_node_id":"0.0-30.0-0.0","task_version":"screening-prolific","missing":false,"accuracy":0},{"contexts":["red","green","blue"],"outcomes":[0,0,1],"key":39,"choice":2,"rt":326.23000000603497,"outcome":1,"trial":25,"correct":0,"trial_type":"three-arm-trial","trial_index":32,"time_elapsed":311311,"internal_node_id":"0.0-31.0-0.0","task_version":"screening-prolific","missing":false,"accuracy":0},{"contexts":["red","green","blue"],"outcomes":[1,0,0],"key":39,"choice":2,"rt":333.16000003833324,"outcome":0,"trial":26,"correct":0,"trial_type":"three-arm-trial","trial_index":33,"time_elapsed":312851,"internal_node_id":"0.0-32.0-0.0","task_version":"screening-prolific","missing":false,"accuracy":0},{"contexts":["red","green","blue"],"outcomes":[0,1,0],"key":38,"choice":1,"rt":339.185000048019,"outcome":1,"trial":27,"correct":0,"trial_type":"three-arm-trial","trial_index":34,"time_elapsed":314398,"internal_node_id":"0.0-33.0-0.0","task_version":"screening-prolific","missing":false,"accuracy":0},{"contexts":["red","green","blue"],"outcomes":[1,0,0],"key":38,"choice":1,"rt":374.00999991223216,"outcome":0,"trial":28,"correct":0,"trial_type":"three-arm-trial","trial_index":35,"time_elapsed":315977,"internal_node_id":"0.0-34.0-0.0","task_version":"screening-prolific","missing":false,"accuracy":0},{"contexts":["red","green","blue"],"outcomes":[1,0,0],"key":37,"choice":0,"rt":294.4650000426918,"outcome":1,"trial":29,"correct":0,"trial_type":"three-arm-trial","trial_index":36,"time_elapsed":317476,"internal_node_id":"0.0-35.0-0.0","task_version":"screening-prolific","missing":false,"accuracy":1},{"contexts":["red","green","blue"],"outcomes":[1,0,0],"key":37,"choice":0,"rt":334.3950000125915,"outcome":1,"trial":30,"correct":0,"trial_type":"three-arm-trial","trial_index":37,"time_elapsed":319017,"internal_node_id":"0.0-36.0-0.0","task_version":"screening-prolific","missing":false,"accuracy":1},{"contexts":["red","green","blue"],"outcomes":[0,1,1],"key":37,"choice":0,"rt":352.6850000489503,"outcome":0,"trial":31,"correct":2,"trial_type":"three-arm-trial","trial_index":38,"time_elapsed":320575,"internal_node_id":"0.0-37.0-0.0","task_version":"screening-prolific","missing":false,"accuracy":0},{"contexts":["red","green","blue"],"outcomes":[0,0,1],"key":38,"choice":1,"rt":350.0650000059977,"outcome":0,"trial":32,"correct":2,"trial_type":"three-arm-trial","trial_index":39,"time_elapsed":322131,"internal_node_id":"0.0-38.0-0.0","task_version":"screening-prolific","missing":false,"accuracy":0},{"contexts":["red","green","blue"],"outcomes":[1,1,1],"key":38,"choice":1,"rt":349.66499998699874,"outcome":1,"trial":33,"correct":2,"trial_type":"three-arm-trial","trial_index":40,"time_elapsed":323685,"internal_node_id":"0.0-39.0-0.0","task_version":"screening-prolific","missing":false,"accuracy":0},{"contexts":["red","green","blue"],"outcomes":[0,1,1],"key":38,"choice":1,"rt":346.76999994553626,"outcome":1,"trial":34,"correct":2,"trial_type":"three-arm-trial","trial_index":41,"time_elapsed":325234,"internal_node_id":"0.0-40.0-0.0","task_version":"screening-prolific","missing":false,"accuracy":0},{"contexts":["red","green","blue"],"outcomes":[1,0,1],"key":38,"choice":1,"rt":345.4900000942871,"outcome":0,"trial":35,"correct":2,"trial_type":"three-arm-trial","trial_index":42,"time_elapsed":326782,"internal_node_id":"0.0-41.0-0.0","task_version":"screening-prolific","missing":false,"accuracy":0},{"contexts":["red","green","blue"],"outcomes":[0,0,1],"key":38,"choice":1,"rt":289.41999992821366,"outcome":0,"trial":36,"correct":2,"trial_type":"three-arm-trial","trial_index":43,"time_elapsed":328277,"internal_node_id":"0.0-42.0-0.0","task_version":"screening-prolific","missing":false,"accuracy":0},{"contexts":["red","green","blue"],"outcomes":[0,0,1],"key":39,"choice":2,"rt":356.64000001270324,"outcome":1,"trial":37,"correct":2,"trial_type":"three-arm-trial","trial_index":44,"time_elapsed":329841,"internal_node_id":"0.0-43.0-0.0","task_version":"screening-prolific","missing":false,"accuracy":1},{"contexts":["red","green","blue"],"outcomes":[0,1,1],"key":37,"choice":0,"rt":368.12999995891005,"outcome":0,"trial":38,"correct":2,"trial_type":"three-arm-trial","trial_index":45,"time_elapsed":331416,"internal_node_id":"0.0-44.0-0.0","task_version":"screening-prolific","missing":false,"accuracy":0},{"contexts":["red","green","blue"],"outcomes":[0,0,1],"key":37,"choice":0,"rt":372.8750000009313,"outcome":0,"trial":39,"correct":2,"trial_type":"three-arm-trial","trial_index":46,"time_elapsed":332994,"internal_node_id":"0.0-45.0-0.0","task_version":"screening-prolific","missing":false,"accuracy":0},{"contexts":["red","green","blue"],"outcomes":[0,0,1],"key":38,"choice":1,"rt":273.9150000270456,"outcome":0,"trial":40,"correct":2,"trial_type":"three-arm-trial","trial_index":47,"time_elapsed":334475,"internal_node_id":"0.0-46.0-0.0","task_version":"screening-prolific","missing":false,"accuracy":0},{"contexts":["red","green","blue"],"outcomes":[0,0,1],"key":39,"choice":2,"rt":332.18000002671033,"outcome":1,"trial":41,"correct":2,"trial_type":"three-arm-trial","trial_index":48,"time_elapsed":336013,"internal_node_id":"0.0-47.0-0.0","task_version":"screening-prolific","missing":false,"accuracy":1},{"contexts":["red","green","blue"],"outcomes":[0,0,1],"key":39,"choice":2,"rt":387.1750000398606,"outcome":1,"trial":42,"correct":2,"trial_type":"three-arm-trial","trial_index":49,"time_elapsed":337605,"internal_node_id":"0.0-48.0-0.0","task_version":"screening-prolific","missing":false,"accuracy":1},{"contexts":["red","green","blue"],"outcomes":[0,0,1],"key":39,"choice":2,"rt":321.2899999925867,"outcome":1,"trial":43,"correct":2,"trial_type":"three-arm-trial","trial_index":50,"time_elapsed":339129,"internal_node_id":"0.0-49.0-0.0","task_version":"screening-prolific","missing":false,"accuracy":1},{"contexts":["red","green","blue"],"outcomes":[0,1,1],"key":39,"choice":2,"rt":355.0350000150502,"outcome":1,"trial":44,"correct":2,"trial_type":"three-arm-trial","trial_index":51,"time_elapsed":340689,"internal_node_id":"0.0-50.0-0.0","task_version":"screening-prolific","missing":false,"accuracy":1},{"contexts":["red","green","blue"],"outcomes":[0,0,1],"key":39,"choice":2,"rt":477.89999993983656,"outcome":1,"trial":45,"correct":2,"trial_type":"three-arm-trial","trial_index":52,"time_elapsed":342370,"internal_node_id":"0.0-51.0-0.0","task_version":"screening-prolific","missing":false,"accuracy":1},{"contexts":["red","green","blue"],"outcomes":[0,1,1],"key":39,"choice":2,"rt":385.00999996904284,"outcome":1,"trial":46,"correct":1,"trial_type":"three-arm-trial","trial_index":53,"time_elapsed":343959,"internal_node_id":"0.0-52.0-0.0","task_version":"screening-prolific","missing":false,"accuracy":0},{"contexts":["red","green","blue"],"outcomes":[0,1,0],"key":39,"choice":2,"rt":404.3300000485033,"outcome":0,"trial":47,"correct":1,"trial_type":"three-arm-trial","trial_index":54,"time_elapsed":345568,"internal_node_id":"0.0-53.0-0.0","task_version":"screening-prolific","missing":false,"accuracy":0},{"contexts":["red","green","blue"],"outcomes":[0,1,0],"key":39,"choice":2,"rt":360.3049999801442,"outcome":0,"trial":48,"correct":1,"trial_type":"three-arm-trial","trial_index":55,"time_elapsed":347133,"internal_node_id":"0.0-54.0-0.0","task_version":"screening-prolific","missing":false,"accuracy":0},{"contexts":["red","green","blue"],"outcomes":[0,1,0],"key":38,"choice":1,"rt":245.49000000115484,"outcome":1,"trial":49,"correct":1,"trial_type":"three-arm-trial","trial_index":56,"time_elapsed":348581,"internal_node_id":"0.0-55.0-0.0","task_version":"screening-prolific","missing":false,"accuracy":1},{"contexts":["red","green","blue"],"outcomes":[0,1,0],"key":37,"choice":0,"rt":316.7949999915436,"outcome":0,"trial":50,"correct":1,"trial_type":"three-arm-trial","trial_index":57,"time_elapsed":350103,"internal_node_id":"0.0-56.0-0.0","task_version":"screening-prolific","missing":false,"accuracy":0},{"contexts":["red","green","blue"],"outcomes":[0,1,0],"key":38,"choice":1,"rt":71.67500001378357,"outcome":1,"trial":51,"correct":1,"trial_type":"three-arm-trial","trial_index":58,"time_elapsed":351379,"internal_node_id":"0.0-57.0-0.0","task_version":"screening-prolific","missing":false,"accuracy":1},{"contexts":["red","green","blue"],"outcomes":[0,0,0],"key":38,"choice":1,"rt":306.4799999119714,"outcome":0,"trial":52,"correct":1,"trial_type":"three-arm-trial","trial_index":59,"time_elapsed":352891,"internal_node_id":"0.0-58.0-0.0","task_version":"screening-prolific","missing":false,"accuracy":1},{"contexts":["red","green","blue"],"outcomes":[0,1,0],"key":39,"choice":2,"rt":413.53000001981854,"outcome":0,"trial":53,"correct":1,"trial_type":"three-arm-trial","trial_index":60,"time_elapsed":354509,"internal_node_id":"0.0-59.0-0.0","task_version":"screening-prolific","missing":false,"accuracy":0},{"contexts":["red","green","blue"],"outcomes":[0,1,0],"key":39,"choice":2,"rt":290.32999998889863,"outcome":0,"trial":54,"correct":1,"trial_type":"three-arm-trial","trial_index":61,"time_elapsed":356005,"internal_node_id":"0.0-60.0-0.0","task_version":"screening-prolific","missing":false,"accuracy":0},{"contexts":["red","green","blue"],"outcomes":[0,0,0],"key":37,"choice":0,"rt":381.80500001180917,"outcome":0,"trial":55,"correct":1,"trial_type":"three-arm-trial","trial_index":62,"time_elapsed":357592,"internal_node_id":"0.0-61.0-0.0","task_version":"screening-prolific","missing":false,"accuracy":0},{"contexts":["red","green","blue"],"outcomes":[0,0,0],"key":37,"choice":0,"rt":247.29499989189208,"outcome":0,"trial":56,"correct":1,"trial_type":"three-arm-trial","trial_index":63,"time_elapsed":359045,"internal_node_id":"0.0-62.0-0.0","task_version":"screening-prolific","missing":false,"accuracy":0},{"contexts":["red","green","blue"],"outcomes":[1,0,0],"key":38,"choice":1,"rt":271.41500008292496,"outcome":0,"trial":57,"correct":1,"trial_type":"three-arm-trial","trial_index":64,"time_elapsed":360527,"internal_node_id":"0.0-63.0-0.0","task_version":"screening-prolific","missing":false,"accuracy":1},{"contexts":["red","green","blue"],"outcomes":[0,1,1],"key":39,"choice":2,"rt":307.8700000187382,"outcome":1,"trial":58,"correct":1,"trial_type":"three-arm-trial","trial_index":65,"time_elapsed":362042,"internal_node_id":"0.0-64.0-0.0","task_version":"screening-prolific","missing":false,"accuracy":0},{"contexts":["red","green","blue"],"outcomes":[0,1,0],"key":39,"choice":2,"rt":359.62999996263534,"outcome":0,"trial":59,"correct":1,"trial_type":"three-arm-trial","trial_index":66,"time_elapsed":363608,"internal_node_id":"0.0-65.0-0.0","task_version":"screening-prolific","missing":false,"accuracy":0},{"contexts":["red","green","blue"],"outcomes":[0,1,0],"key":39,"choice":2,"rt":256.8999999202788,"outcome":0,"trial":60,"correct":1,"trial_type":"three-arm-trial","trial_index":67,"time_elapsed":365071,"internal_node_id":"0.0-66.0-0.0","task_version":"screening-prolific","missing":false,"accuracy":0},{"contexts":["red","green","blue"],"outcomes":[1,1,1],"key":37,"choice":0,"rt":337.2949999757111,"outcome":1,"trial":61,"correct":0,"trial_type":"three-arm-trial","trial_index":68,"time_elapsed":366613,"internal_node_id":"0.0-67.0-0.0","task_version":"screening-prolific","missing":false,"accuracy":1},{"contexts":["red","green","blue"],"outcomes":[1,0,0],"key":37,"choice":0,"rt":340.1649999432266,"outcome":1,"trial":62,"correct":0,"trial_type":"three-arm-trial","trial_index":69,"time_elapsed":368168,"internal_node_id":"0.0-68.0-0.0","task_version":"screening-prolific","missing":false,"accuracy":1},{"contexts":["red","green","blue"],"outcomes":[1,0,0],"key":37,"choice":0,"rt":357.65499994158745,"outcome":1,"trial":63,"correct":0,"trial_type":"three-arm-trial","trial_index":70,"time_elapsed":369730,"internal_node_id":"0.0-69.0-0.0","task_version":"screening-prolific","missing":false,"accuracy":1},{"contexts":["red","green","blue"],"outcomes":[1,0,0],"key":37,"choice":0,"rt":480.10000004433095,"outcome":1,"trial":64,"correct":0,"trial_type":"three-arm-trial","trial_index":71,"time_elapsed":371414,"internal_node_id":"0.0-70.0-0.0","task_version":"screening-prolific","missing":false,"accuracy":1},{"contexts":["red","green","blue"],"outcomes":[1,0,0],"key":38,"choice":1,"rt":305.6600000709295,"outcome":0,"trial":65,"correct":0,"trial_type":"three-arm-trial","trial_index":72,"time_elapsed":372924,"internal_node_id":"0.0-71.0-0.0","task_version":"screening-prolific","missing":false,"accuracy":0},{"contexts":["red","green","blue"],"outcomes":[1,1,0],"key":37,"choice":0,"rt":129.2600000742823,"outcome":1,"trial":66,"correct":0,"trial_type":"three-arm-trial","trial_index":73,"time_elapsed":374257,"internal_node_id":"0.0-72.0-0.0","task_version":"screening-prolific","missing":false,"accuracy":1},{"contexts":["red","green","blue"],"outcomes":[1,1,0],"key":37,"choice":0,"rt":301.0450000874698,"outcome":1,"trial":67,"correct":0,"trial_type":"three-arm-trial","trial_index":74,"time_elapsed":375762,"internal_node_id":"0.0-73.0-0.0","task_version":"screening-prolific","missing":false,"accuracy":1},{"contexts":["red","green","blue"],"outcomes":[1,0,1],"key":37,"choice":0,"rt":329.71000007819384,"outcome":1,"trial":68,"correct":0,"trial_type":"three-arm-trial","trial_index":75,"time_elapsed":377296,"internal_node_id":"0.0-74.0-0.0","task_version":"screening-prolific","missing":false,"accuracy":1},{"contexts":["red","green","blue"],"outcomes":[0,0,0],"key":37,"choice":0,"rt":324.51000006403774,"outcome":0,"trial":69,"correct":0,"trial_type":"three-arm-trial","trial_index":76,"time_elapsed":378827,"internal_node_id":"0.0-75.0-0.0","task_version":"screening-prolific","missing":false,"accuracy":1},{"contexts":["red","green","blue"],"outcomes":[1,0,0],"key":39,"choice":2,"rt":107.95999993570149,"outcome":0,"trial":70,"correct":0,"trial_type":"three-arm-trial","trial_index":77,"time_elapsed":380140,"internal_node_id":"0.0-76.0-0.0","task_version":"screening-prolific","missing":false,"accuracy":0},{"contexts":["red","green","blue"],"outcomes":[1,0,0],"key":38,"choice":1,"rt":180.2649999735877,"outcome":0,"trial":71,"correct":0,"trial_type":"three-arm-trial","trial_index":78,"time_elapsed":381524,"internal_node_id":"0.0-77.0-0.0","task_version":"screening-prolific","missing":false,"accuracy":0},{"contexts":["red","green","blue"],"outcomes":[1,1,0],"key":39,"choice":2,"rt":187.19500000588596,"outcome":0,"trial":72,"correct":0,"trial_type":"three-arm-trial","trial_index":79,"time_elapsed":382919,"internal_node_id":"0.0-78.0-0.0","task_version":"screening-prolific","missing":false,"accuracy":0},{"contexts":["red","green","blue"],"outcomes":[1,0,0],"key":37,"choice":0,"rt":288.4850000264123,"outcome":1,"trial":73,"correct":0,"trial_type":"three-arm-trial","trial_index":80,"time_elapsed":384416,"internal_node_id":"0.0-79.0-0.0","task_version":"screening-prolific","missing":false,"accuracy":1},{"contexts":["red","green","blue"],"outcomes":[1,0,0],"key":37,"choice":0,"rt":298.6500000115484,"outcome":1,"trial":74,"correct":0,"trial_type":"three-arm-trial","trial_index":81,"time_elapsed":385919,"internal_node_id":"0.0-80.0-0.0","task_version":"screening-prolific","missing":false,"accuracy":1},{"contexts":["red","green","blue"],"outcomes":[1,0,0],"key":37,"choice":0,"rt":333.25499994680285,"outcome":1,"trial":75,"correct":0,"trial_type":"three-arm-trial","trial_index":82,"time_elapsed":387458,"internal_node_id":"0.0-81.0-0.0","task_version":"screening-prolific","missing":false,"accuracy":1},{"contexts":["red","green","blue"],"outcomes":[1,0,0],"key":37,"choice":0,"rt":310.5300000170246,"outcome":1,"trial":76,"correct":1,"trial_type":"three-arm-trial","trial_index":83,"time_elapsed":388973,"internal_node_id":"0.0-82.0-0.0","task_version":"screening-prolific","missing":false,"accuracy":0},{"contexts":["red","green","blue"],"outcomes":[1,1,0],"key":37,"choice":0,"rt":315.9100000048056,"outcome":1,"trial":77,"correct":1,"trial_type":"three-arm-trial","trial_index":84,"time_elapsed":390494,"internal_node_id":"0.0-83.0-0.0","task_version":"screening-prolific","missing":false,"accuracy":0},{"contexts":["red","green","blue"],"outcomes":[0,1,0],"key":37,"choice":0,"rt":360.48499995376915,"outcome":0,"trial":78,"correct":1,"trial_type":"three-arm-trial","trial_index":85,"time_elapsed":392060,"internal_node_id":"0.0-84.0-0.0","task_version":"screening-prolific","missing":false,"accuracy":0},{"contexts":["red","green","blue"],"outcomes":[0,1,0],"key":38,"choice":1,"rt":345.34500003792346,"outcome":1,"trial":79,"correct":1,"trial_type":"three-arm-trial","trial_index":86,"time_elapsed":393610,"internal_node_id":"0.0-85.0-0.0","task_version":"screening-prolific","missing":false,"accuracy":1},{"contexts":["red","green","blue"],"outcomes":[0,1,0],"key":38,"choice":1,"rt":400.16499999910593,"outcome":1,"trial":80,"correct":1,"trial_type":"three-arm-trial","trial_index":87,"time_elapsed":395215,"internal_node_id":"0.0-86.0-0.0","task_version":"screening-prolific","missing":false,"accuracy":1},{"contexts":["red","green","blue"],"outcomes":[0,1,0],"key":38,"choice":1,"rt":398.81000004243106,"outcome":1,"trial":81,"correct":1,"trial_type":"three-arm-trial","trial_index":88,"time_elapsed":396820,"internal_node_id":"0.0-87.0-0.0","task_version":"screening-prolific","missing":false,"accuracy":1},{"contexts":["red","green","blue"],"outcomes":[1,1,0],"key":38,"choice":1,"rt":336.2900000065565,"outcome":1,"trial":82,"correct":1,"trial_type":"three-arm-trial","trial_index":89,"time_elapsed":398360,"internal_node_id":"0.0-88.0-0.0","task_version":"screening-prolific","missing":false,"accuracy":1},{"contexts":["red","green","blue"],"outcomes":[0,0,0],"key":38,"choice":1,"rt":503.34499997552484,"outcome":0,"trial":83,"correct":1,"trial_type":"three-arm-trial","trial_index":90,"time_elapsed":400070,"internal_node_id":"0.0-89.0-0.0","task_version":"screening-prolific","missing":false,"accuracy":1},{"contexts":["red","green","blue"],"outcomes":[0,1,0],"key":39,"choice":2,"rt":47.94499999843538,"outcome":0,"trial":84,"correct":1,"trial_type":"three-arm-trial","trial_index":91,"time_elapsed":401323,"internal_node_id":"0.0-90.0-0.0","task_version":"screening-prolific","missing":false,"accuracy":0},{"contexts":["red","green","blue"],"outcomes":[0,0,0],"key":37,"choice":0,"rt":220.12499999254942,"outcome":0,"trial":85,"correct":1,"trial_type":"three-arm-trial","trial_index":92,"time_elapsed":402749,"internal_node_id":"0.0-91.0-0.0","task_version":"screening-prolific","missing":false,"accuracy":0},{"contexts":["red","green","blue"],"outcomes":[0,1,0],"key":39,"choice":2,"rt":254.310000105761,"outcome":0,"trial":86,"correct":1,"trial_type":"three-arm-trial","trial_index":93,"time_elapsed":404213,"internal_node_id":"0.0-92.0-0.0","task_version":"screening-prolific","missing":false,"accuracy":0},{"contexts":["red","green","blue"],"outcomes":[0,1,0],"key":38,"choice":1,"rt":233.37499995250255,"outcome":1,"trial":87,"correct":1,"trial_type":"three-arm-trial","trial_index":94,"time_elapsed":405653,"internal_node_id":"0.0-93.0-0.0","task_version":"screening-prolific","missing":false,"accuracy":1},{"contexts":["red","green","blue"],"outcomes":[0,0,0],"key":38,"choice":1,"rt":427.62500001117587,"outcome":0,"trial":88,"correct":1,"trial_type":"three-arm-trial","trial_index":95,"time_elapsed":407285,"internal_node_id":"0.0-94.0-0.0","task_version":"screening-prolific","missing":false,"accuracy":1},{"contexts":["red","green","blue"],"outcomes":[0,1,0],"key":37,"choice":0,"rt":345.88000003714114,"outcome":0,"trial":89,"correct":1,"trial_type":"three-arm-trial","trial_index":96,"time_elapsed":408835,"internal_node_id":"0.0-95.0-0.0","task_version":"screening-prolific","missing":false,"accuracy":0},{"contexts":["red","green","blue"],"outcomes":[0,1,0],"key":39,"choice":2,"rt":336.0799999209121,"outcome":0,"trial":90,"correct":1,"trial_type":"three-arm-trial","trial_index":97,"time_elapsed":410378,"internal_node_id":"0.0-96.0-0.0","task_version":"screening-prolific","missing":false,"accuracy":0},{"rt":19520.08000004571,"responses":{"age":"34","gender-categorical":"Female","gender-free-response":"","ethnicity":"Not Hispanic or Latino","race":["White"],"language":"Yes","fluency":"Very well","mturk":"No","mturk-this-study":"No"},"survey":"demographics","trial_type":"survey-demo","trial_index":98,"time_elapsed":429910,"internal_node_id":"0.0-97.0","task_version":"screening-prolific","interactions":"[]"}]