[{"responses":{"Q07":"3","Q01":"1","Q02":"0","Q15":"0","Q14":"0","Q13":"0","Q10":"0","Q05":"0","Q06":"1","Q04":"2","Q11":"0","Q12":"0","Q08":"1","Q09":"0","Q03":"3"},"rt":98140.63499995973,"survey":"7up7down","trial_type":"survey-template","trial_index":0,"time_elapsed":98151,"internal_node_id":"0.0-0.0","task_version":"screening-prolific"},{"responses":{"Q12":"3","Q06":"3","Q04":"3","Q10":"3","Q02":"0","Q13":"3","Q11":"2","Q09":"3","Q07":"3","Q01":"3","Q03":"0","Q08":"3","Q05":"3"},"rt":84174.90000004182,"survey":"bisbas","trial_type":"survey-template","trial_index":1,"time_elapsed":182331,"internal_node_id":"0.0-1.0","task_version":"screening-prolific"},{"responses":{"Q03":"0","Q06":"0","Q04":"0","Q07":"0","Q01":"0","Q08":"0","Q05":"0","Q02":"0"},"rt":53767.7000000258,"survey":"gad7","trial_type":"survey-template","trial_index":2,"time_elapsed":236104,"internal_node_id":"0.0-2.0","task_version":"screening-prolific"},{"responses":{"Q11":"2","Q13":"2","Q15":"3","Q03":"3","Q12":"3","Q02":"3","Q05":"3","Q08":"3","Q01":"3","Q09":"3","Q14":"3","Q06":"3","Q04":"3","Q10":"3","Q07":"3"},"rt":31521.294999984093,"survey":"shaps","trial_type":"survey-template","trial_index":3,"time_elapsed":267632,"internal_node_id":"0.0-3.0","task_version":"screening-prolific"},{"responses":{"Q02":"0","Q03":"0","Q01":"0"},"rt":5619.910000008531,"survey":"pswq","trial_type":"survey-template","trial_index":4,"time_elapsed":273258,"internal_node_id":"0.0-4.0","task_version":"screening-prolific"},{"view_history":"[{\"page_index\":0,\"viewing_time\":2782.0400000200607},{\"page_index\":1,\"viewing_time\":12234.989999968093},{\"page_index\":2,\"viewing_time\":3974.3599999928847},{\"page_index\":3,\"viewing_time\":1648.975000018254},{\"page_index\":4,\"viewing_time\":3508.1999999820255},{\"page_index\":5,\"viewing_time\":2489.7550000459887},{\"page_index\":6,\"viewing_time\":6914.099999994505},{\"page_index\":7,\"viewing_time\":2307.020000007469}]","rt":35860.054999997374,"trial_type":"instructions","trial_index":5,"time_elapsed":309124,"internal_node_id":"0.0-5.0-0.0","task_version":"screening-prolific"},{"responses":["True","True","False","False","True"],"num_errors":0,"rt":54693.45500000054,"trial_type":"three-arm-comprehension","trial_index":6,"time_elapsed":363819,"internal_node_id":"0.0-5.0-1.0","task_version":"screening-prolific"},{"view_history":"[{\"page_index\":0,\"viewing_time\":1259.8149999976158}]","rt":1260.0799999781884,"trial_type":"instructions","trial_index":7,"time_elapsed":365085,"internal_node_id":"0.0-6.0","task_version":"screening-prolific"},{"contexts":["green","blue","red"],"outcomes":[1,0,0],"key":37,"choice":0,"rt":2271.4949999935925,"outcome":1,"trial":1,"correct":0,"trial_type":"three-arm-trial","trial_index":8,"time_elapsed":368559,"internal_node_id":"0.0-7.0-0.0","task_version":"screening-prolific","missing":false,"accuracy":1},{"contexts":["green","blue","red"],"outcomes":[1,1,1],"key":37,"choice":0,"rt":423.3349999994971,"outcome":1,"trial":2,"correct":0,"trial_type":"three-arm-trial","trial_index":9,"time_elapsed":370188,"internal_node_id":"0.0-8.0-0.0","task_version":"screening-prolific","missing":false,"accuracy":1},{"contexts":["green","blue","red"],"outcomes":[1,0,1],"key":37,"choice":0,"rt":433.23500000406057,"outcome":1,"trial":3,"correct":0,"trial_type":"three-arm-trial","trial_index":10,"time_elapsed":371827,"internal_node_id":"0.0-9.0-0.0","task_version":"screening-prolific","missing":false,"accuracy":1},{"contexts":["green","blue","red"],"outcomes":[0,0,0],"key":37,"choice":0,"rt":232.4650000082329,"outcome":0,"trial":4,"correct":0,"trial_type":"three-arm-trial","trial_index":11,"time_elapsed":373265,"internal_node_id":"0.0-10.0-0.0","task_version":"screening-prolific","missing":false,"accuracy":1},{"contexts":["green","blue","red"],"outcomes":[1,0,0],"key":37,"choice":0,"rt":121.89499998930842,"outcome":1,"trial":5,"correct":0,"trial_type":"three-arm-trial","trial_index":12,"time_elapsed":374593,"internal_node_id":"0.0-11.0-0.0","task_version":"screening-prolific","missing":false,"accuracy":1},{"contexts":["green","blue","red"],"outcomes":[0,0,0],"key":37,"choice":0,"rt":218.46999996341765,"outcome":0,"trial":6,"correct":0,"trial_type":"three-arm-trial","trial_index":13,"time_elapsed":376018,"internal_node_id":"0.0-12.0-0.0","task_version":"screening-prolific","missing":false,"accuracy":1},{"contexts":["green","blue","red"],"outcomes":[1,0,0],"key":39,"choice":2,"rt":316.6550000314601,"outcome":0,"trial":7,"correct":0,"trial_type":"three-arm-trial","trial_index":14,"time_elapsed":377540,"internal_node_id":"0.0-13.0-0.0","task_version":"screening-prolific","missing":false,"accuracy":0},{"contexts":["green","blue","red"],"outcomes":[1,0,0],"key":37,"choice":0,"rt":202.63999997405335,"outcome":1,"trial":8,"correct":0,"trial_type":"three-arm-trial","trial_index":15,"time_elapsed":378949,"internal_node_id":"0.0-14.0-0.0","task_version":"screening-prolific","missing":false,"accuracy":1},{"contexts":["green","blue","red"],"outcomes":[1,0,0],"key":37,"choice":0,"rt":87.12999999988824,"outcome":1,"trial":9,"correct":0,"trial_type":"three-arm-trial","trial_index":16,"time_elapsed":380243,"internal_node_id":"0.0-15.0-0.0","task_version":"screening-prolific","missing":false,"accuracy":1},{"contexts":["green","blue","red"],"outcomes":[1,0,0],"key":37,"choice":0,"rt":136.72000000951812,"outcome":1,"trial":10,"correct":0,"trial_type":"three-arm-trial","trial_index":17,"time_elapsed":381584,"internal_node_id":"0.0-16.0-0.0","task_version":"screening-prolific","missing":false,"accuracy":1},{"contexts":["green","blue","red"],"outcomes":[1,0,1],"key":37,"choice":0,"rt":92.67499996349216,"outcome":1,"trial":11,"correct":0,"trial_type":"three-arm-trial","trial_index":18,"time_elapsed":382884,"internal_node_id":"0.0-17.0-0.0","task_version":"screening-prolific","missing":false,"accuracy":1},{"contexts":["green","blue","red"],"outcomes":[1,0,0],"key":37,"choice":0,"rt":46.26999999163672,"outcome":1,"trial":12,"correct":0,"trial_type":"three-arm-trial","trial_index":19,"time_elapsed":384136,"internal_node_id":"0.0-18.0-0.0","task_version":"screening-prolific","missing":false,"accuracy":1},{"contexts":["green","blue","red"],"outcomes":[1,0,0],"key":37,"choice":0,"rt":42.61500004213303,"outcome":1,"trial":13,"correct":0,"trial_type":"three-arm-trial","trial_index":20,"time_elapsed":385384,"internal_node_id":"0.0-19.0-0.0","task_version":"screening-prolific","missing":false,"accuracy":1},{"contexts":["green","blue","red"],"outcomes":[0,0,0],"key":37,"choice":0,"rt":0.1700000138953328,"outcome":0,"trial":14,"correct":0,"trial_type":"three-arm-trial","trial_index":21,"time_elapsed":386591,"internal_node_id":"0.0-20.0-0.0","task_version":"screening-prolific","missing":false,"accuracy":1},{"contexts":["green","blue","red"],"outcomes":[1,0,0],"key":37,"choice":0,"rt":178.5350000136532,"outcome":1,"trial":15,"correct":0,"trial_type":"three-arm-trial","trial_index":22,"time_elapsed":387975,"internal_node_id":"0.0-21.0-0.0","task_version":"screening-prolific","missing":false,"accuracy":1},{"contexts":["green","blue","red"],"outcomes":[0,1,0],"key":37,"choice":0,"rt":57.195000001229346,"outcome":0,"trial":16,"correct":1,"trial_type":"three-arm-trial","trial_index":23,"time_elapsed":389238,"internal_node_id":"0.0-22.0-0.0","task_version":"screening-prolific","missing":false,"accuracy":0},{"contexts":["green","blue","red"],"outcomes":[1,1,1],"key":39,"choice":2,"rt":12.464999977964908,"outcome":1,"trial":17,"correct":1,"trial_type":"three-arm-trial","trial_index":24,"time_elapsed":390457,"internal_node_id":"0.0-23.0-0.0","task_version":"screening-prolific","missing":false,"accuracy":0},{"contexts":["green","blue","red"],"outcomes":[0,0,0],"key":37,"choice":0,"rt":61.48999999277294,"outcome":0,"trial":18,"correct":1,"trial_type":"three-arm-trial","trial_index":25,"time_elapsed":391723,"internal_node_id":"0.0-24.0-0.0","task_version":"screening-prolific","missing":false,"accuracy":0},{"contexts":["green","blue","red"],"outcomes":[0,1,0],"key":37,"choice":0,"rt":354.2850000085309,"outcome":0,"trial":19,"correct":1,"trial_type":"three-arm-trial","trial_index":26,"time_elapsed":393282,"internal_node_id":"0.0-25.0-0.0","task_version":"screening-prolific","missing":false,"accuracy":0},{"contexts":["green","blue","red"],"outcomes":[0,1,1],"key":39,"choice":2,"rt":287.35999995842576,"outcome":1,"trial":20,"correct":1,"trial_type":"three-arm-trial","trial_index":27,"time_elapsed":394777,"internal_node_id":"0.0-26.0-0.0","task_version":"screening-prolific","missing":false,"accuracy":0},{"contexts":["green","blue","red"],"outcomes":[0,1,1],"key":39,"choice":2,"rt":197.7750000078231,"outcome":1,"trial":21,"correct":1,"trial_type":"three-arm-trial","trial_index":28,"time_elapsed":396180,"internal_node_id":"0.0-27.0-0.0","task_version":"screening-prolific","missing":false,"accuracy":0},{"contexts":["green","blue","red"],"outcomes":[1,1,0],"key":39,"choice":2,"rt":181.51500000385568,"outcome":0,"trial":22,"correct":1,"trial_type":"three-arm-trial","trial_index":29,"time_elapsed":397568,"internal_node_id":"0.0-28.0-0.0","task_version":"screening-prolific","missing":false,"accuracy":0},{"contexts":["green","blue","red"],"outcomes":[0,1,0],"key":39,"choice":2,"rt":5.160000000614673,"outcome":0,"trial":23,"correct":1,"trial_type":"three-arm-trial","trial_index":30,"time_elapsed":398778,"internal_node_id":"0.0-29.0-0.0","task_version":"screening-prolific","missing":false,"accuracy":0},{"contexts":["green","blue","red"],"outcomes":[0,1,0],"key":39,"choice":2,"rt":241.0950000048615,"outcome":0,"trial":24,"correct":1,"trial_type":"three-arm-trial","trial_index":31,"time_elapsed":400224,"internal_node_id":"0.0-30.0-0.0","task_version":"screening-prolific","missing":false,"accuracy":0},{"contexts":["green","blue","red"],"outcomes":[0,1,1],"key":37,"choice":0,"rt":323.9049999974668,"outcome":0,"trial":25,"correct":1,"trial_type":"three-arm-trial","trial_index":32,"time_elapsed":401754,"internal_node_id":"0.0-31.0-0.0","task_version":"screening-prolific","missing":false,"accuracy":0},{"contexts":["green","blue","red"],"outcomes":[0,1,0],"key":38,"choice":1,"rt":326.535000000149,"outcome":1,"trial":26,"correct":1,"trial_type":"three-arm-trial","trial_index":33,"time_elapsed":403287,"internal_node_id":"0.0-32.0-0.0","task_version":"screening-prolific","missing":false,"accuracy":1},{"contexts":["green","blue","red"],"outcomes":[0,1,0],"key":38,"choice":1,"rt":241.7600000044331,"outcome":1,"trial":27,"correct":1,"trial_type":"three-arm-trial","trial_index":34,"time_elapsed":404736,"internal_node_id":"0.0-33.0-0.0","task_version":"screening-prolific","missing":false,"accuracy":1},{"contexts":["green","blue","red"],"outcomes":[0,1,1],"key":38,"choice":1,"rt":312.15999997220933,"outcome":1,"trial":28,"correct":1,"trial_type":"three-arm-trial","trial_index":35,"time_elapsed":406254,"internal_node_id":"0.0-34.0-0.0","task_version":"screening-prolific","missing":false,"accuracy":1},{"contexts":["green","blue","red"],"outcomes":[0,1,0],"key":38,"choice":1,"rt":393.8300000154413,"outcome":1,"trial":29,"correct":1,"trial_type":"three-arm-trial","trial_index":36,"time_elapsed":407854,"internal_node_id":"0.0-35.0-0.0","task_version":"screening-prolific","missing":false,"accuracy":1},{"contexts":["green","blue","red"],"outcomes":[0,1,1],"key":38,"choice":1,"rt":245.87500002235174,"outcome":1,"trial":30,"correct":1,"trial_type":"three-arm-trial","trial_index":37,"time_elapsed":409306,"internal_node_id":"0.0-36.0-0.0","task_version":"screening-prolific","missing":false,"accuracy":1},{"contexts":["green","blue","red"],"outcomes":[0,1,1],"key":38,"choice":1,"rt":208.5349999833852,"outcome":1,"trial":31,"correct":2,"trial_type":"three-arm-trial","trial_index":38,"time_elapsed":410720,"internal_node_id":"0.0-37.0-0.0","task_version":"screening-prolific","missing":false,"accuracy":0},{"contexts":["green","blue","red"],"outcomes":[0,0,1],"key":38,"choice":1,"rt":207.0700000040233,"outcome":0,"trial":32,"correct":2,"trial_type":"three-arm-trial","trial_index":39,"time_elapsed":412132,"internal_node_id":"0.0-38.0-0.0","task_version":"screening-prolific","missing":false,"accuracy":0},{"contexts":["green","blue","red"],"outcomes":[0,0,1],"key":38,"choice":1,"rt":138.0500000086613,"outcome":0,"trial":33,"correct":2,"trial_type":"three-arm-trial","trial_index":40,"time_elapsed":413477,"internal_node_id":"0.0-39.0-0.0","task_version":"screening-prolific","missing":false,"accuracy":0},{"contexts":["green","blue","red"],"outcomes":[0,1,1],"key":37,"choice":0,"rt":142.27500004926696,"outcome":0,"trial":34,"correct":2,"trial_type":"three-arm-trial","trial_index":41,"time_elapsed":414824,"internal_node_id":"0.0-40.0-0.0","task_version":"screening-prolific","missing":false,"accuracy":0},{"contexts":["green","blue","red"],"outcomes":[0,0,1],"key":37,"choice":0,"rt":223.3849999611266,"outcome":0,"trial":35,"correct":2,"trial_type":"three-arm-trial","trial_index":42,"time_elapsed":416253,"internal_node_id":"0.0-41.0-0.0","task_version":"screening-prolific","missing":false,"accuracy":0},{"contexts":["green","blue","red"],"outcomes":[0,0,1],"key":39,"choice":2,"rt":77.0699999993667,"outcome":1,"trial":36,"correct":2,"trial_type":"three-arm-trial","trial_index":43,"time_elapsed":417536,"internal_node_id":"0.0-42.0-0.0","task_version":"screening-prolific","missing":false,"accuracy":1},{"contexts":["green","blue","red"],"outcomes":[0,0,0],"key":39,"choice":2,"rt":293.1150000076741,"outcome":0,"trial":37,"correct":2,"trial_type":"three-arm-trial","trial_index":44,"time_elapsed":419034,"internal_node_id":"0.0-43.0-0.0","task_version":"screening-prolific","missing":false,"accuracy":1},{"contexts":["green","blue","red"],"outcomes":[1,0,1],"key":39,"choice":2,"rt":122.37500003539026,"outcome":1,"trial":38,"correct":2,"trial_type":"three-arm-trial","trial_index":45,"time_elapsed":420362,"internal_node_id":"0.0-44.0-0.0","task_version":"screening-prolific","missing":false,"accuracy":1},{"contexts":["green","blue","red"],"outcomes":[0,0,1],"key":39,"choice":2,"rt":98.33499998785555,"outcome":1,"trial":39,"correct":2,"trial_type":"three-arm-trial","trial_index":46,"time_elapsed":421666,"internal_node_id":"0.0-45.0-0.0","task_version":"screening-prolific","missing":false,"accuracy":1},{"contexts":["green","blue","red"],"outcomes":[1,0,1],"key":39,"choice":2,"rt":136.25499996123835,"outcome":1,"trial":40,"correct":2,"trial_type":"three-arm-trial","trial_index":47,"time_elapsed":423010,"internal_node_id":"0.0-46.0-0.0","task_version":"screening-prolific","missing":false,"accuracy":1},{"contexts":["green","blue","red"],"outcomes":[0,0,0],"key":39,"choice":2,"rt":11.760000023059547,"outcome":0,"trial":41,"correct":2,"trial_type":"three-arm-trial","trial_index":48,"time_elapsed":424227,"internal_node_id":"0.0-47.0-0.0","task_version":"screening-prolific","missing":false,"accuracy":1},{"contexts":["green","blue","red"],"outcomes":[1,0,1],"key":39,"choice":2,"rt":293.7800000072457,"outcome":1,"trial":42,"correct":2,"trial_type":"three-arm-trial","trial_index":49,"time_elapsed":425726,"internal_node_id":"0.0-48.0-0.0","task_version":"screening-prolific","missing":false,"accuracy":1},{"contexts":["green","blue","red"],"outcomes":[0,1,1],"key":39,"choice":2,"rt":78.06500000879169,"outcome":1,"trial":43,"correct":2,"trial_type":"three-arm-trial","trial_index":50,"time_elapsed":427008,"internal_node_id":"0.0-49.0-0.0","task_version":"screening-prolific","missing":false,"accuracy":1},{"contexts":["green","blue","red"],"outcomes":[1,0,0],"key":39,"choice":2,"rt":48.27500000828877,"outcome":0,"trial":44,"correct":2,"trial_type":"three-arm-trial","trial_index":51,"time_elapsed":428262,"internal_node_id":"0.0-50.0-0.0","task_version":"screening-prolific","missing":false,"accuracy":1},{"contexts":["green","blue","red"],"outcomes":[0,1,1],"key":39,"choice":2,"rt":151.6399999964051,"outcome":1,"trial":45,"correct":2,"trial_type":"three-arm-trial","trial_index":52,"time_elapsed":429620,"internal_node_id":"0.0-51.0-0.0","task_version":"screening-prolific","missing":false,"accuracy":1},{"contexts":["green","blue","red"],"outcomes":[0,1,0],"key":39,"choice":2,"rt":196.84499996947125,"outcome":0,"trial":46,"correct":1,"trial_type":"three-arm-trial","trial_index":53,"time_elapsed":431022,"internal_node_id":"0.0-52.0-0.0","task_version":"screening-prolific","missing":false,"accuracy":0},{"contexts":["green","blue","red"],"outcomes":[0,1,0],"key":39,"choice":2,"rt":10.145000007469207,"outcome":0,"trial":47,"correct":1,"trial_type":"three-arm-trial","trial_index":54,"time_elapsed":432237,"internal_node_id":"0.0-53.0-0.0","task_version":"screening-prolific","missing":false,"accuracy":0},{"contexts":["green","blue","red"],"outcomes":[0,1,1],"key":38,"choice":1,"rt":66.41500000841916,"outcome":1,"trial":48,"correct":1,"trial_type":"three-arm-trial","trial_index":55,"time_elapsed":433510,"internal_node_id":"0.0-54.0-0.0","task_version":"screening-prolific","missing":false,"accuracy":1},{"contexts":["green","blue","red"],"outcomes":[0,1,0],"key":38,"choice":1,"rt":317.43499997537583,"outcome":1,"trial":49,"correct":1,"trial_type":"three-arm-trial","trial_index":56,"time_elapsed":435033,"internal_node_id":"0.0-55.0-0.0","task_version":"screening-prolific","missing":false,"accuracy":1},{"contexts":["green","blue","red"],"outcomes":[0,1,0],"key":38,"choice":1,"rt":718.8200000091456,"outcome":1,"trial":50,"correct":1,"trial_type":"three-arm-trial","trial_index":57,"time_elapsed":436959,"internal_node_id":"0.0-56.0-0.0","task_version":"screening-prolific","missing":false,"accuracy":1},{"contexts":["green","blue","red"],"outcomes":[0,1,0],"key":38,"choice":1,"rt":1775.759999989532,"outcome":1,"trial":51,"correct":1,"trial_type":"three-arm-trial","trial_index":58,"time_elapsed":439940,"internal_node_id":"0.0-57.0-0.0","task_version":"screening-prolific","missing":false,"accuracy":1},{"contexts":["green","blue","red"],"outcomes":[0,1,0],"key":null,"rt":null,"trial":52,"correct":1,"trial_type":"three-arm-trial","trial_index":59,"time_elapsed":454947,"internal_node_id":"0.0-58.0-0.0","task_version":"screening-prolific","missing":true},{"contexts":["green","blue","red"],"outcomes":[0,1,0],"key":38,"choice":1,"rt":1472.3849999718368,"outcome":1,"trial":52,"correct":1,"trial_type":"three-arm-trial","trial_index":60,"time_elapsed":457623,"internal_node_id":"0.0-58.1-0.1","task_version":"screening-prolific","missing":false,"accuracy":1},{"contexts":["green","blue","red"],"outcomes":[0,1,0],"key":38,"choice":1,"rt":71.73000002512708,"outcome":1,"trial":53,"correct":1,"trial_type":"three-arm-trial","trial_index":61,"time_elapsed":458901,"internal_node_id":"0.0-59.0-0.0","task_version":"screening-prolific","missing":false,"accuracy":1},{"contexts":["green","blue","red"],"outcomes":[1,1,0],"key":38,"choice":1,"rt":34.4150000018999,"outcome":1,"trial":54,"correct":1,"trial_type":"three-arm-trial","trial_index":62,"time_elapsed":460142,"internal_node_id":"0.0-60.0-0.0","task_version":"screening-prolific","missing":false,"accuracy":1},{"contexts":["green","blue","red"],"outcomes":[0,1,0],"key":38,"choice":1,"rt":18.37499998509884,"outcome":1,"trial":55,"correct":1,"trial_type":"three-arm-trial","trial_index":63,"time_elapsed":461366,"internal_node_id":"0.0-61.0-0.0","task_version":"screening-prolific","missing":false,"accuracy":1},{"contexts":["green","blue","red"],"outcomes":[0,1,0],"key":38,"choice":1,"rt":523.4099999652244,"outcome":1,"trial":56,"correct":1,"trial_type":"three-arm-trial","trial_index":64,"time_elapsed":463095,"internal_node_id":"0.0-62.0-0.0","task_version":"screening-prolific","missing":false,"accuracy":1},{"contexts":["green","blue","red"],"outcomes":[0,1,0],"key":38,"choice":1,"rt":83.6600000038743,"outcome":1,"trial":57,"correct":1,"trial_type":"three-arm-trial","trial_index":65,"time_elapsed":464383,"internal_node_id":"0.0-63.0-0.0","task_version":"screening-prolific","missing":false,"accuracy":1},{"contexts":["green","blue","red"],"outcomes":[1,1,0],"key":38,"choice":1,"rt":392.57000002544373,"outcome":1,"trial":58,"correct":1,"trial_type":"three-arm-trial","trial_index":66,"time_elapsed":465982,"internal_node_id":"0.0-64.0-0.0","task_version":"screening-prolific","missing":false,"accuracy":1},{"contexts":["green","blue","red"],"outcomes":[1,1,0],"key":38,"choice":1,"rt":1419.8249999899417,"outcome":1,"trial":59,"correct":1,"trial_type":"three-arm-trial","trial_index":67,"time_elapsed":468609,"internal_node_id":"0.0-65.0-0.0","task_version":"screening-prolific","missing":false,"accuracy":1},{"contexts":["green","blue","red"],"outcomes":[1,1,1],"key":38,"choice":1,"rt":929.0599999949336,"outcome":1,"trial":60,"correct":1,"trial_type":"three-arm-trial","trial_index":68,"time_elapsed":470744,"internal_node_id":"0.0-66.0-0.0","task_version":"screening-prolific","missing":false,"accuracy":1},{"contexts":["green","blue","red"],"outcomes":[0,0,0],"key":38,"choice":1,"rt":153.01999996881932,"outcome":0,"trial":61,"correct":0,"trial_type":"three-arm-trial","trial_index":69,"time_elapsed":472102,"internal_node_id":"0.0-67.0-0.0","task_version":"screening-prolific","missing":false,"accuracy":0},{"contexts":["green","blue","red"],"outcomes":[1,0,0],"key":38,"choice":1,"rt":764.0450000180863,"outcome":0,"trial":62,"correct":0,"trial_type":"three-arm-trial","trial_index":70,"time_elapsed":474072,"internal_node_id":"0.0-68.0-0.0","task_version":"screening-prolific","missing":false,"accuracy":0},{"contexts":["green","blue","red"],"outcomes":[1,0,0],"key":38,"choice":1,"rt":767.760000017006,"outcome":0,"trial":63,"correct":0,"trial_type":"three-arm-trial","trial_index":71,"time_elapsed":476046,"internal_node_id":"0.0-69.0-0.0","task_version":"screening-prolific","missing":false,"accuracy":0},{"contexts":["green","blue","red"],"outcomes":[1,0,0],"key":38,"choice":1,"rt":719.3749999860302,"outcome":0,"trial":64,"correct":0,"trial_type":"three-arm-trial","trial_index":72,"time_elapsed":477972,"internal_node_id":"0.0-70.0-0.0","task_version":"screening-prolific","missing":false,"accuracy":0},{"contexts":["green","blue","red"],"outcomes":[1,0,1],"key":39,"choice":2,"rt":55.62999995891005,"outcome":1,"trial":65,"correct":0,"trial_type":"three-arm-trial","trial_index":73,"time_elapsed":479234,"internal_node_id":"0.0-71.0-0.0","task_version":"screening-prolific","missing":false,"accuracy":0},{"contexts":["green","blue","red"],"outcomes":[0,0,0],"key":39,"choice":2,"rt":212.46499998960644,"outcome":0,"trial":66,"correct":0,"trial_type":"three-arm-trial","trial_index":74,"time_elapsed":480652,"internal_node_id":"0.0-72.0-0.0","task_version":"screening-prolific","missing":false,"accuracy":0},{"contexts":["green","blue","red"],"outcomes":[1,0,1],"key":37,"choice":0,"rt":132.76499998755753,"outcome":1,"trial":67,"correct":0,"trial_type":"three-arm-trial","trial_index":75,"time_elapsed":481990,"internal_node_id":"0.0-73.0-0.0","task_version":"screening-prolific","missing":false,"accuracy":1},{"contexts":["green","blue","red"],"outcomes":[1,1,0],"key":37,"choice":0,"rt":118.38499997975305,"outcome":1,"trial":68,"correct":0,"trial_type":"three-arm-trial","trial_index":76,"time_elapsed":483313,"internal_node_id":"0.0-74.0-0.0","task_version":"screening-prolific","missing":false,"accuracy":1},{"contexts":["green","blue","red"],"outcomes":[0,0,0],"key":37,"choice":0,"rt":148.51999998791143,"outcome":0,"trial":69,"correct":0,"trial_type":"three-arm-trial","trial_index":77,"time_elapsed":484668,"internal_node_id":"0.0-75.0-0.0","task_version":"screening-prolific","missing":false,"accuracy":1},{"contexts":["green","blue","red"],"outcomes":[1,0,0],"key":38,"choice":1,"rt":241.74999998649582,"outcome":0,"trial":70,"correct":0,"trial_type":"three-arm-trial","trial_index":78,"time_elapsed":486117,"internal_node_id":"0.0-76.0-0.0","task_version":"screening-prolific","missing":false,"accuracy":0},{"contexts":["green","blue","red"],"outcomes":[1,0,0],"key":37,"choice":0,"rt":106.0799999977462,"outcome":1,"trial":71,"correct":0,"trial_type":"three-arm-trial","trial_index":79,"time_elapsed":487430,"internal_node_id":"0.0-77.0-0.0","task_version":"screening-prolific","missing":false,"accuracy":1},{"contexts":["green","blue","red"],"outcomes":[1,0,0],"key":37,"choice":0,"rt":81.55500004068017,"outcome":1,"trial":72,"correct":0,"trial_type":"three-arm-trial","trial_index":80,"time_elapsed":488716,"internal_node_id":"0.0-78.0-0.0","task_version":"screening-prolific","missing":false,"accuracy":1},{"contexts":["green","blue","red"],"outcomes":[1,0,0],"key":37,"choice":0,"rt":73.45500000519678,"outcome":1,"trial":73,"correct":0,"trial_type":"three-arm-trial","trial_index":81,"time_elapsed":489995,"internal_node_id":"0.0-79.0-0.0","task_version":"screening-prolific","missing":false,"accuracy":1},{"contexts":["green","blue","red"],"outcomes":[1,1,0],"key":37,"choice":0,"rt":82.094999961555,"outcome":1,"trial":74,"correct":0,"trial_type":"three-arm-trial","trial_index":82,"time_elapsed":491282,"internal_node_id":"0.0-80.0-0.0","task_version":"screening-prolific","missing":false,"accuracy":1},{"contexts":["green","blue","red"],"outcomes":[1,0,0],"key":37,"choice":0,"rt":78.2550000003539,"outcome":1,"trial":75,"correct":0,"trial_type":"three-arm-trial","trial_index":83,"time_elapsed":492566,"internal_node_id":"0.0-81.0-0.0","task_version":"screening-prolific","missing":false,"accuracy":1},{"contexts":["green","blue","red"],"outcomes":[0,1,0],"key":37,"choice":0,"rt":122.31500004418194,"outcome":0,"trial":76,"correct":2,"trial_type":"three-arm-trial","trial_index":84,"time_elapsed":493893,"internal_node_id":"0.0-82.0-0.0","task_version":"screening-prolific","missing":false,"accuracy":0},{"contexts":["green","blue","red"],"outcomes":[0,0,1],"key":37,"choice":0,"rt":19.03000002494082,"outcome":0,"trial":77,"correct":2,"trial_type":"three-arm-trial","trial_index":85,"time_elapsed":495117,"internal_node_id":"0.0-83.0-0.0","task_version":"screening-prolific","missing":false,"accuracy":0},{"contexts":["green","blue","red"],"outcomes":[1,1,0],"key":37,"choice":0,"rt":5.814999982248992,"outcome":1,"trial":78,"correct":2,"trial_type":"three-arm-trial","trial_index":86,"time_elapsed":496328,"internal_node_id":"0.0-84.0-0.0","task_version":"screening-prolific","missing":false,"accuracy":0},{"contexts":["green","blue","red"],"outcomes":[0,0,1],"key":37,"choice":0,"rt":113.22499997913837,"outcome":0,"trial":79,"correct":2,"trial_type":"three-arm-trial","trial_index":87,"time_elapsed":497647,"internal_node_id":"0.0-85.0-0.0","task_version":"screening-prolific","missing":false,"accuracy":0},{"contexts":["green","blue","red"],"outcomes":[0,0,1],"key":37,"choice":0,"rt":103.49999996833503,"outcome":0,"trial":80,"correct":2,"trial_type":"three-arm-trial","trial_index":88,"time_elapsed":498956,"internal_node_id":"0.0-86.0-0.0","task_version":"screening-prolific","missing":false,"accuracy":0},{"contexts":["green","blue","red"],"outcomes":[0,0,1],"key":39,"choice":2,"rt":36.96499997749925,"outcome":1,"trial":81,"correct":2,"trial_type":"three-arm-trial","trial_index":89,"time_elapsed":500199,"internal_node_id":"0.0-87.0-0.0","task_version":"screening-prolific","missing":false,"accuracy":1},{"contexts":["green","blue","red"],"outcomes":[1,0,1],"key":37,"choice":0,"rt":0.2400000230409205,"outcome":1,"trial":82,"correct":2,"trial_type":"three-arm-trial","trial_index":90,"time_elapsed":501407,"internal_node_id":"0.0-88.0-0.0","task_version":"screening-prolific","missing":false,"accuracy":0},{"contexts":["green","blue","red"],"outcomes":[1,1,1],"key":37,"choice":0,"rt":17.63999997638166,"outcome":1,"trial":83,"correct":2,"trial_type":"three-arm-trial","trial_index":91,"time_elapsed":502630,"internal_node_id":"0.0-89.0-0.0","task_version":"screening-prolific","missing":false,"accuracy":0},{"contexts":["green","blue","red"],"outcomes":[0,0,1],"key":37,"choice":0,"rt":137.4099999666214,"outcome":0,"trial":84,"correct":2,"trial_type":"three-arm-trial","trial_index":92,"time_elapsed":503973,"internal_node_id":"0.0-90.0-0.0","task_version":"screening-prolific","missing":false,"accuracy":0},{"contexts":["green","blue","red"],"outcomes":[0,0,1],"key":39,"choice":2,"rt":293.3049999992363,"outcome":1,"trial":85,"correct":2,"trial_type":"three-arm-trial","trial_index":93,"time_elapsed":505473,"internal_node_id":"0.0-91.0-0.0","task_version":"screening-prolific","missing":false,"accuracy":1},{"contexts":["green","blue","red"],"outcomes":[0,1,0],"key":39,"choice":2,"rt":211.08999999705702,"outcome":0,"trial":86,"correct":2,"trial_type":"three-arm-trial","trial_index":94,"time_elapsed":506891,"internal_node_id":"0.0-92.0-0.0","task_version":"screening-prolific","missing":false,"accuracy":1},{"contexts":["green","blue","red"],"outcomes":[0,1,1],"key":37,"choice":0,"rt":97.7650000131689,"outcome":0,"trial":87,"correct":2,"trial_type":"three-arm-trial","trial_index":95,"time_elapsed":508194,"internal_node_id":"0.0-93.0-0.0","task_version":"screening-prolific","missing":false,"accuracy":0},{"contexts":["green","blue","red"],"outcomes":[0,0,0],"key":37,"choice":0,"rt":332.2749999933876,"outcome":0,"trial":88,"correct":2,"trial_type":"three-arm-trial","trial_index":96,"time_elapsed":509732,"internal_node_id":"0.0-94.0-0.0","task_version":"screening-prolific","missing":false,"accuracy":0},{"contexts":["green","blue","red"],"outcomes":[0,0,1],"key":39,"choice":2,"rt":17.515000014100224,"outcome":1,"trial":89,"correct":2,"trial_type":"three-arm-trial","trial_index":97,"time_elapsed":510955,"internal_node_id":"0.0-95.0-0.0","task_version":"screening-prolific","missing":false,"accuracy":1},{"contexts":["green","blue","red"],"outcomes":[0,0,1],"key":39,"choice":2,"rt":137.62499997392297,"outcome":1,"trial":90,"correct":2,"trial_type":"three-arm-trial","trial_index":98,"time_elapsed":512298,"internal_node_id":"0.0-96.0-0.0","task_version":"screening-prolific","missing":false,"accuracy":1},{"rt":18726.075000013225,"responses":{"age":"28","gender-categorical":"Male","gender-free-response":"","ethnicity":"Not Hispanic or Latino","race":["Asian"],"language":"Yes","fluency":"Very well","mturk":"No","mturk-this-study":"No"},"survey":"demographics","trial_type":"survey-demo","trial_index":99,"time_elapsed":531030,"internal_node_id":"0.0-97.0","task_version":"screening-prolific","interactions":"[{\"event\":\"blur\",\"trial\":0,\"time\":15029},{\"event\":\"focus\",\"trial\":0,\"time\":43944},{\"event\":\"blur\",\"trial\":1,\"time\":108764},{\"event\":\"focus\",\"trial\":1,\"time\":147557},{\"event\":\"blur\",\"trial\":2,\"time\":201401},{\"event\":\"focus\",\"trial\":2,\"time\":236031},{\"event\":\"blur\",\"trial\":6,\"time\":326705},{\"event\":\"focus\",\"trial\":6,\"time\":363735},{\"event\":\"blur\",\"trial\":59,\"time\":440883},{\"event\":\"focus\",\"trial\":59,\"time\":451359},{\"event\":\"blur\",\"trial\":62,\"time\":459357},{\"event\":\"focus\",\"trial\":62,\"time\":460031},{\"event\":\"blur\",\"trial\":63,\"time\":461043},{\"event\":\"focus\",\"trial\":64,\"time\":461782},{\"event\":\"blur\",\"trial\":64,\"time\":462423},{\"event\":\"focus\",\"trial\":64,\"time\":463052},{\"event\":\"blur\",\"trial\":65,\"time\":464071},{\"event\":\"focus\",\"trial\":66,\"time\":464651},{\"event\":\"blur\",\"trial\":66,\"time\":465490},{\"event\":\"focus\",\"trial\":67,\"time\":467237},{\"event\":\"blur\",\"trial\":67,\"time\":468173},{\"event\":\"focus\",\"trial\":68,\"time\":469449},{\"event\":\"blur\",\"trial\":69,\"time\":471952},{\"event\":\"focus\",\"trial\":70,\"time\":472686},{\"event\":\"blur\",\"trial\":70,\"time\":473586},{\"event\":\"focus\",\"trial\":71,\"time\":474741},{\"event\":\"blur\",\"trial\":71,\"time\":475859},{\"event\":\"focus\",\"trial\":72,\"time\":476612}]"}]