[{"responses":{"Q02":"1","Q08":"0","Q03":"1","Q06":"2","Q04":"1","Q05":"2","Q01":"1","Q07":"2"},"rt":49782.744999974966,"survey":"gad7","trial_type":"survey-template","trial_index":0,"time_elapsed":49798,"internal_node_id":"0.0-0.0","task_version":"screening-prolific"},{"responses":{"Q04":"1","Q05":"3","Q10":"2","Q02":"2","Q12":"2","Q11":"3","Q14":"2","Q08":"3","Q03":"3","Q07":"3","Q13":"2","Q15":"2","Q06":"3","Q09":"1","Q01":"2"},"rt":145377.84500000998,"survey":"shaps","trial_type":"survey-template","trial_index":1,"time_elapsed":195181,"internal_node_id":"0.0-1.0","task_version":"screening-prolific"},{"responses":{"Q03":"1","Q06":"0","Q08":"1","Q04":"0","Q13":"2","Q14":"0","Q07":"1","Q10":"2","Q02":"0","Q09":"0","Q12":"1","Q11":"1","Q01":"1","Q15":"0","Q05":"1"},"rt":331200.0900001731,"survey":"7up7down","trial_type":"survey-template","trial_index":2,"time_elapsed":526388,"internal_node_id":"0.0-2.0","task_version":"screening-prolific"},{"responses":{"Q03":"2","Q02":"1","Q01":"1"},"rt":15624.065000098199,"survey":"pswq","trial_type":"survey-template","trial_index":3,"time_elapsed":542018,"internal_node_id":"0.0-3.0","task_version":"screening-prolific"},{"responses":{"Q07":"3","Q03":"3","Q06":"3","Q10":"2","Q11":"2","Q01":"3","Q02":"3","Q04":"3","Q05":"3","Q12":"1","Q13":"3","Q08":"2","Q09":"2"},"rt":132950.3899998963,"survey":"bisbas","trial_type":"survey-template","trial_index":4,"time_elapsed":674972,"internal_node_id":"0.0-4.0","task_version":"screening-prolific"},{"view_history":"[{\"page_index\":0,\"viewing_time\":12573.175000026822},{\"page_index\":1,\"viewing_time\":134843.28499995172},{\"page_index\":2,\"viewing_time\":27317.335000028834},{\"page_index\":3,\"viewing_time\":11468.590000178665},{\"page_index\":4,\"viewing_time\":9313.869999954477},{\"page_index\":5,\"viewing_time\":10903.939999872819},{\"page_index\":6,\"viewing_time\":10645.944999996573},{\"page_index\":7,\"viewing_time\":4322.610000148416}]","rt":221389.15000017732,"trial_type":"instructions","trial_index":5,"time_elapsed":896365,"internal_node_id":"0.0-5.0-0.0","task_version":"screening-prolific"},{"responses":["True","True","True","False","True"],"num_errors":1,"rt":70147.89999998175,"trial_type":"three-arm-comprehension","trial_index":6,"time_elapsed":966516,"internal_node_id":"0.0-5.0-1.0","task_version":"screening-prolific"},{"view_history":"[{\"page_index\":0,\"viewing_time\":24391.525000100955},{\"page_index\":1,\"viewing_time\":4371.359999990091},{\"page_index\":2,\"viewing_time\":21821.849999949336},{\"page_index\":3,\"viewing_time\":1632.2099999524653},{\"page_index\":4,\"viewing_time\":1374.254999915138},{\"page_index\":5,\"viewing_time\":1216.0250002052635},{\"page_index\":6,\"viewing_time\":1147.8549998719245},{\"page_index\":7,\"viewing_time\":3894.05500004068}]","rt":59849.55499996431,"trial_type":"instructions","trial_index":7,"time_elapsed":1026373,"internal_node_id":"0.0-5.1-0.1","task_version":"screening-prolific"},{"responses":["True","False","False","False","True"],"num_errors":1,"rt":24418.695000000298,"trial_type":"three-arm-comprehension","trial_index":8,"time_elapsed":1050794,"internal_node_id":"0.0-5.1-1.1","task_version":"screening-prolific"},{"view_history":"[{\"page_index\":0,\"viewing_time\":12967.214999953285},{\"page_index\":1,\"viewing_time\":81652.30499999598},{\"page_index\":2,\"viewing_time\":2045.905000064522},{\"page_index\":3,\"viewing_time\":3918.1500000413507},{\"page_index\":4,\"viewing_time\":4590.23500001058},{\"page_index\":5,\"viewing_time\":3575.2349998801947},{\"page_index\":6,\"viewing_time\":3384.2899999581277},{\"page_index\":7,\"viewing_time\":1037.745000096038}]","rt":113171.42999987118,"trial_type":"instructions","trial_index":9,"time_elapsed":1163970,"internal_node_id":"0.0-5.2-0.2","task_version":"screening-prolific"},{"responses":["True","False","True","False","True"],"num_errors":2,"rt":20164.665000047535,"trial_type":"three-arm-comprehension","trial_index":10,"time_elapsed":1184136,"internal_node_id":"0.0-5.2-1.2","task_version":"screening-prolific"},{"view_history":"[{\"page_index\":0,\"viewing_time\":19276.14999981597},{\"page_index\":1,\"viewing_time\":3993.135000113398},{\"page_index\":2,\"viewing_time\":2824.134999886155},{\"page_index\":3,\"viewing_time\":2786.5400000009686},{\"page_index\":4,\"viewing_time\":2499.4750001933426},{\"page_index\":5,\"viewing_time\":2426.4749998692423},{\"page_index\":6,\"viewing_time\":2197.355000069365},{\"page_index\":7,\"viewing_time\":2368.7299999874085}]","rt":38372.299999929965,"trial_type":"instructions","trial_index":11,"time_elapsed":1222513,"internal_node_id":"0.0-5.3-0.3","task_version":"screening-prolific"},{"responses":["True","True","False","False","True"],"num_errors":0,"rt":98868.78999997862,"trial_type":"three-arm-comprehension","trial_index":12,"time_elapsed":1321385,"internal_node_id":"0.0-5.3-1.3","task_version":"screening-prolific"},{"view_history":"[{\"page_index\":0,\"viewing_time\":14221.235000062734}]","rt":14221.494999947026,"trial_type":"instructions","trial_index":13,"time_elapsed":1335611,"internal_node_id":"0.0-6.0","task_version":"screening-prolific"},{"contexts":["red","green","blue"],"outcomes":[0,0,0],"key":38,"choice":1,"rt":2332.8699998091906,"outcome":0,"trial":1,"correct":2,"trial_type":"three-arm-trial","trial_index":14,"time_elapsed":1339148,"internal_node_id":"0.0-7.0-0.0","task_version":"screening-prolific","missing":false,"accuracy":0},{"contexts":["red","green","blue"],"outcomes":[0,0,0],"key":37,"choice":0,"rt":1509.3100001104176,"outcome":0,"trial":2,"correct":2,"trial_type":"three-arm-trial","trial_index":15,"time_elapsed":1341868,"internal_node_id":"0.0-8.0-0.0","task_version":"screening-prolific","missing":false,"accuracy":0},{"contexts":["red","green","blue"],"outcomes":[0,0,1],"key":38,"choice":1,"rt":469.92500009946525,"outcome":0,"trial":3,"correct":2,"trial_type":"three-arm-trial","trial_index":16,"time_elapsed":1343548,"internal_node_id":"0.0-9.0-0.0","task_version":"screening-prolific","missing":false,"accuracy":0},{"contexts":["red","green","blue"],"outcomes":[1,1,1],"key":39,"choice":2,"rt":337.18000003136694,"outcome":1,"trial":4,"correct":2,"trial_type":"three-arm-trial","trial_index":17,"time_elapsed":1345100,"internal_node_id":"0.0-10.0-0.0","task_version":"screening-prolific","missing":false,"accuracy":1},{"contexts":["red","green","blue"],"outcomes":[0,0,1],"key":39,"choice":2,"rt":310.16500014811754,"outcome":1,"trial":5,"correct":2,"trial_type":"three-arm-trial","trial_index":18,"time_elapsed":1346619,"internal_node_id":"0.0-11.0-0.0","task_version":"screening-prolific","missing":false,"accuracy":1},{"contexts":["red","green","blue"],"outcomes":[0,0,1],"key":39,"choice":2,"rt":455.5699999909848,"outcome":1,"trial":6,"correct":2,"trial_type":"three-arm-trial","trial_index":19,"time_elapsed":1348284,"internal_node_id":"0.0-12.0-0.0","task_version":"screening-prolific","missing":false,"accuracy":1},{"contexts":["red","green","blue"],"outcomes":[0,0,1],"key":39,"choice":2,"rt":388.39500001631677,"outcome":1,"trial":7,"correct":2,"trial_type":"three-arm-trial","trial_index":20,"time_elapsed":1349884,"internal_node_id":"0.0-13.0-0.0","task_version":"screening-prolific","missing":false,"accuracy":1},{"contexts":["red","green","blue"],"outcomes":[0,0,1],"key":39,"choice":2,"rt":341.200000140816,"outcome":1,"trial":8,"correct":2,"trial_type":"three-arm-trial","trial_index":21,"time_elapsed":1351436,"internal_node_id":"0.0-14.0-0.0","task_version":"screening-prolific","missing":false,"accuracy":1},{"contexts":["red","green","blue"],"outcomes":[1,0,1],"key":39,"choice":2,"rt":468.05499983020127,"outcome":1,"trial":9,"correct":2,"trial_type":"three-arm-trial","trial_index":22,"time_elapsed":1353114,"internal_node_id":"0.0-15.0-0.0","task_version":"screening-prolific","missing":false,"accuracy":1},{"contexts":["red","green","blue"],"outcomes":[0,1,1],"key":39,"choice":2,"rt":329.5099998358637,"outcome":1,"trial":10,"correct":2,"trial_type":"three-arm-trial","trial_index":23,"time_elapsed":1354650,"internal_node_id":"0.0-16.0-0.0","task_version":"screening-prolific","missing":false,"accuracy":1},{"contexts":["red","green","blue"],"outcomes":[0,0,1],"key":39,"choice":2,"rt":390.00999997369945,"outcome":1,"trial":11,"correct":2,"trial_type":"three-arm-trial","trial_index":24,"time_elapsed":1356251,"internal_node_id":"0.0-17.0-0.0","task_version":"screening-prolific","missing":false,"accuracy":1},{"contexts":["red","green","blue"],"outcomes":[0,1,0],"key":39,"choice":2,"rt":391.21500006876886,"outcome":0,"trial":12,"correct":2,"trial_type":"three-arm-trial","trial_index":25,"time_elapsed":1357852,"internal_node_id":"0.0-18.0-0.0","task_version":"screening-prolific","missing":false,"accuracy":1},{"contexts":["red","green","blue"],"outcomes":[0,0,1],"key":37,"choice":0,"rt":964.1150000970811,"outcome":0,"trial":13,"correct":2,"trial_type":"three-arm-trial","trial_index":26,"time_elapsed":1360027,"internal_node_id":"0.0-19.0-0.0","task_version":"screening-prolific","missing":false,"accuracy":0},{"contexts":["red","green","blue"],"outcomes":[1,0,1],"key":39,"choice":2,"rt":153.96999986842275,"outcome":1,"trial":14,"correct":2,"trial_type":"three-arm-trial","trial_index":27,"time_elapsed":1361389,"internal_node_id":"0.0-20.0-0.0","task_version":"screening-prolific","missing":false,"accuracy":1},{"contexts":["red","green","blue"],"outcomes":[0,0,1],"key":39,"choice":2,"rt":276.964999968186,"outcome":1,"trial":15,"correct":2,"trial_type":"three-arm-trial","trial_index":28,"time_elapsed":1362877,"internal_node_id":"0.0-21.0-0.0","task_version":"screening-prolific","missing":false,"accuracy":1},{"contexts":["red","green","blue"],"outcomes":[1,0,1],"key":39,"choice":2,"rt":312.88000009953976,"outcome":1,"trial":16,"correct":0,"trial_type":"three-arm-trial","trial_index":29,"time_elapsed":1364395,"internal_node_id":"0.0-22.0-0.0","task_version":"screening-prolific","missing":false,"accuracy":0},{"contexts":["red","green","blue"],"outcomes":[1,0,0],"key":39,"choice":2,"rt":328.7600001785904,"outcome":0,"trial":17,"correct":0,"trial_type":"three-arm-trial","trial_index":30,"time_elapsed":1365931,"internal_node_id":"0.0-23.0-0.0","task_version":"screening-prolific","missing":false,"accuracy":0},{"contexts":["red","green","blue"],"outcomes":[1,0,0],"key":38,"choice":1,"rt":425.97500002011657,"outcome":0,"trial":18,"correct":0,"trial_type":"three-arm-trial","trial_index":31,"time_elapsed":1367563,"internal_node_id":"0.0-24.0-0.0","task_version":"screening-prolific","missing":false,"accuracy":0},{"contexts":["red","green","blue"],"outcomes":[1,0,0],"key":38,"choice":1,"rt":264.8300000000745,"outcome":0,"trial":19,"correct":0,"trial_type":"three-arm-trial","trial_index":32,"time_elapsed":1369036,"internal_node_id":"0.0-25.0-0.0","task_version":"screening-prolific","missing":false,"accuracy":0},{"contexts":["red","green","blue"],"outcomes":[1,1,0],"key":39,"choice":2,"rt":321.76500000059605,"outcome":0,"trial":20,"correct":0,"trial_type":"three-arm-trial","trial_index":33,"time_elapsed":1370574,"internal_node_id":"0.0-26.0-0.0","task_version":"screening-prolific","missing":false,"accuracy":0},{"contexts":["red","green","blue"],"outcomes":[1,1,1],"key":39,"choice":2,"rt":166.91999998874962,"outcome":1,"trial":21,"correct":0,"trial_type":"three-arm-trial","trial_index":34,"time_elapsed":1371947,"internal_node_id":"0.0-27.0-0.0","task_version":"screening-prolific","missing":false,"accuracy":0},{"contexts":["red","green","blue"],"outcomes":[1,0,0],"key":39,"choice":2,"rt":293.10499993152916,"outcome":0,"trial":22,"correct":0,"trial_type":"three-arm-trial","trial_index":35,"time_elapsed":1373451,"internal_node_id":"0.0-28.0-0.0","task_version":"screening-prolific","missing":false,"accuracy":0},{"contexts":["red","green","blue"],"outcomes":[1,0,0],"key":37,"choice":0,"rt":330.4950001183897,"outcome":1,"trial":23,"correct":0,"trial_type":"three-arm-trial","trial_index":36,"time_elapsed":1374988,"internal_node_id":"0.0-29.0-0.0","task_version":"screening-prolific","missing":false,"accuracy":1},{"contexts":["red","green","blue"],"outcomes":[1,0,0],"key":38,"choice":1,"rt":292.45000006631017,"outcome":0,"trial":24,"correct":0,"trial_type":"three-arm-trial","trial_index":37,"time_elapsed":1376493,"internal_node_id":"0.0-30.0-0.0","task_version":"screening-prolific","missing":false,"accuracy":0},{"contexts":["red","green","blue"],"outcomes":[1,1,0],"key":37,"choice":0,"rt":84.3450000975281,"outcome":1,"trial":25,"correct":0,"trial_type":"three-arm-trial","trial_index":38,"time_elapsed":1377787,"internal_node_id":"0.0-31.0-0.0","task_version":"screening-prolific","missing":false,"accuracy":1},{"contexts":["red","green","blue"],"outcomes":[1,0,0],"key":37,"choice":0,"rt":198.57499981299043,"outcome":1,"trial":26,"correct":0,"trial_type":"three-arm-trial","trial_index":39,"time_elapsed":1379196,"internal_node_id":"0.0-32.0-0.0","task_version":"screening-prolific","missing":false,"accuracy":1},{"contexts":["red","green","blue"],"outcomes":[0,0,0],"key":37,"choice":0,"rt":199.39500000327826,"outcome":0,"trial":27,"correct":0,"trial_type":"three-arm-trial","trial_index":40,"time_elapsed":1380603,"internal_node_id":"0.0-33.0-0.0","task_version":"screening-prolific","missing":false,"accuracy":1},{"contexts":["red","green","blue"],"outcomes":[1,0,0],"key":38,"choice":1,"rt":330.735000083223,"outcome":0,"trial":28,"correct":0,"trial_type":"three-arm-trial","trial_index":41,"time_elapsed":1382141,"internal_node_id":"0.0-34.0-0.0","task_version":"screening-prolific","missing":false,"accuracy":0},{"contexts":["red","green","blue"],"outcomes":[1,0,0],"key":38,"choice":1,"rt":469.1699999384582,"outcome":0,"trial":29,"correct":0,"trial_type":"three-arm-trial","trial_index":42,"time_elapsed":1383820,"internal_node_id":"0.0-35.0-0.0","task_version":"screening-prolific","missing":false,"accuracy":0},{"contexts":["red","green","blue"],"outcomes":[1,0,0],"key":37,"choice":0,"rt":387.1800000779331,"outcome":1,"trial":30,"correct":0,"trial_type":"three-arm-trial","trial_index":43,"time_elapsed":1385419,"internal_node_id":"0.0-36.0-0.0","task_version":"screening-prolific","missing":false,"accuracy":1},{"contexts":["red","green","blue"],"outcomes":[0,0,1],"key":37,"choice":0,"rt":433.93500009551644,"outcome":0,"trial":31,"correct":2,"trial_type":"three-arm-trial","trial_index":44,"time_elapsed":1387066,"internal_node_id":"0.0-37.0-0.0","task_version":"screening-prolific","missing":false,"accuracy":0},{"contexts":["red","green","blue"],"outcomes":[0,0,1],"key":37,"choice":0,"rt":329.60499986074865,"outcome":0,"trial":32,"correct":2,"trial_type":"three-arm-trial","trial_index":45,"time_elapsed":1388604,"internal_node_id":"0.0-38.0-0.0","task_version":"screening-prolific","missing":false,"accuracy":0},{"contexts":["red","green","blue"],"outcomes":[0,0,1],"key":39,"choice":2,"rt":249.23499999567866,"outcome":1,"trial":33,"correct":2,"trial_type":"three-arm-trial","trial_index":46,"time_elapsed":1390062,"internal_node_id":"0.0-39.0-0.0","task_version":"screening-prolific","missing":false,"accuracy":1},{"contexts":["red","green","blue"],"outcomes":[0,0,1],"key":39,"choice":2,"rt":547.2250001039356,"outcome":1,"trial":34,"correct":2,"trial_type":"three-arm-trial","trial_index":47,"time_elapsed":1391819,"internal_node_id":"0.0-40.0-0.0","task_version":"screening-prolific","missing":false,"accuracy":1},{"contexts":["red","green","blue"],"outcomes":[0,0,1],"key":39,"choice":2,"rt":456.59500011242926,"outcome":1,"trial":35,"correct":2,"trial_type":"three-arm-trial","trial_index":48,"time_elapsed":1393485,"internal_node_id":"0.0-41.0-0.0","task_version":"screening-prolific","missing":false,"accuracy":1},{"contexts":["red","green","blue"],"outcomes":[0,0,1],"key":39,"choice":2,"rt":290.06499983370304,"outcome":1,"trial":36,"correct":2,"trial_type":"three-arm-trial","trial_index":49,"time_elapsed":1394987,"internal_node_id":"0.0-42.0-0.0","task_version":"screening-prolific","missing":false,"accuracy":1},{"contexts":["red","green","blue"],"outcomes":[0,0,1],"key":39,"choice":2,"rt":279.42999987863004,"outcome":1,"trial":37,"correct":2,"trial_type":"three-arm-trial","trial_index":50,"time_elapsed":1396477,"internal_node_id":"0.0-43.0-0.0","task_version":"screening-prolific","missing":false,"accuracy":1},{"contexts":["red","green","blue"],"outcomes":[0,0,1],"key":39,"choice":2,"rt":326.12999994307756,"outcome":1,"trial":38,"correct":2,"trial_type":"three-arm-trial","trial_index":51,"time_elapsed":1398012,"internal_node_id":"0.0-44.0-0.0","task_version":"screening-prolific","missing":false,"accuracy":1},{"contexts":["red","green","blue"],"outcomes":[0,0,1],"key":39,"choice":2,"rt":344.8199999984354,"outcome":1,"trial":39,"correct":2,"trial_type":"three-arm-trial","trial_index":52,"time_elapsed":1399564,"internal_node_id":"0.0-45.0-0.0","task_version":"screening-prolific","missing":false,"accuracy":1},{"contexts":["red","green","blue"],"outcomes":[0,0,0],"key":39,"choice":2,"rt":360.2950000204146,"outcome":0,"trial":40,"correct":2,"trial_type":"three-arm-trial","trial_index":53,"time_elapsed":1401132,"internal_node_id":"0.0-46.0-0.0","task_version":"screening-prolific","missing":false,"accuracy":1},{"contexts":["red","green","blue"],"outcomes":[0,0,1],"key":37,"choice":0,"rt":216.19000006467104,"outcome":0,"trial":41,"correct":2,"trial_type":"three-arm-trial","trial_index":54,"time_elapsed":1402556,"internal_node_id":"0.0-47.0-0.0","task_version":"screening-prolific","missing":false,"accuracy":0},{"contexts":["red","green","blue"],"outcomes":[0,0,0],"key":39,"choice":2,"rt":279.7800002153963,"outcome":0,"trial":42,"correct":2,"trial_type":"three-arm-trial","trial_index":55,"time_elapsed":1404046,"internal_node_id":"0.0-48.0-0.0","task_version":"screening-prolific","missing":false,"accuracy":1},{"contexts":["red","green","blue"],"outcomes":[1,0,0],"key":39,"choice":2,"rt":278.00499997101724,"outcome":0,"trial":43,"correct":2,"trial_type":"three-arm-trial","trial_index":56,"time_elapsed":1405532,"internal_node_id":"0.0-49.0-0.0","task_version":"screening-prolific","missing":false,"accuracy":1},{"contexts":["red","green","blue"],"outcomes":[0,0,1],"key":38,"choice":1,"rt":85.92500002123415,"outcome":0,"trial":44,"correct":2,"trial_type":"three-arm-trial","trial_index":57,"time_elapsed":1406828,"internal_node_id":"0.0-50.0-0.0","task_version":"screening-prolific","missing":false,"accuracy":0},{"contexts":["red","green","blue"],"outcomes":[0,0,0],"key":37,"choice":0,"rt":85.93999990262091,"outcome":0,"trial":45,"correct":2,"trial_type":"three-arm-trial","trial_index":58,"time_elapsed":1408123,"internal_node_id":"0.0-51.0-0.0","task_version":"screening-prolific","missing":false,"accuracy":0},{"contexts":["red","green","blue"],"outcomes":[1,0,0],"key":37,"choice":0,"rt":231.0750000178814,"outcome":1,"trial":46,"correct":0,"trial_type":"three-arm-trial","trial_index":59,"time_elapsed":1409564,"internal_node_id":"0.0-52.0-0.0","task_version":"screening-prolific","missing":false,"accuracy":1},{"contexts":["red","green","blue"],"outcomes":[0,0,1],"key":37,"choice":0,"rt":247.6550000719726,"outcome":0,"trial":47,"correct":0,"trial_type":"three-arm-trial","trial_index":60,"time_elapsed":1411019,"internal_node_id":"0.0-53.0-0.0","task_version":"screening-prolific","missing":false,"accuracy":1},{"contexts":["red","green","blue"],"outcomes":[1,0,0],"key":37,"choice":0,"rt":329.42500011995435,"outcome":1,"trial":48,"correct":0,"trial_type":"three-arm-trial","trial_index":61,"time_elapsed":1412557,"internal_node_id":"0.0-54.0-0.0","task_version":"screening-prolific","missing":false,"accuracy":1},{"contexts":["red","green","blue"],"outcomes":[1,1,0],"key":37,"choice":0,"rt":301.6249998472631,"outcome":1,"trial":49,"correct":0,"trial_type":"three-arm-trial","trial_index":62,"time_elapsed":1414076,"internal_node_id":"0.0-55.0-0.0","task_version":"screening-prolific","missing":false,"accuracy":1},{"contexts":["red","green","blue"],"outcomes":[1,1,0],"key":37,"choice":0,"rt":311.35500012896955,"outcome":1,"trial":50,"correct":0,"trial_type":"three-arm-trial","trial_index":63,"time_elapsed":1415596,"internal_node_id":"0.0-56.0-0.0","task_version":"screening-prolific","missing":false,"accuracy":1},{"contexts":["red","green","blue"],"outcomes":[1,0,0],"key":37,"choice":0,"rt":438.5699999984354,"outcome":1,"trial":51,"correct":0,"trial_type":"three-arm-trial","trial_index":64,"time_elapsed":1417245,"internal_node_id":"0.0-57.0-0.0","task_version":"screening-prolific","missing":false,"accuracy":1},{"contexts":["red","green","blue"],"outcomes":[1,1,0],"key":37,"choice":0,"rt":389.3099999986589,"outcome":1,"trial":52,"correct":0,"trial_type":"three-arm-trial","trial_index":65,"time_elapsed":1418842,"internal_node_id":"0.0-58.0-0.0","task_version":"screening-prolific","missing":false,"accuracy":1},{"contexts":["red","green","blue"],"outcomes":[1,0,1],"key":37,"choice":0,"rt":280.5600001011044,"outcome":1,"trial":53,"correct":0,"trial_type":"three-arm-trial","trial_index":66,"time_elapsed":1420331,"internal_node_id":"0.0-59.0-0.0","task_version":"screening-prolific","missing":false,"accuracy":1},{"contexts":["red","green","blue"],"outcomes":[1,0,1],"key":37,"choice":0,"rt":409.08499993383884,"outcome":1,"trial":54,"correct":0,"trial_type":"three-arm-trial","trial_index":67,"time_elapsed":1421949,"internal_node_id":"0.0-60.0-0.0","task_version":"screening-prolific","missing":false,"accuracy":1},{"contexts":["red","green","blue"],"outcomes":[0,0,0],"key":37,"choice":0,"rt":354.1599998716265,"outcome":0,"trial":55,"correct":0,"trial_type":"three-arm-trial","trial_index":68,"time_elapsed":1423516,"internal_node_id":"0.0-61.0-0.0","task_version":"screening-prolific","missing":false,"accuracy":1},{"contexts":["red","green","blue"],"outcomes":[0,0,0],"key":37,"choice":0,"rt":350.63000000081956,"outcome":0,"trial":56,"correct":0,"trial_type":"three-arm-trial","trial_index":69,"time_elapsed":1425083,"internal_node_id":"0.0-62.0-0.0","task_version":"screening-prolific","missing":false,"accuracy":1},{"contexts":["red","green","blue"],"outcomes":[0,0,0],"key":37,"choice":0,"rt":280.7700000703335,"outcome":0,"trial":57,"correct":0,"trial_type":"three-arm-trial","trial_index":70,"time_elapsed":1426571,"internal_node_id":"0.0-63.0-0.0","task_version":"screening-prolific","missing":false,"accuracy":1},{"contexts":["red","green","blue"],"outcomes":[0,1,0],"key":37,"choice":0,"rt":232.04499995335937,"outcome":0,"trial":58,"correct":0,"trial_type":"three-arm-trial","trial_index":71,"time_elapsed":1428013,"internal_node_id":"0.0-64.0-0.0","task_version":"screening-prolific","missing":false,"accuracy":1},{"contexts":["red","green","blue"],"outcomes":[1,0,0],"key":38,"choice":1,"rt":98.99999992921948,"outcome":0,"trial":59,"correct":0,"trial_type":"three-arm-trial","trial_index":72,"time_elapsed":1429323,"internal_node_id":"0.0-65.0-0.0","task_version":"screening-prolific","missing":false,"accuracy":0},{"contexts":["red","green","blue"],"outcomes":[1,1,1],"key":38,"choice":1,"rt":280.46999988146126,"outcome":1,"trial":60,"correct":0,"trial_type":"three-arm-trial","trial_index":73,"time_elapsed":1430810,"internal_node_id":"0.0-66.0-0.0","task_version":"screening-prolific","missing":false,"accuracy":0},{"contexts":["red","green","blue"],"outcomes":[0,1,1],"key":38,"choice":1,"rt":201.06499991379678,"outcome":1,"trial":61,"correct":2,"trial_type":"three-arm-trial","trial_index":74,"time_elapsed":1432219,"internal_node_id":"0.0-67.0-0.0","task_version":"screening-prolific","missing":false,"accuracy":0},{"contexts":["red","green","blue"],"outcomes":[0,1,1],"key":38,"choice":1,"rt":102.30499994941056,"outcome":1,"trial":62,"correct":2,"trial_type":"three-arm-trial","trial_index":75,"time_elapsed":1433533,"internal_node_id":"0.0-68.0-0.0","task_version":"screening-prolific","missing":false,"accuracy":0},{"contexts":["red","green","blue"],"outcomes":[1,0,1],"key":38,"choice":1,"rt":339.6049998700619,"outcome":0,"trial":63,"correct":2,"trial_type":"three-arm-trial","trial_index":76,"time_elapsed":1435084,"internal_node_id":"0.0-69.0-0.0","task_version":"screening-prolific","missing":false,"accuracy":0},{"contexts":["red","green","blue"],"outcomes":[0,0,1],"key":38,"choice":1,"rt":295.41499982587993,"outcome":0,"trial":64,"correct":2,"trial_type":"three-arm-trial","trial_index":77,"time_elapsed":1436589,"internal_node_id":"0.0-70.0-0.0","task_version":"screening-prolific","missing":false,"accuracy":0},{"contexts":["red","green","blue"],"outcomes":[0,1,1],"key":39,"choice":2,"rt":184.16499998420477,"outcome":1,"trial":65,"correct":2,"trial_type":"three-arm-trial","trial_index":78,"time_elapsed":1437979,"internal_node_id":"0.0-71.0-0.0","task_version":"screening-prolific","missing":false,"accuracy":1},{"contexts":["red","green","blue"],"outcomes":[0,0,1],"key":39,"choice":2,"rt":39.70000008121133,"outcome":1,"trial":66,"correct":2,"trial_type":"three-arm-trial","trial_index":79,"time_elapsed":1439226,"internal_node_id":"0.0-72.0-0.0","task_version":"screening-prolific","missing":false,"accuracy":1},{"contexts":["red","green","blue"],"outcomes":[1,0,1],"key":39,"choice":2,"rt":113.21999994106591,"outcome":1,"trial":67,"correct":2,"trial_type":"three-arm-trial","trial_index":80,"time_elapsed":1440555,"internal_node_id":"0.0-73.0-0.0","task_version":"screening-prolific","missing":false,"accuracy":1},{"contexts":["red","green","blue"],"outcomes":[0,0,0],"key":39,"choice":2,"rt":232.46499989181757,"outcome":0,"trial":68,"correct":2,"trial_type":"three-arm-trial","trial_index":81,"time_elapsed":1441994,"internal_node_id":"0.0-74.0-0.0","task_version":"screening-prolific","missing":false,"accuracy":1},{"contexts":["red","green","blue"],"outcomes":[0,1,0],"key":38,"choice":1,"rt":425.58000003919005,"outcome":1,"trial":69,"correct":2,"trial_type":"three-arm-trial","trial_index":82,"time_elapsed":1443628,"internal_node_id":"0.0-75.0-0.0","task_version":"screening-prolific","missing":false,"accuracy":0},{"contexts":["red","green","blue"],"outcomes":[0,0,1],"key":39,"choice":2,"rt":275.82000009715557,"outcome":1,"trial":70,"correct":2,"trial_type":"three-arm-trial","trial_index":83,"time_elapsed":1445118,"internal_node_id":"0.0-76.0-0.0","task_version":"screening-prolific","missing":false,"accuracy":1},{"contexts":["red","green","blue"],"outcomes":[0,0,1],"key":38,"choice":1,"rt":162.345000077039,"outcome":0,"trial":71,"correct":2,"trial_type":"three-arm-trial","trial_index":84,"time_elapsed":1446491,"internal_node_id":"0.0-77.0-0.0","task_version":"screening-prolific","missing":false,"accuracy":0},{"contexts":["red","green","blue"],"outcomes":[0,0,1],"key":38,"choice":1,"rt":42.30500012636185,"outcome":0,"trial":72,"correct":2,"trial_type":"three-arm-trial","trial_index":85,"time_elapsed":1447739,"internal_node_id":"0.0-78.0-0.0","task_version":"screening-prolific","missing":false,"accuracy":0},{"contexts":["red","green","blue"],"outcomes":[0,0,1],"key":39,"choice":2,"rt":57.745000114664435,"outcome":1,"trial":73,"correct":2,"trial_type":"three-arm-trial","trial_index":86,"time_elapsed":1449003,"internal_node_id":"0.0-79.0-0.0","task_version":"screening-prolific","missing":false,"accuracy":1},{"contexts":["red","green","blue"],"outcomes":[0,0,0],"key":39,"choice":2,"rt":41.33499995805323,"outcome":0,"trial":74,"correct":2,"trial_type":"three-arm-trial","trial_index":87,"time_elapsed":1450252,"internal_node_id":"0.0-80.0-0.0","task_version":"screening-prolific","missing":false,"accuracy":1},{"contexts":["red","green","blue"],"outcomes":[0,0,0],"key":37,"choice":0,"rt":272.57000003010035,"outcome":0,"trial":75,"correct":2,"trial_type":"three-arm-trial","trial_index":88,"time_elapsed":1451739,"internal_node_id":"0.0-81.0-0.0","task_version":"screening-prolific","missing":false,"accuracy":0},{"contexts":["red","green","blue"],"outcomes":[1,1,0],"key":39,"choice":2,"rt":152.534999884665,"outcome":0,"trial":76,"correct":1,"trial_type":"three-arm-trial","trial_index":89,"time_elapsed":1453100,"internal_node_id":"0.0-82.0-0.0","task_version":"screening-prolific","missing":false,"accuracy":0},{"contexts":["red","green","blue"],"outcomes":[0,1,0],"key":39,"choice":2,"rt":181.10499996691942,"outcome":0,"trial":77,"correct":1,"trial_type":"three-arm-trial","trial_index":90,"time_elapsed":1454491,"internal_node_id":"0.0-83.0-0.0","task_version":"screening-prolific","missing":false,"accuracy":0},{"contexts":["red","green","blue"],"outcomes":[0,1,0],"key":37,"choice":0,"rt":324.3800001218915,"outcome":0,"trial":78,"correct":1,"trial_type":"three-arm-trial","trial_index":91,"time_elapsed":1456028,"internal_node_id":"0.0-84.0-0.0","task_version":"screening-prolific","missing":false,"accuracy":0},{"contexts":["red","green","blue"],"outcomes":[0,1,0],"key":39,"choice":2,"rt":290.5100001953542,"outcome":0,"trial":79,"correct":1,"trial_type":"three-arm-trial","trial_index":92,"time_elapsed":1457532,"internal_node_id":"0.0-85.0-0.0","task_version":"screening-prolific","missing":false,"accuracy":0},{"contexts":["red","green","blue"],"outcomes":[0,1,1],"key":39,"choice":2,"rt":455.15500009059906,"outcome":1,"trial":80,"correct":1,"trial_type":"three-arm-trial","trial_index":93,"time_elapsed":1459195,"internal_node_id":"0.0-86.0-0.0","task_version":"screening-prolific","missing":false,"accuracy":0},{"contexts":["red","green","blue"],"outcomes":[0,1,1],"key":39,"choice":2,"rt":279.6750001143664,"outcome":1,"trial":81,"correct":1,"trial_type":"three-arm-trial","trial_index":94,"time_elapsed":1460688,"internal_node_id":"0.0-87.0-0.0","task_version":"screening-prolific","missing":false,"accuracy":0},{"contexts":["red","green","blue"],"outcomes":[1,1,1],"key":39,"choice":2,"rt":355.75499990954995,"outcome":1,"trial":82,"correct":1,"trial_type":"three-arm-trial","trial_index":95,"time_elapsed":1462252,"internal_node_id":"0.0-88.0-0.0","task_version":"screening-prolific","missing":false,"accuracy":0},{"contexts":["red","green","blue"],"outcomes":[0,1,0],"key":39,"choice":2,"rt":376.1800001375377,"outcome":0,"trial":83,"correct":1,"trial_type":"three-arm-trial","trial_index":96,"time_elapsed":1463836,"internal_node_id":"0.0-89.0-0.0","task_version":"screening-prolific","missing":false,"accuracy":0},{"contexts":["red","green","blue"],"outcomes":[0,0,0],"key":37,"choice":0,"rt":102.76999999769032,"outcome":0,"trial":84,"correct":1,"trial_type":"three-arm-trial","trial_index":97,"time_elapsed":1465147,"internal_node_id":"0.0-90.0-0.0","task_version":"screening-prolific","missing":false,"accuracy":0},{"contexts":["red","green","blue"],"outcomes":[0,0,1],"key":39,"choice":2,"rt":279.00500013493,"outcome":1,"trial":85,"correct":1,"trial_type":"three-arm-trial","trial_index":98,"time_elapsed":1466638,"internal_node_id":"0.0-91.0-0.0","task_version":"screening-prolific","missing":false,"accuracy":0},{"contexts":["red","green","blue"],"outcomes":[1,1,0],"key":39,"choice":2,"rt":212.2000001836568,"outcome":0,"trial":86,"correct":1,"trial_type":"three-arm-trial","trial_index":99,"time_elapsed":1468059,"internal_node_id":"0.0-92.0-0.0","task_version":"screening-prolific","missing":false,"accuracy":0},{"contexts":["red","green","blue"],"outcomes":[0,0,0],"key":38,"choice":1,"rt":135.06499980576336,"outcome":0,"trial":87,"correct":1,"trial_type":"three-arm-trial","trial_index":100,"time_elapsed":1469405,"internal_node_id":"0.0-93.0-0.0","task_version":"screening-prolific","missing":false,"accuracy":1},{"contexts":["red","green","blue"],"outcomes":[0,1,1],"key":39,"choice":2,"rt":195.31500013545156,"outcome":1,"trial":88,"correct":1,"trial_type":"three-arm-trial","trial_index":101,"time_elapsed":1470811,"internal_node_id":"0.0-94.0-0.0","task_version":"screening-prolific","missing":false,"accuracy":0},{"contexts":["red","green","blue"],"outcomes":[0,1,0],"key":39,"choice":2,"rt":306.489999871701,"outcome":0,"trial":89,"correct":1,"trial_type":"three-arm-trial","trial_index":102,"time_elapsed":1472331,"internal_node_id":"0.0-95.0-0.0","task_version":"screening-prolific","missing":false,"accuracy":0},{"contexts":["red","green","blue"],"outcomes":[0,1,0],"key":38,"choice":1,"rt":405.1899998448789,"outcome":1,"trial":90,"correct":1,"trial_type":"three-arm-trial","trial_index":103,"time_elapsed":1473947,"internal_node_id":"0.0-96.0-0.0","task_version":"screening-prolific","missing":false,"accuracy":1},{"rt":51015.49500017427,"responses":{"age":"33","gender-categorical":"Female","gender-free-response":"","ethnicity":"Not Hispanic or Latino","race":["Asian"],"language":"Yes","fluency":"Very well","mturk":"Yes","mturk-this-study":"No"},"survey":"demographics","trial_type":"survey-demo","trial_index":104,"time_elapsed":1524975,"internal_node_id":"0.0-97.0","task_version":"screening-prolific","interactions":"[]"}]