[{"responses":{"Q04":"1","Q03":"1","Q01":"1","Q07":"1","Q08":"0","Q02":"0","Q05":"0","Q06":"0"},"rt":65252.12499999907,"survey":"gad7","trial_type":"survey-template","trial_index":0,"time_elapsed":65263,"internal_node_id":"0.0-0.0","task_version":"screening-prolific"},{"responses":{"Q05":"2","Q06":"0","Q07":"2","Q04":"2","Q02":"2","Q13":"1","Q03":"2","Q11":"2","Q15":"3","Q12":"2","Q10":"2","Q09":"0","Q08":"2","Q14":"2","Q01":"1"},"rt":98419.6399999928,"survey":"shaps","trial_type":"survey-template","trial_index":1,"time_elapsed":163688,"internal_node_id":"0.0-1.0","task_version":"screening-prolific"},{"responses":{"Q02":"0","Q12":"0","Q01":"2","Q08":"3","Q05":"1","Q11":"1","Q04":"1","Q09":"0","Q14":"0","Q03":"1","Q07":"2","Q06":"0","Q13":"1","Q10":"0","Q15":"0"},"rt":145770.21999999124,"survey":"7up7down","trial_type":"survey-template","trial_index":2,"time_elapsed":309463,"internal_node_id":"0.0-2.0","task_version":"screening-prolific"},{"responses":{"Q01":"1","Q03":"0","Q02":"0"},"rt":13082.20999999321,"survey":"pswq","trial_type":"survey-template","trial_index":3,"time_elapsed":322548,"internal_node_id":"0.0-3.0","task_version":"screening-prolific"},{"responses":{"Q06":"2","Q05":"2","Q04":"2","Q13":"3","Q01":"2","Q07":"2","Q08":"2","Q11":"2","Q10":"2","Q03":"3","Q02":"2","Q09":"2","Q12":"1"},"rt":89597.259999995,"survey":"bisbas","trial_type":"survey-template","trial_index":4,"time_elapsed":412149,"internal_node_id":"0.0-4.0","task_version":"screening-prolific"},{"view_history":"[{\"page_index\":0,\"viewing_time\":9193.854999990435},{\"page_index\":1,\"viewing_time\":16201.960000005784},{\"page_index\":2,\"viewing_time\":10875.629999994999},{\"page_index\":3,\"viewing_time\":5550.954999998794},{\"page_index\":4,\"viewing_time\":4715.0800000090385},{\"page_index\":5,\"viewing_time\":2416.7900000029476},{\"page_index\":6,\"viewing_time\":6107.189999995171},{\"page_index\":7,\"viewing_time\":1981.7499999917345}]","rt":57044.09999999916,"trial_type":"instructions","trial_index":5,"time_elapsed":469195,"internal_node_id":"0.0-5.0-0.0","task_version":"screening-prolific"},{"responses":["True","False","False","True","True"],"num_errors":2,"rt":38273.70000000519,"trial_type":"three-arm-comprehension","trial_index":6,"time_elapsed":507472,"internal_node_id":"0.0-5.0-1.0","task_version":"screening-prolific"},{"view_history":"[{\"page_index\":0,\"viewing_time\":6710.259999992559},{\"page_index\":1,\"viewing_time\":2973.24999999546},{\"page_index\":2,\"viewing_time\":3102.7150000008987},{\"page_index\":3,\"viewing_time\":2753.5050000005867},{\"page_index\":4,\"viewing_time\":9538.4250000061},{\"page_index\":5,\"viewing_time\":6550.889999998617},{\"page_index\":6,\"viewing_time\":1526.9700000062585},{\"page_index\":7,\"viewing_time\":2007.194999998319}]","rt":35163.56499999529,"trial_type":"instructions","trial_index":7,"time_elapsed":542639,"internal_node_id":"0.0-5.1-0.1","task_version":"screening-prolific"},{"responses":["True","True","False","False","True"],"num_errors":0,"rt":11324.714999995194,"trial_type":"three-arm-comprehension","trial_index":8,"time_elapsed":553966,"internal_node_id":"0.0-5.1-1.1","task_version":"screening-prolific"},{"view_history":"[{\"page_index\":0,\"viewing_time\":3567.930000004708}]","rt":3568.2550000055926,"trial_type":"instructions","trial_index":9,"time_elapsed":557539,"internal_node_id":"0.0-6.0","task_version":"screening-prolific"},{"contexts":["blue","green","red"],"outcomes":[0,0,0],"key":38,"choice":1,"rt":850.8999999903608,"outcome":0,"trial":1,"correct":0,"trial_type":"three-arm-trial","trial_index":10,"time_elapsed":559593,"internal_node_id":"0.0-7.0-0.0","task_version":"screening-prolific","missing":false,"accuracy":0},{"contexts":["blue","green","red"],"outcomes":[1,1,0],"key":38,"choice":1,"rt":4776.545000000624,"outcome":1,"trial":2,"correct":0,"trial_type":"three-arm-trial","trial_index":11,"time_elapsed":565573,"internal_node_id":"0.0-8.0-0.0","task_version":"screening-prolific","missing":false,"accuracy":0},{"contexts":["blue","green","red"],"outcomes":[1,0,0],"key":38,"choice":1,"rt":2459.259999988717,"outcome":0,"trial":3,"correct":0,"trial_type":"three-arm-trial","trial_index":12,"time_elapsed":569236,"internal_node_id":"0.0-9.0-0.0","task_version":"screening-prolific","missing":false,"accuracy":0},{"contexts":["blue","green","red"],"outcomes":[0,0,1],"key":38,"choice":1,"rt":912.9499999980908,"outcome":0,"trial":4,"correct":0,"trial_type":"three-arm-trial","trial_index":13,"time_elapsed":571352,"internal_node_id":"0.0-10.0-0.0","task_version":"screening-prolific","missing":false,"accuracy":0},{"contexts":["blue","green","red"],"outcomes":[1,1,0],"key":38,"choice":1,"rt":4388.825000001816,"outcome":1,"trial":5,"correct":0,"trial_type":"three-arm-trial","trial_index":14,"time_elapsed":576945,"internal_node_id":"0.0-11.0-0.0","task_version":"screening-prolific","missing":false,"accuracy":0},{"contexts":["blue","green","red"],"outcomes":[1,0,0],"key":38,"choice":1,"rt":2931.88000000373,"outcome":0,"trial":6,"correct":0,"trial_type":"three-arm-trial","trial_index":15,"time_elapsed":581080,"internal_node_id":"0.0-12.0-0.0","task_version":"screening-prolific","missing":false,"accuracy":0},{"contexts":["blue","green","red"],"outcomes":[0,0,0],"key":39,"choice":2,"rt":893.1000000011409,"outcome":0,"trial":7,"correct":0,"trial_type":"three-arm-trial","trial_index":16,"time_elapsed":583177,"internal_node_id":"0.0-13.0-0.0","task_version":"screening-prolific","missing":false,"accuracy":0},{"contexts":["blue","green","red"],"outcomes":[0,0,0],"key":37,"choice":0,"rt":468.7700000067707,"outcome":0,"trial":8,"correct":0,"trial_type":"three-arm-trial","trial_index":17,"time_elapsed":584848,"internal_node_id":"0.0-14.0-0.0","task_version":"screening-prolific","missing":false,"accuracy":1},{"contexts":["blue","green","red"],"outcomes":[0,1,0],"key":39,"choice":2,"rt":3437.0599999965634,"outcome":0,"trial":9,"correct":0,"trial_type":"three-arm-trial","trial_index":18,"time_elapsed":589488,"internal_node_id":"0.0-15.0-0.0","task_version":"screening-prolific","missing":false,"accuracy":0},{"contexts":["blue","green","red"],"outcomes":[0,0,0],"key":38,"choice":1,"rt":465.14500000921544,"outcome":0,"trial":10,"correct":0,"trial_type":"three-arm-trial","trial_index":19,"time_elapsed":591155,"internal_node_id":"0.0-16.0-0.0","task_version":"screening-prolific","missing":false,"accuracy":0},{"contexts":["blue","green","red"],"outcomes":[1,0,1],"key":38,"choice":1,"rt":3417.1599999972386,"outcome":0,"trial":11,"correct":0,"trial_type":"three-arm-trial","trial_index":20,"time_elapsed":595775,"internal_node_id":"0.0-17.0-0.0","task_version":"screening-prolific","missing":false,"accuracy":0},{"contexts":["blue","green","red"],"outcomes":[0,0,0],"key":39,"choice":2,"rt":3825.4549999983283,"outcome":0,"trial":12,"correct":0,"trial_type":"three-arm-trial","trial_index":21,"time_elapsed":600804,"internal_node_id":"0.0-18.0-0.0","task_version":"screening-prolific","missing":false,"accuracy":0},{"contexts":["blue","green","red"],"outcomes":[1,0,0],"key":37,"choice":0,"rt":948.4300000040093,"outcome":1,"trial":13,"correct":0,"trial_type":"three-arm-trial","trial_index":22,"time_elapsed":602955,"internal_node_id":"0.0-19.0-0.0","task_version":"screening-prolific","missing":false,"accuracy":1},{"contexts":["blue","green","red"],"outcomes":[1,0,0],"key":38,"choice":1,"rt":1073.1599999999162,"outcome":0,"trial":14,"correct":0,"trial_type":"three-arm-trial","trial_index":23,"time_elapsed":605232,"internal_node_id":"0.0-20.0-0.0","task_version":"screening-prolific","missing":false,"accuracy":0},{"contexts":["blue","green","red"],"outcomes":[1,0,0],"key":39,"choice":2,"rt":1029.0549999917857,"outcome":0,"trial":15,"correct":0,"trial_type":"three-arm-trial","trial_index":24,"time_elapsed":607464,"internal_node_id":"0.0-21.0-0.0","task_version":"screening-prolific","missing":false,"accuracy":0},{"contexts":["blue","green","red"],"outcomes":[0,1,0],"key":38,"choice":1,"rt":249.42999999620952,"outcome":1,"trial":16,"correct":1,"trial_type":"three-arm-trial","trial_index":25,"time_elapsed":608917,"internal_node_id":"0.0-22.0-0.0","task_version":"screening-prolific","missing":false,"accuracy":1},{"contexts":["blue","green","red"],"outcomes":[0,0,0],"key":39,"choice":2,"rt":239.91499999829102,"outcome":0,"trial":17,"correct":1,"trial_type":"three-arm-trial","trial_index":26,"time_elapsed":610360,"internal_node_id":"0.0-23.0-0.0","task_version":"screening-prolific","missing":false,"accuracy":0},{"contexts":["blue","green","red"],"outcomes":[0,1,0],"key":37,"choice":0,"rt":117.28500000026543,"outcome":0,"trial":18,"correct":1,"trial_type":"three-arm-trial","trial_index":27,"time_elapsed":611680,"internal_node_id":"0.0-24.0-0.0","task_version":"screening-prolific","missing":false,"accuracy":0},{"contexts":["blue","green","red"],"outcomes":[0,1,0],"key":38,"choice":1,"rt":32.88500000780914,"outcome":1,"trial":19,"correct":1,"trial_type":"three-arm-trial","trial_index":28,"time_elapsed":612916,"internal_node_id":"0.0-25.0-0.0","task_version":"screening-prolific","missing":false,"accuracy":1},{"contexts":["blue","green","red"],"outcomes":[0,1,0],"key":39,"choice":2,"rt":272.30000001145527,"outcome":0,"trial":20,"correct":1,"trial_type":"three-arm-trial","trial_index":29,"time_elapsed":614392,"internal_node_id":"0.0-26.0-0.0","task_version":"screening-prolific","missing":false,"accuracy":0},{"contexts":["blue","green","red"],"outcomes":[0,0,0],"key":39,"choice":2,"rt":92.1200000011595,"outcome":0,"trial":21,"correct":1,"trial_type":"three-arm-trial","trial_index":30,"time_elapsed":615688,"internal_node_id":"0.0-27.0-0.0","task_version":"screening-prolific","missing":false,"accuracy":0},{"contexts":["blue","green","red"],"outcomes":[1,0,0],"key":39,"choice":2,"rt":156.43000000272878,"outcome":0,"trial":22,"correct":1,"trial_type":"three-arm-trial","trial_index":31,"time_elapsed":617048,"internal_node_id":"0.0-28.0-0.0","task_version":"screening-prolific","missing":false,"accuracy":0},{"contexts":["blue","green","red"],"outcomes":[1,0,1],"key":39,"choice":2,"rt":124.62000000232365,"outcome":1,"trial":23,"correct":1,"trial_type":"three-arm-trial","trial_index":32,"time_elapsed":618375,"internal_node_id":"0.0-29.0-0.0","task_version":"screening-prolific","missing":false,"accuracy":0},{"contexts":["blue","green","red"],"outcomes":[1,0,0],"key":38,"choice":1,"rt":125.71500000194646,"outcome":0,"trial":24,"correct":1,"trial_type":"three-arm-trial","trial_index":33,"time_elapsed":619704,"internal_node_id":"0.0-30.0-0.0","task_version":"screening-prolific","missing":false,"accuracy":1},{"contexts":["blue","green","red"],"outcomes":[1,1,0],"key":38,"choice":1,"rt":253.08000000950415,"outcome":1,"trial":25,"correct":1,"trial_type":"three-arm-trial","trial_index":34,"time_elapsed":621160,"internal_node_id":"0.0-31.0-0.0","task_version":"screening-prolific","missing":false,"accuracy":1},{"contexts":["blue","green","red"],"outcomes":[0,1,0],"key":37,"choice":0,"rt":243.95499999809545,"outcome":0,"trial":26,"correct":1,"trial_type":"three-arm-trial","trial_index":35,"time_elapsed":622607,"internal_node_id":"0.0-32.0-0.0","task_version":"screening-prolific","missing":false,"accuracy":0},{"contexts":["blue","green","red"],"outcomes":[1,1,0],"key":38,"choice":1,"rt":181.93500000052154,"outcome":1,"trial":27,"correct":1,"trial_type":"three-arm-trial","trial_index":36,"time_elapsed":623992,"internal_node_id":"0.0-33.0-0.0","task_version":"screening-prolific","missing":false,"accuracy":1},{"contexts":["blue","green","red"],"outcomes":[0,1,1],"key":38,"choice":1,"rt":132.59999999718275,"outcome":1,"trial":28,"correct":1,"trial_type":"three-arm-trial","trial_index":37,"time_elapsed":625327,"internal_node_id":"0.0-34.0-0.0","task_version":"screening-prolific","missing":false,"accuracy":1},{"contexts":["blue","green","red"],"outcomes":[0,1,0],"key":38,"choice":1,"rt":201.8099999986589,"outcome":1,"trial":29,"correct":1,"trial_type":"three-arm-trial","trial_index":38,"time_elapsed":626733,"internal_node_id":"0.0-35.0-0.0","task_version":"screening-prolific","missing":false,"accuracy":1},{"contexts":["blue","green","red"],"outcomes":[0,0,0],"key":38,"choice":1,"rt":215.48999998776708,"outcome":0,"trial":30,"correct":1,"trial_type":"three-arm-trial","trial_index":39,"time_elapsed":628152,"internal_node_id":"0.0-36.0-0.0","task_version":"screening-prolific","missing":false,"accuracy":1},{"contexts":["blue","green","red"],"outcomes":[0,0,0],"key":39,"choice":2,"rt":104.96499999135267,"outcome":0,"trial":31,"correct":0,"trial_type":"three-arm-trial","trial_index":40,"time_elapsed":629460,"internal_node_id":"0.0-37.0-0.0","task_version":"screening-prolific","missing":false,"accuracy":0},{"contexts":["blue","green","red"],"outcomes":[1,0,0],"key":37,"choice":0,"rt":164.5450000069104,"outcome":1,"trial":32,"correct":0,"trial_type":"three-arm-trial","trial_index":41,"time_elapsed":630828,"internal_node_id":"0.0-38.0-0.0","task_version":"screening-prolific","missing":false,"accuracy":1},{"contexts":["blue","green","red"],"outcomes":[0,0,0],"key":37,"choice":0,"rt":108.97000000113621,"outcome":0,"trial":33,"correct":0,"trial_type":"three-arm-trial","trial_index":42,"time_elapsed":632140,"internal_node_id":"0.0-39.0-0.0","task_version":"screening-prolific","missing":false,"accuracy":1},{"contexts":["blue","green","red"],"outcomes":[1,0,0],"key":37,"choice":0,"rt":161.34500000043772,"outcome":1,"trial":34,"correct":0,"trial_type":"three-arm-trial","trial_index":43,"time_elapsed":633504,"internal_node_id":"0.0-40.0-0.0","task_version":"screening-prolific","missing":false,"accuracy":1},{"contexts":["blue","green","red"],"outcomes":[0,0,0],"key":37,"choice":0,"rt":148.88500000233762,"outcome":0,"trial":35,"correct":0,"trial_type":"three-arm-trial","trial_index":44,"time_elapsed":634855,"internal_node_id":"0.0-41.0-0.0","task_version":"screening-prolific","missing":false,"accuracy":1},{"contexts":["blue","green","red"],"outcomes":[1,0,0],"key":37,"choice":0,"rt":97.62999998929445,"outcome":1,"trial":36,"correct":0,"trial_type":"three-arm-trial","trial_index":45,"time_elapsed":636155,"internal_node_id":"0.0-42.0-0.0","task_version":"screening-prolific","missing":false,"accuracy":1},{"contexts":["blue","green","red"],"outcomes":[1,1,0],"key":37,"choice":0,"rt":73.22000000567641,"outcome":1,"trial":37,"correct":0,"trial_type":"three-arm-trial","trial_index":46,"time_elapsed":637432,"internal_node_id":"0.0-43.0-0.0","task_version":"screening-prolific","missing":false,"accuracy":1},{"contexts":["blue","green","red"],"outcomes":[0,0,0],"key":37,"choice":0,"rt":44.880000001285225,"outcome":0,"trial":38,"correct":0,"trial_type":"three-arm-trial","trial_index":47,"time_elapsed":638680,"internal_node_id":"0.0-44.0-0.0","task_version":"screening-prolific","missing":false,"accuracy":1},{"contexts":["blue","green","red"],"outcomes":[0,0,0],"key":37,"choice":0,"rt":176.96499999146909,"outcome":0,"trial":39,"correct":0,"trial_type":"three-arm-trial","trial_index":48,"time_elapsed":640060,"internal_node_id":"0.0-45.0-0.0","task_version":"screening-prolific","missing":false,"accuracy":1},{"contexts":["blue","green","red"],"outcomes":[1,0,0],"key":38,"choice":1,"rt":104.97500000928994,"outcome":0,"trial":40,"correct":0,"trial_type":"three-arm-trial","trial_index":49,"time_elapsed":641368,"internal_node_id":"0.0-46.0-0.0","task_version":"screening-prolific","missing":false,"accuracy":0},{"contexts":["blue","green","red"],"outcomes":[1,0,1],"key":37,"choice":0,"rt":125.31000000308268,"outcome":1,"trial":41,"correct":0,"trial_type":"three-arm-trial","trial_index":50,"time_elapsed":642697,"internal_node_id":"0.0-47.0-0.0","task_version":"screening-prolific","missing":false,"accuracy":1},{"contexts":["blue","green","red"],"outcomes":[1,1,0],"key":38,"choice":1,"rt":68.47499999275897,"outcome":1,"trial":42,"correct":0,"trial_type":"three-arm-trial","trial_index":51,"time_elapsed":643969,"internal_node_id":"0.0-48.0-0.0","task_version":"screening-prolific","missing":false,"accuracy":0},{"contexts":["blue","green","red"],"outcomes":[0,0,0],"key":37,"choice":0,"rt":119.61999999766704,"outcome":0,"trial":43,"correct":0,"trial_type":"three-arm-trial","trial_index":52,"time_elapsed":645293,"internal_node_id":"0.0-49.0-0.0","task_version":"screening-prolific","missing":false,"accuracy":1},{"contexts":["blue","green","red"],"outcomes":[1,0,0],"key":38,"choice":1,"rt":51.965000006021,"outcome":0,"trial":44,"correct":0,"trial_type":"three-arm-trial","trial_index":53,"time_elapsed":646547,"internal_node_id":"0.0-50.0-0.0","task_version":"screening-prolific","missing":false,"accuracy":0},{"contexts":["blue","green","red"],"outcomes":[1,0,1],"key":37,"choice":0,"rt":129.24500000372063,"outcome":1,"trial":45,"correct":0,"trial_type":"three-arm-trial","trial_index":54,"time_elapsed":647880,"internal_node_id":"0.0-51.0-0.0","task_version":"screening-prolific","missing":false,"accuracy":1},{"contexts":["blue","green","red"],"outcomes":[0,1,0],"key":38,"choice":1,"rt":64.25500000477768,"outcome":1,"trial":46,"correct":1,"trial_type":"three-arm-trial","trial_index":55,"time_elapsed":649147,"internal_node_id":"0.0-52.0-0.0","task_version":"screening-prolific","missing":false,"accuracy":1},{"contexts":["blue","green","red"],"outcomes":[0,1,0],"key":38,"choice":1,"rt":17.94499999959953,"outcome":1,"trial":47,"correct":1,"trial_type":"three-arm-trial","trial_index":56,"time_elapsed":650369,"internal_node_id":"0.0-53.0-0.0","task_version":"screening-prolific","missing":false,"accuracy":1},{"contexts":["blue","green","red"],"outcomes":[0,1,0],"key":38,"choice":1,"rt":27.355000012903474,"outcome":1,"trial":48,"correct":1,"trial_type":"three-arm-trial","trial_index":57,"time_elapsed":651600,"internal_node_id":"0.0-54.0-0.0","task_version":"screening-prolific","missing":false,"accuracy":1},{"contexts":["blue","green","red"],"outcomes":[0,1,0],"key":38,"choice":1,"rt":112.9300000029616,"outcome":1,"trial":49,"correct":1,"trial_type":"three-arm-trial","trial_index":58,"time_elapsed":652917,"internal_node_id":"0.0-55.0-0.0","task_version":"screening-prolific","missing":false,"accuracy":1},{"contexts":["blue","green","red"],"outcomes":[0,1,0],"key":38,"choice":1,"rt":119.93499999516644,"outcome":1,"trial":50,"correct":1,"trial_type":"three-arm-trial","trial_index":59,"time_elapsed":654240,"internal_node_id":"0.0-56.0-0.0","task_version":"screening-prolific","missing":false,"accuracy":1},{"contexts":["blue","green","red"],"outcomes":[1,1,0],"key":38,"choice":1,"rt":60.48499999451451,"outcome":1,"trial":51,"correct":1,"trial_type":"three-arm-trial","trial_index":60,"time_elapsed":655503,"internal_node_id":"0.0-57.0-0.0","task_version":"screening-prolific","missing":false,"accuracy":1},{"contexts":["blue","green","red"],"outcomes":[0,1,0],"key":38,"choice":1,"rt":149.01500000269152,"outcome":1,"trial":52,"correct":1,"trial_type":"three-arm-trial","trial_index":61,"time_elapsed":656855,"internal_node_id":"0.0-58.0-0.0","task_version":"screening-prolific","missing":false,"accuracy":1},{"contexts":["blue","green","red"],"outcomes":[1,0,0],"key":38,"choice":1,"rt":45.23499999777414,"outcome":0,"trial":53,"correct":1,"trial_type":"three-arm-trial","trial_index":62,"time_elapsed":658104,"internal_node_id":"0.0-59.0-0.0","task_version":"screening-prolific","missing":false,"accuracy":1},{"contexts":["blue","green","red"],"outcomes":[1,0,0],"key":37,"choice":0,"rt":145.0100000074599,"outcome":1,"trial":54,"correct":1,"trial_type":"three-arm-trial","trial_index":63,"time_elapsed":659452,"internal_node_id":"0.0-60.0-0.0","task_version":"screening-prolific","missing":false,"accuracy":0},{"contexts":["blue","green","red"],"outcomes":[0,0,1],"key":37,"choice":0,"rt":52.859999996144325,"outcome":0,"trial":55,"correct":1,"trial_type":"three-arm-trial","trial_index":64,"time_elapsed":660708,"internal_node_id":"0.0-61.0-0.0","task_version":"screening-prolific","missing":false,"accuracy":0},{"contexts":["blue","green","red"],"outcomes":[0,0,0],"key":38,"choice":1,"rt":156.85499999381136,"outcome":0,"trial":56,"correct":1,"trial_type":"three-arm-trial","trial_index":65,"time_elapsed":662069,"internal_node_id":"0.0-62.0-0.0","task_version":"screening-prolific","missing":false,"accuracy":1},{"contexts":["blue","green","red"],"outcomes":[1,1,0],"key":38,"choice":1,"rt":135.00999999814667,"outcome":1,"trial":57,"correct":1,"trial_type":"three-arm-trial","trial_index":66,"time_elapsed":663407,"internal_node_id":"0.0-63.0-0.0","task_version":"screening-prolific","missing":false,"accuracy":1},{"contexts":["blue","green","red"],"outcomes":[0,0,0],"key":38,"choice":1,"rt":13.594999996712431,"outcome":0,"trial":58,"correct":1,"trial_type":"three-arm-trial","trial_index":67,"time_elapsed":664624,"internal_node_id":"0.0-64.0-0.0","task_version":"screening-prolific","missing":false,"accuracy":1},{"contexts":["blue","green","red"],"outcomes":[0,1,1],"key":39,"choice":2,"rt":65.07500000589062,"outcome":1,"trial":59,"correct":1,"trial_type":"three-arm-trial","trial_index":68,"time_elapsed":665892,"internal_node_id":"0.0-65.0-0.0","task_version":"screening-prolific","missing":false,"accuracy":0},{"contexts":["blue","green","red"],"outcomes":[0,1,0],"key":39,"choice":2,"rt":140.39499999489635,"outcome":0,"trial":60,"correct":1,"trial_type":"three-arm-trial","trial_index":69,"time_elapsed":667236,"internal_node_id":"0.0-66.0-0.0","task_version":"screening-prolific","missing":false,"accuracy":0},{"contexts":["blue","green","red"],"outcomes":[1,0,1],"key":37,"choice":0,"rt":51.76000000210479,"outcome":1,"trial":61,"correct":2,"trial_type":"three-arm-trial","trial_index":70,"time_elapsed":668491,"internal_node_id":"0.0-67.0-0.0","task_version":"screening-prolific","missing":false,"accuracy":0},{"contexts":["blue","green","red"],"outcomes":[1,0,0],"key":37,"choice":0,"rt":121.73499999335036,"outcome":1,"trial":62,"correct":2,"trial_type":"three-arm-trial","trial_index":71,"time_elapsed":669816,"internal_node_id":"0.0-68.0-0.0","task_version":"screening-prolific","missing":false,"accuracy":0},{"contexts":["blue","green","red"],"outcomes":[1,1,1],"key":37,"choice":0,"rt":17.030000002705492,"outcome":1,"trial":63,"correct":2,"trial_type":"three-arm-trial","trial_index":72,"time_elapsed":671036,"internal_node_id":"0.0-69.0-0.0","task_version":"screening-prolific","missing":false,"accuracy":0},{"contexts":["blue","green","red"],"outcomes":[1,0,0],"key":37,"choice":0,"rt":33.305000004475005,"outcome":1,"trial":64,"correct":2,"trial_type":"three-arm-trial","trial_index":73,"time_elapsed":672273,"internal_node_id":"0.0-70.0-0.0","task_version":"screening-prolific","missing":false,"accuracy":0},{"contexts":["blue","green","red"],"outcomes":[0,0,1],"key":37,"choice":0,"rt":36.42499999841675,"outcome":0,"trial":65,"correct":2,"trial_type":"three-arm-trial","trial_index":74,"time_elapsed":673512,"internal_node_id":"0.0-71.0-0.0","task_version":"screening-prolific","missing":false,"accuracy":0},{"contexts":["blue","green","red"],"outcomes":[0,1,0],"key":38,"choice":1,"rt":132.49000000359956,"outcome":1,"trial":66,"correct":2,"trial_type":"three-arm-trial","trial_index":75,"time_elapsed":674847,"internal_node_id":"0.0-72.0-0.0","task_version":"screening-prolific","missing":false,"accuracy":0},{"contexts":["blue","green","red"],"outcomes":[0,1,1],"key":38,"choice":1,"rt":129.6650000003865,"outcome":1,"trial":67,"correct":2,"trial_type":"three-arm-trial","trial_index":76,"time_elapsed":676179,"internal_node_id":"0.0-73.0-0.0","task_version":"screening-prolific","missing":false,"accuracy":0},{"contexts":["blue","green","red"],"outcomes":[1,0,1],"key":38,"choice":1,"rt":133.8499999983469,"outcome":0,"trial":68,"correct":2,"trial_type":"three-arm-trial","trial_index":77,"time_elapsed":677516,"internal_node_id":"0.0-74.0-0.0","task_version":"screening-prolific","missing":false,"accuracy":0},{"contexts":["blue","green","red"],"outcomes":[0,0,1],"key":37,"choice":0,"rt":144.76499999000225,"outcome":0,"trial":69,"correct":2,"trial_type":"three-arm-trial","trial_index":78,"time_elapsed":678865,"internal_node_id":"0.0-75.0-0.0","task_version":"screening-prolific","missing":false,"accuracy":0},{"contexts":["blue","green","red"],"outcomes":[0,1,0],"key":37,"choice":0,"rt":148.31000000413042,"outcome":0,"trial":70,"correct":2,"trial_type":"three-arm-trial","trial_index":79,"time_elapsed":680216,"internal_node_id":"0.0-76.0-0.0","task_version":"screening-prolific","missing":false,"accuracy":0},{"contexts":["blue","green","red"],"outcomes":[1,0,1],"key":37,"choice":0,"rt":12.320000008912757,"outcome":1,"trial":71,"correct":2,"trial_type":"three-arm-trial","trial_index":80,"time_elapsed":681432,"internal_node_id":"0.0-77.0-0.0","task_version":"screening-prolific","missing":false,"accuracy":0},{"contexts":["blue","green","red"],"outcomes":[0,0,1],"key":37,"choice":0,"rt":169.04999999678694,"outcome":0,"trial":72,"correct":2,"trial_type":"three-arm-trial","trial_index":81,"time_elapsed":682804,"internal_node_id":"0.0-78.0-0.0","task_version":"screening-prolific","missing":false,"accuracy":0},{"contexts":["blue","green","red"],"outcomes":[0,0,1],"key":38,"choice":1,"rt":4.5799999934388325,"outcome":0,"trial":73,"correct":2,"trial_type":"three-arm-trial","trial_index":82,"time_elapsed":684012,"internal_node_id":"0.0-79.0-0.0","task_version":"screening-prolific","missing":false,"accuracy":0},{"contexts":["blue","green","red"],"outcomes":[0,0,1],"key":37,"choice":0,"rt":4.30999998934567,"outcome":0,"trial":74,"correct":2,"trial_type":"three-arm-trial","trial_index":83,"time_elapsed":685220,"internal_node_id":"0.0-80.0-0.0","task_version":"screening-prolific","missing":false,"accuracy":0},{"contexts":["blue","green","red"],"outcomes":[0,1,0],"key":39,"choice":2,"rt":136.80000000749715,"outcome":0,"trial":75,"correct":2,"trial_type":"three-arm-trial","trial_index":84,"time_elapsed":686560,"internal_node_id":"0.0-81.0-0.0","task_version":"screening-prolific","missing":false,"accuracy":1},{"contexts":["blue","green","red"],"outcomes":[0,0,0],"key":38,"choice":1,"rt":147.94999999867287,"outcome":0,"trial":76,"correct":1,"trial_type":"three-arm-trial","trial_index":85,"time_elapsed":687911,"internal_node_id":"0.0-82.0-0.0","task_version":"screening-prolific","missing":false,"accuracy":1},{"contexts":["blue","green","red"],"outcomes":[0,0,0],"key":38,"choice":1,"rt":57.15500000223983,"outcome":0,"trial":77,"correct":1,"trial_type":"three-arm-trial","trial_index":86,"time_elapsed":689171,"internal_node_id":"0.0-83.0-0.0","task_version":"screening-prolific","missing":false,"accuracy":1},{"contexts":["blue","green","red"],"outcomes":[1,1,0],"key":37,"choice":0,"rt":4.580000007990748,"outcome":1,"trial":78,"correct":1,"trial_type":"three-arm-trial","trial_index":87,"time_elapsed":690380,"internal_node_id":"0.0-84.0-0.0","task_version":"screening-prolific","missing":false,"accuracy":0},{"contexts":["blue","green","red"],"outcomes":[0,1,0],"key":37,"choice":0,"rt":172.5950000109151,"outcome":0,"trial":79,"correct":1,"trial_type":"three-arm-trial","trial_index":88,"time_elapsed":691755,"internal_node_id":"0.0-85.0-0.0","task_version":"screening-prolific","missing":false,"accuracy":0},{"contexts":["blue","green","red"],"outcomes":[0,1,1],"key":37,"choice":0,"rt":36.12000000430271,"outcome":0,"trial":80,"correct":1,"trial_type":"three-arm-trial","trial_index":89,"time_elapsed":692996,"internal_node_id":"0.0-86.0-0.0","task_version":"screening-prolific","missing":false,"accuracy":0},{"contexts":["blue","green","red"],"outcomes":[1,0,0],"key":37,"choice":0,"rt":192.89999999455176,"outcome":1,"trial":81,"correct":1,"trial_type":"three-arm-trial","trial_index":90,"time_elapsed":694392,"internal_node_id":"0.0-87.0-0.0","task_version":"screening-prolific","missing":false,"accuracy":0},{"contexts":["blue","green","red"],"outcomes":[0,1,1],"key":37,"choice":0,"rt":28.56999999494292,"outcome":0,"trial":82,"correct":1,"trial_type":"three-arm-trial","trial_index":91,"time_elapsed":695623,"internal_node_id":"0.0-88.0-0.0","task_version":"screening-prolific","missing":false,"accuracy":0},{"contexts":["blue","green","red"],"outcomes":[1,0,0],"key":37,"choice":0,"rt":66.10499999078456,"outcome":1,"trial":83,"correct":1,"trial_type":"three-arm-trial","trial_index":92,"time_elapsed":696892,"internal_node_id":"0.0-89.0-0.0","task_version":"screening-prolific","missing":false,"accuracy":0},{"contexts":["blue","green","red"],"outcomes":[0,1,0],"key":37,"choice":0,"rt":0.24500000290572643,"outcome":0,"trial":84,"correct":1,"trial_type":"three-arm-trial","trial_index":93,"time_elapsed":698095,"internal_node_id":"0.0-90.0-0.0","task_version":"screening-prolific","missing":false,"accuracy":0},{"contexts":["blue","green","red"],"outcomes":[1,0,1],"key":37,"choice":0,"rt":76.97999999800231,"outcome":1,"trial":85,"correct":1,"trial_type":"three-arm-trial","trial_index":94,"time_elapsed":699375,"internal_node_id":"0.0-91.0-0.0","task_version":"screening-prolific","missing":false,"accuracy":0},{"contexts":["blue","green","red"],"outcomes":[1,1,1],"key":37,"choice":0,"rt":8.81999998819083,"outcome":1,"trial":86,"correct":1,"trial_type":"three-arm-trial","trial_index":95,"time_elapsed":700587,"internal_node_id":"0.0-92.0-0.0","task_version":"screening-prolific","missing":false,"accuracy":0},{"contexts":["blue","green","red"],"outcomes":[1,0,0],"key":37,"choice":0,"rt":28.805000009015203,"outcome":1,"trial":87,"correct":1,"trial_type":"three-arm-trial","trial_index":96,"time_elapsed":701818,"internal_node_id":"0.0-93.0-0.0","task_version":"screening-prolific","missing":false,"accuracy":0},{"contexts":["blue","green","red"],"outcomes":[0,1,0],"key":37,"choice":0,"rt":197.08500000706408,"outcome":0,"trial":88,"correct":1,"trial_type":"three-arm-trial","trial_index":97,"time_elapsed":703219,"internal_node_id":"0.0-94.0-0.0","task_version":"screening-prolific","missing":false,"accuracy":0},{"contexts":["blue","green","red"],"outcomes":[1,1,1],"key":38,"choice":1,"rt":184.56000000878703,"outcome":1,"trial":89,"correct":1,"trial_type":"three-arm-trial","trial_index":98,"time_elapsed":704607,"internal_node_id":"0.0-95.0-0.0","task_version":"screening-prolific","missing":false,"accuracy":1},{"contexts":["blue","green","red"],"outcomes":[0,1,0],"key":38,"choice":1,"rt":108.90000000654254,"outcome":1,"trial":90,"correct":1,"trial_type":"three-arm-trial","trial_index":99,"time_elapsed":705919,"internal_node_id":"0.0-96.0-0.0","task_version":"screening-prolific","missing":false,"accuracy":1},{"rt":38043.88499999186,"responses":{"age":"20","gender-categorical":"Male","gender-free-response":"","ethnicity":"Not Hispanic or Latino","race":["White"],"language":"No","fluency":"Well","mturk":"No","mturk-this-study":"No"},"survey":"demographics","trial_type":"survey-demo","trial_index":100,"time_elapsed":743969,"internal_node_id":"0.0-97.0","task_version":"screening-prolific","interactions":"[{\"event\":\"blur\",\"trial\":0,\"time\":12239},{\"event\":\"focus\",\"trial\":0,\"time\":18081},{\"event\":\"blur\",\"trial\":0,\"time\":18128},{\"event\":\"focus\",\"trial\":0,\"time\":18798},{\"event\":\"blur\",\"trial\":0,\"time\":22818},{\"event\":\"focus\",\"trial\":0,\"time\":24800},{\"event\":\"blur\",\"trial\":0,\"time\":34678},{\"event\":\"focus\",\"trial\":0,\"time\":35925},{\"event\":\"blur\",\"trial\":0,\"time\":40174},{\"event\":\"focus\",\"trial\":0,\"time\":43627},{\"event\":\"blur\",\"trial\":0,\"time\":48156},{\"event\":\"focus\",\"trial\":0,\"time\":51045},{\"event\":\"blur\",\"trial\":0,\"time\":55327},{\"event\":\"focus\",\"trial\":0,\"time\":57450},{\"event\":\"blur\",\"trial\":0,\"time\":61006},{\"event\":\"focus\",\"trial\":0,\"time\":62790},{\"event\":\"blur\",\"trial\":1,\"time\":69395},{\"event\":\"focus\",\"trial\":1,\"time\":74002},{\"event\":\"blur\",\"trial\":1,\"time\":80781},{\"event\":\"focus\",\"trial\":1,\"time\":83329},{\"event\":\"blur\",\"trial\":1,\"time\":85530},{\"event\":\"focus\",\"trial\":1,\"time\":87854},{\"event\":\"blur\",\"trial\":1,\"time\":91479},{\"event\":\"focus\",\"trial\":1,\"time\":94064},{\"event\":\"blur\",\"trial\":1,\"time\":98235},{\"event\":\"focus\",\"trial\":1,\"time\":101974},{\"event\":\"blur\",\"trial\":1,\"time\":107549},{\"event\":\"focus\",\"trial\":1,\"time\":111231},{\"event\":\"blur\",\"trial\":1,\"time\":113830},{\"event\":\"focus\",\"trial\":1,\"time\":117607},{\"event\":\"blur\",\"trial\":1,\"time\":123969},{\"event\":\"focus\",\"trial\":1,\"time\":130399},{\"event\":\"blur\",\"trial\":1,\"time\":133903},{\"event\":\"focus\",\"trial\":1,\"time\":135877},{\"event\":\"blur\",\"trial\":1,\"time\":137382},{\"event\":\"focus\",\"trial\":1,\"time\":139803},{\"event\":\"blur\",\"trial\":1,\"time\":141557},{\"event\":\"focus\",\"trial\":1,\"time\":143865},{\"event\":\"blur\",\"trial\":1,\"time\":145490},{\"event\":\"focus\",\"trial\":1,\"time\":148942},{\"event\":\"blur\",\"trial\":1,\"time\":151029},{\"event\":\"focus\",\"trial\":1,\"time\":154620},{\"event\":\"blur\",\"trial\":1,\"time\":156254},{\"event\":\"focus\",\"trial\":1,\"time\":158376},{\"event\":\"blur\",\"trial\":2,\"time\":170326},{\"event\":\"focus\",\"trial\":2,\"time\":179596},{\"event\":\"blur\",\"trial\":2,\"time\":182157},{\"event\":\"focus\",\"trial\":2,\"time\":187445},{\"event\":\"blur\",\"trial\":2,\"time\":188733},{\"event\":\"focus\",\"trial\":2,\"time\":195862},{\"event\":\"blur\",\"trial\":2,\"time\":201095},{\"event\":\"focus\",\"trial\":2,\"time\":206839},{\"event\":\"blur\",\"trial\":2,\"time\":209939},{\"event\":\"focus\",\"trial\":2,\"time\":214629},{\"event\":\"blur\",\"trial\":2,\"time\":219800},{\"event\":\"focus\",\"trial\":2,\"time\":223149},{\"event\":\"blur\",\"trial\":2,\"time\":226220},{\"event\":\"focus\",\"trial\":2,\"time\":233535},{\"event\":\"blur\",\"trial\":2,\"time\":235998},{\"event\":\"focus\",\"trial\":2,\"time\":239615},{\"event\":\"blur\",\"trial\":2,\"time\":245573},{\"event\":\"focus\",\"trial\":2,\"time\":252225},{\"event\":\"blur\",\"trial\":2,\"time\":254107},{\"event\":\"focus\",\"trial\":2,\"time\":263092},{\"event\":\"blur\",\"trial\":2,\"time\":264353},{\"event\":\"focus\",\"trial\":2,\"time\":270890},{\"event\":\"blur\",\"trial\":2,\"time\":274087},{\"event\":\"focus\",\"trial\":2,\"time\":279474},{\"event\":\"blur\",\"trial\":2,\"time\":280884},{\"event\":\"focus\",\"trial\":2,\"time\":286101},{\"event\":\"blur\",\"trial\":2,\"time\":288607},{\"event\":\"focus\",\"trial\":2,\"time\":296291},{\"event\":\"blur\",\"trial\":2,\"time\":298288},{\"event\":\"focus\",\"trial\":2,\"time\":300847},{\"event\":\"blur\",\"trial\":2,\"time\":302613},{\"event\":\"focus\",\"trial\":2,\"time\":306854},{\"event\":\"blur\",\"trial\":4,\"time\":356171},{\"event\":\"focus\",\"trial\":4,\"time\":360557},{\"event\":\"blur\",\"trial\":4,\"time\":407021},{\"event\":\"focus\",\"trial\":4,\"time\":410342},{\"event\":\"blur\",\"trial\":6,\"time\":496730},{\"event\":\"focus\",\"trial\":6,\"time\":500230}]"}]