[{"responses":{"Q01":"2","Q02":"2","Q03":"2"},"rt":9233.000000000002,"survey":"pswq","trial_type":"survey-template","trial_index":0,"time_elapsed":9265,"internal_node_id":"0.0-0.0","task_version":"screening-prolific"},{"responses":{"Q04":"1","Q06":"1","Q08":"0","Q02":"1","Q07":"1","Q01":"1","Q03":"1","Q05":"1"},"rt":25105,"survey":"gad7","trial_type":"survey-template","trial_index":1,"time_elapsed":34373,"internal_node_id":"0.0-1.0","task_version":"screening-prolific"},{"responses":{"Q01":"2","Q06":"2","Q07":"3","Q05":"3","Q04":"3","Q02":"3","Q03":"3","Q15":"3","Q08":"2","Q10":"3","Q09":"1","Q13":"2","Q14":"2","Q11":"2","Q12":"2"},"rt":42620.000000000015,"survey":"shaps","trial_type":"survey-template","trial_index":2,"time_elapsed":76998,"internal_node_id":"0.0-2.0","task_version":"screening-prolific"},{"responses":{"Q09":"1","Q12":"2","Q14":"0","Q02":"0","Q03":"1","Q08":"1","Q06":"0","Q07":"0","Q15":"0","Q04":"1","Q01":"1","Q10":"1","Q05":"2","Q13":"0","Q11":"0"},"rt":73975,"survey":"7up7down","trial_type":"survey-template","trial_index":3,"time_elapsed":150979,"internal_node_id":"0.0-3.0","task_version":"screening-prolific"},{"responses":{"Q10":"2","Q05":"2","Q13":"3","Q07":"3","Q09":"3","Q06":"2","Q01":"2","Q02":"2","Q04":"2","Q03":"2","Q12":"2","Q11":"2","Q08":"2"},"rt":35394.00000000003,"survey":"bisbas","trial_type":"survey-template","trial_index":4,"time_elapsed":186378,"internal_node_id":"0.0-4.0","task_version":"screening-prolific"},{"view_history":"[{\"page_index\":0,\"viewing_time\":6584},{\"page_index\":1,\"viewing_time\":8503},{\"page_index\":2,\"viewing_time\":7038},{\"page_index\":3,\"viewing_time\":10411},{\"page_index\":4,\"viewing_time\":2513.000000000029},{\"page_index\":5,\"viewing_time\":1734.999999999971},{\"page_index\":6,\"viewing_time\":3097},{\"page_index\":7,\"viewing_time\":4629}]","rt":44511,"trial_type":"instructions","trial_index":5,"time_elapsed":230892,"internal_node_id":"0.0-5.0-0.0","task_version":"screening-prolific"},{"responses":["True","True","True","False","True"],"num_errors":1,"rt":21928,"trial_type":"three-arm-comprehension","trial_index":6,"time_elapsed":252825,"internal_node_id":"0.0-5.0-1.0","task_version":"screening-prolific"},{"view_history":"[{\"page_index\":0,\"viewing_time\":3704.999999999971},{\"page_index\":1,\"viewing_time\":2278.000000000029},{\"page_index\":2,\"viewing_time\":1921.999999999971},{\"page_index\":1,\"viewing_time\":379},{\"page_index\":0,\"viewing_time\":2464},{\"page_index\":1,\"viewing_time\":4307},{\"page_index\":2,\"viewing_time\":4248},{\"page_index\":3,\"viewing_time\":4736},{\"page_index\":4,\"viewing_time\":6537},{\"page_index\":5,\"viewing_time\":4655},{\"page_index\":6,\"viewing_time\":2806},{\"page_index\":7,\"viewing_time\":1346}]","rt":39382.99999999997,"trial_type":"instructions","trial_index":7,"time_elapsed":292213,"internal_node_id":"0.0-5.1-0.1","task_version":"screening-prolific"},{"responses":["True","False","False","False","True"],"num_errors":1,"rt":12072,"trial_type":"three-arm-comprehension","trial_index":8,"time_elapsed":304289,"internal_node_id":"0.0-5.1-1.1","task_version":"screening-prolific"},{"view_history":"[{\"page_index\":0,\"viewing_time\":2191},{\"page_index\":1,\"viewing_time\":209},{\"page_index\":2,\"viewing_time\":179},{\"page_index\":3,\"viewing_time\":170},{\"page_index\":4,\"viewing_time\":446},{\"page_index\":5,\"viewing_time\":179},{\"page_index\":6,\"viewing_time\":202},{\"page_index\":7,\"viewing_time\":203}]","rt":3779,"trial_type":"instructions","trial_index":9,"time_elapsed":308071,"internal_node_id":"0.0-5.2-0.2","task_version":"screening-prolific"},{"responses":["True","False","True","False","True"],"num_errors":2,"rt":14384,"trial_type":"three-arm-comprehension","trial_index":10,"time_elapsed":322459,"internal_node_id":"0.0-5.2-1.2","task_version":"screening-prolific"},{"view_history":"[{\"page_index\":0,\"viewing_time\":1380},{\"page_index\":1,\"viewing_time\":201},{\"page_index\":2,\"viewing_time\":194.0000000000582},{\"page_index\":3,\"viewing_time\":218.9999999999418},{\"page_index\":4,\"viewing_time\":365.0000000000582},{\"page_index\":5,\"viewing_time\":226.9999999999418},{\"page_index\":6,\"viewing_time\":244},{\"page_index\":7,\"viewing_time\":242}]","rt":3073.000000000058,"trial_type":"instructions","trial_index":11,"time_elapsed":325536,"internal_node_id":"0.0-5.3-0.3","task_version":"screening-prolific"},{"responses":["False","True","True","False","True"],"num_errors":2,"rt":13355,"trial_type":"three-arm-comprehension","trial_index":12,"time_elapsed":338894,"internal_node_id":"0.0-5.3-1.3","task_version":"screening-prolific"},{"view_history":"[{\"page_index\":0,\"viewing_time\":1264},{\"page_index\":1,\"viewing_time\":250},{\"page_index\":2,\"viewing_time\":227},{\"page_index\":3,\"viewing_time\":211},{\"page_index\":4,\"viewing_time\":243},{\"page_index\":5,\"viewing_time\":211},{\"page_index\":6,\"viewing_time\":210},{\"page_index\":7,\"viewing_time\":219}]","rt":2836,"trial_type":"instructions","trial_index":13,"time_elapsed":341736,"internal_node_id":"0.0-5.4-0.4","task_version":"screening-prolific"},{"responses":["True","True","True","False","True"],"num_errors":1,"rt":13559,"trial_type":"three-arm-comprehension","trial_index":14,"time_elapsed":355298,"internal_node_id":"0.0-5.4-1.4","task_version":"screening-prolific"},{"view_history":"[{\"page_index\":0,\"viewing_time\":1241},{\"page_index\":1,\"viewing_time\":323},{\"page_index\":2,\"viewing_time\":202},{\"page_index\":3,\"viewing_time\":203},{\"page_index\":4,\"viewing_time\":195},{\"page_index\":5,\"viewing_time\":202},{\"page_index\":6,\"viewing_time\":195.0000000000582},{\"page_index\":7,\"viewing_time\":218.9999999999418}]","rt":2780,"trial_type":"instructions","trial_index":15,"time_elapsed":358083,"internal_node_id":"0.0-5.5-0.5","task_version":"screening-prolific"},{"responses":["False","True","True","False","True"],"num_errors":2,"rt":9989.999999999942,"trial_type":"three-arm-comprehension","trial_index":16,"time_elapsed":368076,"internal_node_id":"0.0-5.5-1.5","task_version":"screening-prolific"},{"view_history":"[{\"page_index\":0,\"viewing_time\":2952},{\"page_index\":1,\"viewing_time\":4126},{\"page_index\":2,\"viewing_time\":3350},{\"page_index\":3,\"viewing_time\":4265},{\"page_index\":4,\"viewing_time\":9162},{\"page_index\":5,\"viewing_time\":1557},{\"page_index\":6,\"viewing_time\":1897},{\"page_index\":7,\"viewing_time\":956}]","rt":28265,"trial_type":"instructions","trial_index":17,"time_elapsed":396346,"internal_node_id":"0.0-5.6-0.6","task_version":"screening-prolific"},{"responses":["True","True","True","True","True"],"num_errors":2,"rt":13461.999999999942,"trial_type":"three-arm-comprehension","trial_index":18,"time_elapsed":409811,"internal_node_id":"0.0-5.6-1.6","task_version":"screening-prolific"},{"view_history":"[{\"page_index\":0,\"viewing_time\":1323.0000000000582},{\"page_index\":1,\"viewing_time\":200.9999999999418},{\"page_index\":2,\"viewing_time\":170},{\"page_index\":3,\"viewing_time\":162},{\"page_index\":4,\"viewing_time\":203},{\"page_index\":5,\"viewing_time\":195},{\"page_index\":6,\"viewing_time\":195},{\"page_index\":7,\"viewing_time\":186}]","rt":2635,"trial_type":"instructions","trial_index":19,"time_elapsed":412451,"internal_node_id":"0.0-5.7-0.7","task_version":"screening-prolific"},{"responses":["True","True","False","False","True"],"num_errors":0,"rt":11691,"trial_type":"three-arm-comprehension","trial_index":20,"time_elapsed":424146,"internal_node_id":"0.0-5.7-1.7","task_version":"screening-prolific"},{"view_history":"[{\"page_index\":0,\"viewing_time\":2155}]","rt":2156,"trial_type":"instructions","trial_index":21,"time_elapsed":426308,"internal_node_id":"0.0-6.0","task_version":"screening-prolific"},{"contexts":["green","red","blue"],"outcomes":[0,0,1],"key":39,"choice":2,"rt":3471,"outcome":1,"trial":1,"correct":2,"trial_type":"three-arm-trial","trial_index":22,"time_elapsed":430983,"internal_node_id":"0.0-7.0-0.0","task_version":"screening-prolific","missing":false,"accuracy":1},{"contexts":["green","red","blue"],"outcomes":[0,1,1],"key":38,"choice":1,"rt":3714,"outcome":1,"trial":2,"correct":2,"trial_type":"three-arm-trial","trial_index":23,"time_elapsed":435905,"internal_node_id":"0.0-8.0-0.0","task_version":"screening-prolific","missing":false,"accuracy":0},{"contexts":["green","red","blue"],"outcomes":[0,0,1],"key":38,"choice":1,"rt":668,"outcome":0,"trial":3,"correct":2,"trial_type":"three-arm-trial","trial_index":24,"time_elapsed":437781,"internal_node_id":"0.0-9.0-0.0","task_version":"screening-prolific","missing":false,"accuracy":0},{"contexts":["green","red","blue"],"outcomes":[0,0,0],"key":37,"choice":0,"rt":4795,"outcome":0,"trial":4,"correct":2,"trial_type":"three-arm-trial","trial_index":25,"time_elapsed":443783,"internal_node_id":"0.0-10.0-0.0","task_version":"screening-prolific","missing":false,"accuracy":0},{"contexts":["green","red","blue"],"outcomes":[0,0,1],"key":39,"choice":2,"rt":1854,"outcome":1,"trial":5,"correct":2,"trial_type":"three-arm-trial","trial_index":26,"time_elapsed":446843,"internal_node_id":"0.0-11.0-0.0","task_version":"screening-prolific","missing":false,"accuracy":1},{"contexts":["green","red","blue"],"outcomes":[0,0,1],"key":39,"choice":2,"rt":4918,"outcome":1,"trial":6,"correct":2,"trial_type":"three-arm-trial","trial_index":27,"time_elapsed":452968,"internal_node_id":"0.0-12.0-0.0","task_version":"screening-prolific","missing":false,"accuracy":1},{"contexts":["green","red","blue"],"outcomes":[1,0,1],"key":37,"choice":0,"rt":1482.0000000000582,"outcome":1,"trial":7,"correct":2,"trial_type":"three-arm-trial","trial_index":28,"time_elapsed":455657,"internal_node_id":"0.0-13.0-0.0","task_version":"screening-prolific","missing":false,"accuracy":0},{"contexts":["green","red","blue"],"outcomes":[0,0,1],"key":39,"choice":2,"rt":1527,"outcome":1,"trial":8,"correct":2,"trial_type":"three-arm-trial","trial_index":29,"time_elapsed":458390,"internal_node_id":"0.0-14.0-0.0","task_version":"screening-prolific","missing":false,"accuracy":1},{"contexts":["green","red","blue"],"outcomes":[0,0,1],"key":39,"choice":2,"rt":2440,"outcome":1,"trial":9,"correct":2,"trial_type":"three-arm-trial","trial_index":30,"time_elapsed":462038,"internal_node_id":"0.0-15.0-0.0","task_version":"screening-prolific","missing":false,"accuracy":1},{"contexts":["green","red","blue"],"outcomes":[0,1,1],"key":38,"choice":1,"rt":1137,"outcome":1,"trial":10,"correct":2,"trial_type":"three-arm-trial","trial_index":31,"time_elapsed":464381,"internal_node_id":"0.0-16.0-0.0","task_version":"screening-prolific","missing":false,"accuracy":0},{"contexts":["green","red","blue"],"outcomes":[0,0,1],"key":39,"choice":2,"rt":643.9999999999418,"outcome":1,"trial":11,"correct":2,"trial_type":"three-arm-trial","trial_index":32,"time_elapsed":466231,"internal_node_id":"0.0-17.0-0.0","task_version":"screening-prolific","missing":false,"accuracy":1},{"contexts":["green","red","blue"],"outcomes":[0,0,1],"key":39,"choice":2,"rt":2079.999999999942,"outcome":1,"trial":12,"correct":2,"trial_type":"three-arm-trial","trial_index":33,"time_elapsed":469518,"internal_node_id":"0.0-18.0-0.0","task_version":"screening-prolific","missing":false,"accuracy":1},{"contexts":["green","red","blue"],"outcomes":[0,0,1],"key":39,"choice":2,"rt":625,"outcome":1,"trial":13,"correct":2,"trial_type":"three-arm-trial","trial_index":34,"time_elapsed":471349,"internal_node_id":"0.0-19.0-0.0","task_version":"screening-prolific","missing":false,"accuracy":1},{"contexts":["green","red","blue"],"outcomes":[1,0,1],"key":37,"choice":0,"rt":1310,"outcome":1,"trial":14,"correct":2,"trial_type":"three-arm-trial","trial_index":35,"time_elapsed":473865,"internal_node_id":"0.0-20.0-0.0","task_version":"screening-prolific","missing":false,"accuracy":0},{"contexts":["green","red","blue"],"outcomes":[0,0,1],"key":39,"choice":2,"rt":649,"outcome":1,"trial":15,"correct":2,"trial_type":"three-arm-trial","trial_index":36,"time_elapsed":475720,"internal_node_id":"0.0-21.0-0.0","task_version":"screening-prolific","missing":false,"accuracy":1},{"contexts":["green","red","blue"],"outcomes":[1,0,0],"key":37,"choice":0,"rt":1475.0000000000582,"outcome":1,"trial":16,"correct":0,"trial_type":"three-arm-trial","trial_index":37,"time_elapsed":478402,"internal_node_id":"0.0-22.0-0.0","task_version":"screening-prolific","missing":false,"accuracy":1},{"contexts":["green","red","blue"],"outcomes":[1,1,0],"key":38,"choice":1,"rt":903,"outcome":1,"trial":17,"correct":0,"trial_type":"three-arm-trial","trial_index":38,"time_elapsed":480510,"internal_node_id":"0.0-23.0-0.0","task_version":"screening-prolific","missing":false,"accuracy":0},{"contexts":["green","red","blue"],"outcomes":[1,1,0],"key":38,"choice":1,"rt":1447,"outcome":1,"trial":18,"correct":0,"trial_type":"three-arm-trial","trial_index":39,"time_elapsed":483162,"internal_node_id":"0.0-24.0-0.0","task_version":"screening-prolific","missing":false,"accuracy":0},{"contexts":["green","red","blue"],"outcomes":[0,0,0],"key":39,"choice":2,"rt":1087.0000000000582,"outcome":0,"trial":19,"correct":0,"trial_type":"three-arm-trial","trial_index":40,"time_elapsed":485455,"internal_node_id":"0.0-25.0-0.0","task_version":"screening-prolific","missing":false,"accuracy":0},{"contexts":["green","red","blue"],"outcomes":[1,0,0],"key":37,"choice":0,"rt":686,"outcome":1,"trial":20,"correct":0,"trial_type":"three-arm-trial","trial_index":41,"time_elapsed":487348,"internal_node_id":"0.0-26.0-0.0","task_version":"screening-prolific","missing":false,"accuracy":1},{"contexts":["green","red","blue"],"outcomes":[1,0,0],"key":37,"choice":0,"rt":960,"outcome":1,"trial":21,"correct":0,"trial_type":"three-arm-trial","trial_index":42,"time_elapsed":489515,"internal_node_id":"0.0-27.0-0.0","task_version":"screening-prolific","missing":false,"accuracy":1},{"contexts":["green","red","blue"],"outcomes":[1,1,0],"key":37,"choice":0,"rt":944,"outcome":1,"trial":22,"correct":0,"trial_type":"three-arm-trial","trial_index":43,"time_elapsed":491665,"internal_node_id":"0.0-28.0-0.0","task_version":"screening-prolific","missing":false,"accuracy":1},{"contexts":["green","red","blue"],"outcomes":[1,0,0],"key":37,"choice":0,"rt":977,"outcome":1,"trial":23,"correct":0,"trial_type":"three-arm-trial","trial_index":44,"time_elapsed":493849,"internal_node_id":"0.0-29.0-0.0","task_version":"screening-prolific","missing":false,"accuracy":1},{"contexts":["green","red","blue"],"outcomes":[0,0,0],"key":37,"choice":0,"rt":992,"outcome":0,"trial":24,"correct":0,"trial_type":"three-arm-trial","trial_index":45,"time_elapsed":496046,"internal_node_id":"0.0-30.0-0.0","task_version":"screening-prolific","missing":false,"accuracy":1},{"contexts":["green","red","blue"],"outcomes":[1,0,0],"key":37,"choice":0,"rt":462,"outcome":1,"trial":25,"correct":0,"trial_type":"three-arm-trial","trial_index":46,"time_elapsed":497715,"internal_node_id":"0.0-31.0-0.0","task_version":"screening-prolific","missing":false,"accuracy":1},{"contexts":["green","red","blue"],"outcomes":[1,0,0],"key":37,"choice":0,"rt":469.0000000000582,"outcome":1,"trial":26,"correct":0,"trial_type":"three-arm-trial","trial_index":47,"time_elapsed":499390,"internal_node_id":"0.0-32.0-0.0","task_version":"screening-prolific","missing":false,"accuracy":1},{"contexts":["green","red","blue"],"outcomes":[1,0,0],"key":37,"choice":0,"rt":683,"outcome":1,"trial":27,"correct":0,"trial_type":"three-arm-trial","trial_index":48,"time_elapsed":501281,"internal_node_id":"0.0-33.0-0.0","task_version":"screening-prolific","missing":false,"accuracy":1},{"contexts":["green","red","blue"],"outcomes":[0,1,0],"key":37,"choice":0,"rt":116,"outcome":0,"trial":28,"correct":0,"trial_type":"three-arm-trial","trial_index":49,"time_elapsed":502603,"internal_node_id":"0.0-34.0-0.0","task_version":"screening-prolific","missing":false,"accuracy":1},{"contexts":["green","red","blue"],"outcomes":[1,0,1],"key":39,"choice":2,"rt":2698,"outcome":1,"trial":29,"correct":0,"trial_type":"three-arm-trial","trial_index":50,"time_elapsed":506507,"internal_node_id":"0.0-35.0-0.0","task_version":"screening-prolific","missing":false,"accuracy":0},{"contexts":["green","red","blue"],"outcomes":[0,0,1],"key":39,"choice":2,"rt":482,"outcome":1,"trial":30,"correct":0,"trial_type":"three-arm-trial","trial_index":51,"time_elapsed":508196,"internal_node_id":"0.0-36.0-0.0","task_version":"screening-prolific","missing":false,"accuracy":0},{"contexts":["green","red","blue"],"outcomes":[0,1,1],"key":39,"choice":2,"rt":738,"outcome":1,"trial":31,"correct":2,"trial_type":"three-arm-trial","trial_index":52,"time_elapsed":510140,"internal_node_id":"0.0-37.0-0.0","task_version":"screening-prolific","missing":false,"accuracy":1},{"contexts":["green","red","blue"],"outcomes":[0,0,1],"key":39,"choice":2,"rt":1650,"outcome":1,"trial":32,"correct":2,"trial_type":"three-arm-trial","trial_index":53,"time_elapsed":512997,"internal_node_id":"0.0-38.0-0.0","task_version":"screening-prolific","missing":false,"accuracy":1},{"contexts":["green","red","blue"],"outcomes":[0,0,0],"key":39,"choice":2,"rt":1183,"outcome":0,"trial":33,"correct":2,"trial_type":"three-arm-trial","trial_index":54,"time_elapsed":515387,"internal_node_id":"0.0-39.0-0.0","task_version":"screening-prolific","missing":false,"accuracy":1},{"contexts":["green","red","blue"],"outcomes":[0,0,1],"key":39,"choice":2,"rt":530.0000000000582,"outcome":1,"trial":34,"correct":2,"trial_type":"three-arm-trial","trial_index":55,"time_elapsed":517123,"internal_node_id":"0.0-40.0-0.0","task_version":"screening-prolific","missing":false,"accuracy":1},{"contexts":["green","red","blue"],"outcomes":[1,0,1],"key":39,"choice":2,"rt":2792,"outcome":1,"trial":35,"correct":2,"trial_type":"three-arm-trial","trial_index":56,"time_elapsed":521124,"internal_node_id":"0.0-41.0-0.0","task_version":"screening-prolific","missing":false,"accuracy":1},{"contexts":["green","red","blue"],"outcomes":[0,0,1],"key":39,"choice":2,"rt":1634.9999999999418,"outcome":1,"trial":36,"correct":2,"trial_type":"three-arm-trial","trial_index":57,"time_elapsed":523966,"internal_node_id":"0.0-42.0-0.0","task_version":"screening-prolific","missing":false,"accuracy":1},{"contexts":["green","red","blue"],"outcomes":[0,0,0],"key":39,"choice":2,"rt":3720.0000000001164,"outcome":0,"trial":37,"correct":2,"trial_type":"three-arm-trial","trial_index":58,"time_elapsed":528892,"internal_node_id":"0.0-43.0-0.0","task_version":"screening-prolific","missing":false,"accuracy":1},{"contexts":["green","red","blue"],"outcomes":[0,0,0],"key":39,"choice":2,"rt":464.9999999998836,"outcome":0,"trial":38,"correct":2,"trial_type":"three-arm-trial","trial_index":59,"time_elapsed":530563,"internal_node_id":"0.0-44.0-0.0","task_version":"screening-prolific","missing":false,"accuracy":1},{"contexts":["green","red","blue"],"outcomes":[0,0,1],"key":39,"choice":2,"rt":89,"outcome":1,"trial":39,"correct":2,"trial_type":"three-arm-trial","trial_index":60,"time_elapsed":531859,"internal_node_id":"0.0-45.0-0.0","task_version":"screening-prolific","missing":false,"accuracy":1},{"contexts":["green","red","blue"],"outcomes":[0,0,1],"key":39,"choice":2,"rt":169,"outcome":1,"trial":40,"correct":2,"trial_type":"three-arm-trial","trial_index":61,"time_elapsed":533236,"internal_node_id":"0.0-46.0-0.0","task_version":"screening-prolific","missing":false,"accuracy":1},{"contexts":["green","red","blue"],"outcomes":[1,1,0],"key":39,"choice":2,"rt":189,"outcome":0,"trial":41,"correct":2,"trial_type":"three-arm-trial","trial_index":62,"time_elapsed":534632,"internal_node_id":"0.0-47.0-0.0","task_version":"screening-prolific","missing":false,"accuracy":1},{"contexts":["green","red","blue"],"outcomes":[0,1,1],"key":38,"choice":1,"rt":378,"outcome":1,"trial":42,"correct":2,"trial_type":"three-arm-trial","trial_index":63,"time_elapsed":536215,"internal_node_id":"0.0-48.0-0.0","task_version":"screening-prolific","missing":false,"accuracy":0},{"contexts":["green","red","blue"],"outcomes":[0,1,1],"key":38,"choice":1,"rt":184.99999999988358,"outcome":1,"trial":43,"correct":2,"trial_type":"three-arm-trial","trial_index":64,"time_elapsed":537606,"internal_node_id":"0.0-49.0-0.0","task_version":"screening-prolific","missing":false,"accuracy":0},{"contexts":["green","red","blue"],"outcomes":[0,0,1],"key":39,"choice":2,"rt":0,"outcome":1,"trial":44,"correct":2,"trial_type":"three-arm-trial","trial_index":65,"time_elapsed":538813,"internal_node_id":"0.0-50.0-0.0","task_version":"screening-prolific","missing":false,"accuracy":1},{"contexts":["green","red","blue"],"outcomes":[0,1,1],"key":39,"choice":2,"rt":50,"outcome":1,"trial":45,"correct":2,"trial_type":"three-arm-trial","trial_index":66,"time_elapsed":540069,"internal_node_id":"0.0-51.0-0.0","task_version":"screening-prolific","missing":false,"accuracy":1},{"contexts":["green","red","blue"],"outcomes":[0,1,0],"key":39,"choice":2,"rt":22.000000000116415,"outcome":0,"trial":46,"correct":1,"trial_type":"three-arm-trial","trial_index":67,"time_elapsed":541296,"internal_node_id":"0.0-52.0-0.0","task_version":"screening-prolific","missing":false,"accuracy":0},{"contexts":["green","red","blue"],"outcomes":[0,0,1],"key":38,"choice":1,"rt":65,"outcome":0,"trial":47,"correct":1,"trial_type":"three-arm-trial","trial_index":68,"time_elapsed":542566,"internal_node_id":"0.0-53.0-0.0","task_version":"screening-prolific","missing":false,"accuracy":1},{"contexts":["green","red","blue"],"outcomes":[1,0,0],"key":39,"choice":2,"rt":51.999999999883585,"outcome":0,"trial":48,"correct":1,"trial_type":"three-arm-trial","trial_index":69,"time_elapsed":543824,"internal_node_id":"0.0-54.0-0.0","task_version":"screening-prolific","missing":false,"accuracy":0},{"contexts":["green","red","blue"],"outcomes":[0,1,0],"key":37,"choice":0,"rt":44.000000000116415,"outcome":0,"trial":49,"correct":1,"trial_type":"three-arm-trial","trial_index":70,"time_elapsed":545076,"internal_node_id":"0.0-55.0-0.0","task_version":"screening-prolific","missing":false,"accuracy":0},{"contexts":["green","red","blue"],"outcomes":[1,1,0],"key":38,"choice":1,"rt":82,"outcome":1,"trial":50,"correct":1,"trial_type":"three-arm-trial","trial_index":71,"time_elapsed":546364,"internal_node_id":"0.0-56.0-0.0","task_version":"screening-prolific","missing":false,"accuracy":1},{"contexts":["green","red","blue"],"outcomes":[0,0,0],"key":37,"choice":0,"rt":0,"outcome":0,"trial":51,"correct":1,"trial_type":"three-arm-trial","trial_index":72,"time_elapsed":547571,"internal_node_id":"0.0-57.0-0.0","task_version":"screening-prolific","missing":false,"accuracy":0},{"contexts":["green","red","blue"],"outcomes":[1,0,0],"key":37,"choice":0,"rt":1010,"outcome":1,"trial":52,"correct":1,"trial_type":"three-arm-trial","trial_index":73,"time_elapsed":549787,"internal_node_id":"0.0-58.0-0.0","task_version":"screening-prolific","missing":false,"accuracy":0},{"contexts":["green","red","blue"],"outcomes":[0,1,0],"key":38,"choice":1,"rt":8640.999999999884,"outcome":1,"trial":53,"correct":1,"trial_type":"three-arm-trial","trial_index":74,"time_elapsed":559634,"internal_node_id":"0.0-59.0-0.0","task_version":"screening-prolific","missing":false,"accuracy":1},{"contexts":["green","red","blue"],"outcomes":[0,1,0],"key":38,"choice":1,"rt":358,"outcome":1,"trial":54,"correct":1,"trial_type":"three-arm-trial","trial_index":75,"time_elapsed":561199,"internal_node_id":"0.0-60.0-0.0","task_version":"screening-prolific","missing":false,"accuracy":1},{"contexts":["green","red","blue"],"outcomes":[1,1,0],"key":38,"choice":1,"rt":162,"outcome":1,"trial":55,"correct":1,"trial_type":"three-arm-trial","trial_index":76,"time_elapsed":562566,"internal_node_id":"0.0-61.0-0.0","task_version":"screening-prolific","missing":false,"accuracy":1},{"contexts":["green","red","blue"],"outcomes":[0,1,1],"key":38,"choice":1,"rt":125,"outcome":1,"trial":56,"correct":1,"trial_type":"three-arm-trial","trial_index":77,"time_elapsed":563898,"internal_node_id":"0.0-62.0-0.0","task_version":"screening-prolific","missing":false,"accuracy":1},{"contexts":["green","red","blue"],"outcomes":[0,1,1],"key":38,"choice":1,"rt":183,"outcome":1,"trial":57,"correct":1,"trial_type":"three-arm-trial","trial_index":78,"time_elapsed":565287,"internal_node_id":"0.0-63.0-0.0","task_version":"screening-prolific","missing":false,"accuracy":1},{"contexts":["green","red","blue"],"outcomes":[0,1,1],"key":38,"choice":1,"rt":102.99999999988358,"outcome":1,"trial":58,"correct":1,"trial_type":"three-arm-trial","trial_index":79,"time_elapsed":566596,"internal_node_id":"0.0-64.0-0.0","task_version":"screening-prolific","missing":false,"accuracy":1},{"contexts":["green","red","blue"],"outcomes":[1,1,0],"key":38,"choice":1,"rt":114.00000000011642,"outcome":1,"trial":59,"correct":1,"trial_type":"three-arm-trial","trial_index":80,"time_elapsed":567917,"internal_node_id":"0.0-65.0-0.0","task_version":"screening-prolific","missing":false,"accuracy":1},{"contexts":["green","red","blue"],"outcomes":[1,1,0],"key":38,"choice":1,"rt":462.9999999998836,"outcome":1,"trial":60,"correct":1,"trial_type":"three-arm-trial","trial_index":81,"time_elapsed":569587,"internal_node_id":"0.0-66.0-0.0","task_version":"screening-prolific","missing":false,"accuracy":1},{"contexts":["green","red","blue"],"outcomes":[0,0,0],"key":37,"choice":0,"rt":1738,"outcome":0,"trial":61,"correct":2,"trial_type":"three-arm-trial","trial_index":82,"time_elapsed":572531,"internal_node_id":"0.0-67.0-0.0","task_version":"screening-prolific","missing":false,"accuracy":0},{"contexts":["green","red","blue"],"outcomes":[0,0,1],"key":37,"choice":0,"rt":80,"outcome":0,"trial":62,"correct":2,"trial_type":"three-arm-trial","trial_index":83,"time_elapsed":573817,"internal_node_id":"0.0-68.0-0.0","task_version":"screening-prolific","missing":false,"accuracy":0},{"contexts":["green","red","blue"],"outcomes":[0,0,1],"key":39,"choice":2,"rt":175,"outcome":1,"trial":63,"correct":2,"trial_type":"three-arm-trial","trial_index":84,"time_elapsed":575198,"internal_node_id":"0.0-69.0-0.0","task_version":"screening-prolific","missing":false,"accuracy":1},{"contexts":["green","red","blue"],"outcomes":[0,0,1],"key":39,"choice":2,"rt":202,"outcome":1,"trial":64,"correct":2,"trial_type":"three-arm-trial","trial_index":85,"time_elapsed":576607,"internal_node_id":"0.0-70.0-0.0","task_version":"screening-prolific","missing":false,"accuracy":1},{"contexts":["green","red","blue"],"outcomes":[0,1,0],"key":38,"choice":1,"rt":983.0000000001164,"outcome":1,"trial":65,"correct":2,"trial_type":"three-arm-trial","trial_index":86,"time_elapsed":578796,"internal_node_id":"0.0-71.0-0.0","task_version":"screening-prolific","missing":false,"accuracy":0},{"contexts":["green","red","blue"],"outcomes":[0,0,1],"key":39,"choice":2,"rt":552,"outcome":1,"trial":66,"correct":2,"trial_type":"three-arm-trial","trial_index":87,"time_elapsed":580555,"internal_node_id":"0.0-72.0-0.0","task_version":"screening-prolific","missing":false,"accuracy":1},{"contexts":["green","red","blue"],"outcomes":[0,0,1],"key":39,"choice":2,"rt":526,"outcome":1,"trial":67,"correct":2,"trial_type":"three-arm-trial","trial_index":88,"time_elapsed":582288,"internal_node_id":"0.0-73.0-0.0","task_version":"screening-prolific","missing":false,"accuracy":1},{"contexts":["green","red","blue"],"outcomes":[0,1,1],"key":39,"choice":2,"rt":86,"outcome":1,"trial":68,"correct":2,"trial_type":"three-arm-trial","trial_index":89,"time_elapsed":583581,"internal_node_id":"0.0-74.0-0.0","task_version":"screening-prolific","missing":false,"accuracy":1},{"contexts":["green","red","blue"],"outcomes":[0,0,1],"key":39,"choice":2,"rt":342,"outcome":1,"trial":69,"correct":2,"trial_type":"three-arm-trial","trial_index":90,"time_elapsed":585129,"internal_node_id":"0.0-75.0-0.0","task_version":"screening-prolific","missing":false,"accuracy":1},{"contexts":["green","red","blue"],"outcomes":[0,0,1],"key":39,"choice":2,"rt":281,"outcome":1,"trial":70,"correct":2,"trial_type":"three-arm-trial","trial_index":91,"time_elapsed":586617,"internal_node_id":"0.0-76.0-0.0","task_version":"screening-prolific","missing":false,"accuracy":1},{"contexts":["green","red","blue"],"outcomes":[0,1,1],"key":39,"choice":2,"rt":310,"outcome":1,"trial":71,"correct":2,"trial_type":"three-arm-trial","trial_index":92,"time_elapsed":588134,"internal_node_id":"0.0-77.0-0.0","task_version":"screening-prolific","missing":false,"accuracy":1},{"contexts":["green","red","blue"],"outcomes":[0,0,1],"key":39,"choice":2,"rt":349,"outcome":1,"trial":72,"correct":2,"trial_type":"three-arm-trial","trial_index":93,"time_elapsed":589689,"internal_node_id":"0.0-78.0-0.0","task_version":"screening-prolific","missing":false,"accuracy":1},{"contexts":["green","red","blue"],"outcomes":[0,0,1],"key":39,"choice":2,"rt":386,"outcome":1,"trial":73,"correct":2,"trial_type":"three-arm-trial","trial_index":94,"time_elapsed":591282,"internal_node_id":"0.0-79.0-0.0","task_version":"screening-prolific","missing":false,"accuracy":1},{"contexts":["green","red","blue"],"outcomes":[0,0,1],"key":39,"choice":2,"rt":99,"outcome":1,"trial":74,"correct":2,"trial_type":"three-arm-trial","trial_index":95,"time_elapsed":592587,"internal_node_id":"0.0-80.0-0.0","task_version":"screening-prolific","missing":false,"accuracy":1},{"contexts":["green","red","blue"],"outcomes":[0,0,1],"key":39,"choice":2,"rt":375,"outcome":1,"trial":75,"correct":2,"trial_type":"three-arm-trial","trial_index":96,"time_elapsed":594168,"internal_node_id":"0.0-81.0-0.0","task_version":"screening-prolific","missing":false,"accuracy":1},{"contexts":["green","red","blue"],"outcomes":[0,1,0],"key":39,"choice":2,"rt":347.9999999998836,"outcome":0,"trial":76,"correct":1,"trial_type":"three-arm-trial","trial_index":97,"time_elapsed":595722,"internal_node_id":"0.0-82.0-0.0","task_version":"screening-prolific","missing":false,"accuracy":0},{"contexts":["green","red","blue"],"outcomes":[0,0,0],"key":38,"choice":1,"rt":494,"outcome":0,"trial":77,"correct":1,"trial_type":"three-arm-trial","trial_index":98,"time_elapsed":597424,"internal_node_id":"0.0-83.0-0.0","task_version":"screening-prolific","missing":false,"accuracy":1},{"contexts":["green","red","blue"],"outcomes":[1,1,1],"key":38,"choice":1,"rt":1016,"outcome":1,"trial":78,"correct":1,"trial_type":"three-arm-trial","trial_index":99,"time_elapsed":599647,"internal_node_id":"0.0-84.0-0.0","task_version":"screening-prolific","missing":false,"accuracy":1},{"contexts":["green","red","blue"],"outcomes":[0,1,0],"key":38,"choice":1,"rt":564.0000000001164,"outcome":1,"trial":79,"correct":1,"trial_type":"three-arm-trial","trial_index":100,"time_elapsed":601418,"internal_node_id":"0.0-85.0-0.0","task_version":"screening-prolific","missing":false,"accuracy":1},{"contexts":["green","red","blue"],"outcomes":[0,1,1],"key":38,"choice":1,"rt":862.9999999998836,"outcome":1,"trial":80,"correct":1,"trial_type":"three-arm-trial","trial_index":101,"time_elapsed":603487,"internal_node_id":"0.0-86.0-0.0","task_version":"screening-prolific","missing":false,"accuracy":1},{"contexts":["green","red","blue"],"outcomes":[0,0,1],"key":39,"choice":2,"rt":488,"outcome":1,"trial":81,"correct":1,"trial_type":"three-arm-trial","trial_index":102,"time_elapsed":605182,"internal_node_id":"0.0-87.0-0.0","task_version":"screening-prolific","missing":false,"accuracy":0},{"contexts":["green","red","blue"],"outcomes":[0,1,0],"key":38,"choice":1,"rt":637,"outcome":1,"trial":82,"correct":1,"trial_type":"three-arm-trial","trial_index":103,"time_elapsed":607024,"internal_node_id":"0.0-88.0-0.0","task_version":"screening-prolific","missing":false,"accuracy":1},{"contexts":["green","red","blue"],"outcomes":[1,0,0],"key":37,"choice":0,"rt":1917.0000000001164,"outcome":1,"trial":83,"correct":1,"trial_type":"three-arm-trial","trial_index":104,"time_elapsed":610149,"internal_node_id":"0.0-89.0-0.0","task_version":"screening-prolific","missing":false,"accuracy":0},{"contexts":["green","red","blue"],"outcomes":[0,1,0],"key":37,"choice":0,"rt":148,"outcome":0,"trial":84,"correct":1,"trial_type":"three-arm-trial","trial_index":105,"time_elapsed":611503,"internal_node_id":"0.0-90.0-0.0","task_version":"screening-prolific","missing":false,"accuracy":0},{"contexts":["green","red","blue"],"outcomes":[0,1,0],"key":38,"choice":1,"rt":21,"outcome":1,"trial":85,"correct":1,"trial_type":"three-arm-trial","trial_index":106,"time_elapsed":612729,"internal_node_id":"0.0-91.0-0.0","task_version":"screening-prolific","missing":false,"accuracy":1},{"contexts":["green","red","blue"],"outcomes":[1,1,1],"key":38,"choice":1,"rt":0,"outcome":1,"trial":86,"correct":1,"trial_type":"three-arm-trial","trial_index":107,"time_elapsed":613936,"internal_node_id":"0.0-92.0-0.0","task_version":"screening-prolific","missing":false,"accuracy":1},{"contexts":["green","red","blue"],"outcomes":[1,1,1],"key":39,"choice":2,"rt":150.00000000011642,"outcome":1,"trial":87,"correct":1,"trial_type":"three-arm-trial","trial_index":108,"time_elapsed":615293,"internal_node_id":"0.0-93.0-0.0","task_version":"screening-prolific","missing":false,"accuracy":0},{"contexts":["green","red","blue"],"outcomes":[0,1,0],"key":39,"choice":2,"rt":199.99999999988358,"outcome":0,"trial":88,"correct":1,"trial_type":"three-arm-trial","trial_index":109,"time_elapsed":616699,"internal_node_id":"0.0-94.0-0.0","task_version":"screening-prolific","missing":false,"accuracy":0},{"contexts":["green","red","blue"],"outcomes":[0,1,0],"key":38,"choice":1,"rt":22,"outcome":1,"trial":89,"correct":1,"trial_type":"three-arm-trial","trial_index":110,"time_elapsed":617926,"internal_node_id":"0.0-95.0-0.0","task_version":"screening-prolific","missing":false,"accuracy":1},{"contexts":["green","red","blue"],"outcomes":[0,1,0],"key":37,"choice":0,"rt":44,"outcome":0,"trial":90,"correct":1,"trial_type":"three-arm-trial","trial_index":111,"time_elapsed":619177,"internal_node_id":"0.0-96.0-0.0","task_version":"screening-prolific","missing":false,"accuracy":0},{"rt":31856.000000000116,"responses":{"age":"21","gender-categorical":"Female","gender-free-response":"","ethnicity":"Not Hispanic or Latino","race":["White"],"language":"Yes","fluency":"Very well","mturk":"No","mturk-this-study":"No"},"survey":"demographics","trial_type":"survey-demo","trial_index":112,"time_elapsed":651045,"internal_node_id":"0.0-97.0","task_version":"screening-prolific","interactions":"[]"}]