[{"responses":{"Q13":"1","Q01":"0","Q08":"0","Q04":"0","Q10":"1","Q09":"0","Q07":"1","Q06":"0","Q02":"0","Q12":"0","Q03":"1","Q11":"0","Q14":"0","Q05":"0","Q15":"0"},"rt":103277.814999994,"survey":"7up7down","trial_type":"survey-template","trial_index":0,"time_elapsed":103304,"internal_node_id":"0.0-0.0","task_version":"screening-prolific"},{"responses":{"Q02":"1","Q01":"2","Q03":"1"},"rt":14591.249999997672,"survey":"pswq","trial_type":"survey-template","trial_index":1,"time_elapsed":117904,"internal_node_id":"0.0-1.0","task_version":"screening-prolific"},{"responses":{"Q11":"3","Q09":"3","Q12":"3","Q10":"3","Q15":"3","Q08":"3","Q02":"3","Q06":"3","Q04":"2","Q01":"1","Q03":"3","Q13":"3","Q07":"3","Q14":"3","Q05":"3"},"rt":57951.02499998757,"survey":"shaps","trial_type":"survey-template","trial_index":2,"time_elapsed":175864,"internal_node_id":"0.0-2.0","task_version":"screening-prolific"},{"responses":{"Q06":"3","Q09":"1","Q02":"2","Q11":"1","Q04":"2","Q13":"3","Q07":"3","Q10":"1","Q05":"3","Q08":"2","Q01":"2","Q12":"1","Q03":"2"},"rt":51550.37499999162,"survey":"bisbas","trial_type":"survey-template","trial_index":3,"time_elapsed":227424,"internal_node_id":"0.0-3.0","task_version":"screening-prolific"},{"responses":{"Q02":"1","Q05":"0","Q01":"1","Q03":"1","Q08":"0","Q06":"1","Q07":"1","Q04":"1"},"rt":28158.244999998715,"survey":"gad7","trial_type":"survey-template","trial_index":4,"time_elapsed":255594,"internal_node_id":"0.0-4.0","task_version":"screening-prolific"},{"view_history":"[{\"page_index\":0,\"viewing_time\":5388.120000003255},{\"page_index\":1,\"viewing_time\":11480.42500000156},{\"page_index\":2,\"viewing_time\":5583.985000004759},{\"page_index\":1,\"viewing_time\":3953.0699999886565},{\"page_index\":2,\"viewing_time\":4147.8000000061},{\"page_index\":3,\"viewing_time\":5082.080000007409},{\"page_index\":4,\"viewing_time\":5226.454999996349},{\"page_index\":5,\"viewing_time\":5416.539999991073},{\"page_index\":6,\"viewing_time\":4013.68000000366},{\"page_index\":7,\"viewing_time\":4978.600000002189}]","rt":55271.81500000006,"trial_type":"instructions","trial_index":5,"time_elapsed":310869,"internal_node_id":"0.0-5.0-0.0","task_version":"screening-prolific"},{"responses":["True","True","False","False","True"],"num_errors":0,"rt":30270.17999999225,"trial_type":"three-arm-comprehension","trial_index":6,"time_elapsed":341148,"internal_node_id":"0.0-5.0-1.0","task_version":"screening-prolific"},{"view_history":"[{\"page_index\":0,\"viewing_time\":3796.3500000041677}]","rt":3796.9799999991665,"trial_type":"instructions","trial_index":7,"time_elapsed":344955,"internal_node_id":"0.0-6.0","task_version":"screening-prolific"},{"contexts":["blue","green","red"],"outcomes":[0,0,0],"key":null,"rt":null,"trial":1,"correct":0,"trial_type":"three-arm-trial","trial_index":8,"time_elapsed":359965,"internal_node_id":"0.0-7.0-0.0","task_version":"screening-prolific","missing":true},{"contexts":["blue","green","red"],"outcomes":[0,0,0],"key":37,"choice":0,"rt":987.8850000095554,"outcome":0,"trial":1,"correct":0,"trial_type":"three-arm-trial","trial_index":9,"time_elapsed":362162,"internal_node_id":"0.0-7.1-0.1","task_version":"screening-prolific","missing":false,"accuracy":1},{"contexts":["blue","green","red"],"outcomes":[1,1,0],"key":39,"choice":2,"rt":17.319999999017455,"outcome":0,"trial":2,"correct":0,"trial_type":"three-arm-trial","trial_index":10,"time_elapsed":363384,"internal_node_id":"0.0-8.0-0.0","task_version":"screening-prolific","missing":false,"accuracy":0},{"contexts":["blue","green","red"],"outcomes":[0,1,0],"key":37,"choice":0,"rt":60.645000005024485,"outcome":0,"trial":3,"correct":0,"trial_type":"three-arm-trial","trial_index":11,"time_elapsed":364649,"internal_node_id":"0.0-9.0-0.0","task_version":"screening-prolific","missing":false,"accuracy":1},{"contexts":["blue","green","red"],"outcomes":[0,0,0],"key":38,"choice":1,"rt":885.6050000031246,"outcome":0,"trial":4,"correct":0,"trial_type":"three-arm-trial","trial_index":12,"time_elapsed":366740,"internal_node_id":"0.0-10.0-0.0","task_version":"screening-prolific","missing":false,"accuracy":0},{"contexts":["blue","green","red"],"outcomes":[1,0,0],"key":38,"choice":1,"rt":625.6699999939883,"outcome":0,"trial":5,"correct":0,"trial_type":"three-arm-trial","trial_index":13,"time_elapsed":368571,"internal_node_id":"0.0-11.0-0.0","task_version":"screening-prolific","missing":false,"accuracy":0},{"contexts":["blue","green","red"],"outcomes":[1,1,0],"key":37,"choice":0,"rt":1574.269999997341,"outcome":1,"trial":6,"correct":0,"trial_type":"three-arm-trial","trial_index":14,"time_elapsed":371354,"internal_node_id":"0.0-12.0-0.0","task_version":"screening-prolific","missing":false,"accuracy":1},{"contexts":["blue","green","red"],"outcomes":[1,1,1],"key":37,"choice":0,"rt":593.5049999970943,"outcome":1,"trial":7,"correct":0,"trial_type":"three-arm-trial","trial_index":15,"time_elapsed":373157,"internal_node_id":"0.0-13.0-0.0","task_version":"screening-prolific","missing":false,"accuracy":1},{"contexts":["blue","green","red"],"outcomes":[1,0,0],"key":37,"choice":0,"rt":1020.6099999923026,"outcome":1,"trial":8,"correct":0,"trial_type":"three-arm-trial","trial_index":16,"time_elapsed":375381,"internal_node_id":"0.0-14.0-0.0","task_version":"screening-prolific","missing":false,"accuracy":1},{"contexts":["blue","green","red"],"outcomes":[1,0,0],"key":37,"choice":0,"rt":944.9599999934435,"outcome":1,"trial":9,"correct":0,"trial_type":"three-arm-trial","trial_index":17,"time_elapsed":377533,"internal_node_id":"0.0-15.0-0.0","task_version":"screening-prolific","missing":false,"accuracy":1},{"contexts":["blue","green","red"],"outcomes":[1,0,0],"key":39,"choice":2,"rt":424.80500000237953,"outcome":0,"trial":10,"correct":0,"trial_type":"three-arm-trial","trial_index":18,"time_elapsed":379166,"internal_node_id":"0.0-16.0-0.0","task_version":"screening-prolific","missing":false,"accuracy":0},{"contexts":["blue","green","red"],"outcomes":[1,0,1],"key":37,"choice":0,"rt":440.1099999959115,"outcome":1,"trial":11,"correct":0,"trial_type":"three-arm-trial","trial_index":19,"time_elapsed":380811,"internal_node_id":"0.0-17.0-0.0","task_version":"screening-prolific","missing":false,"accuracy":1},{"contexts":["blue","green","red"],"outcomes":[1,0,0],"key":38,"choice":1,"rt":410.88500000478234,"outcome":0,"trial":12,"correct":0,"trial_type":"three-arm-trial","trial_index":20,"time_elapsed":382427,"internal_node_id":"0.0-18.0-0.0","task_version":"screening-prolific","missing":false,"accuracy":0},{"contexts":["blue","green","red"],"outcomes":[1,1,0],"key":37,"choice":0,"rt":232.8399999969406,"outcome":1,"trial":13,"correct":0,"trial_type":"three-arm-trial","trial_index":21,"time_elapsed":383869,"internal_node_id":"0.0-19.0-0.0","task_version":"screening-prolific","missing":false,"accuracy":1},{"contexts":["blue","green","red"],"outcomes":[1,0,0],"key":37,"choice":0,"rt":276.4949999982491,"outcome":1,"trial":14,"correct":0,"trial_type":"three-arm-trial","trial_index":22,"time_elapsed":385352,"internal_node_id":"0.0-20.0-0.0","task_version":"screening-prolific","missing":false,"accuracy":1},{"contexts":["blue","green","red"],"outcomes":[0,0,1],"key":37,"choice":0,"rt":246.6149999963818,"outcome":0,"trial":15,"correct":0,"trial_type":"three-arm-trial","trial_index":23,"time_elapsed":386807,"internal_node_id":"0.0-21.0-0.0","task_version":"screening-prolific","missing":false,"accuracy":1},{"contexts":["blue","green","red"],"outcomes":[0,0,1],"key":37,"choice":0,"rt":309.7750000015367,"outcome":0,"trial":16,"correct":2,"trial_type":"three-arm-trial","trial_index":24,"time_elapsed":388323,"internal_node_id":"0.0-22.0-0.0","task_version":"screening-prolific","missing":false,"accuracy":0},{"contexts":["blue","green","red"],"outcomes":[0,0,1],"key":39,"choice":2,"rt":128.55000000854488,"outcome":1,"trial":17,"correct":2,"trial_type":"three-arm-trial","trial_index":25,"time_elapsed":389658,"internal_node_id":"0.0-23.0-0.0","task_version":"screening-prolific","missing":false,"accuracy":1},{"contexts":["blue","green","red"],"outcomes":[1,0,1],"key":39,"choice":2,"rt":260.920000000624,"outcome":1,"trial":18,"correct":2,"trial_type":"three-arm-trial","trial_index":26,"time_elapsed":391125,"internal_node_id":"0.0-24.0-0.0","task_version":"screening-prolific","missing":false,"accuracy":1},{"contexts":["blue","green","red"],"outcomes":[0,0,1],"key":39,"choice":2,"rt":158.37000000465196,"outcome":1,"trial":19,"correct":2,"trial_type":"three-arm-trial","trial_index":27,"time_elapsed":392489,"internal_node_id":"0.0-25.0-0.0","task_version":"screening-prolific","missing":false,"accuracy":1},{"contexts":["blue","green","red"],"outcomes":[0,0,1],"key":39,"choice":2,"rt":172.05500000272878,"outcome":1,"trial":20,"correct":2,"trial_type":"three-arm-trial","trial_index":28,"time_elapsed":393868,"internal_node_id":"0.0-26.0-0.0","task_version":"screening-prolific","missing":false,"accuracy":1},{"contexts":["blue","green","red"],"outcomes":[0,0,1],"key":39,"choice":2,"rt":64.70500001159962,"outcome":1,"trial":21,"correct":2,"trial_type":"three-arm-trial","trial_index":29,"time_elapsed":395143,"internal_node_id":"0.0-27.0-0.0","task_version":"screening-prolific","missing":false,"accuracy":1},{"contexts":["blue","green","red"],"outcomes":[0,0,1],"key":39,"choice":2,"rt":92.14500000234693,"outcome":1,"trial":22,"correct":2,"trial_type":"three-arm-trial","trial_index":30,"time_elapsed":396444,"internal_node_id":"0.0-28.0-0.0","task_version":"screening-prolific","missing":false,"accuracy":1},{"contexts":["blue","green","red"],"outcomes":[0,0,1],"key":39,"choice":2,"rt":194.7000000072876,"outcome":1,"trial":23,"correct":2,"trial_type":"three-arm-trial","trial_index":31,"time_elapsed":397844,"internal_node_id":"0.0-29.0-0.0","task_version":"screening-prolific","missing":false,"accuracy":1},{"contexts":["blue","green","red"],"outcomes":[1,0,1],"key":39,"choice":2,"rt":250.87999999232125,"outcome":1,"trial":24,"correct":2,"trial_type":"three-arm-trial","trial_index":32,"time_elapsed":399301,"internal_node_id":"0.0-30.0-0.0","task_version":"screening-prolific","missing":false,"accuracy":1},{"contexts":["blue","green","red"],"outcomes":[0,0,1],"key":39,"choice":2,"rt":115.79499999061227,"outcome":1,"trial":25,"correct":2,"trial_type":"three-arm-trial","trial_index":33,"time_elapsed":400624,"internal_node_id":"0.0-31.0-0.0","task_version":"screening-prolific","missing":false,"accuracy":1},{"contexts":["blue","green","red"],"outcomes":[0,0,1],"key":39,"choice":2,"rt":243.4100000100443,"outcome":1,"trial":26,"correct":2,"trial_type":"three-arm-trial","trial_index":34,"time_elapsed":402075,"internal_node_id":"0.0-32.0-0.0","task_version":"screening-prolific","missing":false,"accuracy":1},{"contexts":["blue","green","red"],"outcomes":[0,0,1],"key":39,"choice":2,"rt":306.82500000693835,"outcome":1,"trial":27,"correct":2,"trial_type":"three-arm-trial","trial_index":35,"time_elapsed":403588,"internal_node_id":"0.0-33.0-0.0","task_version":"screening-prolific","missing":false,"accuracy":1},{"contexts":["blue","green","red"],"outcomes":[0,0,1],"key":39,"choice":2,"rt":275.1049999933457,"outcome":1,"trial":28,"correct":2,"trial_type":"three-arm-trial","trial_index":36,"time_elapsed":405071,"internal_node_id":"0.0-34.0-0.0","task_version":"screening-prolific","missing":false,"accuracy":1},{"contexts":["blue","green","red"],"outcomes":[0,0,1],"key":39,"choice":2,"rt":229.61000000941567,"outcome":1,"trial":29,"correct":2,"trial_type":"three-arm-trial","trial_index":37,"time_elapsed":406506,"internal_node_id":"0.0-35.0-0.0","task_version":"screening-prolific","missing":false,"accuracy":1},{"contexts":["blue","green","red"],"outcomes":[0,0,1],"key":39,"choice":2,"rt":265.7899999903748,"outcome":1,"trial":30,"correct":2,"trial_type":"three-arm-trial","trial_index":38,"time_elapsed":407978,"internal_node_id":"0.0-36.0-0.0","task_version":"screening-prolific","missing":false,"accuracy":1},{"contexts":["blue","green","red"],"outcomes":[0,1,0],"key":39,"choice":2,"rt":176.21499999950174,"outcome":0,"trial":31,"correct":1,"trial_type":"three-arm-trial","trial_index":39,"time_elapsed":409362,"internal_node_id":"0.0-37.0-0.0","task_version":"screening-prolific","missing":false,"accuracy":0},{"contexts":["blue","green","red"],"outcomes":[0,1,0],"key":39,"choice":2,"rt":171.11999999906402,"outcome":0,"trial":32,"correct":1,"trial_type":"three-arm-trial","trial_index":40,"time_elapsed":410738,"internal_node_id":"0.0-38.0-0.0","task_version":"screening-prolific","missing":false,"accuracy":0},{"contexts":["blue","green","red"],"outcomes":[0,1,1],"key":37,"choice":0,"rt":291.9850000034785,"outcome":0,"trial":33,"correct":1,"trial_type":"three-arm-trial","trial_index":41,"time_elapsed":412236,"internal_node_id":"0.0-39.0-0.0","task_version":"screening-prolific","missing":false,"accuracy":0},{"contexts":["blue","green","red"],"outcomes":[0,1,0],"key":37,"choice":0,"rt":86.86500000476371,"outcome":0,"trial":34,"correct":1,"trial_type":"three-arm-trial","trial_index":42,"time_elapsed":413528,"internal_node_id":"0.0-40.0-0.0","task_version":"screening-prolific","missing":false,"accuracy":0},{"contexts":["blue","green","red"],"outcomes":[0,0,0],"key":38,"choice":1,"rt":362.9849999997532,"outcome":0,"trial":35,"correct":1,"trial_type":"three-arm-trial","trial_index":43,"time_elapsed":415097,"internal_node_id":"0.0-41.0-0.0","task_version":"screening-prolific","missing":false,"accuracy":1},{"contexts":["blue","green","red"],"outcomes":[0,1,0],"key":38,"choice":1,"rt":14.979999992647208,"outcome":1,"trial":36,"correct":1,"trial_type":"three-arm-trial","trial_index":44,"time_elapsed":416316,"internal_node_id":"0.0-42.0-0.0","task_version":"screening-prolific","missing":false,"accuracy":1},{"contexts":["blue","green","red"],"outcomes":[0,0,0],"key":38,"choice":1,"rt":15.979999996488914,"outcome":0,"trial":37,"correct":1,"trial_type":"three-arm-trial","trial_index":45,"time_elapsed":417546,"internal_node_id":"0.0-43.0-0.0","task_version":"screening-prolific","missing":false,"accuracy":1},{"contexts":["blue","green","red"],"outcomes":[0,1,1],"key":38,"choice":1,"rt":815.2200000040466,"outcome":1,"trial":38,"correct":1,"trial_type":"three-arm-trial","trial_index":46,"time_elapsed":419568,"internal_node_id":"0.0-44.0-0.0","task_version":"screening-prolific","missing":false,"accuracy":1},{"contexts":["blue","green","red"],"outcomes":[1,1,1],"key":38,"choice":1,"rt":688.5299999994459,"outcome":1,"trial":39,"correct":1,"trial_type":"three-arm-trial","trial_index":47,"time_elapsed":421462,"internal_node_id":"0.0-45.0-0.0","task_version":"screening-prolific","missing":false,"accuracy":1},{"contexts":["blue","green","red"],"outcomes":[1,1,0],"key":38,"choice":1,"rt":532.7699999907054,"outcome":1,"trial":40,"correct":1,"trial_type":"three-arm-trial","trial_index":48,"time_elapsed":423203,"internal_node_id":"0.0-46.0-0.0","task_version":"screening-prolific","missing":false,"accuracy":1},{"contexts":["blue","green","red"],"outcomes":[0,1,0],"key":38,"choice":1,"rt":1245.230000000447,"outcome":1,"trial":41,"correct":1,"trial_type":"three-arm-trial","trial_index":49,"time_elapsed":425655,"internal_node_id":"0.0-47.0-0.0","task_version":"screening-prolific","missing":false,"accuracy":1},{"contexts":["blue","green","red"],"outcomes":[0,1,0],"key":38,"choice":1,"rt":499.95500000659376,"outcome":1,"trial":42,"correct":1,"trial_type":"three-arm-trial","trial_index":50,"time_elapsed":427361,"internal_node_id":"0.0-48.0-0.0","task_version":"screening-prolific","missing":false,"accuracy":1},{"contexts":["blue","green","red"],"outcomes":[0,1,0],"key":38,"choice":1,"rt":374.7250000014901,"outcome":1,"trial":43,"correct":1,"trial_type":"three-arm-trial","trial_index":51,"time_elapsed":428942,"internal_node_id":"0.0-49.0-0.0","task_version":"screening-prolific","missing":false,"accuracy":1},{"contexts":["blue","green","red"],"outcomes":[0,1,0],"key":38,"choice":1,"rt":299.7799999866402,"outcome":1,"trial":44,"correct":1,"trial_type":"three-arm-trial","trial_index":52,"time_elapsed":430447,"internal_node_id":"0.0-50.0-0.0","task_version":"screening-prolific","missing":false,"accuracy":1},{"contexts":["blue","green","red"],"outcomes":[0,1,0],"key":38,"choice":1,"rt":280.5999999982305,"outcome":1,"trial":45,"correct":1,"trial_type":"three-arm-trial","trial_index":53,"time_elapsed":431931,"internal_node_id":"0.0-51.0-0.0","task_version":"screening-prolific","missing":false,"accuracy":1},{"contexts":["blue","green","red"],"outcomes":[0,0,1],"key":38,"choice":1,"rt":273.9550000114832,"outcome":0,"trial":46,"correct":2,"trial_type":"three-arm-trial","trial_index":54,"time_elapsed":433411,"internal_node_id":"0.0-52.0-0.0","task_version":"screening-prolific","missing":false,"accuracy":0},{"contexts":["blue","green","red"],"outcomes":[1,0,1],"key":37,"choice":0,"rt":868.3000000019092,"outcome":1,"trial":47,"correct":2,"trial_type":"three-arm-trial","trial_index":55,"time_elapsed":435487,"internal_node_id":"0.0-53.0-0.0","task_version":"screening-prolific","missing":false,"accuracy":0},{"contexts":["blue","green","red"],"outcomes":[0,0,1],"key":37,"choice":0,"rt":233.17500000121072,"outcome":0,"trial":48,"correct":2,"trial_type":"three-arm-trial","trial_index":56,"time_elapsed":436925,"internal_node_id":"0.0-54.0-0.0","task_version":"screening-prolific","missing":false,"accuracy":0},{"contexts":["blue","green","red"],"outcomes":[0,1,1],"key":37,"choice":0,"rt":259.15499999246094,"outcome":0,"trial":49,"correct":2,"trial_type":"three-arm-trial","trial_index":57,"time_elapsed":438389,"internal_node_id":"0.0-55.0-0.0","task_version":"screening-prolific","missing":false,"accuracy":0},{"contexts":["blue","green","red"],"outcomes":[0,0,1],"key":38,"choice":1,"rt":257.04000001132954,"outcome":0,"trial":50,"correct":2,"trial_type":"three-arm-trial","trial_index":58,"time_elapsed":439850,"internal_node_id":"0.0-56.0-0.0","task_version":"screening-prolific","missing":false,"accuracy":0},{"contexts":["blue","green","red"],"outcomes":[0,0,1],"key":38,"choice":1,"rt":293.3200000115903,"outcome":0,"trial":51,"correct":2,"trial_type":"three-arm-trial","trial_index":59,"time_elapsed":441352,"internal_node_id":"0.0-57.0-0.0","task_version":"screening-prolific","missing":false,"accuracy":0},{"contexts":["blue","green","red"],"outcomes":[1,0,1],"key":37,"choice":0,"rt":209.03499999258202,"outcome":1,"trial":52,"correct":2,"trial_type":"three-arm-trial","trial_index":60,"time_elapsed":442766,"internal_node_id":"0.0-58.0-0.0","task_version":"screening-prolific","missing":false,"accuracy":0},{"contexts":["blue","green","red"],"outcomes":[0,1,1],"key":37,"choice":0,"rt":251.3900000049034,"outcome":0,"trial":53,"correct":2,"trial_type":"three-arm-trial","trial_index":61,"time_elapsed":444223,"internal_node_id":"0.0-59.0-0.0","task_version":"screening-prolific","missing":false,"accuracy":0},{"contexts":["blue","green","red"],"outcomes":[0,0,1],"key":39,"choice":2,"rt":158.42500000144355,"outcome":1,"trial":54,"correct":2,"trial_type":"three-arm-trial","trial_index":62,"time_elapsed":445587,"internal_node_id":"0.0-60.0-0.0","task_version":"screening-prolific","missing":false,"accuracy":1},{"contexts":["blue","green","red"],"outcomes":[1,1,1],"key":39,"choice":2,"rt":191.7049999901792,"outcome":1,"trial":55,"correct":2,"trial_type":"three-arm-trial","trial_index":63,"time_elapsed":446987,"internal_node_id":"0.0-61.0-0.0","task_version":"screening-prolific","missing":false,"accuracy":1},{"contexts":["blue","green","red"],"outcomes":[0,0,1],"key":39,"choice":2,"rt":275.77999999630265,"outcome":1,"trial":56,"correct":2,"trial_type":"three-arm-trial","trial_index":64,"time_elapsed":448469,"internal_node_id":"0.0-62.0-0.0","task_version":"screening-prolific","missing":false,"accuracy":1},{"contexts":["blue","green","red"],"outcomes":[1,0,1],"key":39,"choice":2,"rt":257.6850000041304,"outcome":1,"trial":57,"correct":2,"trial_type":"three-arm-trial","trial_index":65,"time_elapsed":449935,"internal_node_id":"0.0-63.0-0.0","task_version":"screening-prolific","missing":false,"accuracy":1},{"contexts":["blue","green","red"],"outcomes":[0,0,1],"key":39,"choice":2,"rt":40.61999999976251,"outcome":1,"trial":58,"correct":2,"trial_type":"three-arm-trial","trial_index":66,"time_elapsed":451182,"internal_node_id":"0.0-64.0-0.0","task_version":"screening-prolific","missing":false,"accuracy":1},{"contexts":["blue","green","red"],"outcomes":[0,1,1],"key":39,"choice":2,"rt":231.82499999529682,"outcome":1,"trial":59,"correct":2,"trial_type":"three-arm-trial","trial_index":67,"time_elapsed":452620,"internal_node_id":"0.0-65.0-0.0","task_version":"screening-prolific","missing":false,"accuracy":1},{"contexts":["blue","green","red"],"outcomes":[1,0,1],"key":39,"choice":2,"rt":243.40500000107568,"outcome":1,"trial":60,"correct":2,"trial_type":"three-arm-trial","trial_index":68,"time_elapsed":454071,"internal_node_id":"0.0-66.0-0.0","task_version":"screening-prolific","missing":false,"accuracy":1},{"contexts":["blue","green","red"],"outcomes":[1,0,1],"key":39,"choice":2,"rt":268.98000000801403,"outcome":1,"trial":61,"correct":0,"trial_type":"three-arm-trial","trial_index":69,"time_elapsed":455549,"internal_node_id":"0.0-67.0-0.0","task_version":"screening-prolific","missing":false,"accuracy":0},{"contexts":["blue","green","red"],"outcomes":[1,1,0],"key":39,"choice":2,"rt":293.37499999383,"outcome":0,"trial":62,"correct":0,"trial_type":"three-arm-trial","trial_index":70,"time_elapsed":457049,"internal_node_id":"0.0-68.0-0.0","task_version":"screening-prolific","missing":false,"accuracy":0},{"contexts":["blue","green","red"],"outcomes":[1,0,0],"key":39,"choice":2,"rt":269.27999999315944,"outcome":0,"trial":63,"correct":0,"trial_type":"three-arm-trial","trial_index":71,"time_elapsed":458523,"internal_node_id":"0.0-69.0-0.0","task_version":"screening-prolific","missing":false,"accuracy":0},{"contexts":["blue","green","red"],"outcomes":[1,0,1],"key":37,"choice":0,"rt":362.8150000004098,"outcome":1,"trial":64,"correct":0,"trial_type":"three-arm-trial","trial_index":72,"time_elapsed":460094,"internal_node_id":"0.0-70.0-0.0","task_version":"screening-prolific","missing":false,"accuracy":1},{"contexts":["blue","green","red"],"outcomes":[1,0,1],"key":37,"choice":0,"rt":720.4300000012154,"outcome":1,"trial":65,"correct":0,"trial_type":"three-arm-trial","trial_index":73,"time_elapsed":462019,"internal_node_id":"0.0-71.0-0.0","task_version":"screening-prolific","missing":false,"accuracy":1},{"contexts":["blue","green","red"],"outcomes":[1,0,0],"key":37,"choice":0,"rt":278.9199999970151,"outcome":1,"trial":66,"correct":0,"trial_type":"three-arm-trial","trial_index":74,"time_elapsed":463503,"internal_node_id":"0.0-72.0-0.0","task_version":"screening-prolific","missing":false,"accuracy":1},{"contexts":["blue","green","red"],"outcomes":[1,1,0],"key":37,"choice":0,"rt":262.9250000027241,"outcome":1,"trial":67,"correct":0,"trial_type":"three-arm-trial","trial_index":75,"time_elapsed":464974,"internal_node_id":"0.0-73.0-0.0","task_version":"screening-prolific","missing":false,"accuracy":1},{"contexts":["blue","green","red"],"outcomes":[1,1,0],"key":37,"choice":0,"rt":652.6349999912782,"outcome":1,"trial":68,"correct":0,"trial_type":"three-arm-trial","trial_index":76,"time_elapsed":466837,"internal_node_id":"0.0-74.0-0.0","task_version":"screening-prolific","missing":false,"accuracy":1},{"contexts":["blue","green","red"],"outcomes":[1,0,0],"key":37,"choice":0,"rt":317.13500000478234,"outcome":1,"trial":69,"correct":0,"trial_type":"three-arm-trial","trial_index":77,"time_elapsed":468363,"internal_node_id":"0.0-75.0-0.0","task_version":"screening-prolific","missing":false,"accuracy":1},{"contexts":["blue","green","red"],"outcomes":[1,1,0],"key":37,"choice":0,"rt":301.0249999933876,"outcome":1,"trial":70,"correct":0,"trial_type":"three-arm-trial","trial_index":78,"time_elapsed":469871,"internal_node_id":"0.0-76.0-0.0","task_version":"screening-prolific","missing":false,"accuracy":1},{"contexts":["blue","green","red"],"outcomes":[0,0,0],"key":37,"choice":0,"rt":267.04000000609085,"outcome":0,"trial":71,"correct":0,"trial_type":"three-arm-trial","trial_index":79,"time_elapsed":471345,"internal_node_id":"0.0-77.0-0.0","task_version":"screening-prolific","missing":false,"accuracy":1},{"contexts":["blue","green","red"],"outcomes":[1,0,1],"key":39,"choice":2,"rt":313.65500000538304,"outcome":1,"trial":72,"correct":0,"trial_type":"three-arm-trial","trial_index":80,"time_elapsed":472865,"internal_node_id":"0.0-78.0-0.0","task_version":"screening-prolific","missing":false,"accuracy":0},{"contexts":["blue","green","red"],"outcomes":[1,0,0],"key":39,"choice":2,"rt":316.8000000005122,"outcome":0,"trial":73,"correct":0,"trial_type":"three-arm-trial","trial_index":81,"time_elapsed":474386,"internal_node_id":"0.0-79.0-0.0","task_version":"screening-prolific","missing":false,"accuracy":0},{"contexts":["blue","green","red"],"outcomes":[0,0,0],"key":39,"choice":2,"rt":289.969999997993,"outcome":0,"trial":74,"correct":0,"trial_type":"three-arm-trial","trial_index":82,"time_elapsed":475883,"internal_node_id":"0.0-80.0-0.0","task_version":"screening-prolific","missing":false,"accuracy":0},{"contexts":["blue","green","red"],"outcomes":[1,0,0],"key":38,"choice":1,"rt":264.8999999946682,"outcome":0,"trial":75,"correct":0,"trial_type":"three-arm-trial","trial_index":83,"time_elapsed":477354,"internal_node_id":"0.0-81.0-0.0","task_version":"screening-prolific","missing":false,"accuracy":0},{"contexts":["blue","green","red"],"outcomes":[1,1,0],"key":37,"choice":0,"rt":202.85999999032356,"outcome":1,"trial":76,"correct":1,"trial_type":"three-arm-trial","trial_index":84,"time_elapsed":478761,"internal_node_id":"0.0-82.0-0.0","task_version":"screening-prolific","missing":false,"accuracy":0},{"contexts":["blue","green","red"],"outcomes":[0,1,0],"key":37,"choice":0,"rt":275.7299999939278,"outcome":0,"trial":77,"correct":1,"trial_type":"three-arm-trial","trial_index":85,"time_elapsed":480242,"internal_node_id":"0.0-83.0-0.0","task_version":"screening-prolific","missing":false,"accuracy":0},{"contexts":["blue","green","red"],"outcomes":[0,0,0],"key":37,"choice":0,"rt":407.4149999942165,"outcome":0,"trial":78,"correct":1,"trial_type":"three-arm-trial","trial_index":86,"time_elapsed":481857,"internal_node_id":"0.0-84.0-0.0","task_version":"screening-prolific","missing":false,"accuracy":0},{"contexts":["blue","green","red"],"outcomes":[1,1,0],"key":38,"choice":1,"rt":649.0800000028685,"outcome":1,"trial":79,"correct":1,"trial_type":"three-arm-trial","trial_index":87,"time_elapsed":483716,"internal_node_id":"0.0-85.0-0.0","task_version":"screening-prolific","missing":false,"accuracy":1},{"contexts":["blue","green","red"],"outcomes":[0,1,0],"key":38,"choice":1,"rt":327.55500001076143,"outcome":1,"trial":80,"correct":1,"trial_type":"three-arm-trial","trial_index":88,"time_elapsed":485249,"internal_node_id":"0.0-86.0-0.0","task_version":"screening-prolific","missing":false,"accuracy":1},{"contexts":["blue","green","red"],"outcomes":[0,1,0],"key":38,"choice":1,"rt":273.7199999974109,"outcome":1,"trial":81,"correct":1,"trial_type":"three-arm-trial","trial_index":89,"time_elapsed":486728,"internal_node_id":"0.0-87.0-0.0","task_version":"screening-prolific","missing":false,"accuracy":1},{"contexts":["blue","green","red"],"outcomes":[0,0,1],"key":38,"choice":1,"rt":271.50000000256114,"outcome":0,"trial":82,"correct":1,"trial_type":"three-arm-trial","trial_index":90,"time_elapsed":488207,"internal_node_id":"0.0-88.0-0.0","task_version":"screening-prolific","missing":false,"accuracy":1},{"contexts":["blue","green","red"],"outcomes":[0,1,0],"key":38,"choice":1,"rt":298.71499999717344,"outcome":1,"trial":83,"correct":1,"trial_type":"three-arm-trial","trial_index":91,"time_elapsed":489712,"internal_node_id":"0.0-89.0-0.0","task_version":"screening-prolific","missing":false,"accuracy":1},{"contexts":["blue","green","red"],"outcomes":[0,1,0],"key":38,"choice":1,"rt":285.1950000040233,"outcome":1,"trial":84,"correct":1,"trial_type":"three-arm-trial","trial_index":92,"time_elapsed":491204,"internal_node_id":"0.0-90.0-0.0","task_version":"screening-prolific","missing":false,"accuracy":1},{"contexts":["blue","green","red"],"outcomes":[0,0,1],"key":38,"choice":1,"rt":395.00499999849126,"outcome":0,"trial":85,"correct":1,"trial_type":"three-arm-trial","trial_index":93,"time_elapsed":492806,"internal_node_id":"0.0-91.0-0.0","task_version":"screening-prolific","missing":false,"accuracy":1},{"contexts":["blue","green","red"],"outcomes":[0,1,0],"key":38,"choice":1,"rt":318.24999999662396,"outcome":1,"trial":86,"correct":1,"trial_type":"three-arm-trial","trial_index":94,"time_elapsed":494329,"internal_node_id":"0.0-92.0-0.0","task_version":"screening-prolific","missing":false,"accuracy":1},{"contexts":["blue","green","red"],"outcomes":[0,1,1],"key":38,"choice":1,"rt":93.68499999982305,"outcome":1,"trial":87,"correct":1,"trial_type":"three-arm-trial","trial_index":95,"time_elapsed":495627,"internal_node_id":"0.0-93.0-0.0","task_version":"screening-prolific","missing":false,"accuracy":1},{"contexts":["blue","green","red"],"outcomes":[1,1,0],"key":38,"choice":1,"rt":194.98499999463093,"outcome":1,"trial":88,"correct":1,"trial_type":"three-arm-trial","trial_index":96,"time_elapsed":497027,"internal_node_id":"0.0-94.0-0.0","task_version":"screening-prolific","missing":false,"accuracy":1},{"contexts":["blue","green","red"],"outcomes":[0,1,0],"key":38,"choice":1,"rt":245.02500001108274,"outcome":1,"trial":89,"correct":1,"trial_type":"three-arm-trial","trial_index":97,"time_elapsed":498478,"internal_node_id":"0.0-95.0-0.0","task_version":"screening-prolific","missing":false,"accuracy":1},{"contexts":["blue","green","red"],"outcomes":[1,1,0],"key":38,"choice":1,"rt":249.41000000399072,"outcome":1,"trial":90,"correct":1,"trial_type":"three-arm-trial","trial_index":98,"time_elapsed":499933,"internal_node_id":"0.0-96.0-0.0","task_version":"screening-prolific","missing":false,"accuracy":1},{"rt":20894.17999998841,"responses":{"age":"29","gender-categorical":"Female","gender-free-response":"","ethnicity":"Not Hispanic or Latino","race":["White"],"language":"Yes","fluency":"Very well","mturk":"No","mturk-this-study":"No"},"survey":"demographics","trial_type":"survey-demo","trial_index":99,"time_elapsed":520840,"internal_node_id":"0.0-97.0","task_version":"screening-prolific","interactions":"[]"}]