[{"responses":{"Q03":"0","Q06":"0","Q07":"1","Q02":"0","Q08":"0","Q01":"1","Q05":"0","Q04":"0"},"rt":47435.00000000001,"survey":"gad7","trial_type":"survey-template","trial_index":0,"time_elapsed":47460,"internal_node_id":"0.0-0.0","task_version":"screening-prolific"},{"responses":{"Q03":"0","Q13":"0","Q15":"0","Q09":"0","Q11":"1","Q04":"0","Q05":"0","Q02":"1","Q12":"0","Q01":"0","Q06":"0","Q10":"0","Q14":"0","Q08":"0","Q07":"0"},"rt":205126,"survey":"7up7down","trial_type":"survey-template","trial_index":1,"time_elapsed":252595,"internal_node_id":"0.0-1.0","task_version":"screening-prolific"},{"responses":{"Q02":"0","Q01":"1","Q03":"0"},"rt":34936,"survey":"pswq","trial_type":"survey-template","trial_index":2,"time_elapsed":287534,"internal_node_id":"0.0-2.0","task_version":"screening-prolific"},{"responses":{"Q02":"1","Q01":"2","Q13":"3","Q09":"2","Q05":"2","Q10":"1","Q06":"2","Q08":"2","Q12":"0","Q07":"2","Q04":"3","Q11":"2","Q03":"1"},"rt":137925,"survey":"bisbas","trial_type":"survey-template","trial_index":3,"time_elapsed":425465,"internal_node_id":"0.0-3.0","task_version":"screening-prolific"},{"responses":{"Q10":"3","Q12":"3","Q14":"2","Q07":"2","Q15":"3","Q05":"3","Q13":"2","Q06":"3","Q11":"3","Q03":"3","Q04":"3","Q09":"3","Q01":"2","Q08":"2","Q02":"2"},"rt":104013,"survey":"shaps","trial_type":"survey-template","trial_index":4,"time_elapsed":529484,"internal_node_id":"0.0-4.0","task_version":"screening-prolific"},{"view_history":"[{\"page_index\":0,\"viewing_time\":16251.999999999884},{\"page_index\":1,\"viewing_time\":13325.000000000116},{\"page_index\":2,\"viewing_time\":23084.999999999884},{\"page_index\":3,\"viewing_time\":13142},{\"page_index\":4,\"viewing_time\":9314},{\"page_index\":5,\"viewing_time\":5514},{\"page_index\":6,\"viewing_time\":5788},{\"page_index\":7,\"viewing_time\":7200.000000000116}]","rt":93620.99999999988,"trial_type":"instructions","trial_index":5,"time_elapsed":623109,"internal_node_id":"0.0-5.0-0.0","task_version":"screening-prolific"},{"responses":["True","True","False","False","True"],"num_errors":0,"rt":23336,"trial_type":"three-arm-comprehension","trial_index":6,"time_elapsed":646449,"internal_node_id":"0.0-5.0-1.0","task_version":"screening-prolific"},{"view_history":"[{\"page_index\":0,\"viewing_time\":3330.0000000001164}]","rt":3330.0000000001164,"trial_type":"instructions","trial_index":7,"time_elapsed":649782,"internal_node_id":"0.0-6.0","task_version":"screening-prolific"},{"contexts":["green","blue","red"],"outcomes":[0,1,0],"key":null,"rt":null,"trial":1,"correct":1,"trial_type":"three-arm-trial","trial_index":8,"time_elapsed":664788,"internal_node_id":"0.0-7.0-0.0","task_version":"screening-prolific","missing":true},{"contexts":["green","blue","red"],"outcomes":[0,1,0],"key":38,"choice":1,"rt":2915,"outcome":1,"trial":1,"correct":1,"trial_type":"three-arm-trial","trial_index":9,"time_elapsed":668906,"internal_node_id":"0.0-7.1-0.1","task_version":"screening-prolific","missing":false,"accuracy":1},{"contexts":["green","blue","red"],"outcomes":[0,1,0],"key":39,"choice":2,"rt":5184,"outcome":0,"trial":2,"correct":1,"trial_type":"three-arm-trial","trial_index":10,"time_elapsed":675296,"internal_node_id":"0.0-8.0-0.0","task_version":"screening-prolific","missing":false,"accuracy":0},{"contexts":["green","blue","red"],"outcomes":[0,1,0],"key":37,"choice":0,"rt":1234,"outcome":0,"trial":3,"correct":1,"trial_type":"three-arm-trial","trial_index":11,"time_elapsed":677736,"internal_node_id":"0.0-9.0-0.0","task_version":"screening-prolific","missing":false,"accuracy":0},{"contexts":["green","blue","red"],"outcomes":[0,0,0],"key":38,"choice":1,"rt":1137.9999999998836,"outcome":0,"trial":4,"correct":1,"trial_type":"three-arm-trial","trial_index":12,"time_elapsed":680080,"internal_node_id":"0.0-10.0-0.0","task_version":"screening-prolific","missing":false,"accuracy":1},{"contexts":["green","blue","red"],"outcomes":[1,1,1],"key":37,"choice":0,"rt":3635,"outcome":1,"trial":5,"correct":1,"trial_type":"three-arm-trial","trial_index":13,"time_elapsed":684920,"internal_node_id":"0.0-11.0-0.0","task_version":"screening-prolific","missing":false,"accuracy":0},{"contexts":["green","blue","red"],"outcomes":[0,1,0],"key":39,"choice":2,"rt":1674,"outcome":0,"trial":6,"correct":1,"trial_type":"three-arm-trial","trial_index":14,"time_elapsed":687800,"internal_node_id":"0.0-12.0-0.0","task_version":"screening-prolific","missing":false,"accuracy":0},{"contexts":["green","blue","red"],"outcomes":[0,1,0],"key":37,"choice":0,"rt":298,"outcome":0,"trial":7,"correct":1,"trial_type":"three-arm-trial","trial_index":15,"time_elapsed":689304,"internal_node_id":"0.0-13.0-0.0","task_version":"screening-prolific","missing":false,"accuracy":0},{"contexts":["green","blue","red"],"outcomes":[0,0,1],"key":38,"choice":1,"rt":141,"outcome":0,"trial":8,"correct":1,"trial_type":"three-arm-trial","trial_index":16,"time_elapsed":690650,"internal_node_id":"0.0-14.0-0.0","task_version":"screening-prolific","missing":false,"accuracy":1},{"contexts":["green","blue","red"],"outcomes":[0,1,1],"key":39,"choice":2,"rt":1353,"outcome":1,"trial":9,"correct":1,"trial_type":"three-arm-trial","trial_index":17,"time_elapsed":693208,"internal_node_id":"0.0-15.0-0.0","task_version":"screening-prolific","missing":false,"accuracy":0},{"contexts":["green","blue","red"],"outcomes":[0,1,0],"key":39,"choice":2,"rt":610,"outcome":0,"trial":10,"correct":1,"trial_type":"three-arm-trial","trial_index":18,"time_elapsed":695024,"internal_node_id":"0.0-16.0-0.0","task_version":"screening-prolific","missing":false,"accuracy":0},{"contexts":["green","blue","red"],"outcomes":[0,0,0],"key":39,"choice":2,"rt":557,"outcome":0,"trial":11,"correct":1,"trial_type":"three-arm-trial","trial_index":19,"time_elapsed":696786,"internal_node_id":"0.0-17.0-0.0","task_version":"screening-prolific","missing":false,"accuracy":0},{"contexts":["green","blue","red"],"outcomes":[0,0,0],"key":39,"choice":2,"rt":849,"outcome":0,"trial":12,"correct":1,"trial_type":"three-arm-trial","trial_index":20,"time_elapsed":698840,"internal_node_id":"0.0-18.0-0.0","task_version":"screening-prolific","missing":false,"accuracy":0},{"contexts":["green","blue","red"],"outcomes":[0,1,0],"key":37,"choice":0,"rt":41.000000000116415,"outcome":0,"trial":13,"correct":1,"trial_type":"three-arm-trial","trial_index":21,"time_elapsed":700085,"internal_node_id":"0.0-19.0-0.0","task_version":"screening-prolific","missing":false,"accuracy":0},{"contexts":["green","blue","red"],"outcomes":[1,1,0],"key":39,"choice":2,"rt":374,"outcome":0,"trial":14,"correct":1,"trial_type":"three-arm-trial","trial_index":22,"time_elapsed":701664,"internal_node_id":"0.0-20.0-0.0","task_version":"screening-prolific","missing":false,"accuracy":0},{"contexts":["green","blue","red"],"outcomes":[0,1,0],"key":38,"choice":1,"rt":43,"outcome":1,"trial":15,"correct":1,"trial_type":"three-arm-trial","trial_index":23,"time_elapsed":702913,"internal_node_id":"0.0-21.0-0.0","task_version":"screening-prolific","missing":false,"accuracy":1},{"contexts":["green","blue","red"],"outcomes":[0,1,0],"key":37,"choice":0,"rt":3514,"outcome":0,"trial":16,"correct":0,"trial_type":"three-arm-trial","trial_index":24,"time_elapsed":707633,"internal_node_id":"0.0-22.0-0.0","task_version":"screening-prolific","missing":false,"accuracy":1},{"contexts":["green","blue","red"],"outcomes":[1,0,1],"key":39,"choice":2,"rt":155,"outcome":1,"trial":17,"correct":0,"trial_type":"three-arm-trial","trial_index":25,"time_elapsed":708993,"internal_node_id":"0.0-23.0-0.0","task_version":"screening-prolific","missing":false,"accuracy":0},{"contexts":["green","blue","red"],"outcomes":[0,0,0],"key":39,"choice":2,"rt":707,"outcome":0,"trial":18,"correct":0,"trial_type":"three-arm-trial","trial_index":26,"time_elapsed":710904,"internal_node_id":"0.0-24.0-0.0","task_version":"screening-prolific","missing":false,"accuracy":0},{"contexts":["green","blue","red"],"outcomes":[1,0,0],"key":39,"choice":2,"rt":49.999999999883585,"outcome":0,"trial":19,"correct":0,"trial_type":"three-arm-trial","trial_index":27,"time_elapsed":712161,"internal_node_id":"0.0-25.0-0.0","task_version":"screening-prolific","missing":false,"accuracy":0},{"contexts":["green","blue","red"],"outcomes":[1,1,0],"key":39,"choice":2,"rt":163.99999999988358,"outcome":0,"trial":20,"correct":0,"trial_type":"three-arm-trial","trial_index":28,"time_elapsed":713528,"internal_node_id":"0.0-26.0-0.0","task_version":"screening-prolific","missing":false,"accuracy":0},{"contexts":["green","blue","red"],"outcomes":[1,1,0],"key":39,"choice":2,"rt":94,"outcome":0,"trial":21,"correct":0,"trial_type":"three-arm-trial","trial_index":29,"time_elapsed":714827,"internal_node_id":"0.0-27.0-0.0","task_version":"screening-prolific","missing":false,"accuracy":0},{"contexts":["green","blue","red"],"outcomes":[1,0,0],"key":38,"choice":1,"rt":866,"outcome":0,"trial":22,"correct":0,"trial_type":"three-arm-trial","trial_index":30,"time_elapsed":716896,"internal_node_id":"0.0-28.0-0.0","task_version":"screening-prolific","missing":false,"accuracy":0},{"contexts":["green","blue","red"],"outcomes":[1,0,0],"key":37,"choice":0,"rt":1371,"outcome":1,"trial":23,"correct":0,"trial_type":"three-arm-trial","trial_index":31,"time_elapsed":719473,"internal_node_id":"0.0-29.0-0.0","task_version":"screening-prolific","missing":false,"accuracy":1},{"contexts":["green","blue","red"],"outcomes":[0,0,0],"key":37,"choice":0,"rt":1322,"outcome":0,"trial":24,"correct":0,"trial_type":"three-arm-trial","trial_index":32,"time_elapsed":722001,"internal_node_id":"0.0-30.0-0.0","task_version":"screening-prolific","missing":false,"accuracy":1},{"contexts":["green","blue","red"],"outcomes":[1,0,0],"key":39,"choice":2,"rt":1147,"outcome":0,"trial":25,"correct":0,"trial_type":"three-arm-trial","trial_index":33,"time_elapsed":724353,"internal_node_id":"0.0-31.0-0.0","task_version":"screening-prolific","missing":false,"accuracy":0},{"contexts":["green","blue","red"],"outcomes":[1,1,0],"key":37,"choice":0,"rt":266,"outcome":1,"trial":26,"correct":0,"trial_type":"three-arm-trial","trial_index":34,"time_elapsed":725825,"internal_node_id":"0.0-32.0-0.0","task_version":"screening-prolific","missing":false,"accuracy":1},{"contexts":["green","blue","red"],"outcomes":[0,0,0],"key":39,"choice":2,"rt":805,"outcome":0,"trial":27,"correct":0,"trial_type":"three-arm-trial","trial_index":35,"time_elapsed":727835,"internal_node_id":"0.0-33.0-0.0","task_version":"screening-prolific","missing":false,"accuracy":0},{"contexts":["green","blue","red"],"outcomes":[1,0,1],"key":37,"choice":0,"rt":995,"outcome":1,"trial":28,"correct":0,"trial_type":"three-arm-trial","trial_index":36,"time_elapsed":730036,"internal_node_id":"0.0-34.0-0.0","task_version":"screening-prolific","missing":false,"accuracy":1},{"contexts":["green","blue","red"],"outcomes":[1,0,1],"key":37,"choice":0,"rt":1168,"outcome":1,"trial":29,"correct":0,"trial_type":"three-arm-trial","trial_index":37,"time_elapsed":732409,"internal_node_id":"0.0-35.0-0.0","task_version":"screening-prolific","missing":false,"accuracy":1},{"contexts":["green","blue","red"],"outcomes":[1,1,0],"key":37,"choice":0,"rt":899,"outcome":1,"trial":30,"correct":0,"trial_type":"three-arm-trial","trial_index":38,"time_elapsed":734514,"internal_node_id":"0.0-36.0-0.0","task_version":"screening-prolific","missing":false,"accuracy":1},{"contexts":["green","blue","red"],"outcomes":[0,0,1],"key":37,"choice":0,"rt":946,"outcome":0,"trial":31,"correct":2,"trial_type":"three-arm-trial","trial_index":39,"time_elapsed":736666,"internal_node_id":"0.0-37.0-0.0","task_version":"screening-prolific","missing":false,"accuracy":0},{"contexts":["green","blue","red"],"outcomes":[0,0,0],"key":39,"choice":2,"rt":884.9999999998836,"outcome":0,"trial":32,"correct":2,"trial_type":"three-arm-trial","trial_index":40,"time_elapsed":738755,"internal_node_id":"0.0-38.0-0.0","task_version":"screening-prolific","missing":false,"accuracy":1},{"contexts":["green","blue","red"],"outcomes":[1,0,1],"key":39,"choice":2,"rt":57,"outcome":1,"trial":33,"correct":2,"trial_type":"three-arm-trial","trial_index":41,"time_elapsed":740017,"internal_node_id":"0.0-39.0-0.0","task_version":"screening-prolific","missing":false,"accuracy":1},{"contexts":["green","blue","red"],"outcomes":[0,1,1],"key":39,"choice":2,"rt":731,"outcome":1,"trial":34,"correct":2,"trial_type":"three-arm-trial","trial_index":42,"time_elapsed":741953,"internal_node_id":"0.0-40.0-0.0","task_version":"screening-prolific","missing":false,"accuracy":1},{"contexts":["green","blue","red"],"outcomes":[0,0,1],"key":39,"choice":2,"rt":883.9999999998836,"outcome":1,"trial":35,"correct":2,"trial_type":"three-arm-trial","trial_index":43,"time_elapsed":744044,"internal_node_id":"0.0-41.0-0.0","task_version":"screening-prolific","missing":false,"accuracy":1},{"contexts":["green","blue","red"],"outcomes":[1,1,1],"key":39,"choice":2,"rt":1033,"outcome":1,"trial":36,"correct":2,"trial_type":"three-arm-trial","trial_index":44,"time_elapsed":746282,"internal_node_id":"0.0-42.0-0.0","task_version":"screening-prolific","missing":false,"accuracy":1},{"contexts":["green","blue","red"],"outcomes":[0,0,0],"key":39,"choice":2,"rt":1108.9999999998836,"outcome":0,"trial":37,"correct":2,"trial_type":"three-arm-trial","trial_index":45,"time_elapsed":748596,"internal_node_id":"0.0-43.0-0.0","task_version":"screening-prolific","missing":false,"accuracy":1},{"contexts":["green","blue","red"],"outcomes":[0,0,1],"key":39,"choice":2,"rt":612,"outcome":1,"trial":38,"correct":2,"trial_type":"three-arm-trial","trial_index":46,"time_elapsed":750412,"internal_node_id":"0.0-44.0-0.0","task_version":"screening-prolific","missing":false,"accuracy":1},{"contexts":["green","blue","red"],"outcomes":[1,0,0],"key":39,"choice":2,"rt":1304,"outcome":0,"trial":39,"correct":2,"trial_type":"three-arm-trial","trial_index":47,"time_elapsed":752922,"internal_node_id":"0.0-45.0-0.0","task_version":"screening-prolific","missing":false,"accuracy":1},{"contexts":["green","blue","red"],"outcomes":[0,0,1],"key":39,"choice":2,"rt":1194,"outcome":1,"trial":40,"correct":2,"trial_type":"three-arm-trial","trial_index":48,"time_elapsed":755322,"internal_node_id":"0.0-46.0-0.0","task_version":"screening-prolific","missing":false,"accuracy":1},{"contexts":["green","blue","red"],"outcomes":[0,1,1],"key":39,"choice":2,"rt":606,"outcome":1,"trial":41,"correct":2,"trial_type":"three-arm-trial","trial_index":49,"time_elapsed":757133,"internal_node_id":"0.0-47.0-0.0","task_version":"screening-prolific","missing":false,"accuracy":1},{"contexts":["green","blue","red"],"outcomes":[0,0,0],"key":39,"choice":2,"rt":407.9999999998836,"outcome":0,"trial":42,"correct":2,"trial_type":"three-arm-trial","trial_index":50,"time_elapsed":758746,"internal_node_id":"0.0-48.0-0.0","task_version":"screening-prolific","missing":false,"accuracy":1},{"contexts":["green","blue","red"],"outcomes":[0,1,0],"key":39,"choice":2,"rt":593,"outcome":0,"trial":43,"correct":2,"trial_type":"three-arm-trial","trial_index":51,"time_elapsed":760546,"internal_node_id":"0.0-49.0-0.0","task_version":"screening-prolific","missing":false,"accuracy":1},{"contexts":["green","blue","red"],"outcomes":[0,1,1],"key":39,"choice":2,"rt":235.00000000011642,"outcome":1,"trial":44,"correct":2,"trial_type":"three-arm-trial","trial_index":52,"time_elapsed":761986,"internal_node_id":"0.0-50.0-0.0","task_version":"screening-prolific","missing":false,"accuracy":1},{"contexts":["green","blue","red"],"outcomes":[0,0,1],"key":39,"choice":2,"rt":1915,"outcome":1,"trial":45,"correct":2,"trial_type":"three-arm-trial","trial_index":53,"time_elapsed":765106,"internal_node_id":"0.0-51.0-0.0","task_version":"screening-prolific","missing":false,"accuracy":1},{"contexts":["green","blue","red"],"outcomes":[0,1,0],"key":39,"choice":2,"rt":819,"outcome":0,"trial":46,"correct":1,"trial_type":"three-arm-trial","trial_index":54,"time_elapsed":767130,"internal_node_id":"0.0-52.0-0.0","task_version":"screening-prolific","missing":false,"accuracy":0},{"contexts":["green","blue","red"],"outcomes":[0,1,0],"key":39,"choice":2,"rt":506,"outcome":0,"trial":47,"correct":1,"trial_type":"three-arm-trial","trial_index":55,"time_elapsed":768842,"internal_node_id":"0.0-53.0-0.0","task_version":"screening-prolific","missing":false,"accuracy":0},{"contexts":["green","blue","red"],"outcomes":[0,0,0],"key":39,"choice":2,"rt":1803,"outcome":0,"trial":48,"correct":1,"trial_type":"three-arm-trial","trial_index":56,"time_elapsed":771850,"internal_node_id":"0.0-54.0-0.0","task_version":"screening-prolific","missing":false,"accuracy":0},{"contexts":["green","blue","red"],"outcomes":[1,1,1],"key":39,"choice":2,"rt":835.0000000001164,"outcome":1,"trial":49,"correct":1,"trial_type":"three-arm-trial","trial_index":57,"time_elapsed":773892,"internal_node_id":"0.0-55.0-0.0","task_version":"screening-prolific","missing":false,"accuracy":0},{"contexts":["green","blue","red"],"outcomes":[0,1,1],"key":39,"choice":2,"rt":266.0000000001164,"outcome":1,"trial":50,"correct":1,"trial_type":"three-arm-trial","trial_index":58,"time_elapsed":775362,"internal_node_id":"0.0-56.0-0.0","task_version":"screening-prolific","missing":false,"accuracy":0},{"contexts":["green","blue","red"],"outcomes":[0,1,0],"key":39,"choice":2,"rt":163,"outcome":0,"trial":51,"correct":1,"trial_type":"three-arm-trial","trial_index":59,"time_elapsed":776730,"internal_node_id":"0.0-57.0-0.0","task_version":"screening-prolific","missing":false,"accuracy":0},{"contexts":["green","blue","red"],"outcomes":[0,0,0],"key":37,"choice":0,"rt":619,"outcome":0,"trial":52,"correct":1,"trial_type":"three-arm-trial","trial_index":60,"time_elapsed":778555,"internal_node_id":"0.0-58.0-0.0","task_version":"screening-prolific","missing":false,"accuracy":0},{"contexts":["green","blue","red"],"outcomes":[0,1,0],"key":38,"choice":1,"rt":352.9999999998836,"outcome":1,"trial":53,"correct":1,"trial_type":"three-arm-trial","trial_index":61,"time_elapsed":780114,"internal_node_id":"0.0-59.0-0.0","task_version":"screening-prolific","missing":false,"accuracy":1},{"contexts":["green","blue","red"],"outcomes":[0,1,0],"key":38,"choice":1,"rt":275.9999999998836,"outcome":1,"trial":54,"correct":1,"trial_type":"three-arm-trial","trial_index":62,"time_elapsed":781595,"internal_node_id":"0.0-60.0-0.0","task_version":"screening-prolific","missing":false,"accuracy":1},{"contexts":["green","blue","red"],"outcomes":[0,0,0],"key":38,"choice":1,"rt":938,"outcome":0,"trial":55,"correct":1,"trial_type":"three-arm-trial","trial_index":63,"time_elapsed":783739,"internal_node_id":"0.0-61.0-0.0","task_version":"screening-prolific","missing":false,"accuracy":1},{"contexts":["green","blue","red"],"outcomes":[1,0,0],"key":39,"choice":2,"rt":3161.9999999998836,"outcome":0,"trial":56,"correct":1,"trial_type":"three-arm-trial","trial_index":64,"time_elapsed":788107,"internal_node_id":"0.0-62.0-0.0","task_version":"screening-prolific","missing":false,"accuracy":0},{"contexts":["green","blue","red"],"outcomes":[0,1,0],"key":39,"choice":2,"rt":1131,"outcome":0,"trial":57,"correct":1,"trial_type":"three-arm-trial","trial_index":65,"time_elapsed":790443,"internal_node_id":"0.0-63.0-0.0","task_version":"screening-prolific","missing":false,"accuracy":0},{"contexts":["green","blue","red"],"outcomes":[0,0,0],"key":39,"choice":2,"rt":485,"outcome":0,"trial":58,"correct":1,"trial_type":"three-arm-trial","trial_index":66,"time_elapsed":792133,"internal_node_id":"0.0-64.0-0.0","task_version":"screening-prolific","missing":false,"accuracy":0},{"contexts":["green","blue","red"],"outcomes":[0,1,0],"key":39,"choice":2,"rt":105,"outcome":0,"trial":59,"correct":1,"trial_type":"three-arm-trial","trial_index":67,"time_elapsed":793443,"internal_node_id":"0.0-65.0-0.0","task_version":"screening-prolific","missing":false,"accuracy":0},{"contexts":["green","blue","red"],"outcomes":[0,1,0],"key":37,"choice":0,"rt":1339,"outcome":0,"trial":60,"correct":1,"trial_type":"three-arm-trial","trial_index":68,"time_elapsed":795986,"internal_node_id":"0.0-66.0-0.0","task_version":"screening-prolific","missing":false,"accuracy":0},{"contexts":["green","blue","red"],"outcomes":[0,0,0],"key":39,"choice":2,"rt":2132,"outcome":0,"trial":61,"correct":2,"trial_type":"three-arm-trial","trial_index":69,"time_elapsed":799323,"internal_node_id":"0.0-67.0-0.0","task_version":"screening-prolific","missing":false,"accuracy":1},{"contexts":["green","blue","red"],"outcomes":[1,1,1],"key":38,"choice":1,"rt":77,"outcome":1,"trial":62,"correct":2,"trial_type":"three-arm-trial","trial_index":70,"time_elapsed":800605,"internal_node_id":"0.0-68.0-0.0","task_version":"screening-prolific","missing":false,"accuracy":0},{"contexts":["green","blue","red"],"outcomes":[0,0,1],"key":38,"choice":1,"rt":72.99999999988358,"outcome":0,"trial":63,"correct":2,"trial_type":"three-arm-trial","trial_index":71,"time_elapsed":801883,"internal_node_id":"0.0-69.0-0.0","task_version":"screening-prolific","missing":false,"accuracy":0},{"contexts":["green","blue","red"],"outcomes":[0,0,1],"key":37,"choice":0,"rt":1067,"outcome":0,"trial":64,"correct":2,"trial_type":"three-arm-trial","trial_index":72,"time_elapsed":804157,"internal_node_id":"0.0-70.0-0.0","task_version":"screening-prolific","missing":false,"accuracy":0},{"contexts":["green","blue","red"],"outcomes":[0,0,0],"key":39,"choice":2,"rt":465,"outcome":0,"trial":65,"correct":2,"trial_type":"three-arm-trial","trial_index":73,"time_elapsed":805827,"internal_node_id":"0.0-71.0-0.0","task_version":"screening-prolific","missing":false,"accuracy":1},{"contexts":["green","blue","red"],"outcomes":[0,0,1],"key":37,"choice":0,"rt":76.00000000011642,"outcome":0,"trial":66,"correct":2,"trial_type":"three-arm-trial","trial_index":74,"time_elapsed":807108,"internal_node_id":"0.0-72.0-0.0","task_version":"screening-prolific","missing":false,"accuracy":0},{"contexts":["green","blue","red"],"outcomes":[0,1,0],"key":39,"choice":2,"rt":138,"outcome":0,"trial":67,"correct":2,"trial_type":"three-arm-trial","trial_index":75,"time_elapsed":808451,"internal_node_id":"0.0-73.0-0.0","task_version":"screening-prolific","missing":false,"accuracy":1},{"contexts":["green","blue","red"],"outcomes":[0,0,0],"key":37,"choice":0,"rt":138,"outcome":0,"trial":68,"correct":2,"trial_type":"three-arm-trial","trial_index":76,"time_elapsed":809795,"internal_node_id":"0.0-74.0-0.0","task_version":"screening-prolific","missing":false,"accuracy":0},{"contexts":["green","blue","red"],"outcomes":[1,0,1],"key":39,"choice":2,"rt":203,"outcome":1,"trial":69,"correct":2,"trial_type":"three-arm-trial","trial_index":77,"time_elapsed":811203,"internal_node_id":"0.0-75.0-0.0","task_version":"screening-prolific","missing":false,"accuracy":1},{"contexts":["green","blue","red"],"outcomes":[1,0,1],"key":39,"choice":2,"rt":1074.0000000001164,"outcome":1,"trial":70,"correct":2,"trial_type":"three-arm-trial","trial_index":78,"time_elapsed":813483,"internal_node_id":"0.0-76.0-0.0","task_version":"screening-prolific","missing":false,"accuracy":1},{"contexts":["green","blue","red"],"outcomes":[0,0,1],"key":39,"choice":2,"rt":667,"outcome":1,"trial":71,"correct":2,"trial_type":"three-arm-trial","trial_index":79,"time_elapsed":815356,"internal_node_id":"0.0-77.0-0.0","task_version":"screening-prolific","missing":false,"accuracy":1},{"contexts":["green","blue","red"],"outcomes":[0,0,1],"key":39,"choice":2,"rt":619.9999999998836,"outcome":1,"trial":72,"correct":2,"trial_type":"three-arm-trial","trial_index":80,"time_elapsed":817180,"internal_node_id":"0.0-78.0-0.0","task_version":"screening-prolific","missing":false,"accuracy":1},{"contexts":["green","blue","red"],"outcomes":[0,0,1],"key":38,"choice":1,"rt":867,"outcome":0,"trial":73,"correct":2,"trial_type":"three-arm-trial","trial_index":81,"time_elapsed":819251,"internal_node_id":"0.0-79.0-0.0","task_version":"screening-prolific","missing":false,"accuracy":0},{"contexts":["green","blue","red"],"outcomes":[0,0,1],"key":37,"choice":0,"rt":3683,"outcome":0,"trial":74,"correct":2,"trial_type":"three-arm-trial","trial_index":82,"time_elapsed":824140,"internal_node_id":"0.0-80.0-0.0","task_version":"screening-prolific","missing":false,"accuracy":0},{"contexts":["green","blue","red"],"outcomes":[1,0,0],"key":39,"choice":2,"rt":106.99999999988358,"outcome":0,"trial":75,"correct":2,"trial_type":"three-arm-trial","trial_index":83,"time_elapsed":825451,"internal_node_id":"0.0-81.0-0.0","task_version":"screening-prolific","missing":false,"accuracy":1},{"contexts":["green","blue","red"],"outcomes":[0,0,1],"key":39,"choice":2,"rt":948,"outcome":1,"trial":76,"correct":0,"trial_type":"three-arm-trial","trial_index":84,"time_elapsed":827604,"internal_node_id":"0.0-82.0-0.0","task_version":"screening-prolific","missing":false,"accuracy":0},{"contexts":["green","blue","red"],"outcomes":[1,0,0],"key":39,"choice":2,"rt":571,"outcome":0,"trial":77,"correct":0,"trial_type":"three-arm-trial","trial_index":85,"time_elapsed":829380,"internal_node_id":"0.0-83.0-0.0","task_version":"screening-prolific","missing":false,"accuracy":0},{"contexts":["green","blue","red"],"outcomes":[1,0,0],"key":39,"choice":2,"rt":377,"outcome":0,"trial":78,"correct":0,"trial_type":"three-arm-trial","trial_index":86,"time_elapsed":830964,"internal_node_id":"0.0-84.0-0.0","task_version":"screening-prolific","missing":false,"accuracy":0},{"contexts":["green","blue","red"],"outcomes":[1,0,0],"key":39,"choice":2,"rt":1362,"outcome":0,"trial":79,"correct":0,"trial_type":"three-arm-trial","trial_index":87,"time_elapsed":833532,"internal_node_id":"0.0-85.0-0.0","task_version":"screening-prolific","missing":false,"accuracy":0},{"contexts":["green","blue","red"],"outcomes":[1,0,0],"key":39,"choice":2,"rt":235,"outcome":0,"trial":80,"correct":0,"trial_type":"three-arm-trial","trial_index":88,"time_elapsed":834972,"internal_node_id":"0.0-86.0-0.0","task_version":"screening-prolific","missing":false,"accuracy":0},{"contexts":["green","blue","red"],"outcomes":[1,0,0],"key":39,"choice":2,"rt":491,"outcome":0,"trial":81,"correct":0,"trial_type":"three-arm-trial","trial_index":89,"time_elapsed":836667,"internal_node_id":"0.0-87.0-0.0","task_version":"screening-prolific","missing":false,"accuracy":0},{"contexts":["green","blue","red"],"outcomes":[0,0,0],"key":37,"choice":0,"rt":1123,"outcome":0,"trial":82,"correct":0,"trial_type":"three-arm-trial","trial_index":90,"time_elapsed":838996,"internal_node_id":"0.0-88.0-0.0","task_version":"screening-prolific","missing":false,"accuracy":1},{"contexts":["green","blue","red"],"outcomes":[1,0,0],"key":37,"choice":0,"rt":190,"outcome":1,"trial":83,"correct":0,"trial_type":"three-arm-trial","trial_index":91,"time_elapsed":840391,"internal_node_id":"0.0-89.0-0.0","task_version":"screening-prolific","missing":false,"accuracy":1},{"contexts":["green","blue","red"],"outcomes":[1,0,0],"key":37,"choice":0,"rt":120,"outcome":1,"trial":84,"correct":0,"trial_type":"three-arm-trial","trial_index":92,"time_elapsed":841716,"internal_node_id":"0.0-90.0-0.0","task_version":"screening-prolific","missing":false,"accuracy":1},{"contexts":["green","blue","red"],"outcomes":[1,1,1],"key":37,"choice":0,"rt":123,"outcome":1,"trial":85,"correct":0,"trial_type":"three-arm-trial","trial_index":93,"time_elapsed":843043,"internal_node_id":"0.0-91.0-0.0","task_version":"screening-prolific","missing":false,"accuracy":1},{"contexts":["green","blue","red"],"outcomes":[1,0,0],"key":37,"choice":0,"rt":213,"outcome":1,"trial":86,"correct":0,"trial_type":"three-arm-trial","trial_index":94,"time_elapsed":844460,"internal_node_id":"0.0-92.0-0.0","task_version":"screening-prolific","missing":false,"accuracy":1},{"contexts":["green","blue","red"],"outcomes":[1,0,0],"key":37,"choice":0,"rt":355,"outcome":1,"trial":87,"correct":0,"trial_type":"three-arm-trial","trial_index":95,"time_elapsed":846020,"internal_node_id":"0.0-93.0-0.0","task_version":"screening-prolific","missing":false,"accuracy":1},{"contexts":["green","blue","red"],"outcomes":[0,1,0],"key":37,"choice":0,"rt":322,"outcome":0,"trial":88,"correct":0,"trial_type":"three-arm-trial","trial_index":96,"time_elapsed":847548,"internal_node_id":"0.0-94.0-0.0","task_version":"screening-prolific","missing":false,"accuracy":1},{"contexts":["green","blue","red"],"outcomes":[0,1,0],"key":38,"choice":1,"rt":2126,"outcome":1,"trial":89,"correct":0,"trial_type":"three-arm-trial","trial_index":97,"time_elapsed":850879,"internal_node_id":"0.0-95.0-0.0","task_version":"screening-prolific","missing":false,"accuracy":0},{"contexts":["green","blue","red"],"outcomes":[0,1,0],"key":38,"choice":1,"rt":3065,"outcome":1,"trial":90,"correct":0,"trial_type":"three-arm-trial","trial_index":98,"time_elapsed":855149,"internal_node_id":"0.0-96.0-0.0","task_version":"screening-prolific","missing":false,"accuracy":0},{"rt":45970,"responses":{"age":"70","gender-categorical":"Female","gender-free-response":"","ethnicity":"Not Hispanic or Latino","race":["White"],"language":"Yes","fluency":"Very well","mturk":"No","mturk-this-study":"No"},"survey":"demographics","trial_type":"survey-demo","trial_index":99,"time_elapsed":901124,"internal_node_id":"0.0-97.0","task_version":"screening-prolific","interactions":"[]"}]