[{"responses":{"Q12":"1","Q09":"1","Q07":"2","Q11":"2","Q06":"1","Q08":"1","Q02":"2","Q04":"0","Q13":"1","Q10":"2","Q05":"2","Q01":"0","Q14":"1","Q03":"1","Q15":"1"},"rt":138995,"survey":"7up7down","trial_type":"survey-template","trial_index":0,"time_elapsed":139011,"internal_node_id":"0.0-0.0","task_version":"screening-prolific"},{"responses":{"Q11":"1","Q05":"2","Q02":"3","Q06":"2","Q04":"2","Q13":"3","Q03":"2","Q07":"3","Q12":"1","Q08":"2","Q01":"2","Q09":"1","Q10":"2"},"rt":56867,"survey":"bisbas","trial_type":"survey-template","trial_index":1,"time_elapsed":195883,"internal_node_id":"0.0-1.0","task_version":"screening-prolific"},{"responses":{"Q02":"3","Q03":"2","Q01":"3"},"rt":14720,"survey":"pswq","trial_type":"survey-template","trial_index":2,"time_elapsed":210609,"internal_node_id":"0.0-2.0","task_version":"screening-prolific"},{"responses":{"Q15":"3","Q14":"2","Q01":"1","Q10":"1","Q11":"1","Q03":"2","Q06":"2","Q07":"2","Q05":"3","Q09":"2","Q02":"0","Q04":"2","Q13":"2","Q12":"2","Q08":"2"},"rt":56766,"survey":"shaps","trial_type":"survey-template","trial_index":3,"time_elapsed":267380,"internal_node_id":"0.0-3.0","task_version":"screening-prolific"},{"responses":{"Q08":"0","Q06":"1","Q05":"2","Q03":"1","Q01":"2","Q04":"1","Q02":"1","Q07":"1"},"rt":26925,"survey":"gad7","trial_type":"survey-template","trial_index":4,"time_elapsed":294309,"internal_node_id":"0.0-4.0","task_version":"screening-prolific"},{"view_history":"[{\"page_index\":0,\"viewing_time\":3685},{\"page_index\":1,\"viewing_time\":6989},{\"page_index\":2,\"viewing_time\":10341},{\"page_index\":3,\"viewing_time\":2550},{\"page_index\":4,\"viewing_time\":2890},{\"page_index\":3,\"viewing_time\":4540},{\"page_index\":4,\"viewing_time\":4119},{\"page_index\":5,\"viewing_time\":2941},{\"page_index\":6,\"viewing_time\":1580},{\"page_index\":5,\"viewing_time\":2360},{\"page_index\":6,\"viewing_time\":890},{\"page_index\":7,\"viewing_time\":3417}]","rt":46302,"trial_type":"instructions","trial_index":5,"time_elapsed":340613,"internal_node_id":"0.0-5.0-0.0","task_version":"screening-prolific"},{"responses":["True","True","False","False","True"],"num_errors":0,"rt":21389,"trial_type":"three-arm-comprehension","trial_index":6,"time_elapsed":362009,"internal_node_id":"0.0-5.0-1.0","task_version":"screening-prolific"},{"view_history":"[{\"page_index\":0,\"viewing_time\":2313}]","rt":2313,"trial_type":"instructions","trial_index":7,"time_elapsed":364326,"internal_node_id":"0.0-6.0","task_version":"screening-prolific"},{"contexts":["green","blue","red"],"outcomes":[0,1,0],"key":38,"choice":1,"rt":2493,"outcome":1,"trial":1,"correct":1,"trial_type":"three-arm-trial","trial_index":8,"time_elapsed":368037,"internal_node_id":"0.0-7.0-0.0","task_version":"screening-prolific","missing":false,"accuracy":1},{"contexts":["green","blue","red"],"outcomes":[0,1,0],"key":37,"choice":0,"rt":1906,"outcome":0,"trial":2,"correct":1,"trial_type":"three-arm-trial","trial_index":9,"time_elapsed":371151,"internal_node_id":"0.0-8.0-0.0","task_version":"screening-prolific","missing":false,"accuracy":0},{"contexts":["green","blue","red"],"outcomes":[0,1,0],"key":39,"choice":2,"rt":1176,"outcome":0,"trial":3,"correct":1,"trial_type":"three-arm-trial","trial_index":10,"time_elapsed":373533,"internal_node_id":"0.0-9.0-0.0","task_version":"screening-prolific","missing":false,"accuracy":0},{"contexts":["green","blue","red"],"outcomes":[0,0,1],"key":38,"choice":1,"rt":970,"outcome":0,"trial":4,"correct":1,"trial_type":"three-arm-trial","trial_index":11,"time_elapsed":375715,"internal_node_id":"0.0-10.0-0.0","task_version":"screening-prolific","missing":false,"accuracy":1},{"contexts":["green","blue","red"],"outcomes":[1,1,0],"key":37,"choice":0,"rt":988,"outcome":1,"trial":5,"correct":1,"trial_type":"three-arm-trial","trial_index":12,"time_elapsed":377914,"internal_node_id":"0.0-11.0-0.0","task_version":"screening-prolific","missing":false,"accuracy":0},{"contexts":["green","blue","red"],"outcomes":[0,1,0],"key":37,"choice":0,"rt":490,"outcome":0,"trial":6,"correct":1,"trial_type":"three-arm-trial","trial_index":13,"time_elapsed":379613,"internal_node_id":"0.0-12.0-0.0","task_version":"screening-prolific","missing":false,"accuracy":0},{"contexts":["green","blue","red"],"outcomes":[0,1,0],"key":39,"choice":2,"rt":673,"outcome":0,"trial":7,"correct":1,"trial_type":"three-arm-trial","trial_index":14,"time_elapsed":381497,"internal_node_id":"0.0-13.0-0.0","task_version":"screening-prolific","missing":false,"accuracy":0},{"contexts":["green","blue","red"],"outcomes":[0,1,1],"key":38,"choice":1,"rt":452,"outcome":1,"trial":8,"correct":1,"trial_type":"three-arm-trial","trial_index":15,"time_elapsed":383160,"internal_node_id":"0.0-14.0-0.0","task_version":"screening-prolific","missing":false,"accuracy":1},{"contexts":["green","blue","red"],"outcomes":[0,1,1],"key":37,"choice":0,"rt":834,"outcome":0,"trial":9,"correct":1,"trial_type":"three-arm-trial","trial_index":16,"time_elapsed":385204,"internal_node_id":"0.0-15.0-0.0","task_version":"screening-prolific","missing":false,"accuracy":0},{"contexts":["green","blue","red"],"outcomes":[0,0,0],"key":38,"choice":1,"rt":356,"outcome":0,"trial":10,"correct":1,"trial_type":"three-arm-trial","trial_index":17,"time_elapsed":386764,"internal_node_id":"0.0-16.0-0.0","task_version":"screening-prolific","missing":false,"accuracy":1},{"contexts":["green","blue","red"],"outcomes":[1,1,0],"key":39,"choice":2,"rt":361,"outcome":0,"trial":11,"correct":1,"trial_type":"three-arm-trial","trial_index":18,"time_elapsed":388332,"internal_node_id":"0.0-17.0-0.0","task_version":"screening-prolific","missing":false,"accuracy":0},{"contexts":["green","blue","red"],"outcomes":[0,1,0],"key":37,"choice":0,"rt":427,"outcome":0,"trial":12,"correct":1,"trial_type":"three-arm-trial","trial_index":19,"time_elapsed":389973,"internal_node_id":"0.0-18.0-0.0","task_version":"screening-prolific","missing":false,"accuracy":0},{"contexts":["green","blue","red"],"outcomes":[0,1,0],"key":38,"choice":1,"rt":504,"outcome":1,"trial":13,"correct":1,"trial_type":"three-arm-trial","trial_index":20,"time_elapsed":391689,"internal_node_id":"0.0-19.0-0.0","task_version":"screening-prolific","missing":false,"accuracy":1},{"contexts":["green","blue","red"],"outcomes":[0,1,0],"key":38,"choice":1,"rt":549,"outcome":1,"trial":14,"correct":1,"trial_type":"three-arm-trial","trial_index":21,"time_elapsed":393446,"internal_node_id":"0.0-20.0-0.0","task_version":"screening-prolific","missing":false,"accuracy":1},{"contexts":["green","blue","red"],"outcomes":[0,0,0],"key":38,"choice":1,"rt":416,"outcome":0,"trial":15,"correct":1,"trial_type":"three-arm-trial","trial_index":22,"time_elapsed":395070,"internal_node_id":"0.0-21.0-0.0","task_version":"screening-prolific","missing":false,"accuracy":1},{"contexts":["green","blue","red"],"outcomes":[1,0,1],"key":37,"choice":0,"rt":553,"outcome":1,"trial":16,"correct":2,"trial_type":"three-arm-trial","trial_index":23,"time_elapsed":396836,"internal_node_id":"0.0-22.0-0.0","task_version":"screening-prolific","missing":false,"accuracy":0},{"contexts":["green","blue","red"],"outcomes":[0,0,1],"key":39,"choice":2,"rt":810,"outcome":1,"trial":17,"correct":2,"trial_type":"three-arm-trial","trial_index":24,"time_elapsed":398852,"internal_node_id":"0.0-23.0-0.0","task_version":"screening-prolific","missing":false,"accuracy":1},{"contexts":["green","blue","red"],"outcomes":[0,0,1],"key":37,"choice":0,"rt":690,"outcome":0,"trial":18,"correct":2,"trial_type":"three-arm-trial","trial_index":25,"time_elapsed":400751,"internal_node_id":"0.0-24.0-0.0","task_version":"screening-prolific","missing":false,"accuracy":0},{"contexts":["green","blue","red"],"outcomes":[0,0,1],"key":38,"choice":1,"rt":432,"outcome":0,"trial":19,"correct":2,"trial_type":"three-arm-trial","trial_index":26,"time_elapsed":402394,"internal_node_id":"0.0-25.0-0.0","task_version":"screening-prolific","missing":false,"accuracy":0},{"contexts":["green","blue","red"],"outcomes":[0,1,1],"key":39,"choice":2,"rt":323,"outcome":1,"trial":20,"correct":2,"trial_type":"three-arm-trial","trial_index":27,"time_elapsed":403923,"internal_node_id":"0.0-26.0-0.0","task_version":"screening-prolific","missing":false,"accuracy":1},{"contexts":["green","blue","red"],"outcomes":[0,0,1],"key":39,"choice":2,"rt":590,"outcome":1,"trial":21,"correct":2,"trial_type":"three-arm-trial","trial_index":28,"time_elapsed":405724,"internal_node_id":"0.0-27.0-0.0","task_version":"screening-prolific","missing":false,"accuracy":1},{"contexts":["green","blue","red"],"outcomes":[0,0,1],"key":39,"choice":2,"rt":610,"outcome":1,"trial":22,"correct":2,"trial_type":"three-arm-trial","trial_index":29,"time_elapsed":407537,"internal_node_id":"0.0-28.0-0.0","task_version":"screening-prolific","missing":false,"accuracy":1},{"contexts":["green","blue","red"],"outcomes":[1,0,1],"key":38,"choice":1,"rt":589,"outcome":0,"trial":23,"correct":2,"trial_type":"three-arm-trial","trial_index":30,"time_elapsed":409333,"internal_node_id":"0.0-29.0-0.0","task_version":"screening-prolific","missing":false,"accuracy":0},{"contexts":["green","blue","red"],"outcomes":[0,0,1],"key":37,"choice":0,"rt":563,"outcome":0,"trial":24,"correct":2,"trial_type":"three-arm-trial","trial_index":31,"time_elapsed":411104,"internal_node_id":"0.0-30.0-0.0","task_version":"screening-prolific","missing":false,"accuracy":0},{"contexts":["green","blue","red"],"outcomes":[0,1,1],"key":39,"choice":2,"rt":346,"outcome":1,"trial":25,"correct":2,"trial_type":"three-arm-trial","trial_index":32,"time_elapsed":412654,"internal_node_id":"0.0-31.0-0.0","task_version":"screening-prolific","missing":false,"accuracy":1},{"contexts":["green","blue","red"],"outcomes":[1,0,1],"key":39,"choice":2,"rt":472,"outcome":1,"trial":26,"correct":2,"trial_type":"three-arm-trial","trial_index":33,"time_elapsed":414334,"internal_node_id":"0.0-32.0-0.0","task_version":"screening-prolific","missing":false,"accuracy":1},{"contexts":["green","blue","red"],"outcomes":[0,1,1],"key":39,"choice":2,"rt":379,"outcome":1,"trial":27,"correct":2,"trial_type":"three-arm-trial","trial_index":34,"time_elapsed":415926,"internal_node_id":"0.0-33.0-0.0","task_version":"screening-prolific","missing":false,"accuracy":1},{"contexts":["green","blue","red"],"outcomes":[1,0,1],"key":39,"choice":2,"rt":424,"outcome":1,"trial":28,"correct":2,"trial_type":"three-arm-trial","trial_index":35,"time_elapsed":417558,"internal_node_id":"0.0-34.0-0.0","task_version":"screening-prolific","missing":false,"accuracy":1},{"contexts":["green","blue","red"],"outcomes":[1,0,1],"key":39,"choice":2,"rt":539,"outcome":1,"trial":29,"correct":2,"trial_type":"three-arm-trial","trial_index":36,"time_elapsed":419304,"internal_node_id":"0.0-35.0-0.0","task_version":"screening-prolific","missing":false,"accuracy":1},{"contexts":["green","blue","red"],"outcomes":[0,0,1],"key":39,"choice":2,"rt":519,"outcome":1,"trial":30,"correct":2,"trial_type":"three-arm-trial","trial_index":37,"time_elapsed":421029,"internal_node_id":"0.0-36.0-0.0","task_version":"screening-prolific","missing":false,"accuracy":1},{"contexts":["green","blue","red"],"outcomes":[1,0,0],"key":39,"choice":2,"rt":628,"outcome":0,"trial":31,"correct":0,"trial_type":"three-arm-trial","trial_index":38,"time_elapsed":422861,"internal_node_id":"0.0-37.0-0.0","task_version":"screening-prolific","missing":false,"accuracy":0},{"contexts":["green","blue","red"],"outcomes":[1,0,0],"key":38,"choice":1,"rt":393,"outcome":0,"trial":32,"correct":0,"trial_type":"three-arm-trial","trial_index":39,"time_elapsed":424465,"internal_node_id":"0.0-38.0-0.0","task_version":"screening-prolific","missing":false,"accuracy":0},{"contexts":["green","blue","red"],"outcomes":[1,1,0],"key":39,"choice":2,"rt":405,"outcome":0,"trial":33,"correct":0,"trial_type":"three-arm-trial","trial_index":40,"time_elapsed":426076,"internal_node_id":"0.0-39.0-0.0","task_version":"screening-prolific","missing":false,"accuracy":0},{"contexts":["green","blue","red"],"outcomes":[0,0,0],"key":37,"choice":0,"rt":487,"outcome":0,"trial":34,"correct":0,"trial_type":"three-arm-trial","trial_index":41,"time_elapsed":427768,"internal_node_id":"0.0-40.0-0.0","task_version":"screening-prolific","missing":false,"accuracy":1},{"contexts":["green","blue","red"],"outcomes":[1,0,0],"key":38,"choice":1,"rt":601,"outcome":0,"trial":35,"correct":0,"trial_type":"three-arm-trial","trial_index":42,"time_elapsed":429572,"internal_node_id":"0.0-41.0-0.0","task_version":"screening-prolific","missing":false,"accuracy":0},{"contexts":["green","blue","red"],"outcomes":[1,1,0],"key":38,"choice":1,"rt":533,"outcome":1,"trial":36,"correct":0,"trial_type":"three-arm-trial","trial_index":43,"time_elapsed":431313,"internal_node_id":"0.0-42.0-0.0","task_version":"screening-prolific","missing":false,"accuracy":0},{"contexts":["green","blue","red"],"outcomes":[1,0,1],"key":38,"choice":1,"rt":514,"outcome":0,"trial":37,"correct":0,"trial_type":"three-arm-trial","trial_index":44,"time_elapsed":433032,"internal_node_id":"0.0-43.0-0.0","task_version":"screening-prolific","missing":false,"accuracy":0},{"contexts":["green","blue","red"],"outcomes":[1,1,0],"key":38,"choice":1,"rt":1173,"outcome":1,"trial":38,"correct":0,"trial_type":"three-arm-trial","trial_index":45,"time_elapsed":435414,"internal_node_id":"0.0-44.0-0.0","task_version":"screening-prolific","missing":false,"accuracy":0},{"contexts":["green","blue","red"],"outcomes":[1,0,0],"key":38,"choice":1,"rt":570,"outcome":0,"trial":39,"correct":0,"trial_type":"three-arm-trial","trial_index":46,"time_elapsed":437187,"internal_node_id":"0.0-45.0-0.0","task_version":"screening-prolific","missing":false,"accuracy":0},{"contexts":["green","blue","red"],"outcomes":[1,1,0],"key":37,"choice":0,"rt":436,"outcome":1,"trial":40,"correct":0,"trial_type":"three-arm-trial","trial_index":47,"time_elapsed":438825,"internal_node_id":"0.0-46.0-0.0","task_version":"screening-prolific","missing":false,"accuracy":1},{"contexts":["green","blue","red"],"outcomes":[0,0,0],"key":37,"choice":0,"rt":474,"outcome":0,"trial":41,"correct":0,"trial_type":"three-arm-trial","trial_index":48,"time_elapsed":440501,"internal_node_id":"0.0-47.0-0.0","task_version":"screening-prolific","missing":false,"accuracy":1},{"contexts":["green","blue","red"],"outcomes":[0,1,0],"key":37,"choice":0,"rt":366,"outcome":0,"trial":42,"correct":0,"trial_type":"three-arm-trial","trial_index":49,"time_elapsed":442074,"internal_node_id":"0.0-48.0-0.0","task_version":"screening-prolific","missing":false,"accuracy":1},{"contexts":["green","blue","red"],"outcomes":[1,0,0],"key":39,"choice":2,"rt":420,"outcome":0,"trial":43,"correct":0,"trial_type":"three-arm-trial","trial_index":50,"time_elapsed":443704,"internal_node_id":"0.0-49.0-0.0","task_version":"screening-prolific","missing":false,"accuracy":0},{"contexts":["green","blue","red"],"outcomes":[1,1,0],"key":39,"choice":2,"rt":438,"outcome":0,"trial":44,"correct":0,"trial_type":"three-arm-trial","trial_index":51,"time_elapsed":445349,"internal_node_id":"0.0-50.0-0.0","task_version":"screening-prolific","missing":false,"accuracy":0},{"contexts":["green","blue","red"],"outcomes":[1,0,0],"key":38,"choice":1,"rt":450,"outcome":0,"trial":45,"correct":0,"trial_type":"three-arm-trial","trial_index":52,"time_elapsed":447006,"internal_node_id":"0.0-51.0-0.0","task_version":"screening-prolific","missing":false,"accuracy":0},{"contexts":["green","blue","red"],"outcomes":[0,0,1],"key":38,"choice":1,"rt":374,"outcome":0,"trial":46,"correct":2,"trial_type":"three-arm-trial","trial_index":53,"time_elapsed":448591,"internal_node_id":"0.0-52.0-0.0","task_version":"screening-prolific","missing":false,"accuracy":0},{"contexts":["green","blue","red"],"outcomes":[0,0,1],"key":39,"choice":2,"rt":367,"outcome":1,"trial":47,"correct":2,"trial_type":"three-arm-trial","trial_index":54,"time_elapsed":450161,"internal_node_id":"0.0-53.0-0.0","task_version":"screening-prolific","missing":false,"accuracy":1},{"contexts":["green","blue","red"],"outcomes":[0,0,0],"key":38,"choice":1,"rt":620,"outcome":0,"trial":48,"correct":2,"trial_type":"three-arm-trial","trial_index":55,"time_elapsed":451989,"internal_node_id":"0.0-54.0-0.0","task_version":"screening-prolific","missing":false,"accuracy":0},{"contexts":["green","blue","red"],"outcomes":[0,1,1],"key":39,"choice":2,"rt":462,"outcome":1,"trial":49,"correct":2,"trial_type":"three-arm-trial","trial_index":56,"time_elapsed":453654,"internal_node_id":"0.0-55.0-0.0","task_version":"screening-prolific","missing":false,"accuracy":1},{"contexts":["green","blue","red"],"outcomes":[0,0,1],"key":39,"choice":2,"rt":854,"outcome":1,"trial":50,"correct":2,"trial_type":"three-arm-trial","trial_index":57,"time_elapsed":455720,"internal_node_id":"0.0-56.0-0.0","task_version":"screening-prolific","missing":false,"accuracy":1},{"contexts":["green","blue","red"],"outcomes":[0,1,1],"key":39,"choice":2,"rt":757,"outcome":1,"trial":51,"correct":2,"trial_type":"three-arm-trial","trial_index":58,"time_elapsed":457688,"internal_node_id":"0.0-57.0-0.0","task_version":"screening-prolific","missing":false,"accuracy":1},{"contexts":["green","blue","red"],"outcomes":[0,1,1],"key":39,"choice":2,"rt":618,"outcome":1,"trial":52,"correct":2,"trial_type":"three-arm-trial","trial_index":59,"time_elapsed":459518,"internal_node_id":"0.0-58.0-0.0","task_version":"screening-prolific","missing":false,"accuracy":1},{"contexts":["green","blue","red"],"outcomes":[0,1,1],"key":39,"choice":2,"rt":566,"outcome":1,"trial":53,"correct":2,"trial_type":"three-arm-trial","trial_index":60,"time_elapsed":461290,"internal_node_id":"0.0-59.0-0.0","task_version":"screening-prolific","missing":false,"accuracy":1},{"contexts":["green","blue","red"],"outcomes":[1,0,1],"key":39,"choice":2,"rt":571,"outcome":1,"trial":54,"correct":2,"trial_type":"three-arm-trial","trial_index":61,"time_elapsed":463065,"internal_node_id":"0.0-60.0-0.0","task_version":"screening-prolific","missing":false,"accuracy":1},{"contexts":["green","blue","red"],"outcomes":[1,1,1],"key":39,"choice":2,"rt":523,"outcome":1,"trial":55,"correct":2,"trial_type":"three-arm-trial","trial_index":62,"time_elapsed":464797,"internal_node_id":"0.0-61.0-0.0","task_version":"screening-prolific","missing":false,"accuracy":1},{"contexts":["green","blue","red"],"outcomes":[1,0,1],"key":39,"choice":2,"rt":379,"outcome":1,"trial":56,"correct":2,"trial_type":"three-arm-trial","trial_index":63,"time_elapsed":466384,"internal_node_id":"0.0-62.0-0.0","task_version":"screening-prolific","missing":false,"accuracy":1},{"contexts":["green","blue","red"],"outcomes":[0,1,1],"key":39,"choice":2,"rt":513,"outcome":1,"trial":57,"correct":2,"trial_type":"three-arm-trial","trial_index":64,"time_elapsed":468103,"internal_node_id":"0.0-63.0-0.0","task_version":"screening-prolific","missing":false,"accuracy":1},{"contexts":["green","blue","red"],"outcomes":[1,0,1],"key":39,"choice":2,"rt":518,"outcome":1,"trial":58,"correct":2,"trial_type":"three-arm-trial","trial_index":65,"time_elapsed":469829,"internal_node_id":"0.0-64.0-0.0","task_version":"screening-prolific","missing":false,"accuracy":1},{"contexts":["green","blue","red"],"outcomes":[0,0,1],"key":39,"choice":2,"rt":601,"outcome":1,"trial":59,"correct":2,"trial_type":"three-arm-trial","trial_index":66,"time_elapsed":471631,"internal_node_id":"0.0-65.0-0.0","task_version":"screening-prolific","missing":false,"accuracy":1},{"contexts":["green","blue","red"],"outcomes":[0,0,1],"key":39,"choice":2,"rt":595,"outcome":1,"trial":60,"correct":2,"trial_type":"three-arm-trial","trial_index":67,"time_elapsed":473433,"internal_node_id":"0.0-66.0-0.0","task_version":"screening-prolific","missing":false,"accuracy":1},{"contexts":["green","blue","red"],"outcomes":[1,0,0],"key":39,"choice":2,"rt":552,"outcome":0,"trial":61,"correct":0,"trial_type":"three-arm-trial","trial_index":68,"time_elapsed":475193,"internal_node_id":"0.0-67.0-0.0","task_version":"screening-prolific","missing":false,"accuracy":0},{"contexts":["green","blue","red"],"outcomes":[1,0,0],"key":37,"choice":0,"rt":583,"outcome":1,"trial":62,"correct":0,"trial_type":"three-arm-trial","trial_index":69,"time_elapsed":476981,"internal_node_id":"0.0-68.0-0.0","task_version":"screening-prolific","missing":false,"accuracy":1},{"contexts":["green","blue","red"],"outcomes":[1,0,0],"key":38,"choice":1,"rt":889,"outcome":0,"trial":63,"correct":0,"trial_type":"three-arm-trial","trial_index":70,"time_elapsed":479074,"internal_node_id":"0.0-69.0-0.0","task_version":"screening-prolific","missing":false,"accuracy":0},{"contexts":["green","blue","red"],"outcomes":[1,0,1],"key":37,"choice":0,"rt":321,"outcome":1,"trial":64,"correct":0,"trial_type":"three-arm-trial","trial_index":71,"time_elapsed":480606,"internal_node_id":"0.0-70.0-0.0","task_version":"screening-prolific","missing":false,"accuracy":1},{"contexts":["green","blue","red"],"outcomes":[1,0,0],"key":37,"choice":0,"rt":736,"outcome":1,"trial":65,"correct":0,"trial_type":"three-arm-trial","trial_index":72,"time_elapsed":482557,"internal_node_id":"0.0-71.0-0.0","task_version":"screening-prolific","missing":false,"accuracy":1},{"contexts":["green","blue","red"],"outcomes":[1,1,0],"key":37,"choice":0,"rt":650,"outcome":1,"trial":66,"correct":0,"trial_type":"three-arm-trial","trial_index":73,"time_elapsed":484414,"internal_node_id":"0.0-72.0-0.0","task_version":"screening-prolific","missing":false,"accuracy":1},{"contexts":["green","blue","red"],"outcomes":[1,0,0],"key":37,"choice":0,"rt":564,"outcome":1,"trial":67,"correct":0,"trial_type":"three-arm-trial","trial_index":74,"time_elapsed":486187,"internal_node_id":"0.0-73.0-0.0","task_version":"screening-prolific","missing":false,"accuracy":1},{"contexts":["green","blue","red"],"outcomes":[0,0,0],"key":37,"choice":0,"rt":594,"outcome":0,"trial":68,"correct":0,"trial_type":"three-arm-trial","trial_index":75,"time_elapsed":487985,"internal_node_id":"0.0-74.0-0.0","task_version":"screening-prolific","missing":false,"accuracy":1},{"contexts":["green","blue","red"],"outcomes":[0,0,0],"key":39,"choice":2,"rt":268,"outcome":0,"trial":69,"correct":0,"trial_type":"three-arm-trial","trial_index":76,"time_elapsed":489458,"internal_node_id":"0.0-75.0-0.0","task_version":"screening-prolific","missing":false,"accuracy":0},{"contexts":["green","blue","red"],"outcomes":[1,0,1],"key":39,"choice":2,"rt":396,"outcome":1,"trial":70,"correct":0,"trial_type":"three-arm-trial","trial_index":77,"time_elapsed":491057,"internal_node_id":"0.0-76.0-0.0","task_version":"screening-prolific","missing":false,"accuracy":0},{"contexts":["green","blue","red"],"outcomes":[1,0,0],"key":39,"choice":2,"rt":508,"outcome":0,"trial":71,"correct":0,"trial_type":"three-arm-trial","trial_index":78,"time_elapsed":492772,"internal_node_id":"0.0-77.0-0.0","task_version":"screening-prolific","missing":false,"accuracy":0},{"contexts":["green","blue","red"],"outcomes":[1,1,1],"key":38,"choice":1,"rt":300,"outcome":1,"trial":72,"correct":0,"trial_type":"three-arm-trial","trial_index":79,"time_elapsed":494278,"internal_node_id":"0.0-78.0-0.0","task_version":"screening-prolific","missing":false,"accuracy":0},{"contexts":["green","blue","red"],"outcomes":[1,0,1],"key":39,"choice":2,"rt":396,"outcome":1,"trial":73,"correct":0,"trial_type":"three-arm-trial","trial_index":80,"time_elapsed":495880,"internal_node_id":"0.0-79.0-0.0","task_version":"screening-prolific","missing":false,"accuracy":0},{"contexts":["green","blue","red"],"outcomes":[1,0,0],"key":39,"choice":2,"rt":466,"outcome":0,"trial":74,"correct":0,"trial_type":"three-arm-trial","trial_index":81,"time_elapsed":497552,"internal_node_id":"0.0-80.0-0.0","task_version":"screening-prolific","missing":false,"accuracy":0},{"contexts":["green","blue","red"],"outcomes":[1,0,0],"key":38,"choice":1,"rt":392,"outcome":0,"trial":75,"correct":0,"trial_type":"three-arm-trial","trial_index":82,"time_elapsed":499154,"internal_node_id":"0.0-81.0-0.0","task_version":"screening-prolific","missing":false,"accuracy":0},{"contexts":["green","blue","red"],"outcomes":[0,1,0],"key":37,"choice":0,"rt":296,"outcome":0,"trial":76,"correct":1,"trial_type":"three-arm-trial","trial_index":83,"time_elapsed":500661,"internal_node_id":"0.0-82.0-0.0","task_version":"screening-prolific","missing":false,"accuracy":0},{"contexts":["green","blue","red"],"outcomes":[0,1,0],"key":39,"choice":2,"rt":379,"outcome":0,"trial":77,"correct":1,"trial_type":"three-arm-trial","trial_index":84,"time_elapsed":502244,"internal_node_id":"0.0-83.0-0.0","task_version":"screening-prolific","missing":false,"accuracy":0},{"contexts":["green","blue","red"],"outcomes":[0,1,0],"key":38,"choice":1,"rt":505,"outcome":1,"trial":78,"correct":1,"trial_type":"three-arm-trial","trial_index":85,"time_elapsed":503954,"internal_node_id":"0.0-84.0-0.0","task_version":"screening-prolific","missing":false,"accuracy":1},{"contexts":["green","blue","red"],"outcomes":[0,1,1],"key":38,"choice":1,"rt":438,"outcome":1,"trial":79,"correct":1,"trial_type":"three-arm-trial","trial_index":86,"time_elapsed":505599,"internal_node_id":"0.0-85.0-0.0","task_version":"screening-prolific","missing":false,"accuracy":1},{"contexts":["green","blue","red"],"outcomes":[1,1,0],"key":38,"choice":1,"rt":475,"outcome":1,"trial":80,"correct":1,"trial_type":"three-arm-trial","trial_index":87,"time_elapsed":507280,"internal_node_id":"0.0-86.0-0.0","task_version":"screening-prolific","missing":false,"accuracy":1},{"contexts":["green","blue","red"],"outcomes":[0,1,1],"key":38,"choice":1,"rt":506,"outcome":1,"trial":81,"correct":1,"trial_type":"three-arm-trial","trial_index":88,"time_elapsed":508994,"internal_node_id":"0.0-87.0-0.0","task_version":"screening-prolific","missing":false,"accuracy":1},{"contexts":["green","blue","red"],"outcomes":[0,1,0],"key":38,"choice":1,"rt":603,"outcome":1,"trial":82,"correct":1,"trial_type":"three-arm-trial","trial_index":89,"time_elapsed":510805,"internal_node_id":"0.0-88.0-0.0","task_version":"screening-prolific","missing":false,"accuracy":1},{"contexts":["green","blue","red"],"outcomes":[0,1,0],"key":38,"choice":1,"rt":708,"outcome":1,"trial":83,"correct":1,"trial_type":"three-arm-trial","trial_index":90,"time_elapsed":512720,"internal_node_id":"0.0-89.0-0.0","task_version":"screening-prolific","missing":false,"accuracy":1},{"contexts":["green","blue","red"],"outcomes":[1,1,0],"key":38,"choice":1,"rt":453,"outcome":1,"trial":84,"correct":1,"trial_type":"three-arm-trial","trial_index":91,"time_elapsed":514385,"internal_node_id":"0.0-90.0-0.0","task_version":"screening-prolific","missing":false,"accuracy":1},{"contexts":["green","blue","red"],"outcomes":[1,1,0],"key":38,"choice":1,"rt":563,"outcome":1,"trial":85,"correct":1,"trial_type":"three-arm-trial","trial_index":92,"time_elapsed":516153,"internal_node_id":"0.0-91.0-0.0","task_version":"screening-prolific","missing":false,"accuracy":1},{"contexts":["green","blue","red"],"outcomes":[0,1,0],"key":38,"choice":1,"rt":542,"outcome":1,"trial":86,"correct":1,"trial_type":"three-arm-trial","trial_index":93,"time_elapsed":517901,"internal_node_id":"0.0-92.0-0.0","task_version":"screening-prolific","missing":false,"accuracy":1},{"contexts":["green","blue","red"],"outcomes":[0,1,0],"key":38,"choice":1,"rt":503,"outcome":1,"trial":87,"correct":1,"trial_type":"three-arm-trial","trial_index":94,"time_elapsed":519618,"internal_node_id":"0.0-93.0-0.0","task_version":"screening-prolific","missing":false,"accuracy":1},{"contexts":["green","blue","red"],"outcomes":[0,1,0],"key":38,"choice":1,"rt":552,"outcome":1,"trial":88,"correct":1,"trial_type":"three-arm-trial","trial_index":95,"time_elapsed":521371,"internal_node_id":"0.0-94.0-0.0","task_version":"screening-prolific","missing":false,"accuracy":1},{"contexts":["green","blue","red"],"outcomes":[0,1,0],"key":38,"choice":1,"rt":604,"outcome":1,"trial":89,"correct":1,"trial_type":"three-arm-trial","trial_index":96,"time_elapsed":523182,"internal_node_id":"0.0-95.0-0.0","task_version":"screening-prolific","missing":false,"accuracy":1},{"contexts":["green","blue","red"],"outcomes":[0,1,0],"key":38,"choice":1,"rt":569,"outcome":1,"trial":90,"correct":1,"trial_type":"three-arm-trial","trial_index":97,"time_elapsed":524954,"internal_node_id":"0.0-96.0-0.0","task_version":"screening-prolific","missing":false,"accuracy":1},{"rt":23746,"responses":{"age":"27","gender-categorical":"Female","gender-free-response":"","ethnicity":"Not Hispanic or Latino","race":["Asian"],"language":"Yes","fluency":"Very well","mturk":"No","mturk-this-study":"No"},"survey":"demographics","trial_type":"survey-demo","trial_index":98,"time_elapsed":548710,"internal_node_id":"0.0-97.0","task_version":"screening-prolific","interactions":"[{\"event\":\"focus\",\"trial\":0,\"time\":0},{\"event\":\"blur\",\"trial\":1,\"time\":181520},{\"event\":\"focus\",\"trial\":1,\"time\":182009}]"}]