[{"responses":{"Q14":"2","Q09":"2","Q01":"2","Q03":"3","Q04":"3","Q11":"1","Q15":"3","Q07":"2","Q06":"3","Q02":"2","Q10":"1","Q13":"3","Q12":"2","Q08":"3","Q05":"1"},"rt":149617.94500000542,"survey":"shaps","trial_type":"survey-template","trial_index":0,"time_elapsed":149628,"internal_node_id":"0.0-0.0","task_version":"screening-prolific"},{"responses":{"Q01":"4","Q03":"4","Q02":"4"},"rt":8087.765000003856,"survey":"pswq","trial_type":"survey-template","trial_index":1,"time_elapsed":157719,"internal_node_id":"0.0-1.0","task_version":"screening-prolific"},{"responses":{"Q08":"0","Q05":"1","Q06":"3","Q03":"3","Q02":"3","Q07":"3","Q04":"3","Q01":"3"},"rt":22333.884999970905,"survey":"gad7","trial_type":"survey-template","trial_index":2,"time_elapsed":180057,"internal_node_id":"0.0-2.0","task_version":"screening-prolific"},{"responses":{"Q14":"1","Q07":"0","Q05":"3","Q15":"0","Q01":"1","Q06":"1","Q04":"0","Q02":"2","Q09":"3","Q08":"0","Q12":"2","Q03":"1","Q10":"2","Q11":"3","Q13":"1"},"rt":367561.63000001106,"survey":"7up7down","trial_type":"survey-template","trial_index":3,"time_elapsed":547622,"internal_node_id":"0.0-3.0","task_version":"screening-prolific"},{"responses":{"Q08":"3","Q06":"3","Q11":"3","Q04":"3","Q12":"0","Q03":"3","Q10":"3","Q05":"3","Q02":"2","Q01":"3","Q13":"3","Q09":"2","Q07":"3"},"rt":93732.2700000368,"survey":"bisbas","trial_type":"survey-template","trial_index":4,"time_elapsed":641358,"internal_node_id":"0.0-4.0","task_version":"screening-prolific"},{"view_history":"[{\"page_index\":0,\"viewing_time\":5485.420000040904},{\"page_index\":1,\"viewing_time\":7173.989999981131},{\"page_index\":2,\"viewing_time\":3504.659999976866},{\"page_index\":1,\"viewing_time\":3159.1800000169314},{\"page_index\":2,\"viewing_time\":360.06999999517575},{\"page_index\":3,\"viewing_time\":4768.214999989141},{\"page_index\":4,\"viewing_time\":3664.130000048317},{\"page_index\":5,\"viewing_time\":5767.554999969434},{\"page_index\":6,\"viewing_time\":3168.070000014268},{\"page_index\":7,\"viewing_time\":2248.0600000126287}]","rt":39299.75000000559,"trial_type":"instructions","trial_index":5,"time_elapsed":680659,"internal_node_id":"0.0-5.0-0.0","task_version":"screening-prolific"},{"responses":["True","True","False","True","True"],"num_errors":1,"rt":22694.684999994934,"trial_type":"three-arm-comprehension","trial_index":6,"time_elapsed":703356,"internal_node_id":"0.0-5.0-1.0","task_version":"screening-prolific"},{"view_history":"[{\"page_index\":0,\"viewing_time\":3050.9450000245124},{\"page_index\":1,\"viewing_time\":5104.285000008531},{\"page_index\":2,\"viewing_time\":1415.485000004992},{\"page_index\":3,\"viewing_time\":2464.174999971874},{\"page_index\":4,\"viewing_time\":9640.095000038855},{\"page_index\":5,\"viewing_time\":3327.854999981355},{\"page_index\":6,\"viewing_time\":1048.1699999654666},{\"page_index\":7,\"viewing_time\":855.8049999992363}]","rt":26907.01500000432,"trial_type":"instructions","trial_index":7,"time_elapsed":730267,"internal_node_id":"0.0-5.1-0.1","task_version":"screening-prolific"},{"responses":["True","True","False","False","True"],"num_errors":0,"rt":21015.145000012126,"trial_type":"three-arm-comprehension","trial_index":8,"time_elapsed":751284,"internal_node_id":"0.0-5.1-1.1","task_version":"screening-prolific"},{"view_history":"[{\"page_index\":0,\"viewing_time\":1916.0499999998137}]","rt":1916.2600000272505,"trial_type":"instructions","trial_index":9,"time_elapsed":753203,"internal_node_id":"0.0-6.0","task_version":"screening-prolific"},{"contexts":["blue","red","green"],"outcomes":[0,0,1],"key":39,"choice":2,"rt":4110.555000021122,"outcome":1,"trial":1,"correct":2,"trial_type":"three-arm-trial","trial_index":10,"time_elapsed":758516,"internal_node_id":"0.0-7.0-0.0","task_version":"screening-prolific","missing":false,"accuracy":1},{"contexts":["blue","red","green"],"outcomes":[0,0,1],"key":39,"choice":2,"rt":21.234999992884696,"outcome":1,"trial":2,"correct":2,"trial_type":"three-arm-trial","trial_index":11,"time_elapsed":759740,"internal_node_id":"0.0-8.0-0.0","task_version":"screening-prolific","missing":false,"accuracy":1},{"contexts":["blue","red","green"],"outcomes":[0,0,1],"key":39,"choice":2,"rt":1940.7849999843165,"outcome":1,"trial":3,"correct":2,"trial_type":"three-arm-trial","trial_index":12,"time_elapsed":762884,"internal_node_id":"0.0-9.0-0.0","task_version":"screening-prolific","missing":false,"accuracy":1},{"contexts":["blue","red","green"],"outcomes":[0,1,1],"key":37,"choice":0,"rt":438.46999999368563,"outcome":0,"trial":4,"correct":2,"trial_type":"three-arm-trial","trial_index":13,"time_elapsed":764525,"internal_node_id":"0.0-10.0-0.0","task_version":"screening-prolific","missing":false,"accuracy":0},{"contexts":["blue","red","green"],"outcomes":[0,0,1],"key":38,"choice":1,"rt":397.484999964945,"outcome":0,"trial":5,"correct":2,"trial_type":"three-arm-trial","trial_index":14,"time_elapsed":766124,"internal_node_id":"0.0-11.0-0.0","task_version":"screening-prolific","missing":false,"accuracy":0},{"contexts":["blue","red","green"],"outcomes":[0,0,1],"key":39,"choice":2,"rt":469.18999997433275,"outcome":1,"trial":6,"correct":2,"trial_type":"three-arm-trial","trial_index":15,"time_elapsed":767796,"internal_node_id":"0.0-12.0-0.0","task_version":"screening-prolific","missing":false,"accuracy":1},{"contexts":["blue","red","green"],"outcomes":[0,0,0],"key":39,"choice":2,"rt":253.92500002635643,"outcome":0,"trial":7,"correct":2,"trial_type":"three-arm-trial","trial_index":16,"time_elapsed":769253,"internal_node_id":"0.0-13.0-0.0","task_version":"screening-prolific","missing":false,"accuracy":1},{"contexts":["blue","red","green"],"outcomes":[0,0,1],"key":37,"choice":0,"rt":236.38000001665205,"outcome":0,"trial":8,"correct":2,"trial_type":"three-arm-trial","trial_index":17,"time_elapsed":770692,"internal_node_id":"0.0-14.0-0.0","task_version":"screening-prolific","missing":false,"accuracy":0},{"contexts":["blue","red","green"],"outcomes":[0,0,1],"key":38,"choice":1,"rt":221.4549999916926,"outcome":0,"trial":9,"correct":2,"trial_type":"three-arm-trial","trial_index":18,"time_elapsed":772115,"internal_node_id":"0.0-15.0-0.0","task_version":"screening-prolific","missing":false,"accuracy":0},{"contexts":["blue","red","green"],"outcomes":[0,0,1],"key":39,"choice":2,"rt":358.54500002460554,"outcome":1,"trial":10,"correct":2,"trial_type":"three-arm-trial","trial_index":19,"time_elapsed":773676,"internal_node_id":"0.0-16.0-0.0","task_version":"screening-prolific","missing":false,"accuracy":1},{"contexts":["blue","red","green"],"outcomes":[0,0,1],"key":39,"choice":2,"rt":341.15499997278675,"outcome":1,"trial":11,"correct":2,"trial_type":"three-arm-trial","trial_index":20,"time_elapsed":775220,"internal_node_id":"0.0-17.0-0.0","task_version":"screening-prolific","missing":false,"accuracy":1},{"contexts":["blue","red","green"],"outcomes":[0,1,1],"key":39,"choice":2,"rt":254.00000001536682,"outcome":1,"trial":12,"correct":2,"trial_type":"three-arm-trial","trial_index":21,"time_elapsed":776676,"internal_node_id":"0.0-18.0-0.0","task_version":"screening-prolific","missing":false,"accuracy":1},{"contexts":["blue","red","green"],"outcomes":[0,0,1],"key":39,"choice":2,"rt":117.70000000251457,"outcome":1,"trial":13,"correct":2,"trial_type":"three-arm-trial","trial_index":22,"time_elapsed":777995,"internal_node_id":"0.0-19.0-0.0","task_version":"screening-prolific","missing":false,"accuracy":1},{"contexts":["blue","red","green"],"outcomes":[0,0,1],"key":39,"choice":2,"rt":38.02500001620501,"outcome":1,"trial":14,"correct":2,"trial_type":"three-arm-trial","trial_index":23,"time_elapsed":779235,"internal_node_id":"0.0-20.0-0.0","task_version":"screening-prolific","missing":false,"accuracy":1},{"contexts":["blue","red","green"],"outcomes":[1,1,1],"key":39,"choice":2,"rt":230.3350000292994,"outcome":1,"trial":15,"correct":2,"trial_type":"three-arm-trial","trial_index":24,"time_elapsed":780667,"internal_node_id":"0.0-21.0-0.0","task_version":"screening-prolific","missing":false,"accuracy":1},{"contexts":["blue","red","green"],"outcomes":[1,1,0],"key":39,"choice":2,"rt":158.034999971278,"outcome":0,"trial":16,"correct":1,"trial_type":"three-arm-trial","trial_index":25,"time_elapsed":782028,"internal_node_id":"0.0-22.0-0.0","task_version":"screening-prolific","missing":false,"accuracy":0},{"contexts":["blue","red","green"],"outcomes":[0,1,0],"key":39,"choice":2,"rt":69.80499997735023,"outcome":0,"trial":17,"correct":1,"trial_type":"three-arm-trial","trial_index":26,"time_elapsed":783299,"internal_node_id":"0.0-23.0-0.0","task_version":"screening-prolific","missing":false,"accuracy":0},{"contexts":["blue","red","green"],"outcomes":[0,1,0],"key":38,"choice":1,"rt":286.069999972824,"outcome":1,"trial":18,"correct":1,"trial_type":"three-arm-trial","trial_index":27,"time_elapsed":784789,"internal_node_id":"0.0-24.0-0.0","task_version":"screening-prolific","missing":false,"accuracy":1},{"contexts":["blue","red","green"],"outcomes":[0,1,0],"key":38,"choice":1,"rt":252.1199999609962,"outcome":1,"trial":19,"correct":1,"trial_type":"three-arm-trial","trial_index":28,"time_elapsed":786244,"internal_node_id":"0.0-25.0-0.0","task_version":"screening-prolific","missing":false,"accuracy":1},{"contexts":["blue","red","green"],"outcomes":[1,0,0],"key":38,"choice":1,"rt":85.62999998684973,"outcome":0,"trial":20,"correct":1,"trial_type":"three-arm-trial","trial_index":29,"time_elapsed":787531,"internal_node_id":"0.0-26.0-0.0","task_version":"screening-prolific","missing":false,"accuracy":1},{"contexts":["blue","red","green"],"outcomes":[0,1,1],"key":37,"choice":0,"rt":254.2150000226684,"outcome":0,"trial":21,"correct":1,"trial_type":"three-arm-trial","trial_index":30,"time_elapsed":788987,"internal_node_id":"0.0-27.0-0.0","task_version":"screening-prolific","missing":false,"accuracy":0},{"contexts":["blue","red","green"],"outcomes":[0,1,1],"key":39,"choice":2,"rt":190.2000000118278,"outcome":1,"trial":22,"correct":1,"trial_type":"three-arm-trial","trial_index":31,"time_elapsed":790379,"internal_node_id":"0.0-28.0-0.0","task_version":"screening-prolific","missing":false,"accuracy":0},{"contexts":["blue","red","green"],"outcomes":[0,1,0],"key":39,"choice":2,"rt":254.18500002706423,"outcome":0,"trial":23,"correct":1,"trial_type":"three-arm-trial","trial_index":32,"time_elapsed":791836,"internal_node_id":"0.0-29.0-0.0","task_version":"screening-prolific","missing":false,"accuracy":0},{"contexts":["blue","red","green"],"outcomes":[0,1,0],"key":38,"choice":1,"rt":69.71000001067296,"outcome":1,"trial":24,"correct":1,"trial_type":"three-arm-trial","trial_index":33,"time_elapsed":793107,"internal_node_id":"0.0-30.0-0.0","task_version":"screening-prolific","missing":false,"accuracy":1},{"contexts":["blue","red","green"],"outcomes":[0,1,0],"key":38,"choice":1,"rt":157.1799999801442,"outcome":1,"trial":25,"correct":1,"trial_type":"three-arm-trial","trial_index":34,"time_elapsed":794467,"internal_node_id":"0.0-31.0-0.0","task_version":"screening-prolific","missing":false,"accuracy":1},{"contexts":["blue","red","green"],"outcomes":[0,0,0],"key":38,"choice":1,"rt":85.81000001868233,"outcome":0,"trial":26,"correct":1,"trial_type":"three-arm-trial","trial_index":35,"time_elapsed":795756,"internal_node_id":"0.0-32.0-0.0","task_version":"screening-prolific","missing":false,"accuracy":1},{"contexts":["blue","red","green"],"outcomes":[0,1,0],"key":37,"choice":0,"rt":381.37499999720603,"outcome":0,"trial":27,"correct":1,"trial_type":"three-arm-trial","trial_index":36,"time_elapsed":797340,"internal_node_id":"0.0-33.0-0.0","task_version":"screening-prolific","missing":false,"accuracy":0},{"contexts":["blue","red","green"],"outcomes":[0,0,0],"key":39,"choice":2,"rt":300.78500002855435,"outcome":0,"trial":28,"correct":1,"trial_type":"three-arm-trial","trial_index":37,"time_elapsed":798844,"internal_node_id":"0.0-34.0-0.0","task_version":"screening-prolific","missing":false,"accuracy":0},{"contexts":["blue","red","green"],"outcomes":[0,1,0],"key":39,"choice":2,"rt":61.35500001255423,"outcome":0,"trial":29,"correct":1,"trial_type":"three-arm-trial","trial_index":38,"time_elapsed":800108,"internal_node_id":"0.0-35.0-0.0","task_version":"screening-prolific","missing":false,"accuracy":0},{"contexts":["blue","red","green"],"outcomes":[0,1,0],"key":38,"choice":1,"rt":133.2300000358373,"outcome":1,"trial":30,"correct":1,"trial_type":"three-arm-trial","trial_index":39,"time_elapsed":801444,"internal_node_id":"0.0-36.0-0.0","task_version":"screening-prolific","missing":false,"accuracy":1},{"contexts":["blue","red","green"],"outcomes":[1,0,1],"key":38,"choice":1,"rt":213.22999999392778,"outcome":0,"trial":31,"correct":0,"trial_type":"three-arm-trial","trial_index":40,"time_elapsed":802860,"internal_node_id":"0.0-37.0-0.0","task_version":"screening-prolific","missing":false,"accuracy":0},{"contexts":["blue","red","green"],"outcomes":[1,0,0],"key":37,"choice":0,"rt":45.08499999064952,"outcome":1,"trial":32,"correct":0,"trial_type":"three-arm-trial","trial_index":41,"time_elapsed":804108,"internal_node_id":"0.0-38.0-0.0","task_version":"screening-prolific","missing":false,"accuracy":1},{"contexts":["blue","red","green"],"outcomes":[0,0,0],"key":37,"choice":0,"rt":260.78999997116625,"outcome":0,"trial":33,"correct":0,"trial_type":"three-arm-trial","trial_index":42,"time_elapsed":805572,"internal_node_id":"0.0-39.0-0.0","task_version":"screening-prolific","missing":false,"accuracy":1},{"contexts":["blue","red","green"],"outcomes":[1,0,0],"key":39,"choice":2,"rt":20.97499999217689,"outcome":0,"trial":34,"correct":0,"trial_type":"three-arm-trial","trial_index":43,"time_elapsed":806795,"internal_node_id":"0.0-40.0-0.0","task_version":"screening-prolific","missing":false,"accuracy":0},{"contexts":["blue","red","green"],"outcomes":[1,0,0],"key":38,"choice":1,"rt":389.7949999663979,"outcome":0,"trial":35,"correct":0,"trial_type":"three-arm-trial","trial_index":44,"time_elapsed":808387,"internal_node_id":"0.0-41.0-0.0","task_version":"screening-prolific","missing":false,"accuracy":0},{"contexts":["blue","red","green"],"outcomes":[1,0,1],"key":39,"choice":2,"rt":117.32000001939014,"outcome":1,"trial":36,"correct":0,"trial_type":"three-arm-trial","trial_index":45,"time_elapsed":809707,"internal_node_id":"0.0-42.0-0.0","task_version":"screening-prolific","missing":false,"accuracy":0},{"contexts":["blue","red","green"],"outcomes":[1,0,0],"key":39,"choice":2,"rt":309.38999995123595,"outcome":0,"trial":37,"correct":0,"trial_type":"three-arm-trial","trial_index":46,"time_elapsed":811219,"internal_node_id":"0.0-43.0-0.0","task_version":"screening-prolific","missing":false,"accuracy":0},{"contexts":["blue","red","green"],"outcomes":[0,0,1],"key":39,"choice":2,"rt":93.92499999376014,"outcome":1,"trial":38,"correct":0,"trial_type":"three-arm-trial","trial_index":47,"time_elapsed":812515,"internal_node_id":"0.0-44.0-0.0","task_version":"screening-prolific","missing":false,"accuracy":0},{"contexts":["blue","red","green"],"outcomes":[0,0,0],"key":39,"choice":2,"rt":93.57000002637506,"outcome":0,"trial":39,"correct":0,"trial_type":"three-arm-trial","trial_index":48,"time_elapsed":813811,"internal_node_id":"0.0-45.0-0.0","task_version":"screening-prolific","missing":false,"accuracy":0},{"contexts":["blue","red","green"],"outcomes":[1,0,0],"key":39,"choice":2,"rt":30.08999995654449,"outcome":0,"trial":40,"correct":0,"trial_type":"three-arm-trial","trial_index":49,"time_elapsed":815044,"internal_node_id":"0.0-46.0-0.0","task_version":"screening-prolific","missing":false,"accuracy":0},{"contexts":["blue","red","green"],"outcomes":[1,0,0],"key":39,"choice":2,"rt":141.13999996334314,"outcome":0,"trial":41,"correct":0,"trial_type":"three-arm-trial","trial_index":50,"time_elapsed":816387,"internal_node_id":"0.0-47.0-0.0","task_version":"screening-prolific","missing":false,"accuracy":0},{"contexts":["blue","red","green"],"outcomes":[1,0,0],"key":37,"choice":0,"rt":324.895000027027,"outcome":1,"trial":42,"correct":0,"trial_type":"three-arm-trial","trial_index":51,"time_elapsed":817916,"internal_node_id":"0.0-48.0-0.0","task_version":"screening-prolific","missing":false,"accuracy":1},{"contexts":["blue","red","green"],"outcomes":[0,1,1],"key":37,"choice":0,"rt":293.2349999900907,"outcome":0,"trial":43,"correct":0,"trial_type":"three-arm-trial","trial_index":52,"time_elapsed":819412,"internal_node_id":"0.0-49.0-0.0","task_version":"screening-prolific","missing":false,"accuracy":1},{"contexts":["blue","red","green"],"outcomes":[1,0,0],"key":38,"choice":1,"rt":117.740000016056,"outcome":0,"trial":44,"correct":0,"trial_type":"three-arm-trial","trial_index":53,"time_elapsed":820732,"internal_node_id":"0.0-50.0-0.0","task_version":"screening-prolific","missing":false,"accuracy":0},{"contexts":["blue","red","green"],"outcomes":[1,1,0],"key":39,"choice":2,"rt":7.9000000259839,"outcome":0,"trial":45,"correct":0,"trial_type":"three-arm-trial","trial_index":54,"time_elapsed":821942,"internal_node_id":"0.0-51.0-0.0","task_version":"screening-prolific","missing":false,"accuracy":0},{"contexts":["blue","red","green"],"outcomes":[0,1,1],"key":37,"choice":0,"rt":299.2149999481626,"outcome":0,"trial":46,"correct":2,"trial_type":"three-arm-trial","trial_index":55,"time_elapsed":823444,"internal_node_id":"0.0-52.0-0.0","task_version":"screening-prolific","missing":false,"accuracy":0},{"contexts":["blue","red","green"],"outcomes":[0,0,0],"key":39,"choice":2,"rt":229.25000003306195,"outcome":0,"trial":47,"correct":2,"trial_type":"three-arm-trial","trial_index":56,"time_elapsed":824875,"internal_node_id":"0.0-53.0-0.0","task_version":"screening-prolific","missing":false,"accuracy":1},{"contexts":["blue","red","green"],"outcomes":[0,0,1],"key":38,"choice":1,"rt":13.580000028014183,"outcome":0,"trial":48,"correct":2,"trial_type":"three-arm-trial","trial_index":57,"time_elapsed":826092,"internal_node_id":"0.0-54.0-0.0","task_version":"screening-prolific","missing":false,"accuracy":0},{"contexts":["blue","red","green"],"outcomes":[0,0,1],"key":37,"choice":0,"rt":517.1550000086427,"outcome":0,"trial":49,"correct":2,"trial_type":"three-arm-trial","trial_index":58,"time_elapsed":827811,"internal_node_id":"0.0-55.0-0.0","task_version":"screening-prolific","missing":false,"accuracy":0},{"contexts":["blue","red","green"],"outcomes":[0,0,1],"key":37,"choice":0,"rt":6.330000003799796,"outcome":0,"trial":50,"correct":2,"trial_type":"three-arm-trial","trial_index":59,"time_elapsed":829019,"internal_node_id":"0.0-56.0-0.0","task_version":"screening-prolific","missing":false,"accuracy":0},{"contexts":["blue","red","green"],"outcomes":[0,0,1],"key":37,"choice":0,"rt":301.355000003241,"outcome":0,"trial":51,"correct":2,"trial_type":"three-arm-trial","trial_index":60,"time_elapsed":830523,"internal_node_id":"0.0-57.0-0.0","task_version":"screening-prolific","missing":false,"accuracy":0},{"contexts":["blue","red","green"],"outcomes":[0,0,1],"key":37,"choice":0,"rt":350.0899999635294,"outcome":0,"trial":52,"correct":2,"trial_type":"three-arm-trial","trial_index":61,"time_elapsed":832075,"internal_node_id":"0.0-58.0-0.0","task_version":"screening-prolific","missing":false,"accuracy":0},{"contexts":["blue","red","green"],"outcomes":[0,0,1],"key":37,"choice":0,"rt":70.05000003846362,"outcome":0,"trial":53,"correct":2,"trial_type":"three-arm-trial","trial_index":62,"time_elapsed":833348,"internal_node_id":"0.0-59.0-0.0","task_version":"screening-prolific","missing":false,"accuracy":0},{"contexts":["blue","red","green"],"outcomes":[0,0,1],"key":38,"choice":1,"rt":292.68000001320615,"outcome":0,"trial":54,"correct":2,"trial_type":"three-arm-trial","trial_index":63,"time_elapsed":834843,"internal_node_id":"0.0-60.0-0.0","task_version":"screening-prolific","missing":false,"accuracy":0},{"contexts":["blue","red","green"],"outcomes":[0,0,1],"key":39,"choice":2,"rt":277.9399999999441,"outcome":1,"trial":55,"correct":2,"trial_type":"three-arm-trial","trial_index":64,"time_elapsed":836324,"internal_node_id":"0.0-61.0-0.0","task_version":"screening-prolific","missing":false,"accuracy":1},{"contexts":["blue","red","green"],"outcomes":[0,0,0],"key":39,"choice":2,"rt":284.879999991972,"outcome":0,"trial":56,"correct":2,"trial_type":"three-arm-trial","trial_index":65,"time_elapsed":837812,"internal_node_id":"0.0-62.0-0.0","task_version":"screening-prolific","missing":false,"accuracy":1},{"contexts":["blue","red","green"],"outcomes":[0,1,1],"key":39,"choice":2,"rt":604.6150000183843,"outcome":1,"trial":57,"correct":2,"trial_type":"three-arm-trial","trial_index":66,"time_elapsed":839619,"internal_node_id":"0.0-63.0-0.0","task_version":"screening-prolific","missing":false,"accuracy":1},{"contexts":["blue","red","green"],"outcomes":[0,0,0],"key":39,"choice":2,"rt":109.95500005083159,"outcome":0,"trial":58,"correct":2,"trial_type":"three-arm-trial","trial_index":67,"time_elapsed":840932,"internal_node_id":"0.0-64.0-0.0","task_version":"screening-prolific","missing":false,"accuracy":1},{"contexts":["blue","red","green"],"outcomes":[0,1,1],"key":39,"choice":2,"rt":101.18499997770414,"outcome":1,"trial":59,"correct":2,"trial_type":"three-arm-trial","trial_index":68,"time_elapsed":842235,"internal_node_id":"0.0-65.0-0.0","task_version":"screening-prolific","missing":false,"accuracy":1},{"contexts":["blue","red","green"],"outcomes":[0,1,1],"key":39,"choice":2,"rt":564.3500000005588,"outcome":1,"trial":60,"correct":2,"trial_type":"three-arm-trial","trial_index":69,"time_elapsed":844004,"internal_node_id":"0.0-66.0-0.0","task_version":"screening-prolific","missing":false,"accuracy":1},{"contexts":["blue","red","green"],"outcomes":[1,1,1],"key":39,"choice":2,"rt":132.70999997621402,"outcome":1,"trial":61,"correct":1,"trial_type":"three-arm-trial","trial_index":70,"time_elapsed":845341,"internal_node_id":"0.0-67.0-0.0","task_version":"screening-prolific","missing":false,"accuracy":0},{"contexts":["blue","red","green"],"outcomes":[0,1,0],"key":39,"choice":2,"rt":404.23000004375353,"outcome":0,"trial":62,"correct":1,"trial_type":"three-arm-trial","trial_index":71,"time_elapsed":846947,"internal_node_id":"0.0-68.0-0.0","task_version":"screening-prolific","missing":false,"accuracy":0},{"contexts":["blue","red","green"],"outcomes":[0,0,0],"key":39,"choice":2,"rt":701.2749999994412,"outcome":0,"trial":63,"correct":1,"trial_type":"three-arm-trial","trial_index":72,"time_elapsed":848851,"internal_node_id":"0.0-69.0-0.0","task_version":"screening-prolific","missing":false,"accuracy":0},{"contexts":["blue","red","green"],"outcomes":[0,1,0],"key":null,"rt":null,"trial":64,"correct":1,"trial_type":"three-arm-trial","trial_index":73,"time_elapsed":863857,"internal_node_id":"0.0-70.0-0.0","task_version":"screening-prolific","missing":true},{"contexts":["blue","red","green"],"outcomes":[0,1,0],"key":39,"choice":2,"rt":824.9150000046939,"outcome":0,"trial":64,"correct":1,"trial_type":"three-arm-trial","trial_index":74,"time_elapsed":865884,"internal_node_id":"0.0-70.1-0.1","task_version":"screening-prolific","missing":false,"accuracy":0},{"contexts":["blue","red","green"],"outcomes":[1,1,0],"key":38,"choice":1,"rt":5.584999977145344,"outcome":1,"trial":65,"correct":1,"trial_type":"three-arm-trial","trial_index":75,"time_elapsed":867092,"internal_node_id":"0.0-71.0-0.0","task_version":"screening-prolific","missing":false,"accuracy":1},{"contexts":["blue","red","green"],"outcomes":[0,1,1],"key":38,"choice":1,"rt":188.73499997425824,"outcome":1,"trial":66,"correct":1,"trial_type":"three-arm-trial","trial_index":76,"time_elapsed":868484,"internal_node_id":"0.0-72.0-0.0","task_version":"screening-prolific","missing":false,"accuracy":1},{"contexts":["blue","red","green"],"outcomes":[0,1,0],"key":38,"choice":1,"rt":237.49999998835847,"outcome":1,"trial":67,"correct":1,"trial_type":"three-arm-trial","trial_index":77,"time_elapsed":869924,"internal_node_id":"0.0-73.0-0.0","task_version":"screening-prolific","missing":false,"accuracy":1},{"contexts":["blue","red","green"],"outcomes":[0,0,0],"key":38,"choice":1,"rt":213.05500000016764,"outcome":0,"trial":68,"correct":1,"trial_type":"three-arm-trial","trial_index":78,"time_elapsed":871340,"internal_node_id":"0.0-74.0-0.0","task_version":"screening-prolific","missing":false,"accuracy":1},{"contexts":["blue","red","green"],"outcomes":[0,1,0],"key":39,"choice":2,"rt":197.17499997932464,"outcome":0,"trial":69,"correct":1,"trial_type":"three-arm-trial","trial_index":79,"time_elapsed":872740,"internal_node_id":"0.0-75.0-0.0","task_version":"screening-prolific","missing":false,"accuracy":0},{"contexts":["blue","red","green"],"outcomes":[0,1,0],"key":39,"choice":2,"rt":421.03500000666827,"outcome":0,"trial":70,"correct":1,"trial_type":"three-arm-trial","trial_index":80,"time_elapsed":874363,"internal_node_id":"0.0-76.0-0.0","task_version":"screening-prolific","missing":false,"accuracy":0},{"contexts":["blue","red","green"],"outcomes":[1,1,0],"key":37,"choice":0,"rt":117.68500000471249,"outcome":1,"trial":71,"correct":1,"trial_type":"three-arm-trial","trial_index":81,"time_elapsed":875684,"internal_node_id":"0.0-77.0-0.0","task_version":"screening-prolific","missing":false,"accuracy":0},{"contexts":["blue","red","green"],"outcomes":[0,1,0],"key":37,"choice":0,"rt":244.7449999745004,"outcome":0,"trial":72,"correct":1,"trial_type":"three-arm-trial","trial_index":82,"time_elapsed":877131,"internal_node_id":"0.0-78.0-0.0","task_version":"screening-prolific","missing":false,"accuracy":0},{"contexts":["blue","red","green"],"outcomes":[1,0,0],"key":38,"choice":1,"rt":405.849999981001,"outcome":0,"trial":73,"correct":1,"trial_type":"three-arm-trial","trial_index":83,"time_elapsed":878739,"internal_node_id":"0.0-79.0-0.0","task_version":"screening-prolific","missing":false,"accuracy":1},{"contexts":["blue","red","green"],"outcomes":[1,1,0],"key":39,"choice":2,"rt":437.67000001389533,"outcome":0,"trial":74,"correct":1,"trial_type":"three-arm-trial","trial_index":84,"time_elapsed":880379,"internal_node_id":"0.0-80.0-0.0","task_version":"screening-prolific","missing":false,"accuracy":0},{"contexts":["blue","red","green"],"outcomes":[0,1,0],"key":37,"choice":0,"rt":269.99500003876165,"outcome":0,"trial":75,"correct":1,"trial_type":"three-arm-trial","trial_index":85,"time_elapsed":881851,"internal_node_id":"0.0-81.0-0.0","task_version":"screening-prolific","missing":false,"accuracy":0},{"contexts":["blue","red","green"],"outcomes":[0,0,0],"key":39,"choice":2,"rt":93.14499999163672,"outcome":0,"trial":76,"correct":0,"trial_type":"three-arm-trial","trial_index":86,"time_elapsed":883147,"internal_node_id":"0.0-82.0-0.0","task_version":"screening-prolific","missing":false,"accuracy":0},{"contexts":["blue","red","green"],"outcomes":[1,0,1],"key":39,"choice":2,"rt":253.2249999931082,"outcome":1,"trial":77,"correct":0,"trial_type":"three-arm-trial","trial_index":87,"time_elapsed":884603,"internal_node_id":"0.0-83.0-0.0","task_version":"screening-prolific","missing":false,"accuracy":0},{"contexts":["blue","red","green"],"outcomes":[1,0,0],"key":39,"choice":2,"rt":141.24500000616536,"outcome":0,"trial":78,"correct":0,"trial_type":"three-arm-trial","trial_index":88,"time_elapsed":885949,"internal_node_id":"0.0-84.0-0.0","task_version":"screening-prolific","missing":false,"accuracy":0},{"contexts":["blue","red","green"],"outcomes":[1,0,0],"key":38,"choice":1,"rt":156.30499995313585,"outcome":0,"trial":79,"correct":0,"trial_type":"three-arm-trial","trial_index":89,"time_elapsed":887307,"internal_node_id":"0.0-85.0-0.0","task_version":"screening-prolific","missing":false,"accuracy":0},{"contexts":["blue","red","green"],"outcomes":[1,0,0],"key":38,"choice":1,"rt":189.56000002799556,"outcome":0,"trial":80,"correct":0,"trial_type":"three-arm-trial","trial_index":90,"time_elapsed":888699,"internal_node_id":"0.0-86.0-0.0","task_version":"screening-prolific","missing":false,"accuracy":0},{"contexts":["blue","red","green"],"outcomes":[0,0,1],"key":37,"choice":0,"rt":477.6699999929406,"outcome":0,"trial":81,"correct":0,"trial_type":"three-arm-trial","trial_index":91,"time_elapsed":890380,"internal_node_id":"0.0-87.0-0.0","task_version":"screening-prolific","missing":false,"accuracy":1},{"contexts":["blue","red","green"],"outcomes":[1,0,0],"key":38,"choice":1,"rt":101.10000002896413,"outcome":0,"trial":82,"correct":0,"trial_type":"three-arm-trial","trial_index":92,"time_elapsed":891684,"internal_node_id":"0.0-88.0-0.0","task_version":"screening-prolific","missing":false,"accuracy":0},{"contexts":["blue","red","green"],"outcomes":[1,1,1],"key":39,"choice":2,"rt":405.7349999784492,"outcome":1,"trial":83,"correct":0,"trial_type":"three-arm-trial","trial_index":93,"time_elapsed":893292,"internal_node_id":"0.0-89.0-0.0","task_version":"screening-prolific","missing":false,"accuracy":0},{"contexts":["blue","red","green"],"outcomes":[0,0,0],"key":39,"choice":2,"rt":285.57499998714775,"outcome":0,"trial":84,"correct":0,"trial_type":"three-arm-trial","trial_index":94,"time_elapsed":894779,"internal_node_id":"0.0-90.0-0.0","task_version":"screening-prolific","missing":false,"accuracy":0},{"contexts":["blue","red","green"],"outcomes":[0,0,0],"key":39,"choice":2,"rt":253.629999991972,"outcome":0,"trial":85,"correct":0,"trial_type":"three-arm-trial","trial_index":95,"time_elapsed":896235,"internal_node_id":"0.0-91.0-0.0","task_version":"screening-prolific","missing":false,"accuracy":0},{"contexts":["blue","red","green"],"outcomes":[1,1,0],"key":39,"choice":2,"rt":221.55000001657754,"outcome":0,"trial":86,"correct":0,"trial_type":"three-arm-trial","trial_index":96,"time_elapsed":897659,"internal_node_id":"0.0-92.0-0.0","task_version":"screening-prolific","missing":false,"accuracy":0},{"contexts":["blue","red","green"],"outcomes":[1,1,0],"key":37,"choice":0,"rt":414.18500000145286,"outcome":1,"trial":87,"correct":0,"trial_type":"three-arm-trial","trial_index":97,"time_elapsed":899275,"internal_node_id":"0.0-93.0-0.0","task_version":"screening-prolific","missing":false,"accuracy":1},{"contexts":["blue","red","green"],"outcomes":[1,0,0],"key":37,"choice":0,"rt":157.5149999698624,"outcome":1,"trial":88,"correct":0,"trial_type":"three-arm-trial","trial_index":98,"time_elapsed":900635,"internal_node_id":"0.0-94.0-0.0","task_version":"screening-prolific","missing":false,"accuracy":1},{"contexts":["blue","red","green"],"outcomes":[0,0,0],"key":38,"choice":1,"rt":293.34500001277775,"outcome":0,"trial":89,"correct":0,"trial_type":"three-arm-trial","trial_index":99,"time_elapsed":902131,"internal_node_id":"0.0-95.0-0.0","task_version":"screening-prolific","missing":false,"accuracy":0},{"contexts":["blue","red","green"],"outcomes":[0,1,0],"key":37,"choice":0,"rt":93.98499998496845,"outcome":0,"trial":90,"correct":0,"trial_type":"three-arm-trial","trial_index":100,"time_elapsed":903427,"internal_node_id":"0.0-96.0-0.0","task_version":"screening-prolific","missing":false,"accuracy":1},{"rt":22685.980000009295,"responses":{"age":"24","gender-categorical":"Male","gender-free-response":"","ethnicity":"Not Hispanic or Latino","race":["White"],"language":"Yes","fluency":"Very well","mturk":"No","mturk-this-study":"No"},"survey":"demographics","trial_type":"survey-demo","trial_index":101,"time_elapsed":926117,"internal_node_id":"0.0-97.0","task_version":"screening-prolific","interactions":"[{\"event\":\"blur\",\"trial\":3,\"time\":319510},{\"event\":\"focus\",\"trial\":3,\"time\":321048},{\"event\":\"blur\",\"trial\":3,\"time\":321750},{\"event\":\"focus\",\"trial\":3,\"time\":324846},{\"event\":\"blur\",\"trial\":3,\"time\":345309},{\"event\":\"focus\",\"trial\":3,\"time\":464123},{\"event\":\"blur\",\"trial\":72,\"time\":848435},{\"event\":\"focus\",\"trial\":72,\"time\":848604},{\"event\":\"blur\",\"trial\":72,\"time\":848624},{\"event\":\"focus\",\"trial\":73,\"time\":859561}]"}]