[{"responses":{"Q01":"1","Q03":"0","Q02":"2"},"rt":21713,"survey":"pswq","trial_type":"survey-template","trial_index":0,"time_elapsed":21726,"internal_node_id":"0.0-0.0","task_version":"screening-prolific"},{"responses":{"Q10":"2","Q11":"2","Q04":"3","Q13":"3","Q08":"2","Q01":"3","Q05":"3","Q12":"1","Q07":"2","Q02":"2","Q03":"3","Q06":"3","Q09":"2"},"rt":71670,"survey":"bisbas","trial_type":"survey-template","trial_index":1,"time_elapsed":93423,"internal_node_id":"0.0-1.0","task_version":"screening-prolific"},{"responses":{"Q13":"3","Q03":"3","Q07":"3","Q14":"2","Q01":"2","Q15":"3","Q05":"3","Q04":"3","Q10":"3","Q02":"3","Q08":"3","Q12":"3","Q06":"3","Q11":"3","Q09":"2"},"rt":49148,"survey":"shaps","trial_type":"survey-template","trial_index":2,"time_elapsed":142593,"internal_node_id":"0.0-2.0","task_version":"screening-prolific"},{"responses":{"Q07":"2","Q11":"0","Q05":"1","Q02":"1","Q06":"1","Q09":"0","Q15":"0","Q10":"0","Q03":"2","Q13":"2","Q14":"0","Q04":"0","Q01":"1","Q08":"1","Q12":"0"},"rt":134411,"survey":"7up7down","trial_type":"survey-template","trial_index":3,"time_elapsed":277027,"internal_node_id":"0.0-3.0","task_version":"screening-prolific"},{"responses":{"Q03":"0","Q01":"0","Q07":"1","Q06":"0","Q04":"0","Q05":"0","Q02":"0","Q08":"0"},"rt":36120,"survey":"gad7","trial_type":"survey-template","trial_index":4,"time_elapsed":313167,"internal_node_id":"0.0-4.0","task_version":"screening-prolific"},{"view_history":"[{\"page_index\":0,\"viewing_time\":13682},{\"page_index\":1,\"viewing_time\":8882},{\"page_index\":2,\"viewing_time\":17530},{\"page_index\":3,\"viewing_time\":12103},{\"page_index\":4,\"viewing_time\":9663},{\"page_index\":5,\"viewing_time\":7687},{\"page_index\":6,\"viewing_time\":4258},{\"page_index\":7,\"viewing_time\":5717}]","rt":79524,"trial_type":"instructions","trial_index":5,"time_elapsed":392708,"internal_node_id":"0.0-5.0-0.0","task_version":"screening-prolific"},{"responses":["True","True","False","False","False"],"num_errors":1,"rt":35849,"trial_type":"three-arm-comprehension","trial_index":6,"time_elapsed":428563,"internal_node_id":"0.0-5.0-1.0","task_version":"screening-prolific"},{"view_history":"[{\"page_index\":0,\"viewing_time\":2825},{\"page_index\":1,\"viewing_time\":8112},{\"page_index\":2,\"viewing_time\":4897},{\"page_index\":3,\"viewing_time\":4447},{\"page_index\":4,\"viewing_time\":11919},{\"page_index\":5,\"viewing_time\":2766},{\"page_index\":6,\"viewing_time\":5032},{\"page_index\":7,\"viewing_time\":3210}]","rt":43208,"trial_type":"instructions","trial_index":7,"time_elapsed":471792,"internal_node_id":"0.0-5.1-0.1","task_version":"screening-prolific"},{"responses":["True","True","True","True","True"],"num_errors":2,"rt":26951,"trial_type":"three-arm-comprehension","trial_index":8,"time_elapsed":498745,"internal_node_id":"0.0-5.1-1.1","task_version":"screening-prolific"},{"view_history":"[{\"page_index\":0,\"viewing_time\":3908},{\"page_index\":1,\"viewing_time\":9040},{\"page_index\":2,\"viewing_time\":3485},{\"page_index\":3,\"viewing_time\":5787},{\"page_index\":4,\"viewing_time\":10743},{\"page_index\":5,\"viewing_time\":9366},{\"page_index\":6,\"viewing_time\":6188},{\"page_index\":7,\"viewing_time\":4258}]","rt":52775,"trial_type":"instructions","trial_index":9,"time_elapsed":551540,"internal_node_id":"0.0-5.2-0.2","task_version":"screening-prolific"},{"responses":["True","True","False","False","True"],"num_errors":0,"rt":27750,"trial_type":"three-arm-comprehension","trial_index":10,"time_elapsed":579300,"internal_node_id":"0.0-5.2-1.2","task_version":"screening-prolific"},{"view_history":"[{\"page_index\":0,\"viewing_time\":2273}]","rt":2273,"trial_type":"instructions","trial_index":11,"time_elapsed":581594,"internal_node_id":"0.0-6.0","task_version":"screening-prolific"},{"contexts":["red","blue","green"],"outcomes":[1,0,1],"key":null,"rt":null,"trial":1,"correct":0,"trial_type":"three-arm-trial","trial_index":12,"time_elapsed":596603,"internal_node_id":"0.0-7.0-0.0","task_version":"screening-prolific","missing":true},{"contexts":["red","blue","green"],"outcomes":[1,0,1],"key":null,"rt":null,"trial":1,"correct":0,"trial_type":"three-arm-trial","trial_index":13,"time_elapsed":611616,"internal_node_id":"0.0-7.1-0.1","task_version":"screening-prolific","missing":true},{"contexts":["red","blue","green"],"outcomes":[1,0,1],"key":38,"choice":1,"rt":7082,"outcome":0,"trial":1,"correct":0,"trial_type":"three-arm-trial","trial_index":14,"time_elapsed":619907,"internal_node_id":"0.0-7.2-0.2","task_version":"screening-prolific","missing":false,"accuracy":0},{"contexts":["red","blue","green"],"outcomes":[1,0,0],"key":39,"choice":2,"rt":822,"outcome":0,"trial":2,"correct":0,"trial_type":"three-arm-trial","trial_index":15,"time_elapsed":621947,"internal_node_id":"0.0-8.0-0.0","task_version":"screening-prolific","missing":false,"accuracy":0},{"contexts":["red","blue","green"],"outcomes":[1,1,0],"key":37,"choice":0,"rt":378,"outcome":1,"trial":3,"correct":0,"trial_type":"three-arm-trial","trial_index":16,"time_elapsed":623544,"internal_node_id":"0.0-9.0-0.0","task_version":"screening-prolific","missing":false,"accuracy":1},{"contexts":["red","blue","green"],"outcomes":[1,0,1],"key":38,"choice":1,"rt":663,"outcome":0,"trial":4,"correct":0,"trial_type":"three-arm-trial","trial_index":17,"time_elapsed":625457,"internal_node_id":"0.0-10.0-0.0","task_version":"screening-prolific","missing":false,"accuracy":0},{"contexts":["red","blue","green"],"outcomes":[1,1,0],"key":39,"choice":2,"rt":163,"outcome":0,"trial":5,"correct":0,"trial_type":"three-arm-trial","trial_index":18,"time_elapsed":626840,"internal_node_id":"0.0-11.0-0.0","task_version":"screening-prolific","missing":false,"accuracy":0},{"contexts":["red","blue","green"],"outcomes":[0,0,0],"key":39,"choice":2,"rt":267,"outcome":0,"trial":6,"correct":0,"trial_type":"three-arm-trial","trial_index":19,"time_elapsed":628323,"internal_node_id":"0.0-12.0-0.0","task_version":"screening-prolific","missing":false,"accuracy":0},{"contexts":["red","blue","green"],"outcomes":[1,0,0],"key":37,"choice":0,"rt":346,"outcome":1,"trial":7,"correct":0,"trial_type":"three-arm-trial","trial_index":20,"time_elapsed":629891,"internal_node_id":"0.0-13.0-0.0","task_version":"screening-prolific","missing":false,"accuracy":1},{"contexts":["red","blue","green"],"outcomes":[0,0,0],"key":39,"choice":2,"rt":1037,"outcome":0,"trial":8,"correct":0,"trial_type":"three-arm-trial","trial_index":21,"time_elapsed":632145,"internal_node_id":"0.0-14.0-0.0","task_version":"screening-prolific","missing":false,"accuracy":0},{"contexts":["red","blue","green"],"outcomes":[0,0,0],"key":39,"choice":2,"rt":366,"outcome":0,"trial":9,"correct":0,"trial_type":"three-arm-trial","trial_index":22,"time_elapsed":633731,"internal_node_id":"0.0-15.0-0.0","task_version":"screening-prolific","missing":false,"accuracy":0},{"contexts":["red","blue","green"],"outcomes":[0,0,0],"key":37,"choice":0,"rt":123,"outcome":0,"trial":10,"correct":0,"trial_type":"three-arm-trial","trial_index":23,"time_elapsed":635075,"internal_node_id":"0.0-16.0-0.0","task_version":"screening-prolific","missing":false,"accuracy":1},{"contexts":["red","blue","green"],"outcomes":[1,0,0],"key":38,"choice":1,"rt":118,"outcome":0,"trial":11,"correct":0,"trial_type":"three-arm-trial","trial_index":24,"time_elapsed":636415,"internal_node_id":"0.0-17.0-0.0","task_version":"screening-prolific","missing":false,"accuracy":0},{"contexts":["red","blue","green"],"outcomes":[1,1,1],"key":39,"choice":2,"rt":628,"outcome":1,"trial":12,"correct":0,"trial_type":"three-arm-trial","trial_index":25,"time_elapsed":638263,"internal_node_id":"0.0-18.0-0.0","task_version":"screening-prolific","missing":false,"accuracy":0},{"contexts":["red","blue","green"],"outcomes":[1,0,0],"key":39,"choice":2,"rt":245,"outcome":0,"trial":13,"correct":0,"trial_type":"three-arm-trial","trial_index":26,"time_elapsed":639725,"internal_node_id":"0.0-19.0-0.0","task_version":"screening-prolific","missing":false,"accuracy":0},{"contexts":["red","blue","green"],"outcomes":[0,0,0],"key":38,"choice":1,"rt":21,"outcome":0,"trial":14,"correct":0,"trial_type":"three-arm-trial","trial_index":27,"time_elapsed":640967,"internal_node_id":"0.0-20.0-0.0","task_version":"screening-prolific","missing":false,"accuracy":0},{"contexts":["red","blue","green"],"outcomes":[1,0,0],"key":38,"choice":1,"rt":216,"outcome":0,"trial":15,"correct":0,"trial_type":"three-arm-trial","trial_index":28,"time_elapsed":642405,"internal_node_id":"0.0-21.0-0.0","task_version":"screening-prolific","missing":false,"accuracy":0},{"contexts":["red","blue","green"],"outcomes":[0,0,1],"key":39,"choice":2,"rt":185,"outcome":1,"trial":16,"correct":2,"trial_type":"three-arm-trial","trial_index":29,"time_elapsed":643807,"internal_node_id":"0.0-22.0-0.0","task_version":"screening-prolific","missing":false,"accuracy":1},{"contexts":["red","blue","green"],"outcomes":[0,0,1],"key":39,"choice":2,"rt":218,"outcome":1,"trial":17,"correct":2,"trial_type":"three-arm-trial","trial_index":30,"time_elapsed":645264,"internal_node_id":"0.0-23.0-0.0","task_version":"screening-prolific","missing":false,"accuracy":1},{"contexts":["red","blue","green"],"outcomes":[0,1,1],"key":39,"choice":2,"rt":20,"outcome":1,"trial":18,"correct":2,"trial_type":"three-arm-trial","trial_index":31,"time_elapsed":646502,"internal_node_id":"0.0-24.0-0.0","task_version":"screening-prolific","missing":false,"accuracy":1},{"contexts":["red","blue","green"],"outcomes":[0,0,0],"key":39,"choice":2,"rt":243,"outcome":0,"trial":19,"correct":2,"trial_type":"three-arm-trial","trial_index":32,"time_elapsed":647966,"internal_node_id":"0.0-25.0-0.0","task_version":"screening-prolific","missing":false,"accuracy":1},{"contexts":["red","blue","green"],"outcomes":[0,0,1],"key":38,"choice":1,"rt":45,"outcome":0,"trial":20,"correct":2,"trial_type":"three-arm-trial","trial_index":33,"time_elapsed":649232,"internal_node_id":"0.0-26.0-0.0","task_version":"screening-prolific","missing":false,"accuracy":0},{"contexts":["red","blue","green"],"outcomes":[0,0,1],"key":38,"choice":1,"rt":388,"outcome":0,"trial":21,"correct":2,"trial_type":"three-arm-trial","trial_index":34,"time_elapsed":650847,"internal_node_id":"0.0-27.0-0.0","task_version":"screening-prolific","missing":false,"accuracy":0},{"contexts":["red","blue","green"],"outcomes":[0,0,1],"key":39,"choice":2,"rt":24,"outcome":1,"trial":22,"correct":2,"trial_type":"three-arm-trial","trial_index":35,"time_elapsed":652092,"internal_node_id":"0.0-28.0-0.0","task_version":"screening-prolific","missing":false,"accuracy":1},{"contexts":["red","blue","green"],"outcomes":[0,0,1],"key":39,"choice":2,"rt":56,"outcome":1,"trial":23,"correct":2,"trial_type":"three-arm-trial","trial_index":36,"time_elapsed":653372,"internal_node_id":"0.0-29.0-0.0","task_version":"screening-prolific","missing":false,"accuracy":1},{"contexts":["red","blue","green"],"outcomes":[1,1,0],"key":39,"choice":2,"rt":88,"outcome":0,"trial":24,"correct":2,"trial_type":"three-arm-trial","trial_index":37,"time_elapsed":654678,"internal_node_id":"0.0-30.0-0.0","task_version":"screening-prolific","missing":false,"accuracy":1},{"contexts":["red","blue","green"],"outcomes":[1,0,1],"key":38,"choice":1,"rt":28,"outcome":0,"trial":25,"correct":2,"trial_type":"three-arm-trial","trial_index":38,"time_elapsed":655926,"internal_node_id":"0.0-31.0-0.0","task_version":"screening-prolific","missing":false,"accuracy":0},{"contexts":["red","blue","green"],"outcomes":[1,0,1],"key":39,"choice":2,"rt":53,"outcome":1,"trial":26,"correct":2,"trial_type":"three-arm-trial","trial_index":39,"time_elapsed":657200,"internal_node_id":"0.0-32.0-0.0","task_version":"screening-prolific","missing":false,"accuracy":1},{"contexts":["red","blue","green"],"outcomes":[0,1,1],"key":38,"choice":1,"rt":104,"outcome":1,"trial":27,"correct":2,"trial_type":"three-arm-trial","trial_index":40,"time_elapsed":658524,"internal_node_id":"0.0-33.0-0.0","task_version":"screening-prolific","missing":false,"accuracy":0},{"contexts":["red","blue","green"],"outcomes":[1,0,1],"key":38,"choice":1,"rt":18,"outcome":0,"trial":28,"correct":2,"trial_type":"three-arm-trial","trial_index":41,"time_elapsed":659761,"internal_node_id":"0.0-34.0-0.0","task_version":"screening-prolific","missing":false,"accuracy":0},{"contexts":["red","blue","green"],"outcomes":[0,1,1],"key":38,"choice":1,"rt":1068,"outcome":1,"trial":29,"correct":2,"trial_type":"three-arm-trial","trial_index":42,"time_elapsed":662047,"internal_node_id":"0.0-35.0-0.0","task_version":"screening-prolific","missing":false,"accuracy":0},{"contexts":["red","blue","green"],"outcomes":[0,0,1],"key":38,"choice":1,"rt":141,"outcome":0,"trial":30,"correct":2,"trial_type":"three-arm-trial","trial_index":43,"time_elapsed":663407,"internal_node_id":"0.0-36.0-0.0","task_version":"screening-prolific","missing":false,"accuracy":0},{"contexts":["red","blue","green"],"outcomes":[0,1,0],"key":38,"choice":1,"rt":1661,"outcome":1,"trial":31,"correct":1,"trial_type":"three-arm-trial","trial_index":44,"time_elapsed":666289,"internal_node_id":"0.0-37.0-0.0","task_version":"screening-prolific","missing":false,"accuracy":1},{"contexts":["red","blue","green"],"outcomes":[0,1,0],"key":38,"choice":1,"rt":663,"outcome":1,"trial":32,"correct":1,"trial_type":"three-arm-trial","trial_index":45,"time_elapsed":668174,"internal_node_id":"0.0-38.0-0.0","task_version":"screening-prolific","missing":false,"accuracy":1},{"contexts":["red","blue","green"],"outcomes":[1,1,0],"key":38,"choice":1,"rt":365,"outcome":1,"trial":33,"correct":1,"trial_type":"three-arm-trial","trial_index":46,"time_elapsed":669758,"internal_node_id":"0.0-39.0-0.0","task_version":"screening-prolific","missing":false,"accuracy":1},{"contexts":["red","blue","green"],"outcomes":[0,1,0],"key":38,"choice":1,"rt":250,"outcome":1,"trial":34,"correct":1,"trial_type":"three-arm-trial","trial_index":47,"time_elapsed":671230,"internal_node_id":"0.0-40.0-0.0","task_version":"screening-prolific","missing":false,"accuracy":1},{"contexts":["red","blue","green"],"outcomes":[0,0,0],"key":38,"choice":1,"rt":71,"outcome":0,"trial":35,"correct":1,"trial_type":"three-arm-trial","trial_index":48,"time_elapsed":672522,"internal_node_id":"0.0-41.0-0.0","task_version":"screening-prolific","missing":false,"accuracy":1},{"contexts":["red","blue","green"],"outcomes":[0,1,0],"key":38,"choice":1,"rt":166,"outcome":1,"trial":36,"correct":1,"trial_type":"three-arm-trial","trial_index":49,"time_elapsed":673911,"internal_node_id":"0.0-42.0-0.0","task_version":"screening-prolific","missing":false,"accuracy":1},{"contexts":["red","blue","green"],"outcomes":[0,1,0],"key":38,"choice":1,"rt":51,"outcome":1,"trial":37,"correct":1,"trial_type":"three-arm-trial","trial_index":50,"time_elapsed":675179,"internal_node_id":"0.0-43.0-0.0","task_version":"screening-prolific","missing":false,"accuracy":1},{"contexts":["red","blue","green"],"outcomes":[0,1,1],"key":38,"choice":1,"rt":79,"outcome":1,"trial":38,"correct":1,"trial_type":"three-arm-trial","trial_index":51,"time_elapsed":676479,"internal_node_id":"0.0-44.0-0.0","task_version":"screening-prolific","missing":false,"accuracy":1},{"contexts":["red","blue","green"],"outcomes":[0,1,0],"key":38,"choice":1,"rt":88,"outcome":1,"trial":39,"correct":1,"trial_type":"three-arm-trial","trial_index":52,"time_elapsed":677784,"internal_node_id":"0.0-45.0-0.0","task_version":"screening-prolific","missing":false,"accuracy":1},{"contexts":["red","blue","green"],"outcomes":[0,0,0],"key":38,"choice":1,"rt":36,"outcome":0,"trial":40,"correct":1,"trial_type":"three-arm-trial","trial_index":53,"time_elapsed":679042,"internal_node_id":"0.0-46.0-0.0","task_version":"screening-prolific","missing":false,"accuracy":1},{"contexts":["red","blue","green"],"outcomes":[1,0,0],"key":38,"choice":1,"rt":422,"outcome":0,"trial":41,"correct":1,"trial_type":"three-arm-trial","trial_index":54,"time_elapsed":680697,"internal_node_id":"0.0-47.0-0.0","task_version":"screening-prolific","missing":false,"accuracy":1},{"contexts":["red","blue","green"],"outcomes":[1,1,1],"key":38,"choice":1,"rt":165,"outcome":1,"trial":42,"correct":1,"trial_type":"three-arm-trial","trial_index":55,"time_elapsed":682128,"internal_node_id":"0.0-48.0-0.0","task_version":"screening-prolific","missing":false,"accuracy":1},{"contexts":["red","blue","green"],"outcomes":[0,1,0],"key":38,"choice":1,"rt":1071,"outcome":1,"trial":43,"correct":1,"trial_type":"three-arm-trial","trial_index":56,"time_elapsed":684419,"internal_node_id":"0.0-49.0-0.0","task_version":"screening-prolific","missing":false,"accuracy":1},{"contexts":["red","blue","green"],"outcomes":[1,1,0],"key":38,"choice":1,"rt":19,"outcome":1,"trial":44,"correct":1,"trial_type":"three-arm-trial","trial_index":57,"time_elapsed":685666,"internal_node_id":"0.0-50.0-0.0","task_version":"screening-prolific","missing":false,"accuracy":1},{"contexts":["red","blue","green"],"outcomes":[0,1,1],"key":38,"choice":1,"rt":173,"outcome":1,"trial":45,"correct":1,"trial_type":"three-arm-trial","trial_index":58,"time_elapsed":687060,"internal_node_id":"0.0-51.0-0.0","task_version":"screening-prolific","missing":false,"accuracy":1},{"contexts":["red","blue","green"],"outcomes":[1,0,0],"key":38,"choice":1,"rt":43,"outcome":0,"trial":46,"correct":0,"trial_type":"three-arm-trial","trial_index":59,"time_elapsed":688325,"internal_node_id":"0.0-52.0-0.0","task_version":"screening-prolific","missing":false,"accuracy":0},{"contexts":["red","blue","green"],"outcomes":[1,0,0],"key":38,"choice":1,"rt":50,"outcome":0,"trial":47,"correct":0,"trial_type":"three-arm-trial","trial_index":60,"time_elapsed":689595,"internal_node_id":"0.0-53.0-0.0","task_version":"screening-prolific","missing":false,"accuracy":0},{"contexts":["red","blue","green"],"outcomes":[1,0,0],"key":38,"choice":1,"rt":136,"outcome":0,"trial":48,"correct":0,"trial_type":"three-arm-trial","trial_index":61,"time_elapsed":690949,"internal_node_id":"0.0-54.0-0.0","task_version":"screening-prolific","missing":false,"accuracy":0},{"contexts":["red","blue","green"],"outcomes":[1,0,0],"key":38,"choice":1,"rt":122,"outcome":0,"trial":49,"correct":0,"trial_type":"three-arm-trial","trial_index":62,"time_elapsed":692292,"internal_node_id":"0.0-55.0-0.0","task_version":"screening-prolific","missing":false,"accuracy":0},{"contexts":["red","blue","green"],"outcomes":[1,0,0],"key":38,"choice":1,"rt":199,"outcome":0,"trial":50,"correct":0,"trial_type":"three-arm-trial","trial_index":63,"time_elapsed":693712,"internal_node_id":"0.0-56.0-0.0","task_version":"screening-prolific","missing":false,"accuracy":0},{"contexts":["red","blue","green"],"outcomes":[1,0,0],"key":38,"choice":1,"rt":7139,"outcome":0,"trial":51,"correct":0,"trial_type":"three-arm-trial","trial_index":64,"time_elapsed":702074,"internal_node_id":"0.0-57.0-0.0","task_version":"screening-prolific","missing":false,"accuracy":0},{"contexts":["red","blue","green"],"outcomes":[1,1,0],"key":38,"choice":1,"rt":397,"outcome":1,"trial":52,"correct":0,"trial_type":"three-arm-trial","trial_index":65,"time_elapsed":703690,"internal_node_id":"0.0-58.0-0.0","task_version":"screening-prolific","missing":false,"accuracy":0},{"contexts":["red","blue","green"],"outcomes":[1,0,0],"key":38,"choice":1,"rt":56,"outcome":0,"trial":53,"correct":0,"trial_type":"three-arm-trial","trial_index":66,"time_elapsed":704968,"internal_node_id":"0.0-59.0-0.0","task_version":"screening-prolific","missing":false,"accuracy":0},{"contexts":["red","blue","green"],"outcomes":[0,1,0],"key":38,"choice":1,"rt":229,"outcome":1,"trial":54,"correct":0,"trial_type":"three-arm-trial","trial_index":67,"time_elapsed":706416,"internal_node_id":"0.0-60.0-0.0","task_version":"screening-prolific","missing":false,"accuracy":0},{"contexts":["red","blue","green"],"outcomes":[1,0,0],"key":38,"choice":1,"rt":55,"outcome":0,"trial":55,"correct":0,"trial_type":"three-arm-trial","trial_index":68,"time_elapsed":707692,"internal_node_id":"0.0-61.0-0.0","task_version":"screening-prolific","missing":false,"accuracy":0},{"contexts":["red","blue","green"],"outcomes":[1,1,0],"key":38,"choice":1,"rt":92,"outcome":1,"trial":56,"correct":0,"trial_type":"three-arm-trial","trial_index":69,"time_elapsed":709020,"internal_node_id":"0.0-62.0-0.0","task_version":"screening-prolific","missing":false,"accuracy":0},{"contexts":["red","blue","green"],"outcomes":[1,0,0],"key":38,"choice":1,"rt":448,"outcome":0,"trial":57,"correct":0,"trial_type":"three-arm-trial","trial_index":70,"time_elapsed":710693,"internal_node_id":"0.0-63.0-0.0","task_version":"screening-prolific","missing":false,"accuracy":0},{"contexts":["red","blue","green"],"outcomes":[0,0,0],"key":38,"choice":1,"rt":40,"outcome":0,"trial":58,"correct":0,"trial_type":"three-arm-trial","trial_index":71,"time_elapsed":711973,"internal_node_id":"0.0-64.0-0.0","task_version":"screening-prolific","missing":false,"accuracy":0},{"contexts":["red","blue","green"],"outcomes":[1,0,1],"key":38,"choice":1,"rt":98,"outcome":0,"trial":59,"correct":0,"trial_type":"three-arm-trial","trial_index":72,"time_elapsed":713289,"internal_node_id":"0.0-65.0-0.0","task_version":"screening-prolific","missing":false,"accuracy":0},{"contexts":["red","blue","green"],"outcomes":[1,0,0],"key":38,"choice":1,"rt":38,"outcome":0,"trial":60,"correct":0,"trial_type":"three-arm-trial","trial_index":73,"time_elapsed":714554,"internal_node_id":"0.0-66.0-0.0","task_version":"screening-prolific","missing":false,"accuracy":0},{"contexts":["red","blue","green"],"outcomes":[0,0,1],"key":38,"choice":1,"rt":90,"outcome":0,"trial":61,"correct":2,"trial_type":"three-arm-trial","trial_index":74,"time_elapsed":715863,"internal_node_id":"0.0-67.0-0.0","task_version":"screening-prolific","missing":false,"accuracy":0},{"contexts":["red","blue","green"],"outcomes":[0,0,1],"key":38,"choice":1,"rt":426,"outcome":0,"trial":62,"correct":2,"trial_type":"three-arm-trial","trial_index":75,"time_elapsed":717591,"internal_node_id":"0.0-68.0-0.0","task_version":"screening-prolific","missing":false,"accuracy":0},{"contexts":["red","blue","green"],"outcomes":[0,0,1],"key":38,"choice":1,"rt":26,"outcome":0,"trial":63,"correct":2,"trial_type":"three-arm-trial","trial_index":76,"time_elapsed":718870,"internal_node_id":"0.0-69.0-0.0","task_version":"screening-prolific","missing":false,"accuracy":0},{"contexts":["red","blue","green"],"outcomes":[1,1,1],"key":38,"choice":1,"rt":47,"outcome":1,"trial":64,"correct":2,"trial_type":"three-arm-trial","trial_index":77,"time_elapsed":720141,"internal_node_id":"0.0-70.0-0.0","task_version":"screening-prolific","missing":false,"accuracy":0},{"contexts":["red","blue","green"],"outcomes":[0,0,0],"key":38,"choice":1,"rt":21,"outcome":0,"trial":65,"correct":2,"trial_type":"three-arm-trial","trial_index":78,"time_elapsed":721385,"internal_node_id":"0.0-71.0-0.0","task_version":"screening-prolific","missing":false,"accuracy":0},{"contexts":["red","blue","green"],"outcomes":[1,0,1],"key":38,"choice":1,"rt":273,"outcome":0,"trial":66,"correct":2,"trial_type":"three-arm-trial","trial_index":79,"time_elapsed":722904,"internal_node_id":"0.0-72.0-0.0","task_version":"screening-prolific","missing":false,"accuracy":0},{"contexts":["red","blue","green"],"outcomes":[1,0,1],"key":38,"choice":1,"rt":250,"outcome":0,"trial":67,"correct":2,"trial_type":"three-arm-trial","trial_index":80,"time_elapsed":724419,"internal_node_id":"0.0-73.0-0.0","task_version":"screening-prolific","missing":false,"accuracy":0},{"contexts":["red","blue","green"],"outcomes":[0,0,1],"key":38,"choice":1,"rt":2053,"outcome":0,"trial":68,"correct":2,"trial_type":"three-arm-trial","trial_index":81,"time_elapsed":727776,"internal_node_id":"0.0-74.0-0.0","task_version":"screening-prolific","missing":false,"accuracy":0},{"contexts":["red","blue","green"],"outcomes":[0,0,0],"key":38,"choice":1,"rt":492,"outcome":0,"trial":69,"correct":2,"trial_type":"three-arm-trial","trial_index":82,"time_elapsed":729484,"internal_node_id":"0.0-75.0-0.0","task_version":"screening-prolific","missing":false,"accuracy":0},{"contexts":["red","blue","green"],"outcomes":[0,0,1],"key":38,"choice":1,"rt":18,"outcome":0,"trial":70,"correct":2,"trial_type":"three-arm-trial","trial_index":83,"time_elapsed":730721,"internal_node_id":"0.0-76.0-0.0","task_version":"screening-prolific","missing":false,"accuracy":0},{"contexts":["red","blue","green"],"outcomes":[1,0,1],"key":38,"choice":1,"rt":373,"outcome":0,"trial":71,"correct":2,"trial_type":"three-arm-trial","trial_index":84,"time_elapsed":732312,"internal_node_id":"0.0-77.0-0.0","task_version":"screening-prolific","missing":false,"accuracy":0},{"contexts":["red","blue","green"],"outcomes":[0,1,0],"key":38,"choice":1,"rt":45,"outcome":1,"trial":72,"correct":2,"trial_type":"three-arm-trial","trial_index":85,"time_elapsed":733577,"internal_node_id":"0.0-78.0-0.0","task_version":"screening-prolific","missing":false,"accuracy":0},{"contexts":["red","blue","green"],"outcomes":[0,0,1],"key":38,"choice":1,"rt":388,"outcome":0,"trial":73,"correct":2,"trial_type":"three-arm-trial","trial_index":86,"time_elapsed":735182,"internal_node_id":"0.0-79.0-0.0","task_version":"screening-prolific","missing":false,"accuracy":0},{"contexts":["red","blue","green"],"outcomes":[0,0,0],"key":38,"choice":1,"rt":400,"outcome":0,"trial":74,"correct":2,"trial_type":"three-arm-trial","trial_index":87,"time_elapsed":736801,"internal_node_id":"0.0-80.0-0.0","task_version":"screening-prolific","missing":false,"accuracy":0},{"contexts":["red","blue","green"],"outcomes":[0,0,1],"key":38,"choice":1,"rt":563,"outcome":0,"trial":75,"correct":2,"trial_type":"three-arm-trial","trial_index":88,"time_elapsed":738583,"internal_node_id":"0.0-81.0-0.0","task_version":"screening-prolific","missing":false,"accuracy":0},{"contexts":["red","blue","green"],"outcomes":[1,0,0],"key":38,"choice":1,"rt":471,"outcome":0,"trial":76,"correct":0,"trial_type":"three-arm-trial","trial_index":89,"time_elapsed":740275,"internal_node_id":"0.0-82.0-0.0","task_version":"screening-prolific","missing":false,"accuracy":0},{"contexts":["red","blue","green"],"outcomes":[1,0,0],"key":38,"choice":1,"rt":356,"outcome":0,"trial":77,"correct":0,"trial_type":"three-arm-trial","trial_index":90,"time_elapsed":741853,"internal_node_id":"0.0-83.0-0.0","task_version":"screening-prolific","missing":false,"accuracy":0},{"contexts":["red","blue","green"],"outcomes":[1,0,1],"key":38,"choice":1,"rt":379,"outcome":0,"trial":78,"correct":0,"trial_type":"three-arm-trial","trial_index":91,"time_elapsed":743453,"internal_node_id":"0.0-84.0-0.0","task_version":"screening-prolific","missing":false,"accuracy":0},{"contexts":["red","blue","green"],"outcomes":[1,0,0],"key":38,"choice":1,"rt":1728,"outcome":0,"trial":79,"correct":0,"trial_type":"three-arm-trial","trial_index":92,"time_elapsed":746400,"internal_node_id":"0.0-85.0-0.0","task_version":"screening-prolific","missing":false,"accuracy":0},{"contexts":["red","blue","green"],"outcomes":[1,0,0],"key":38,"choice":1,"rt":657,"outcome":0,"trial":80,"correct":0,"trial_type":"three-arm-trial","trial_index":93,"time_elapsed":748280,"internal_node_id":"0.0-86.0-0.0","task_version":"screening-prolific","missing":false,"accuracy":0},{"contexts":["red","blue","green"],"outcomes":[1,0,0],"key":38,"choice":1,"rt":475,"outcome":0,"trial":81,"correct":0,"trial_type":"three-arm-trial","trial_index":94,"time_elapsed":749980,"internal_node_id":"0.0-87.0-0.0","task_version":"screening-prolific","missing":false,"accuracy":0},{"contexts":["red","blue","green"],"outcomes":[1,0,0],"key":38,"choice":1,"rt":221,"outcome":0,"trial":82,"correct":0,"trial_type":"three-arm-trial","trial_index":95,"time_elapsed":751439,"internal_node_id":"0.0-88.0-0.0","task_version":"screening-prolific","missing":false,"accuracy":0},{"contexts":["red","blue","green"],"outcomes":[1,1,0],"key":38,"choice":1,"rt":480,"outcome":1,"trial":83,"correct":0,"trial_type":"three-arm-trial","trial_index":96,"time_elapsed":753157,"internal_node_id":"0.0-89.0-0.0","task_version":"screening-prolific","missing":false,"accuracy":0},{"contexts":["red","blue","green"],"outcomes":[1,0,0],"key":38,"choice":1,"rt":1403,"outcome":0,"trial":84,"correct":0,"trial_type":"three-arm-trial","trial_index":97,"time_elapsed":755805,"internal_node_id":"0.0-90.0-0.0","task_version":"screening-prolific","missing":false,"accuracy":0},{"contexts":["red","blue","green"],"outcomes":[1,1,0],"key":38,"choice":1,"rt":1302,"outcome":1,"trial":85,"correct":0,"trial_type":"three-arm-trial","trial_index":98,"time_elapsed":758331,"internal_node_id":"0.0-91.0-0.0","task_version":"screening-prolific","missing":false,"accuracy":0},{"contexts":["red","blue","green"],"outcomes":[1,0,0],"key":38,"choice":1,"rt":1033,"outcome":0,"trial":86,"correct":0,"trial_type":"three-arm-trial","trial_index":99,"time_elapsed":760580,"internal_node_id":"0.0-92.0-0.0","task_version":"screening-prolific","missing":false,"accuracy":0},{"contexts":["red","blue","green"],"outcomes":[1,0,0],"key":38,"choice":1,"rt":160,"outcome":0,"trial":87,"correct":0,"trial_type":"three-arm-trial","trial_index":100,"time_elapsed":761959,"internal_node_id":"0.0-93.0-0.0","task_version":"screening-prolific","missing":false,"accuracy":0},{"contexts":["red","blue","green"],"outcomes":[1,0,1],"key":38,"choice":1,"rt":920,"outcome":0,"trial":88,"correct":0,"trial_type":"three-arm-trial","trial_index":101,"time_elapsed":764096,"internal_node_id":"0.0-94.0-0.0","task_version":"screening-prolific","missing":false,"accuracy":0},{"contexts":["red","blue","green"],"outcomes":[1,1,0],"key":38,"choice":1,"rt":1133,"outcome":1,"trial":89,"correct":0,"trial_type":"three-arm-trial","trial_index":102,"time_elapsed":766445,"internal_node_id":"0.0-95.0-0.0","task_version":"screening-prolific","missing":false,"accuracy":0},{"contexts":["red","blue","green"],"outcomes":[1,0,0],"key":38,"choice":1,"rt":955,"outcome":0,"trial":90,"correct":0,"trial_type":"three-arm-trial","trial_index":103,"time_elapsed":768618,"internal_node_id":"0.0-96.0-0.0","task_version":"screening-prolific","missing":false,"accuracy":0},{"rt":49548,"responses":{"age":"46","gender-categorical":"Male","gender-free-response":"","ethnicity":"Not Hispanic or Latino","race":["Asian"],"language":"No","fluency":"Very well","mturk":"No","mturk-this-study":"No"},"survey":"demographics","trial_type":"survey-demo","trial_index":104,"time_elapsed":818222,"internal_node_id":"0.0-97.0","task_version":"screening-prolific","interactions":"[{\"event\":\"focus\",\"trial\":0,\"time\":0},{\"event\":\"blur\",\"trial\":64,\"time\":695464},{\"event\":\"focus\",\"trial\":64,\"time\":700699}]"}]