[{"responses":{"Q02":"2","Q01":"1","Q03":"1"},"rt":14149.72499999567,"survey":"pswq","trial_type":"survey-template","trial_index":0,"time_elapsed":14156,"internal_node_id":"0.0-0.0","task_version":"screening-prolific"},{"responses":{"Q08":"0","Q01":"1","Q04":"1","Q06":"2","Q05":"2","Q07":"0","Q03":"0","Q02":"1"},"rt":39513.584999978775,"survey":"gad7","trial_type":"survey-template","trial_index":1,"time_elapsed":53697,"internal_node_id":"0.0-1.0","task_version":"screening-prolific"},{"responses":{"Q12":"3","Q11":"2","Q06":"3","Q15":"3","Q13":"3","Q07":"3","Q09":"1","Q05":"3","Q02":"3","Q01":"2","Q08":"2","Q04":"3","Q03":"2","Q14":"3","Q10":"2"},"rt":55820.98499999847,"survey":"shaps","trial_type":"survey-template","trial_index":2,"time_elapsed":109545,"internal_node_id":"0.0-2.0","task_version":"screening-prolific"},{"responses":{"Q10":"1","Q09":"2","Q07":"2","Q03":"1","Q12":"1","Q02":"2","Q08":"3","Q04":"2","Q11":"1","Q06":"2","Q05":"2","Q13":"3","Q01":"1"},"rt":22134.909999993397,"survey":"bisbas","trial_type":"survey-template","trial_index":3,"time_elapsed":131708,"internal_node_id":"0.0-3.0","task_version":"screening-prolific"},{"responses":{"Q13":"0","Q10":"1","Q15":"2","Q06":"2","Q09":"0","Q07":"2","Q02":"1","Q03":"2","Q04":"2","Q01":"2","Q08":"3","Q11":"0","Q05":"2","Q14":"1","Q12":"0"},"rt":29047.96999998507,"survey":"7up7down","trial_type":"survey-template","trial_index":4,"time_elapsed":160784,"internal_node_id":"0.0-4.0","task_version":"screening-prolific"},{"view_history":"[{\"page_index\":0,\"viewing_time\":8832.120000006398},{\"page_index\":1,\"viewing_time\":12151.030000008177},{\"page_index\":2,\"viewing_time\":9281.05499999947},{\"page_index\":3,\"viewing_time\":5926.050000009127},{\"page_index\":4,\"viewing_time\":3521.435000002384},{\"page_index\":5,\"viewing_time\":3187.22500000149},{\"page_index\":6,\"viewing_time\":2714.289999974426},{\"page_index\":7,\"viewing_time\":6400.285000010626}]","rt":52013.735000015,"trial_type":"instructions","trial_index":5,"time_elapsed":212826,"internal_node_id":"0.0-5.0-0.0","task_version":"screening-prolific"},{"responses":["True","True","False","False","True"],"num_errors":0,"rt":24132.880000019213,"trial_type":"three-arm-comprehension","trial_index":6,"time_elapsed":236961,"internal_node_id":"0.0-5.0-1.0","task_version":"screening-prolific"},{"view_history":"[{\"page_index\":0,\"viewing_time\":2356.325000000652}]","rt":2356.569999974454,"trial_type":"instructions","trial_index":7,"time_elapsed":239344,"internal_node_id":"0.0-6.0","task_version":"screening-prolific"},{"contexts":["red","blue","green"],"outcomes":[1,0,1],"key":37,"choice":0,"rt":4816.970000014408,"outcome":1,"trial":1,"correct":0,"trial_type":"three-arm-trial","trial_index":8,"time_elapsed":245364,"internal_node_id":"0.0-7.0-0.0","task_version":"screening-prolific","missing":false,"accuracy":1},{"contexts":["red","blue","green"],"outcomes":[1,0,0],"key":39,"choice":2,"rt":1213.2350000028964,"outcome":0,"trial":2,"correct":0,"trial_type":"three-arm-trial","trial_index":9,"time_elapsed":247804,"internal_node_id":"0.0-8.0-0.0","task_version":"screening-prolific","missing":false,"accuracy":0},{"contexts":["red","blue","green"],"outcomes":[1,0,0],"key":38,"choice":1,"rt":1941.7199999734294,"outcome":0,"trial":3,"correct":0,"trial_type":"three-arm-trial","trial_index":10,"time_elapsed":250972,"internal_node_id":"0.0-9.0-0.0","task_version":"screening-prolific","missing":false,"accuracy":0},{"contexts":["red","blue","green"],"outcomes":[1,0,0],"key":39,"choice":2,"rt":504.56499998108484,"outcome":0,"trial":4,"correct":0,"trial_type":"three-arm-trial","trial_index":11,"time_elapsed":252704,"internal_node_id":"0.0-10.0-0.0","task_version":"screening-prolific","missing":false,"accuracy":0},{"contexts":["red","blue","green"],"outcomes":[0,0,0],"key":37,"choice":0,"rt":405.9150000102818,"outcome":0,"trial":5,"correct":0,"trial_type":"three-arm-trial","trial_index":12,"time_elapsed":254335,"internal_node_id":"0.0-11.0-0.0","task_version":"screening-prolific","missing":false,"accuracy":1},{"contexts":["red","blue","green"],"outcomes":[1,0,0],"key":38,"choice":1,"rt":504.8649999953341,"outcome":0,"trial":6,"correct":0,"trial_type":"three-arm-trial","trial_index":13,"time_elapsed":256068,"internal_node_id":"0.0-12.0-0.0","task_version":"screening-prolific","missing":false,"accuracy":0},{"contexts":["red","blue","green"],"outcomes":[1,0,0],"key":38,"choice":1,"rt":340.4199999931734,"outcome":0,"trial":7,"correct":0,"trial_type":"three-arm-trial","trial_index":14,"time_elapsed":257634,"internal_node_id":"0.0-13.0-0.0","task_version":"screening-prolific","missing":false,"accuracy":0},{"contexts":["red","blue","green"],"outcomes":[0,0,0],"key":39,"choice":2,"rt":365.7050000037998,"outcome":0,"trial":8,"correct":0,"trial_type":"three-arm-trial","trial_index":15,"time_elapsed":259226,"internal_node_id":"0.0-14.0-0.0","task_version":"screening-prolific","missing":false,"accuracy":0},{"contexts":["red","blue","green"],"outcomes":[0,0,0],"key":37,"choice":0,"rt":356.64000001270324,"outcome":0,"trial":9,"correct":0,"trial_type":"three-arm-trial","trial_index":16,"time_elapsed":260810,"internal_node_id":"0.0-15.0-0.0","task_version":"screening-prolific","missing":false,"accuracy":1},{"contexts":["red","blue","green"],"outcomes":[1,0,0],"key":37,"choice":0,"rt":0.2899999963119626,"outcome":1,"trial":10,"correct":0,"trial_type":"three-arm-trial","trial_index":17,"time_elapsed":262036,"internal_node_id":"0.0-16.0-0.0","task_version":"screening-prolific","missing":false,"accuracy":1},{"contexts":["red","blue","green"],"outcomes":[1,0,0],"key":39,"choice":2,"rt":2437.5699999800418,"outcome":0,"trial":11,"correct":0,"trial_type":"three-arm-trial","trial_index":18,"time_elapsed":265700,"internal_node_id":"0.0-17.0-0.0","task_version":"screening-prolific","missing":false,"accuracy":0},{"contexts":["red","blue","green"],"outcomes":[0,0,0],"key":37,"choice":0,"rt":798.0849999876227,"outcome":0,"trial":12,"correct":0,"trial_type":"three-arm-trial","trial_index":19,"time_elapsed":267725,"internal_node_id":"0.0-18.0-0.0","task_version":"screening-prolific","missing":false,"accuracy":1},{"contexts":["red","blue","green"],"outcomes":[1,0,0],"key":38,"choice":1,"rt":420.5450000008568,"outcome":0,"trial":13,"correct":0,"trial_type":"three-arm-trial","trial_index":20,"time_elapsed":269372,"internal_node_id":"0.0-19.0-0.0","task_version":"screening-prolific","missing":false,"accuracy":0},{"contexts":["red","blue","green"],"outcomes":[1,0,0],"key":39,"choice":2,"rt":1423.3149999927264,"outcome":0,"trial":14,"correct":0,"trial_type":"three-arm-trial","trial_index":21,"time_elapsed":272022,"internal_node_id":"0.0-20.0-0.0","task_version":"screening-prolific","missing":false,"accuracy":0},{"contexts":["red","blue","green"],"outcomes":[1,0,0],"key":39,"choice":2,"rt":181.85999998240732,"outcome":0,"trial":15,"correct":0,"trial_type":"three-arm-trial","trial_index":22,"time_elapsed":273430,"internal_node_id":"0.0-21.0-0.0","task_version":"screening-prolific","missing":false,"accuracy":0},{"contexts":["red","blue","green"],"outcomes":[0,1,0],"key":37,"choice":0,"rt":87.51499999198131,"outcome":0,"trial":16,"correct":1,"trial_type":"three-arm-trial","trial_index":23,"time_elapsed":274744,"internal_node_id":"0.0-22.0-0.0","task_version":"screening-prolific","missing":false,"accuracy":0},{"contexts":["red","blue","green"],"outcomes":[0,1,0],"key":37,"choice":0,"rt":94.61999998893589,"outcome":0,"trial":17,"correct":1,"trial_type":"three-arm-trial","trial_index":24,"time_elapsed":276066,"internal_node_id":"0.0-23.0-0.0","task_version":"screening-prolific","missing":false,"accuracy":0},{"contexts":["red","blue","green"],"outcomes":[0,1,0],"key":38,"choice":1,"rt":0.33000000985339284,"outcome":1,"trial":18,"correct":1,"trial_type":"three-arm-trial","trial_index":25,"time_elapsed":277293,"internal_node_id":"0.0-24.0-0.0","task_version":"screening-prolific","missing":false,"accuracy":1},{"contexts":["red","blue","green"],"outcomes":[0,1,0],"key":39,"choice":2,"rt":65.06000002264045,"outcome":0,"trial":19,"correct":1,"trial_type":"three-arm-trial","trial_index":26,"time_elapsed":278584,"internal_node_id":"0.0-25.0-0.0","task_version":"screening-prolific","missing":false,"accuracy":0},{"contexts":["red","blue","green"],"outcomes":[0,1,0],"key":37,"choice":0,"rt":28.374999994412065,"outcome":0,"trial":20,"correct":1,"trial_type":"three-arm-trial","trial_index":27,"time_elapsed":279838,"internal_node_id":"0.0-26.0-0.0","task_version":"screening-prolific","missing":false,"accuracy":0},{"contexts":["red","blue","green"],"outcomes":[1,1,0],"key":38,"choice":1,"rt":380.4649999947287,"outcome":1,"trial":21,"correct":1,"trial_type":"three-arm-trial","trial_index":28,"time_elapsed":281444,"internal_node_id":"0.0-27.0-0.0","task_version":"screening-prolific","missing":false,"accuracy":1},{"contexts":["red","blue","green"],"outcomes":[0,1,0],"key":38,"choice":1,"rt":999.3949999916367,"outcome":1,"trial":22,"correct":1,"trial_type":"three-arm-trial","trial_index":29,"time_elapsed":283669,"internal_node_id":"0.0-28.0-0.0","task_version":"screening-prolific","missing":false,"accuracy":1},{"contexts":["red","blue","green"],"outcomes":[0,1,0],"key":39,"choice":2,"rt":1788.9000000141095,"outcome":0,"trial":23,"correct":1,"trial_type":"three-arm-trial","trial_index":30,"time_elapsed":286684,"internal_node_id":"0.0-29.0-0.0","task_version":"screening-prolific","missing":false,"accuracy":0},{"contexts":["red","blue","green"],"outcomes":[0,0,0],"key":null,"rt":null,"trial":24,"correct":1,"trial_type":"three-arm-trial","trial_index":31,"time_elapsed":301712,"internal_node_id":"0.0-30.0-0.0","task_version":"screening-prolific","missing":true},{"contexts":["red","blue","green"],"outcomes":[0,0,0],"key":37,"choice":0,"rt":183.33499997970648,"outcome":0,"trial":24,"correct":1,"trial_type":"three-arm-trial","trial_index":32,"time_elapsed":303097,"internal_node_id":"0.0-30.1-0.1","task_version":"screening-prolific","missing":false,"accuracy":0},{"contexts":["red","blue","green"],"outcomes":[0,1,0],"key":38,"choice":1,"rt":576.8600000010338,"outcome":1,"trial":25,"correct":1,"trial_type":"three-arm-trial","trial_index":33,"time_elapsed":304901,"internal_node_id":"0.0-31.0-0.0","task_version":"screening-prolific","missing":false,"accuracy":1},{"contexts":["red","blue","green"],"outcomes":[1,1,0],"key":38,"choice":1,"rt":2448.809999972582,"outcome":1,"trial":26,"correct":1,"trial_type":"three-arm-trial","trial_index":34,"time_elapsed":308576,"internal_node_id":"0.0-32.0-0.0","task_version":"screening-prolific","missing":false,"accuracy":1},{"contexts":["red","blue","green"],"outcomes":[0,1,0],"key":38,"choice":1,"rt":2399.860000004992,"outcome":1,"trial":27,"correct":1,"trial_type":"three-arm-trial","trial_index":35,"time_elapsed":312202,"internal_node_id":"0.0-33.0-0.0","task_version":"screening-prolific","missing":false,"accuracy":1},{"contexts":["red","blue","green"],"outcomes":[0,1,1],"key":38,"choice":1,"rt":2600.734999985434,"outcome":1,"trial":28,"correct":1,"trial_type":"three-arm-trial","trial_index":36,"time_elapsed":316030,"internal_node_id":"0.0-34.0-0.0","task_version":"screening-prolific","missing":false,"accuracy":1},{"contexts":["red","blue","green"],"outcomes":[0,1,0],"key":38,"choice":1,"rt":3016.0399999876972,"outcome":1,"trial":29,"correct":1,"trial_type":"three-arm-trial","trial_index":37,"time_elapsed":320272,"internal_node_id":"0.0-35.0-0.0","task_version":"screening-prolific","missing":false,"accuracy":1},{"contexts":["red","blue","green"],"outcomes":[0,1,0],"key":38,"choice":1,"rt":3102.1249999757856,"outcome":1,"trial":30,"correct":1,"trial_type":"three-arm-trial","trial_index":38,"time_elapsed":324600,"internal_node_id":"0.0-36.0-0.0","task_version":"screening-prolific","missing":false,"accuracy":1},{"contexts":["red","blue","green"],"outcomes":[1,1,0],"key":38,"choice":1,"rt":2876.6300000133924,"outcome":1,"trial":31,"correct":0,"trial_type":"three-arm-trial","trial_index":39,"time_elapsed":328704,"internal_node_id":"0.0-37.0-0.0","task_version":"screening-prolific","missing":false,"accuracy":0},{"contexts":["red","blue","green"],"outcomes":[1,0,0],"key":38,"choice":1,"rt":3115.2349999756552,"outcome":0,"trial":32,"correct":0,"trial_type":"three-arm-trial","trial_index":40,"time_elapsed":333046,"internal_node_id":"0.0-38.0-0.0","task_version":"screening-prolific","missing":false,"accuracy":0},{"contexts":["red","blue","green"],"outcomes":[1,0,0],"key":38,"choice":1,"rt":2691.9350000098348,"outcome":0,"trial":33,"correct":0,"trial_type":"three-arm-trial","trial_index":41,"time_elapsed":336965,"internal_node_id":"0.0-39.0-0.0","task_version":"screening-prolific","missing":false,"accuracy":0},{"contexts":["red","blue","green"],"outcomes":[1,0,0],"key":37,"choice":0,"rt":2910.329999984242,"outcome":1,"trial":34,"correct":0,"trial_type":"three-arm-trial","trial_index":42,"time_elapsed":341102,"internal_node_id":"0.0-40.0-0.0","task_version":"screening-prolific","missing":false,"accuracy":1},{"contexts":["red","blue","green"],"outcomes":[1,0,0],"key":37,"choice":0,"rt":2864.9100000038743,"outcome":1,"trial":35,"correct":0,"trial_type":"three-arm-trial","trial_index":43,"time_elapsed":345193,"internal_node_id":"0.0-41.0-0.0","task_version":"screening-prolific","missing":false,"accuracy":1},{"contexts":["red","blue","green"],"outcomes":[1,0,0],"key":37,"choice":0,"rt":2919.7299999941606,"outcome":1,"trial":36,"correct":0,"trial_type":"three-arm-trial","trial_index":44,"time_elapsed":349340,"internal_node_id":"0.0-42.0-0.0","task_version":"screening-prolific","missing":false,"accuracy":1},{"contexts":["red","blue","green"],"outcomes":[1,1,0],"key":37,"choice":0,"rt":2844.1900000034366,"outcome":1,"trial":37,"correct":0,"trial_type":"three-arm-trial","trial_index":45,"time_elapsed":353411,"internal_node_id":"0.0-43.0-0.0","task_version":"screening-prolific","missing":false,"accuracy":1},{"contexts":["red","blue","green"],"outcomes":[1,0,0],"key":37,"choice":0,"rt":1356.6799999971408,"outcome":1,"trial":38,"correct":0,"trial_type":"three-arm-trial","trial_index":46,"time_elapsed":355995,"internal_node_id":"0.0-44.0-0.0","task_version":"screening-prolific","missing":false,"accuracy":1},{"contexts":["red","blue","green"],"outcomes":[1,1,0],"key":37,"choice":0,"rt":832.670000003418,"outcome":1,"trial":39,"correct":0,"trial_type":"three-arm-trial","trial_index":47,"time_elapsed":358054,"internal_node_id":"0.0-45.0-0.0","task_version":"screening-prolific","missing":false,"accuracy":1},{"contexts":["red","blue","green"],"outcomes":[1,1,0],"key":37,"choice":0,"rt":706.9550000014715,"outcome":1,"trial":40,"correct":0,"trial_type":"three-arm-trial","trial_index":48,"time_elapsed":359988,"internal_node_id":"0.0-46.0-0.0","task_version":"screening-prolific","missing":false,"accuracy":1},{"contexts":["red","blue","green"],"outcomes":[1,0,1],"key":37,"choice":0,"rt":688.9950000040699,"outcome":1,"trial":41,"correct":0,"trial_type":"three-arm-trial","trial_index":49,"time_elapsed":361903,"internal_node_id":"0.0-47.0-0.0","task_version":"screening-prolific","missing":false,"accuracy":1},{"contexts":["red","blue","green"],"outcomes":[1,0,0],"key":37,"choice":0,"rt":451.6599999915343,"outcome":1,"trial":42,"correct":0,"trial_type":"three-arm-trial","trial_index":50,"time_elapsed":363583,"internal_node_id":"0.0-48.0-0.0","task_version":"screening-prolific","missing":false,"accuracy":1},{"contexts":["red","blue","green"],"outcomes":[1,1,1],"key":37,"choice":0,"rt":285.5249999847729,"outcome":1,"trial":43,"correct":0,"trial_type":"three-arm-trial","trial_index":51,"time_elapsed":365097,"internal_node_id":"0.0-49.0-0.0","task_version":"screening-prolific","missing":false,"accuracy":1},{"contexts":["red","blue","green"],"outcomes":[0,0,0],"key":37,"choice":0,"rt":312.65500001609325,"outcome":0,"trial":44,"correct":0,"trial_type":"three-arm-trial","trial_index":52,"time_elapsed":366637,"internal_node_id":"0.0-50.0-0.0","task_version":"screening-prolific","missing":false,"accuracy":1},{"contexts":["red","blue","green"],"outcomes":[1,0,0],"key":37,"choice":0,"rt":268.94999999785796,"outcome":1,"trial":45,"correct":0,"trial_type":"three-arm-trial","trial_index":53,"time_elapsed":368132,"internal_node_id":"0.0-51.0-0.0","task_version":"screening-prolific","missing":false,"accuracy":1},{"contexts":["red","blue","green"],"outcomes":[0,1,0],"key":37,"choice":0,"rt":204.91500000935048,"outcome":0,"trial":46,"correct":1,"trial_type":"three-arm-trial","trial_index":54,"time_elapsed":369564,"internal_node_id":"0.0-52.0-0.0","task_version":"screening-prolific","missing":false,"accuracy":0},{"contexts":["red","blue","green"],"outcomes":[0,1,0],"key":37,"choice":0,"rt":263.63999999011867,"outcome":0,"trial":47,"correct":1,"trial_type":"three-arm-trial","trial_index":55,"time_elapsed":371053,"internal_node_id":"0.0-53.0-0.0","task_version":"screening-prolific","missing":false,"accuracy":0},{"contexts":["red","blue","green"],"outcomes":[0,1,0],"key":39,"choice":2,"rt":309.5200000097975,"outcome":0,"trial":48,"correct":1,"trial_type":"three-arm-trial","trial_index":56,"time_elapsed":372588,"internal_node_id":"0.0-54.0-0.0","task_version":"screening-prolific","missing":false,"accuracy":0},{"contexts":["red","blue","green"],"outcomes":[0,1,1],"key":39,"choice":2,"rt":191.2949999968987,"outcome":1,"trial":49,"correct":1,"trial_type":"three-arm-trial","trial_index":57,"time_elapsed":374006,"internal_node_id":"0.0-55.0-0.0","task_version":"screening-prolific","missing":false,"accuracy":0},{"contexts":["red","blue","green"],"outcomes":[1,1,1],"key":39,"choice":2,"rt":135.1100000028964,"outcome":1,"trial":50,"correct":1,"trial_type":"three-arm-trial","trial_index":58,"time_elapsed":375368,"internal_node_id":"0.0-56.0-0.0","task_version":"screening-prolific","missing":false,"accuracy":0},{"contexts":["red","blue","green"],"outcomes":[0,1,0],"key":39,"choice":2,"rt":131.39500000397675,"outcome":0,"trial":51,"correct":1,"trial_type":"three-arm-trial","trial_index":59,"time_elapsed":376727,"internal_node_id":"0.0-57.0-0.0","task_version":"screening-prolific","missing":false,"accuracy":0},{"contexts":["red","blue","green"],"outcomes":[1,1,1],"key":39,"choice":2,"rt":97.16999999363907,"outcome":1,"trial":52,"correct":1,"trial_type":"three-arm-trial","trial_index":60,"time_elapsed":378050,"internal_node_id":"0.0-58.0-0.0","task_version":"screening-prolific","missing":false,"accuracy":0},{"contexts":["red","blue","green"],"outcomes":[0,1,0],"key":39,"choice":2,"rt":13.699999981326982,"outcome":0,"trial":53,"correct":1,"trial_type":"three-arm-trial","trial_index":61,"time_elapsed":379291,"internal_node_id":"0.0-59.0-0.0","task_version":"screening-prolific","missing":false,"accuracy":0},{"contexts":["red","blue","green"],"outcomes":[0,1,0],"key":39,"choice":2,"rt":150.7700000074692,"outcome":0,"trial":54,"correct":1,"trial_type":"three-arm-trial","trial_index":62,"time_elapsed":380668,"internal_node_id":"0.0-60.0-0.0","task_version":"screening-prolific","missing":false,"accuracy":0},{"contexts":["red","blue","green"],"outcomes":[0,1,0],"key":38,"choice":1,"rt":118.12500000814907,"outcome":1,"trial":55,"correct":1,"trial_type":"three-arm-trial","trial_index":63,"time_elapsed":382012,"internal_node_id":"0.0-61.0-0.0","task_version":"screening-prolific","missing":false,"accuracy":1},{"contexts":["red","blue","green"],"outcomes":[0,0,0],"key":38,"choice":1,"rt":45.70499999681488,"outcome":0,"trial":56,"correct":1,"trial_type":"three-arm-trial","trial_index":64,"time_elapsed":383284,"internal_node_id":"0.0-62.0-0.0","task_version":"screening-prolific","missing":false,"accuracy":1},{"contexts":["red","blue","green"],"outcomes":[0,1,0],"key":38,"choice":1,"rt":53.78499999642372,"outcome":1,"trial":57,"correct":1,"trial_type":"three-arm-trial","trial_index":65,"time_elapsed":384564,"internal_node_id":"0.0-63.0-0.0","task_version":"screening-prolific","missing":false,"accuracy":1},{"contexts":["red","blue","green"],"outcomes":[0,1,0],"key":38,"choice":1,"rt":0.2699999895412475,"outcome":1,"trial":58,"correct":1,"trial_type":"three-arm-trial","trial_index":66,"time_elapsed":385791,"internal_node_id":"0.0-64.0-0.0","task_version":"screening-prolific","missing":false,"accuracy":1},{"contexts":["red","blue","green"],"outcomes":[0,1,0],"key":38,"choice":1,"rt":0.28500001644715667,"outcome":1,"trial":59,"correct":1,"trial_type":"three-arm-trial","trial_index":67,"time_elapsed":387018,"internal_node_id":"0.0-65.0-0.0","task_version":"screening-prolific","missing":false,"accuracy":1},{"contexts":["red","blue","green"],"outcomes":[1,0,1],"key":38,"choice":1,"rt":0.3050000232178718,"outcome":0,"trial":60,"correct":1,"trial_type":"three-arm-trial","trial_index":68,"time_elapsed":388246,"internal_node_id":"0.0-66.0-0.0","task_version":"screening-prolific","missing":false,"accuracy":1},{"contexts":["red","blue","green"],"outcomes":[0,0,1],"key":38,"choice":1,"rt":1110.4599999962375,"outcome":0,"trial":61,"correct":2,"trial_type":"three-arm-trial","trial_index":69,"time_elapsed":390585,"internal_node_id":"0.0-67.0-0.0","task_version":"screening-prolific","missing":false,"accuracy":0},{"contexts":["red","blue","green"],"outcomes":[0,0,1],"key":37,"choice":0,"rt":137.81500002369285,"outcome":0,"trial":62,"correct":2,"trial_type":"three-arm-trial","trial_index":70,"time_elapsed":391952,"internal_node_id":"0.0-68.0-0.0","task_version":"screening-prolific","missing":false,"accuracy":0},{"contexts":["red","blue","green"],"outcomes":[0,1,1],"key":37,"choice":0,"rt":120.93999999342486,"outcome":0,"trial":63,"correct":2,"trial_type":"three-arm-trial","trial_index":71,"time_elapsed":393300,"internal_node_id":"0.0-69.0-0.0","task_version":"screening-prolific","missing":false,"accuracy":0},{"contexts":["red","blue","green"],"outcomes":[0,0,1],"key":39,"choice":2,"rt":115.41999998735264,"outcome":1,"trial":64,"correct":2,"trial_type":"three-arm-trial","trial_index":72,"time_elapsed":394643,"internal_node_id":"0.0-70.0-0.0","task_version":"screening-prolific","missing":false,"accuracy":1},{"contexts":["red","blue","green"],"outcomes":[0,0,1],"key":39,"choice":2,"rt":105.50000000512227,"outcome":1,"trial":65,"correct":2,"trial_type":"three-arm-trial","trial_index":73,"time_elapsed":395975,"internal_node_id":"0.0-71.0-0.0","task_version":"screening-prolific","missing":false,"accuracy":1},{"contexts":["red","blue","green"],"outcomes":[0,0,1],"key":39,"choice":2,"rt":168.0599999963306,"outcome":1,"trial":66,"correct":2,"trial_type":"three-arm-trial","trial_index":74,"time_elapsed":397370,"internal_node_id":"0.0-72.0-0.0","task_version":"screening-prolific","missing":false,"accuracy":1},{"contexts":["red","blue","green"],"outcomes":[0,0,1],"key":39,"choice":2,"rt":144.76000002468936,"outcome":1,"trial":67,"correct":2,"trial_type":"three-arm-trial","trial_index":75,"time_elapsed":398742,"internal_node_id":"0.0-73.0-0.0","task_version":"screening-prolific","missing":false,"accuracy":1},{"contexts":["red","blue","green"],"outcomes":[1,0,1],"key":39,"choice":2,"rt":131.02000000071712,"outcome":1,"trial":68,"correct":2,"trial_type":"three-arm-trial","trial_index":76,"time_elapsed":400100,"internal_node_id":"0.0-74.0-0.0","task_version":"screening-prolific","missing":false,"accuracy":1},{"contexts":["red","blue","green"],"outcomes":[0,0,1],"key":39,"choice":2,"rt":72.09500001044944,"outcome":1,"trial":69,"correct":2,"trial_type":"three-arm-trial","trial_index":77,"time_elapsed":401399,"internal_node_id":"0.0-75.0-0.0","task_version":"screening-prolific","missing":false,"accuracy":1},{"contexts":["red","blue","green"],"outcomes":[0,0,0],"key":39,"choice":2,"rt":155.77000001212582,"outcome":0,"trial":70,"correct":2,"trial_type":"three-arm-trial","trial_index":78,"time_elapsed":402782,"internal_node_id":"0.0-76.0-0.0","task_version":"screening-prolific","missing":false,"accuracy":1},{"contexts":["red","blue","green"],"outcomes":[0,0,1],"key":39,"choice":2,"rt":166.91999998874962,"outcome":1,"trial":71,"correct":2,"trial_type":"three-arm-trial","trial_index":79,"time_elapsed":404176,"internal_node_id":"0.0-77.0-0.0","task_version":"screening-prolific","missing":false,"accuracy":1},{"contexts":["red","blue","green"],"outcomes":[0,0,1],"key":39,"choice":2,"rt":262.2599999886006,"outcome":1,"trial":72,"correct":2,"trial_type":"three-arm-trial","trial_index":80,"time_elapsed":405665,"internal_node_id":"0.0-78.0-0.0","task_version":"screening-prolific","missing":false,"accuracy":1},{"contexts":["red","blue","green"],"outcomes":[0,0,1],"key":39,"choice":2,"rt":77.7500000258442,"outcome":1,"trial":73,"correct":2,"trial_type":"three-arm-trial","trial_index":81,"time_elapsed":406970,"internal_node_id":"0.0-79.0-0.0","task_version":"screening-prolific","missing":false,"accuracy":1},{"contexts":["red","blue","green"],"outcomes":[0,1,1],"key":39,"choice":2,"rt":197.96499999938533,"outcome":1,"trial":74,"correct":2,"trial_type":"three-arm-trial","trial_index":82,"time_elapsed":408397,"internal_node_id":"0.0-80.0-0.0","task_version":"screening-prolific","missing":false,"accuracy":1},{"contexts":["red","blue","green"],"outcomes":[0,0,1],"key":39,"choice":2,"rt":88.38999998988584,"outcome":1,"trial":75,"correct":2,"trial_type":"three-arm-trial","trial_index":83,"time_elapsed":409713,"internal_node_id":"0.0-81.0-0.0","task_version":"screening-prolific","missing":false,"accuracy":1},{"contexts":["red","blue","green"],"outcomes":[1,0,0],"key":39,"choice":2,"rt":92.71999998600222,"outcome":0,"trial":76,"correct":0,"trial_type":"three-arm-trial","trial_index":84,"time_elapsed":411033,"internal_node_id":"0.0-82.0-0.0","task_version":"screening-prolific","missing":false,"accuracy":0},{"contexts":["red","blue","green"],"outcomes":[0,1,0],"key":39,"choice":2,"rt":94.62499999790452,"outcome":0,"trial":77,"correct":0,"trial_type":"three-arm-trial","trial_index":85,"time_elapsed":412356,"internal_node_id":"0.0-83.0-0.0","task_version":"screening-prolific","missing":false,"accuracy":0},{"contexts":["red","blue","green"],"outcomes":[1,0,0],"key":38,"choice":1,"rt":142.214999999851,"outcome":0,"trial":78,"correct":0,"trial_type":"three-arm-trial","trial_index":86,"time_elapsed":413728,"internal_node_id":"0.0-84.0-0.0","task_version":"screening-prolific","missing":false,"accuracy":0},{"contexts":["red","blue","green"],"outcomes":[1,0,0],"key":38,"choice":1,"rt":170.37500001606531,"outcome":0,"trial":79,"correct":0,"trial_type":"three-arm-trial","trial_index":87,"time_elapsed":415126,"internal_node_id":"0.0-85.0-0.0","task_version":"screening-prolific","missing":false,"accuracy":0},{"contexts":["red","blue","green"],"outcomes":[1,0,0],"key":37,"choice":0,"rt":99.66999999596737,"outcome":1,"trial":80,"correct":0,"trial_type":"three-arm-trial","trial_index":88,"time_elapsed":416455,"internal_node_id":"0.0-86.0-0.0","task_version":"screening-prolific","missing":false,"accuracy":1},{"contexts":["red","blue","green"],"outcomes":[1,0,0],"key":37,"choice":0,"rt":119.7600000014063,"outcome":1,"trial":81,"correct":0,"trial_type":"three-arm-trial","trial_index":89,"time_elapsed":417802,"internal_node_id":"0.0-87.0-0.0","task_version":"screening-prolific","missing":false,"accuracy":1},{"contexts":["red","blue","green"],"outcomes":[1,0,0],"key":37,"choice":0,"rt":128.404999995837,"outcome":1,"trial":82,"correct":0,"trial_type":"three-arm-trial","trial_index":90,"time_elapsed":419159,"internal_node_id":"0.0-88.0-0.0","task_version":"screening-prolific","missing":false,"accuracy":1},{"contexts":["red","blue","green"],"outcomes":[1,0,1],"key":37,"choice":0,"rt":120.80499998410232,"outcome":1,"trial":83,"correct":0,"trial_type":"three-arm-trial","trial_index":91,"time_elapsed":420508,"internal_node_id":"0.0-89.0-0.0","task_version":"screening-prolific","missing":false,"accuracy":1},{"contexts":["red","blue","green"],"outcomes":[1,0,0],"key":37,"choice":0,"rt":132.1299999835901,"outcome":1,"trial":84,"correct":0,"trial_type":"three-arm-trial","trial_index":92,"time_elapsed":421868,"internal_node_id":"0.0-90.0-0.0","task_version":"screening-prolific","missing":false,"accuracy":1},{"contexts":["red","blue","green"],"outcomes":[1,0,1],"key":37,"choice":0,"rt":64.67999998130836,"outcome":1,"trial":85,"correct":0,"trial_type":"three-arm-trial","trial_index":93,"time_elapsed":423159,"internal_node_id":"0.0-91.0-0.0","task_version":"screening-prolific","missing":false,"accuracy":1},{"contexts":["red","blue","green"],"outcomes":[0,0,0],"key":37,"choice":0,"rt":0.295000005280599,"outcome":0,"trial":86,"correct":0,"trial_type":"three-arm-trial","trial_index":94,"time_elapsed":424388,"internal_node_id":"0.0-92.0-0.0","task_version":"screening-prolific","missing":false,"accuracy":1},{"contexts":["red","blue","green"],"outcomes":[1,1,0],"key":37,"choice":0,"rt":495.54999999236315,"outcome":1,"trial":87,"correct":0,"trial_type":"three-arm-trial","trial_index":95,"time_elapsed":426112,"internal_node_id":"0.0-93.0-0.0","task_version":"screening-prolific","missing":false,"accuracy":1},{"contexts":["red","blue","green"],"outcomes":[0,0,1],"key":37,"choice":0,"rt":105.49499999615364,"outcome":0,"trial":88,"correct":0,"trial_type":"three-arm-trial","trial_index":96,"time_elapsed":427443,"internal_node_id":"0.0-94.0-0.0","task_version":"screening-prolific","missing":false,"accuracy":1},{"contexts":["red","blue","green"],"outcomes":[0,0,0],"key":37,"choice":0,"rt":0.27000001864507794,"outcome":0,"trial":89,"correct":0,"trial_type":"three-arm-trial","trial_index":97,"time_elapsed":428670,"internal_node_id":"0.0-95.0-0.0","task_version":"screening-prolific","missing":false,"accuracy":1},{"contexts":["red","blue","green"],"outcomes":[1,0,0],"key":39,"choice":2,"rt":75.31499999458902,"outcome":0,"trial":90,"correct":0,"trial_type":"three-arm-trial","trial_index":98,"time_elapsed":429974,"internal_node_id":"0.0-96.0-0.0","task_version":"screening-prolific","missing":false,"accuracy":0},{"rt":22386.315000010654,"responses":{"age":"25","gender-categorical":"Male","gender-free-response":"","ethnicity":"Not Hispanic or Latino","race":["White"],"language":"Yes","fluency":"Very well","mturk":"No","mturk-this-study":"No"},"survey":"demographics","trial_type":"survey-demo","trial_index":99,"time_elapsed":452389,"internal_node_id":"0.0-97.0","task_version":"screening-prolific","interactions":"[]"}]