[{"responses":{"Q03":"1","Q01":"1","Q02":"1"},"rt":18439.32499999937,"survey":"pswq","trial_type":"survey-template","trial_index":0,"time_elapsed":18458,"internal_node_id":"0.0-0.0","task_version":"screening-prolific"},{"responses":{"Q14":"2","Q04":"2","Q15":"1","Q11":"2","Q09":"2","Q03":"2","Q06":"2","Q07":"2","Q12":"2","Q01":"2","Q08":"2","Q13":"2","Q05":"2","Q10":"2","Q02":"2"},"rt":62075.45499999833,"survey":"shaps","trial_type":"survey-template","trial_index":1,"time_elapsed":80541,"internal_node_id":"0.0-1.0","task_version":"screening-prolific"},{"responses":{"Q09":"2","Q05":"2","Q11":"2","Q06":"2","Q10":"2","Q02":"1","Q03":"1","Q12":"1","Q13":"3","Q07":"3","Q04":"2","Q08":"2","Q01":"1"},"rt":65370.19000000146,"survey":"bisbas","trial_type":"survey-template","trial_index":2,"time_elapsed":145919,"internal_node_id":"0.0-2.0","task_version":"screening-prolific"},{"responses":{"Q07":"2","Q12":"0","Q15":"0","Q10":"0","Q06":"1","Q05":"1","Q13":"1","Q11":"0","Q04":"0","Q14":"0","Q01":"0","Q03":"1","Q02":"0","Q08":"1","Q09":"0"},"rt":150086.17999999842,"survey":"7up7down","trial_type":"survey-template","trial_index":3,"time_elapsed":296018,"internal_node_id":"0.0-3.0","task_version":"screening-prolific"},{"responses":{"Q02":"0","Q05":"0","Q03":"0","Q08":"0","Q04":"1","Q07":"0","Q01":"0","Q06":"0"},"rt":24987.48500000511,"survey":"gad7","trial_type":"survey-template","trial_index":4,"time_elapsed":321010,"internal_node_id":"0.0-4.0","task_version":"screening-prolific"},{"view_history":"[{\"page_index\":0,\"viewing_time\":10353.604999996605},{\"page_index\":1,\"viewing_time\":11959.285000004456},{\"page_index\":2,\"viewing_time\":17163.065000000643},{\"page_index\":3,\"viewing_time\":22789.004999998724},{\"page_index\":2,\"viewing_time\":3040.2649999887217},{\"page_index\":3,\"viewing_time\":3111.9700000126613},{\"page_index\":4,\"viewing_time\":88905.36999999313},{\"page_index\":5,\"viewing_time\":95674.98500000511},{\"page_index\":6,\"viewing_time\":5003.725000002305},{\"page_index\":7,\"viewing_time\":9052.07999999402},{\"page_index\":6,\"viewing_time\":513.6999999958789},{\"page_index\":5,\"viewing_time\":745.0899999967078},{\"page_index\":4,\"viewing_time\":1099.1400000057183},{\"page_index\":3,\"viewing_time\":5180.590000003576},{\"page_index\":4,\"viewing_time\":6541.25500000373},{\"page_index\":5,\"viewing_time\":2953.589999990072},{\"page_index\":6,\"viewing_time\":1164.344999997411},{\"page_index\":7,\"viewing_time\":1000.2650000096764}]","rt":286251.90999999177,"trial_type":"instructions","trial_index":5,"time_elapsed":607275,"internal_node_id":"0.0-5.0-0.0","task_version":"screening-prolific"},{"responses":["True","True","False","False","True"],"num_errors":0,"rt":20498.29000000318,"trial_type":"three-arm-comprehension","trial_index":6,"time_elapsed":627782,"internal_node_id":"0.0-5.0-1.0","task_version":"screening-prolific"},{"view_history":"[{\"page_index\":0,\"viewing_time\":2483.4499999997206}]","rt":2483.810000005178,"trial_type":"instructions","trial_index":7,"time_elapsed":630269,"internal_node_id":"0.0-6.0","task_version":"screening-prolific"},{"contexts":["blue","green","red"],"outcomes":[0,0,1],"key":39,"choice":2,"rt":7363.295000002836,"outcome":1,"trial":1,"correct":2,"trial_type":"three-arm-trial","trial_index":8,"time_elapsed":638839,"internal_node_id":"0.0-7.0-0.0","task_version":"screening-prolific","missing":false,"accuracy":1},{"contexts":["blue","green","red"],"outcomes":[0,0,1],"key":null,"rt":null,"trial":2,"correct":2,"trial_type":"three-arm-trial","trial_index":9,"time_elapsed":653850,"internal_node_id":"0.0-8.0-0.0","task_version":"screening-prolific","missing":true},{"contexts":["blue","green","red"],"outcomes":[0,0,1],"key":null,"rt":null,"trial":2,"correct":2,"trial_type":"three-arm-trial","trial_index":10,"time_elapsed":668855,"internal_node_id":"0.0-8.1-0.1","task_version":"screening-prolific","missing":true},{"contexts":["blue","green","red"],"outcomes":[0,0,1],"key":39,"choice":2,"rt":715.3049999906216,"outcome":1,"trial":2,"correct":2,"trial_type":"three-arm-trial","trial_index":11,"time_elapsed":670780,"internal_node_id":"0.0-8.2-0.2","task_version":"screening-prolific","missing":false,"accuracy":1},{"contexts":["blue","green","red"],"outcomes":[0,0,0],"key":38,"choice":1,"rt":699.2150000005495,"outcome":0,"trial":3,"correct":2,"trial_type":"three-arm-trial","trial_index":12,"time_elapsed":672684,"internal_node_id":"0.0-9.0-0.0","task_version":"screening-prolific","missing":false,"accuracy":0},{"contexts":["blue","green","red"],"outcomes":[0,0,1],"key":37,"choice":0,"rt":7.255000004079193,"outcome":0,"trial":4,"correct":2,"trial_type":"three-arm-trial","trial_index":13,"time_elapsed":673895,"internal_node_id":"0.0-10.0-0.0","task_version":"screening-prolific","missing":false,"accuracy":0},{"contexts":["blue","green","red"],"outcomes":[1,0,1],"key":39,"choice":2,"rt":497.85999998857733,"outcome":1,"trial":5,"correct":2,"trial_type":"three-arm-trial","trial_index":14,"time_elapsed":675595,"internal_node_id":"0.0-11.0-0.0","task_version":"screening-prolific","missing":false,"accuracy":1},{"contexts":["blue","green","red"],"outcomes":[1,0,1],"key":39,"choice":2,"rt":421.3750000053551,"outcome":1,"trial":6,"correct":2,"trial_type":"three-arm-trial","trial_index":15,"time_elapsed":677224,"internal_node_id":"0.0-12.0-0.0","task_version":"screening-prolific","missing":false,"accuracy":1},{"contexts":["blue","green","red"],"outcomes":[0,0,1],"key":39,"choice":2,"rt":343.65000000980217,"outcome":1,"trial":7,"correct":2,"trial_type":"three-arm-trial","trial_index":16,"time_elapsed":678774,"internal_node_id":"0.0-13.0-0.0","task_version":"screening-prolific","missing":false,"accuracy":1},{"contexts":["blue","green","red"],"outcomes":[0,0,1],"key":39,"choice":2,"rt":354.6150000038324,"outcome":1,"trial":8,"correct":2,"trial_type":"three-arm-trial","trial_index":17,"time_elapsed":680332,"internal_node_id":"0.0-14.0-0.0","task_version":"screening-prolific","missing":false,"accuracy":1},{"contexts":["blue","green","red"],"outcomes":[1,0,1],"key":39,"choice":2,"rt":349.9850000080187,"outcome":1,"trial":9,"correct":2,"trial_type":"three-arm-trial","trial_index":18,"time_elapsed":681888,"internal_node_id":"0.0-15.0-0.0","task_version":"screening-prolific","missing":false,"accuracy":1},{"contexts":["blue","green","red"],"outcomes":[0,1,0],"key":39,"choice":2,"rt":668.9650000043912,"outcome":0,"trial":10,"correct":2,"trial_type":"three-arm-trial","trial_index":19,"time_elapsed":683767,"internal_node_id":"0.0-16.0-0.0","task_version":"screening-prolific","missing":false,"accuracy":1},{"contexts":["blue","green","red"],"outcomes":[0,0,1],"key":38,"choice":1,"rt":468.4149999957299,"outcome":0,"trial":11,"correct":2,"trial_type":"three-arm-trial","trial_index":20,"time_elapsed":685438,"internal_node_id":"0.0-17.0-0.0","task_version":"screening-prolific","missing":false,"accuracy":0},{"contexts":["blue","green","red"],"outcomes":[0,0,1],"key":37,"choice":0,"rt":444.56499999796506,"outcome":0,"trial":12,"correct":2,"trial_type":"three-arm-trial","trial_index":21,"time_elapsed":687086,"internal_node_id":"0.0-18.0-0.0","task_version":"screening-prolific","missing":false,"accuracy":0},{"contexts":["blue","green","red"],"outcomes":[0,1,1],"key":39,"choice":2,"rt":469.1599999932805,"outcome":1,"trial":13,"correct":2,"trial_type":"three-arm-trial","trial_index":22,"time_elapsed":688764,"internal_node_id":"0.0-19.0-0.0","task_version":"screening-prolific","missing":false,"accuracy":1},{"contexts":["blue","green","red"],"outcomes":[0,0,1],"key":39,"choice":2,"rt":400.24499999708496,"outcome":1,"trial":14,"correct":2,"trial_type":"three-arm-trial","trial_index":23,"time_elapsed":690375,"internal_node_id":"0.0-20.0-0.0","task_version":"screening-prolific","missing":false,"accuracy":1},{"contexts":["blue","green","red"],"outcomes":[0,1,0],"key":39,"choice":2,"rt":350.8600000059232,"outcome":0,"trial":15,"correct":2,"trial_type":"three-arm-trial","trial_index":24,"time_elapsed":691934,"internal_node_id":"0.0-21.0-0.0","task_version":"screening-prolific","missing":false,"accuracy":1},{"contexts":["blue","green","red"],"outcomes":[0,1,0],"key":39,"choice":2,"rt":879.2700000049081,"outcome":0,"trial":16,"correct":1,"trial_type":"three-arm-trial","trial_index":25,"time_elapsed":694018,"internal_node_id":"0.0-22.0-0.0","task_version":"screening-prolific","missing":false,"accuracy":0},{"contexts":["blue","green","red"],"outcomes":[1,1,0],"key":38,"choice":1,"rt":310.2399999916088,"outcome":1,"trial":17,"correct":1,"trial_type":"three-arm-trial","trial_index":26,"time_elapsed":695533,"internal_node_id":"0.0-23.0-0.0","task_version":"screening-prolific","missing":false,"accuracy":1},{"contexts":["blue","green","red"],"outcomes":[1,0,0],"key":38,"choice":1,"rt":630.2449999930104,"outcome":0,"trial":18,"correct":1,"trial_type":"three-arm-trial","trial_index":27,"time_elapsed":697368,"internal_node_id":"0.0-24.0-0.0","task_version":"screening-prolific","missing":false,"accuracy":1},{"contexts":["blue","green","red"],"outcomes":[1,1,1],"key":37,"choice":0,"rt":402.2899999981746,"outcome":1,"trial":19,"correct":1,"trial_type":"three-arm-trial","trial_index":28,"time_elapsed":698976,"internal_node_id":"0.0-25.0-0.0","task_version":"screening-prolific","missing":false,"accuracy":0},{"contexts":["blue","green","red"],"outcomes":[0,1,0],"key":37,"choice":0,"rt":363.6550000082934,"outcome":0,"trial":20,"correct":1,"trial_type":"three-arm-trial","trial_index":29,"time_elapsed":700549,"internal_node_id":"0.0-26.0-0.0","task_version":"screening-prolific","missing":false,"accuracy":0},{"contexts":["blue","green","red"],"outcomes":[0,1,0],"key":39,"choice":2,"rt":288.8200000015786,"outcome":0,"trial":21,"correct":1,"trial_type":"three-arm-trial","trial_index":30,"time_elapsed":702046,"internal_node_id":"0.0-27.0-0.0","task_version":"screening-prolific","missing":false,"accuracy":0},{"contexts":["blue","green","red"],"outcomes":[0,1,0],"key":39,"choice":2,"rt":333.07999999669846,"outcome":0,"trial":22,"correct":1,"trial_type":"three-arm-trial","trial_index":31,"time_elapsed":703582,"internal_node_id":"0.0-28.0-0.0","task_version":"screening-prolific","missing":false,"accuracy":0},{"contexts":["blue","green","red"],"outcomes":[0,0,1],"key":38,"choice":1,"rt":476.94000000774395,"outcome":0,"trial":23,"correct":1,"trial_type":"three-arm-trial","trial_index":32,"time_elapsed":705263,"internal_node_id":"0.0-29.0-0.0","task_version":"screening-prolific","missing":false,"accuracy":1},{"contexts":["blue","green","red"],"outcomes":[0,1,0],"key":37,"choice":0,"rt":362.5350000074832,"outcome":0,"trial":24,"correct":1,"trial_type":"three-arm-trial","trial_index":33,"time_elapsed":706829,"internal_node_id":"0.0-30.0-0.0","task_version":"screening-prolific","missing":false,"accuracy":0},{"contexts":["blue","green","red"],"outcomes":[0,0,0],"key":39,"choice":2,"rt":325.8500000083586,"outcome":0,"trial":25,"correct":1,"trial_type":"three-arm-trial","trial_index":34,"time_elapsed":708366,"internal_node_id":"0.0-31.0-0.0","task_version":"screening-prolific","missing":false,"accuracy":0},{"contexts":["blue","green","red"],"outcomes":[0,1,0],"key":38,"choice":1,"rt":232.3550000000978,"outcome":1,"trial":26,"correct":1,"trial_type":"three-arm-trial","trial_index":35,"time_elapsed":709806,"internal_node_id":"0.0-32.0-0.0","task_version":"screening-prolific","missing":false,"accuracy":1},{"contexts":["blue","green","red"],"outcomes":[0,1,1],"key":38,"choice":1,"rt":396.37000000220723,"outcome":1,"trial":27,"correct":1,"trial_type":"three-arm-trial","trial_index":36,"time_elapsed":711406,"internal_node_id":"0.0-33.0-0.0","task_version":"screening-prolific","missing":false,"accuracy":1},{"contexts":["blue","green","red"],"outcomes":[1,1,0],"key":38,"choice":1,"rt":325.68999999784864,"outcome":1,"trial":28,"correct":1,"trial_type":"three-arm-trial","trial_index":37,"time_elapsed":712937,"internal_node_id":"0.0-34.0-0.0","task_version":"screening-prolific","missing":false,"accuracy":1},{"contexts":["blue","green","red"],"outcomes":[0,1,1],"key":38,"choice":1,"rt":317.11999999242835,"outcome":1,"trial":29,"correct":1,"trial_type":"three-arm-trial","trial_index":38,"time_elapsed":714463,"internal_node_id":"0.0-35.0-0.0","task_version":"screening-prolific","missing":false,"accuracy":1},{"contexts":["blue","green","red"],"outcomes":[0,0,0],"key":38,"choice":1,"rt":291.4299999974901,"outcome":0,"trial":30,"correct":1,"trial_type":"three-arm-trial","trial_index":39,"time_elapsed":715967,"internal_node_id":"0.0-36.0-0.0","task_version":"screening-prolific","missing":false,"accuracy":1},{"contexts":["blue","green","red"],"outcomes":[1,0,0],"key":37,"choice":0,"rt":298.86500000429805,"outcome":1,"trial":31,"correct":0,"trial_type":"three-arm-trial","trial_index":40,"time_elapsed":717471,"internal_node_id":"0.0-37.0-0.0","task_version":"screening-prolific","missing":false,"accuracy":1},{"contexts":["blue","green","red"],"outcomes":[0,1,0],"key":37,"choice":0,"rt":315.51000000035856,"outcome":0,"trial":32,"correct":0,"trial_type":"three-arm-trial","trial_index":41,"time_elapsed":718991,"internal_node_id":"0.0-38.0-0.0","task_version":"screening-prolific","missing":false,"accuracy":1},{"contexts":["blue","green","red"],"outcomes":[1,1,0],"key":39,"choice":2,"rt":459.5850000041537,"outcome":0,"trial":33,"correct":0,"trial_type":"three-arm-trial","trial_index":42,"time_elapsed":720655,"internal_node_id":"0.0-39.0-0.0","task_version":"screening-prolific","missing":false,"accuracy":0},{"contexts":["blue","green","red"],"outcomes":[1,0,0],"key":38,"choice":1,"rt":240.57499998889398,"outcome":0,"trial":34,"correct":0,"trial_type":"three-arm-trial","trial_index":43,"time_elapsed":722100,"internal_node_id":"0.0-40.0-0.0","task_version":"screening-prolific","missing":false,"accuracy":0},{"contexts":["blue","green","red"],"outcomes":[1,1,0],"key":37,"choice":0,"rt":303.0350000044564,"outcome":1,"trial":35,"correct":0,"trial_type":"three-arm-trial","trial_index":44,"time_elapsed":723609,"internal_node_id":"0.0-41.0-0.0","task_version":"screening-prolific","missing":false,"accuracy":1},{"contexts":["blue","green","red"],"outcomes":[1,1,0],"key":37,"choice":0,"rt":317.35500000650063,"outcome":1,"trial":36,"correct":0,"trial_type":"three-arm-trial","trial_index":45,"time_elapsed":725131,"internal_node_id":"0.0-42.0-0.0","task_version":"screening-prolific","missing":false,"accuracy":1},{"contexts":["blue","green","red"],"outcomes":[0,0,0],"key":37,"choice":0,"rt":352.6749999873573,"outcome":0,"trial":37,"correct":0,"trial_type":"three-arm-trial","trial_index":46,"time_elapsed":726694,"internal_node_id":"0.0-43.0-0.0","task_version":"screening-prolific","missing":false,"accuracy":1},{"contexts":["blue","green","red"],"outcomes":[1,0,1],"key":39,"choice":2,"rt":356.4099999930477,"outcome":1,"trial":38,"correct":0,"trial_type":"three-arm-trial","trial_index":47,"time_elapsed":728260,"internal_node_id":"0.0-44.0-0.0","task_version":"screening-prolific","missing":false,"accuracy":0},{"contexts":["blue","green","red"],"outcomes":[1,0,0],"key":39,"choice":2,"rt":366.25500000081956,"outcome":0,"trial":39,"correct":0,"trial_type":"three-arm-trial","trial_index":48,"time_elapsed":729830,"internal_node_id":"0.0-45.0-0.0","task_version":"screening-prolific","missing":false,"accuracy":0},{"contexts":["blue","green","red"],"outcomes":[0,0,0],"key":38,"choice":1,"rt":331.8850000068778,"outcome":0,"trial":40,"correct":0,"trial_type":"three-arm-trial","trial_index":49,"time_elapsed":731366,"internal_node_id":"0.0-46.0-0.0","task_version":"screening-prolific","missing":false,"accuracy":0},{"contexts":["blue","green","red"],"outcomes":[1,0,0],"key":37,"choice":0,"rt":302.2750000091037,"outcome":1,"trial":41,"correct":0,"trial_type":"three-arm-trial","trial_index":50,"time_elapsed":732872,"internal_node_id":"0.0-47.0-0.0","task_version":"screening-prolific","missing":false,"accuracy":1},{"contexts":["blue","green","red"],"outcomes":[1,0,0],"key":37,"choice":0,"rt":306.2950000021374,"outcome":1,"trial":42,"correct":0,"trial_type":"three-arm-trial","trial_index":51,"time_elapsed":734383,"internal_node_id":"0.0-48.0-0.0","task_version":"screening-prolific","missing":false,"accuracy":1},{"contexts":["blue","green","red"],"outcomes":[1,1,1],"key":37,"choice":0,"rt":372.2399999969639,"outcome":1,"trial":43,"correct":0,"trial_type":"three-arm-trial","trial_index":52,"time_elapsed":735958,"internal_node_id":"0.0-49.0-0.0","task_version":"screening-prolific","missing":false,"accuracy":1},{"contexts":["blue","green","red"],"outcomes":[1,1,1],"key":37,"choice":0,"rt":344.29999999701977,"outcome":1,"trial":44,"correct":0,"trial_type":"three-arm-trial","trial_index":53,"time_elapsed":737510,"internal_node_id":"0.0-50.0-0.0","task_version":"screening-prolific","missing":false,"accuracy":1},{"contexts":["blue","green","red"],"outcomes":[1,1,0],"key":37,"choice":0,"rt":260.82000001042616,"outcome":1,"trial":45,"correct":0,"trial_type":"three-arm-trial","trial_index":54,"time_elapsed":738977,"internal_node_id":"0.0-51.0-0.0","task_version":"screening-prolific","missing":false,"accuracy":1},{"contexts":["blue","green","red"],"outcomes":[0,1,0],"key":37,"choice":0,"rt":297.06500000611413,"outcome":0,"trial":46,"correct":1,"trial_type":"three-arm-trial","trial_index":55,"time_elapsed":740479,"internal_node_id":"0.0-52.0-0.0","task_version":"screening-prolific","missing":false,"accuracy":0},{"contexts":["blue","green","red"],"outcomes":[0,1,0],"key":39,"choice":2,"rt":265.39499999489635,"outcome":0,"trial":47,"correct":1,"trial_type":"three-arm-trial","trial_index":56,"time_elapsed":741948,"internal_node_id":"0.0-53.0-0.0","task_version":"screening-prolific","missing":false,"accuracy":0},{"contexts":["blue","green","red"],"outcomes":[0,1,0],"key":38,"choice":1,"rt":352.4500000057742,"outcome":1,"trial":48,"correct":1,"trial_type":"three-arm-trial","trial_index":57,"time_elapsed":743507,"internal_node_id":"0.0-54.0-0.0","task_version":"screening-prolific","missing":false,"accuracy":1},{"contexts":["blue","green","red"],"outcomes":[1,1,0],"key":38,"choice":1,"rt":345.0600000069244,"outcome":1,"trial":49,"correct":1,"trial_type":"three-arm-trial","trial_index":58,"time_elapsed":745056,"internal_node_id":"0.0-55.0-0.0","task_version":"screening-prolific","missing":false,"accuracy":1},{"contexts":["blue","green","red"],"outcomes":[0,1,1],"key":38,"choice":1,"rt":399.49999999953434,"outcome":1,"trial":50,"correct":1,"trial_type":"three-arm-trial","trial_index":59,"time_elapsed":746662,"internal_node_id":"0.0-56.0-0.0","task_version":"screening-prolific","missing":false,"accuracy":1},{"contexts":["blue","green","red"],"outcomes":[0,1,0],"key":38,"choice":1,"rt":316.50500000978354,"outcome":1,"trial":51,"correct":1,"trial_type":"three-arm-trial","trial_index":60,"time_elapsed":748185,"internal_node_id":"0.0-57.0-0.0","task_version":"screening-prolific","missing":false,"accuracy":1},{"contexts":["blue","green","red"],"outcomes":[0,1,0],"key":38,"choice":1,"rt":396.3650000077905,"outcome":1,"trial":52,"correct":1,"trial_type":"three-arm-trial","trial_index":61,"time_elapsed":749786,"internal_node_id":"0.0-58.0-0.0","task_version":"screening-prolific","missing":false,"accuracy":1},{"contexts":["blue","green","red"],"outcomes":[0,1,0],"key":38,"choice":1,"rt":328.68999999482185,"outcome":1,"trial":53,"correct":1,"trial_type":"three-arm-trial","trial_index":62,"time_elapsed":751320,"internal_node_id":"0.0-59.0-0.0","task_version":"screening-prolific","missing":false,"accuracy":1},{"contexts":["blue","green","red"],"outcomes":[0,0,1],"key":38,"choice":1,"rt":301.27000001084525,"outcome":0,"trial":54,"correct":1,"trial_type":"three-arm-trial","trial_index":63,"time_elapsed":752824,"internal_node_id":"0.0-60.0-0.0","task_version":"screening-prolific","missing":false,"accuracy":1},{"contexts":["blue","green","red"],"outcomes":[0,1,0],"key":37,"choice":0,"rt":1711.8650000047637,"outcome":0,"trial":55,"correct":1,"trial_type":"three-arm-trial","trial_index":64,"time_elapsed":755738,"internal_node_id":"0.0-61.0-0.0","task_version":"screening-prolific","missing":false,"accuracy":0},{"contexts":["blue","green","red"],"outcomes":[0,1,0],"key":39,"choice":2,"rt":499.7000000003027,"outcome":0,"trial":56,"correct":1,"trial_type":"three-arm-trial","trial_index":65,"time_elapsed":757442,"internal_node_id":"0.0-62.0-0.0","task_version":"screening-prolific","missing":false,"accuracy":0},{"contexts":["blue","green","red"],"outcomes":[0,0,0],"key":38,"choice":1,"rt":426.8549999978859,"outcome":0,"trial":57,"correct":1,"trial_type":"three-arm-trial","trial_index":66,"time_elapsed":759080,"internal_node_id":"0.0-63.0-0.0","task_version":"screening-prolific","missing":false,"accuracy":1},{"contexts":["blue","green","red"],"outcomes":[0,1,0],"key":37,"choice":0,"rt":300.889999998617,"outcome":0,"trial":58,"correct":1,"trial_type":"three-arm-trial","trial_index":67,"time_elapsed":760585,"internal_node_id":"0.0-64.0-0.0","task_version":"screening-prolific","missing":false,"accuracy":0},{"contexts":["blue","green","red"],"outcomes":[1,1,1],"key":39,"choice":2,"rt":437.0200000121258,"outcome":1,"trial":59,"correct":1,"trial_type":"three-arm-trial","trial_index":68,"time_elapsed":762226,"internal_node_id":"0.0-65.0-0.0","task_version":"screening-prolific","missing":false,"accuracy":0},{"contexts":["blue","green","red"],"outcomes":[0,1,0],"key":39,"choice":2,"rt":377.2600000083912,"outcome":0,"trial":60,"correct":1,"trial_type":"three-arm-trial","trial_index":69,"time_elapsed":763814,"internal_node_id":"0.0-66.0-0.0","task_version":"screening-prolific","missing":false,"accuracy":0},{"contexts":["blue","green","red"],"outcomes":[0,0,1],"key":38,"choice":1,"rt":433.7800000066636,"outcome":0,"trial":61,"correct":0,"trial_type":"three-arm-trial","trial_index":70,"time_elapsed":765456,"internal_node_id":"0.0-67.0-0.0","task_version":"screening-prolific","missing":false,"accuracy":0},{"contexts":["blue","green","red"],"outcomes":[0,0,0],"key":37,"choice":0,"rt":428.2850000017788,"outcome":0,"trial":62,"correct":0,"trial_type":"three-arm-trial","trial_index":71,"time_elapsed":767088,"internal_node_id":"0.0-68.0-0.0","task_version":"screening-prolific","missing":false,"accuracy":1},{"contexts":["blue","green","red"],"outcomes":[1,0,0],"key":39,"choice":2,"rt":341.3600000058068,"outcome":0,"trial":63,"correct":0,"trial_type":"three-arm-trial","trial_index":72,"time_elapsed":768634,"internal_node_id":"0.0-69.0-0.0","task_version":"screening-prolific","missing":false,"accuracy":0},{"contexts":["blue","green","red"],"outcomes":[1,1,0],"key":38,"choice":1,"rt":357.4700000026496,"outcome":1,"trial":64,"correct":0,"trial_type":"three-arm-trial","trial_index":73,"time_elapsed":770202,"internal_node_id":"0.0-70.0-0.0","task_version":"screening-prolific","missing":false,"accuracy":0},{"contexts":["blue","green","red"],"outcomes":[1,0,0],"key":38,"choice":1,"rt":415.37000000244007,"outcome":0,"trial":65,"correct":0,"trial_type":"three-arm-trial","trial_index":74,"time_elapsed":771829,"internal_node_id":"0.0-71.0-0.0","task_version":"screening-prolific","missing":false,"accuracy":0},{"contexts":["blue","green","red"],"outcomes":[1,0,0],"key":37,"choice":0,"rt":371.6849999909755,"outcome":1,"trial":66,"correct":0,"trial_type":"three-arm-trial","trial_index":75,"time_elapsed":773407,"internal_node_id":"0.0-72.0-0.0","task_version":"screening-prolific","missing":false,"accuracy":1},{"contexts":["blue","green","red"],"outcomes":[0,0,0],"key":37,"choice":0,"rt":342.1000000089407,"outcome":0,"trial":67,"correct":0,"trial_type":"three-arm-trial","trial_index":76,"time_elapsed":774953,"internal_node_id":"0.0-73.0-0.0","task_version":"screening-prolific","missing":false,"accuracy":1},{"contexts":["blue","green","red"],"outcomes":[1,0,0],"key":39,"choice":2,"rt":394.1249999916181,"outcome":0,"trial":68,"correct":0,"trial_type":"three-arm-trial","trial_index":77,"time_elapsed":776555,"internal_node_id":"0.0-74.0-0.0","task_version":"screening-prolific","missing":false,"accuracy":0},{"contexts":["blue","green","red"],"outcomes":[0,0,0],"key":39,"choice":2,"rt":359.88000000361353,"outcome":0,"trial":69,"correct":0,"trial_type":"three-arm-trial","trial_index":78,"time_elapsed":778121,"internal_node_id":"0.0-75.0-0.0","task_version":"screening-prolific","missing":false,"accuracy":0},{"contexts":["blue","green","red"],"outcomes":[1,0,1],"key":39,"choice":2,"rt":361.9999999937136,"outcome":1,"trial":70,"correct":0,"trial_type":"three-arm-trial","trial_index":79,"time_elapsed":779686,"internal_node_id":"0.0-76.0-0.0","task_version":"screening-prolific","missing":false,"accuracy":0},{"contexts":["blue","green","red"],"outcomes":[1,1,0],"key":39,"choice":2,"rt":327.4800000071991,"outcome":0,"trial":71,"correct":0,"trial_type":"three-arm-trial","trial_index":80,"time_elapsed":781219,"internal_node_id":"0.0-77.0-0.0","task_version":"screening-prolific","missing":false,"accuracy":0},{"contexts":["blue","green","red"],"outcomes":[1,1,0],"key":38,"choice":1,"rt":386.33500000287313,"outcome":1,"trial":72,"correct":0,"trial_type":"three-arm-trial","trial_index":81,"time_elapsed":782812,"internal_node_id":"0.0-78.0-0.0","task_version":"screening-prolific","missing":false,"accuracy":0},{"contexts":["blue","green","red"],"outcomes":[0,1,0],"key":38,"choice":1,"rt":376.66999999783,"outcome":1,"trial":73,"correct":0,"trial_type":"three-arm-trial","trial_index":82,"time_elapsed":784393,"internal_node_id":"0.0-79.0-0.0","task_version":"screening-prolific","missing":false,"accuracy":0},{"contexts":["blue","green","red"],"outcomes":[1,1,0],"key":38,"choice":1,"rt":348.1949999986682,"outcome":1,"trial":74,"correct":0,"trial_type":"three-arm-trial","trial_index":83,"time_elapsed":785946,"internal_node_id":"0.0-80.0-0.0","task_version":"screening-prolific","missing":false,"accuracy":0},{"contexts":["blue","green","red"],"outcomes":[1,0,0],"key":38,"choice":1,"rt":348.6899999988964,"outcome":0,"trial":75,"correct":0,"trial_type":"three-arm-trial","trial_index":84,"time_elapsed":787498,"internal_node_id":"0.0-81.0-0.0","task_version":"screening-prolific","missing":false,"accuracy":0},{"contexts":["blue","green","red"],"outcomes":[0,1,0],"key":37,"choice":0,"rt":374.33999999484513,"outcome":0,"trial":76,"correct":1,"trial_type":"three-arm-trial","trial_index":85,"time_elapsed":789083,"internal_node_id":"0.0-82.0-0.0","task_version":"screening-prolific","missing":false,"accuracy":0},{"contexts":["blue","green","red"],"outcomes":[0,1,0],"key":39,"choice":2,"rt":393.7349999905564,"outcome":0,"trial":77,"correct":1,"trial_type":"three-arm-trial","trial_index":86,"time_elapsed":790684,"internal_node_id":"0.0-83.0-0.0","task_version":"screening-prolific","missing":false,"accuracy":0},{"contexts":["blue","green","red"],"outcomes":[0,0,0],"key":38,"choice":1,"rt":334.0900000039255,"outcome":0,"trial":78,"correct":1,"trial_type":"three-arm-trial","trial_index":87,"time_elapsed":792222,"internal_node_id":"0.0-84.0-0.0","task_version":"screening-prolific","missing":false,"accuracy":1},{"contexts":["blue","green","red"],"outcomes":[0,1,1],"key":37,"choice":0,"rt":343.07499999704305,"outcome":0,"trial":79,"correct":1,"trial_type":"three-arm-trial","trial_index":88,"time_elapsed":793768,"internal_node_id":"0.0-85.0-0.0","task_version":"screening-prolific","missing":false,"accuracy":0},{"contexts":["blue","green","red"],"outcomes":[0,1,0],"key":39,"choice":2,"rt":301.0199999989709,"outcome":0,"trial":80,"correct":1,"trial_type":"three-arm-trial","trial_index":89,"time_elapsed":795278,"internal_node_id":"0.0-86.0-0.0","task_version":"screening-prolific","missing":false,"accuracy":0},{"contexts":["blue","green","red"],"outcomes":[0,1,0],"key":38,"choice":1,"rt":351.68500000145286,"outcome":1,"trial":81,"correct":1,"trial_type":"three-arm-trial","trial_index":90,"time_elapsed":796836,"internal_node_id":"0.0-87.0-0.0","task_version":"screening-prolific","missing":false,"accuracy":1},{"contexts":["blue","green","red"],"outcomes":[0,1,0],"key":38,"choice":1,"rt":361.6199999960372,"outcome":1,"trial":82,"correct":1,"trial_type":"three-arm-trial","trial_index":91,"time_elapsed":798401,"internal_node_id":"0.0-88.0-0.0","task_version":"screening-prolific","missing":false,"accuracy":1},{"contexts":["blue","green","red"],"outcomes":[0,1,0],"key":38,"choice":1,"rt":301.00999999558553,"outcome":1,"trial":83,"correct":1,"trial_type":"three-arm-trial","trial_index":92,"time_elapsed":799904,"internal_node_id":"0.0-89.0-0.0","task_version":"screening-prolific","missing":false,"accuracy":1},{"contexts":["blue","green","red"],"outcomes":[0,1,0],"key":38,"choice":1,"rt":334.9999999918509,"outcome":1,"trial":84,"correct":1,"trial_type":"three-arm-trial","trial_index":93,"time_elapsed":801444,"internal_node_id":"0.0-90.0-0.0","task_version":"screening-prolific","missing":false,"accuracy":1},{"contexts":["blue","green","red"],"outcomes":[1,1,0],"key":38,"choice":1,"rt":622.7700000017649,"outcome":1,"trial":85,"correct":1,"trial_type":"three-arm-trial","trial_index":94,"time_elapsed":803274,"internal_node_id":"0.0-91.0-0.0","task_version":"screening-prolific","missing":false,"accuracy":1},{"contexts":["blue","green","red"],"outcomes":[0,1,0],"key":38,"choice":1,"rt":305.2449999959208,"outcome":1,"trial":86,"correct":1,"trial_type":"three-arm-trial","trial_index":95,"time_elapsed":804787,"internal_node_id":"0.0-92.0-0.0","task_version":"screening-prolific","missing":false,"accuracy":1},{"contexts":["blue","green","red"],"outcomes":[0,0,1],"key":38,"choice":1,"rt":342.49999999883585,"outcome":0,"trial":87,"correct":1,"trial_type":"three-arm-trial","trial_index":96,"time_elapsed":806340,"internal_node_id":"0.0-93.0-0.0","task_version":"screening-prolific","missing":false,"accuracy":1},{"contexts":["blue","green","red"],"outcomes":[0,1,0],"key":37,"choice":0,"rt":343.58999998949,"outcome":0,"trial":88,"correct":1,"trial_type":"three-arm-trial","trial_index":97,"time_elapsed":807892,"internal_node_id":"0.0-94.0-0.0","task_version":"screening-prolific","missing":false,"accuracy":0},{"contexts":["blue","green","red"],"outcomes":[0,1,0],"key":39,"choice":2,"rt":197.01000000350177,"outcome":0,"trial":89,"correct":1,"trial_type":"three-arm-trial","trial_index":98,"time_elapsed":809292,"internal_node_id":"0.0-95.0-0.0","task_version":"screening-prolific","missing":false,"accuracy":0},{"contexts":["blue","green","red"],"outcomes":[0,1,1],"key":38,"choice":1,"rt":6.964999993215315,"outcome":1,"trial":90,"correct":1,"trial_type":"three-arm-trial","trial_index":99,"time_elapsed":810504,"internal_node_id":"0.0-96.0-0.0","task_version":"screening-prolific","missing":false,"accuracy":1},{"rt":38607.57999999623,"responses":{"age":"43","gender-categorical":"Female","gender-free-response":"","ethnicity":"Not Hispanic or Latino","race":["Asian"],"language":"No","fluency":"Very well","mturk":"No","mturk-this-study":"No"},"survey":"demographics","trial_type":"survey-demo","trial_index":100,"time_elapsed":849133,"internal_node_id":"0.0-97.0","task_version":"screening-prolific","interactions":"[{\"event\":\"blur\",\"trial\":5,\"time\":395534},{\"event\":\"focus\",\"trial\":5,\"time\":478324},{\"event\":\"blur\",\"trial\":5,\"time\":491279},{\"event\":\"focus\",\"trial\":5,\"time\":573909}]"}]