[{"responses":{"Q05":"1","Q09":"0","Q06":"1","Q02":"0","Q08":"1","Q11":"0","Q10":"0","Q04":"1","Q01":"1","Q03":"1","Q12":"0","Q15":"0","Q14":"0","Q13":"2","Q07":"2"},"rt":156271.77499991376,"survey":"7up7down","trial_type":"survey-template","trial_index":0,"time_elapsed":156294,"internal_node_id":"0.0-0.0","task_version":"screening-prolific"},{"responses":{"Q07":"1","Q02":"3","Q05":"3","Q06":"3","Q01":"3","Q08":"3","Q04":"3","Q10":"3","Q03":"3","Q09":"3","Q13":"3","Q11":"3","Q12":"3"},"rt":76908.06499996688,"survey":"bisbas","trial_type":"survey-template","trial_index":1,"time_elapsed":233206,"internal_node_id":"0.0-1.0","task_version":"screening-prolific"},{"responses":{"Q07":"0","Q03":"2","Q02":"1","Q06":"1","Q08":"0","Q04":"0","Q05":"0","Q01":"0"},"rt":28583.995000110008,"survey":"gad7","trial_type":"survey-template","trial_index":2,"time_elapsed":261794,"internal_node_id":"0.0-2.0","task_version":"screening-prolific"},{"responses":{"Q02":"3","Q06":"1","Q11":"1","Q10":"2","Q05":"2","Q12":"2","Q03":"3","Q13":"2","Q09":"3","Q15":"2","Q01":"2","Q08":"3","Q07":"1","Q04":"2","Q14":"3"},"rt":61015.435000066645,"survey":"shaps","trial_type":"survey-template","trial_index":3,"time_elapsed":322819,"internal_node_id":"0.0-3.0","task_version":"screening-prolific"},{"responses":{"Q03":"2","Q02":"2","Q01":"2"},"rt":7598.63000002224,"survey":"pswq","trial_type":"survey-template","trial_index":4,"time_elapsed":330427,"internal_node_id":"0.0-4.0","task_version":"screening-prolific"},{"view_history":"[{\"page_index\":0,\"viewing_time\":3710.97999997437},{\"page_index\":1,\"viewing_time\":12319.125000038184},{\"page_index\":2,\"viewing_time\":22013.715000008233},{\"page_index\":1,\"viewing_time\":241.41499993856996},{\"page_index\":2,\"viewing_time\":618.2800000533462},{\"page_index\":1,\"viewing_time\":485.7749999500811},{\"page_index\":2,\"viewing_time\":506.3450000016019},{\"page_index\":3,\"viewing_time\":752.5349999777973},{\"page_index\":2,\"viewing_time\":11285.130000091158},{\"page_index\":3,\"viewing_time\":8441.14000000991},{\"page_index\":2,\"viewing_time\":597.9899999219924},{\"page_index\":3,\"viewing_time\":504.42500005010515},{\"page_index\":4,\"viewing_time\":597.7399999974295},{\"page_index\":3,\"viewing_time\":5342.324999975972},{\"page_index\":2,\"viewing_time\":690.9100000048056},{\"page_index\":3,\"viewing_time\":515.5749999685213},{\"page_index\":2,\"viewing_time\":2840.3399999951944},{\"page_index\":3,\"viewing_time\":474.44000001996756},{\"page_index\":2,\"viewing_time\":536.7750000441447},{\"page_index\":1,\"viewing_time\":1362.154999980703},{\"page_index\":2,\"viewing_time\":5723.879999946803},{\"page_index\":1,\"viewing_time\":683.4550000494346},{\"page_index\":2,\"viewing_time\":6895.585000049323},{\"page_index\":3,\"viewing_time\":573.2349999016151},{\"page_index\":2,\"viewing_time\":2019.9900000588968},{\"page_index\":3,\"viewing_time\":2533.04999996908},{\"page_index\":4,\"viewing_time\":487.154999980703},{\"page_index\":3,\"viewing_time\":17683.01000003703},{\"page_index\":2,\"viewing_time\":568.485000054352},{\"page_index\":3,\"viewing_time\":778.4749999409541},{\"page_index\":2,\"viewing_time\":1608.864999958314},{\"page_index\":1,\"viewing_time\":4547.710000071675},{\"page_index\":2,\"viewing_time\":738.7299999827519},{\"page_index\":1,\"viewing_time\":1440.8800000092015},{\"page_index\":2,\"viewing_time\":551.3199999695644},{\"page_index\":1,\"viewing_time\":668.0649999761954},{\"page_index\":2,\"viewing_time\":6920.565000036731},{\"page_index\":3,\"viewing_time\":978.7200000137091},{\"page_index\":4,\"viewing_time\":10870.250000036322},{\"page_index\":5,\"viewing_time\":6853.069999953732},{\"page_index\":6,\"viewing_time\":3831.789999967441},{\"page_index\":7,\"viewing_time\":10813.835000037216}]","rt":161608.70500002056,"trial_type":"instructions","trial_index":5,"time_elapsed":492022,"internal_node_id":"0.0-5.0-0.0","task_version":"screening-prolific"},{"responses":["True","True","False","False","True"],"num_errors":0,"rt":19359.71500002779,"trial_type":"three-arm-comprehension","trial_index":6,"time_elapsed":511391,"internal_node_id":"0.0-5.0-1.0","task_version":"screening-prolific"},{"view_history":"[{\"page_index\":0,\"viewing_time\":2211.060000001453}]","rt":2211.775000090711,"trial_type":"instructions","trial_index":7,"time_elapsed":513618,"internal_node_id":"0.0-6.0","task_version":"screening-prolific"},{"contexts":["red","green","blue"],"outcomes":[1,1,0],"key":38,"choice":1,"rt":4037.9749999847263,"outcome":1,"trial":1,"correct":1,"trial_type":"three-arm-trial","trial_index":8,"time_elapsed":518866,"internal_node_id":"0.0-7.0-0.0","task_version":"screening-prolific","missing":false,"accuracy":1},{"contexts":["red","green","blue"],"outcomes":[0,1,1],"key":38,"choice":1,"rt":1203.4500000299886,"outcome":1,"trial":2,"correct":1,"trial_type":"three-arm-trial","trial_index":9,"time_elapsed":521277,"internal_node_id":"0.0-8.0-0.0","task_version":"screening-prolific","missing":false,"accuracy":1},{"contexts":["red","green","blue"],"outcomes":[0,1,1],"key":38,"choice":1,"rt":514.545000041835,"outcome":1,"trial":3,"correct":1,"trial_type":"three-arm-trial","trial_index":10,"time_elapsed":522998,"internal_node_id":"0.0-9.0-0.0","task_version":"screening-prolific","missing":false,"accuracy":1},{"contexts":["red","green","blue"],"outcomes":[0,1,0],"key":38,"choice":1,"rt":582.5900000054389,"outcome":1,"trial":4,"correct":1,"trial_type":"three-arm-trial","trial_index":11,"time_elapsed":524786,"internal_node_id":"0.0-10.0-0.0","task_version":"screening-prolific","missing":false,"accuracy":1},{"contexts":["red","green","blue"],"outcomes":[0,1,1],"key":39,"choice":2,"rt":120.41500001214445,"outcome":1,"trial":5,"correct":1,"trial_type":"three-arm-trial","trial_index":12,"time_elapsed":526113,"internal_node_id":"0.0-11.0-0.0","task_version":"screening-prolific","missing":false,"accuracy":0},{"contexts":["red","green","blue"],"outcomes":[0,1,0],"key":38,"choice":1,"rt":1075.8599999826401,"outcome":1,"trial":6,"correct":1,"trial_type":"three-arm-trial","trial_index":13,"time_elapsed":528394,"internal_node_id":"0.0-12.0-0.0","task_version":"screening-prolific","missing":false,"accuracy":1},{"contexts":["red","green","blue"],"outcomes":[0,1,0],"key":null,"rt":null,"trial":7,"correct":1,"trial_type":"three-arm-trial","trial_index":14,"time_elapsed":543402,"internal_node_id":"0.0-13.0-0.0","task_version":"screening-prolific","missing":true},{"contexts":["red","green","blue"],"outcomes":[0,1,0],"key":null,"rt":null,"trial":7,"correct":1,"trial_type":"three-arm-trial","trial_index":15,"time_elapsed":558408,"internal_node_id":"0.0-13.1-0.1","task_version":"screening-prolific","missing":true},{"contexts":["red","green","blue"],"outcomes":[0,1,0],"key":37,"choice":0,"rt":8584.269999992102,"outcome":0,"trial":7,"correct":1,"trial_type":"three-arm-trial","trial_index":16,"time_elapsed":568196,"internal_node_id":"0.0-13.2-0.2","task_version":"screening-prolific","missing":false,"accuracy":0},{"contexts":["red","green","blue"],"outcomes":[0,0,0],"key":39,"choice":2,"rt":282.7150000957772,"outcome":0,"trial":8,"correct":1,"trial_type":"three-arm-trial","trial_index":17,"time_elapsed":569684,"internal_node_id":"0.0-14.0-0.0","task_version":"screening-prolific","missing":false,"accuracy":0},{"contexts":["red","green","blue"],"outcomes":[0,0,0],"key":38,"choice":1,"rt":6146.829999983311,"outcome":0,"trial":9,"correct":1,"trial_type":"three-arm-trial","trial_index":18,"time_elapsed":577036,"internal_node_id":"0.0-15.0-0.0","task_version":"screening-prolific","missing":false,"accuracy":1},{"contexts":["red","green","blue"],"outcomes":[1,0,0],"key":38,"choice":1,"rt":611.4299999317154,"outcome":0,"trial":10,"correct":1,"trial_type":"three-arm-trial","trial_index":19,"time_elapsed":578851,"internal_node_id":"0.0-16.0-0.0","task_version":"screening-prolific","missing":false,"accuracy":1},{"contexts":["red","green","blue"],"outcomes":[0,1,0],"key":38,"choice":1,"rt":388.73500004410744,"outcome":1,"trial":11,"correct":1,"trial_type":"three-arm-trial","trial_index":20,"time_elapsed":580444,"internal_node_id":"0.0-17.0-0.0","task_version":"screening-prolific","missing":false,"accuracy":1},{"contexts":["red","green","blue"],"outcomes":[0,1,0],"key":38,"choice":1,"rt":1235.5300000635907,"outcome":1,"trial":12,"correct":1,"trial_type":"three-arm-trial","trial_index":21,"time_elapsed":582884,"internal_node_id":"0.0-18.0-0.0","task_version":"screening-prolific","missing":false,"accuracy":1},{"contexts":["red","green","blue"],"outcomes":[0,1,0],"key":38,"choice":1,"rt":1421.6899999883026,"outcome":1,"trial":13,"correct":1,"trial_type":"three-arm-trial","trial_index":22,"time_elapsed":585511,"internal_node_id":"0.0-19.0-0.0","task_version":"screening-prolific","missing":false,"accuracy":1},{"contexts":["red","green","blue"],"outcomes":[1,0,0],"key":38,"choice":1,"rt":408.5549999726936,"outcome":0,"trial":14,"correct":1,"trial_type":"three-arm-trial","trial_index":23,"time_elapsed":587123,"internal_node_id":"0.0-20.0-0.0","task_version":"screening-prolific","missing":false,"accuracy":1},{"contexts":["red","green","blue"],"outcomes":[1,1,0],"key":38,"choice":1,"rt":868.335000006482,"outcome":1,"trial":15,"correct":1,"trial_type":"three-arm-trial","trial_index":24,"time_elapsed":589196,"internal_node_id":"0.0-21.0-0.0","task_version":"screening-prolific","missing":false,"accuracy":1},{"contexts":["red","green","blue"],"outcomes":[1,0,1],"key":39,"choice":2,"rt":888.6799999745563,"outcome":1,"trial":16,"correct":2,"trial_type":"three-arm-trial","trial_index":25,"time_elapsed":591292,"internal_node_id":"0.0-22.0-0.0","task_version":"screening-prolific","missing":false,"accuracy":1},{"contexts":["red","green","blue"],"outcomes":[0,0,1],"key":37,"choice":0,"rt":400.42499999981374,"outcome":0,"trial":17,"correct":2,"trial_type":"three-arm-trial","trial_index":26,"time_elapsed":592897,"internal_node_id":"0.0-23.0-0.0","task_version":"screening-prolific","missing":false,"accuracy":0},{"contexts":["red","green","blue"],"outcomes":[0,1,1],"key":39,"choice":2,"rt":485.64500000793487,"outcome":1,"trial":18,"correct":2,"trial_type":"three-arm-trial","trial_index":27,"time_elapsed":594588,"internal_node_id":"0.0-24.0-0.0","task_version":"screening-prolific","missing":false,"accuracy":1},{"contexts":["red","green","blue"],"outcomes":[0,0,1],"key":38,"choice":1,"rt":402.7149999747053,"outcome":0,"trial":19,"correct":2,"trial_type":"three-arm-trial","trial_index":28,"time_elapsed":596196,"internal_node_id":"0.0-25.0-0.0","task_version":"screening-prolific","missing":false,"accuracy":0},{"contexts":["red","green","blue"],"outcomes":[1,0,0],"key":39,"choice":2,"rt":1083.379999967292,"outcome":0,"trial":20,"correct":2,"trial_type":"three-arm-trial","trial_index":29,"time_elapsed":598485,"internal_node_id":"0.0-26.0-0.0","task_version":"screening-prolific","missing":false,"accuracy":1},{"contexts":["red","green","blue"],"outcomes":[0,0,0],"key":37,"choice":0,"rt":19.55999992787838,"outcome":0,"trial":21,"correct":2,"trial_type":"three-arm-trial","trial_index":30,"time_elapsed":599710,"internal_node_id":"0.0-27.0-0.0","task_version":"screening-prolific","missing":false,"accuracy":0},{"contexts":["red","green","blue"],"outcomes":[0,0,1],"key":38,"choice":1,"rt":543.6599999666214,"outcome":0,"trial":22,"correct":2,"trial_type":"three-arm-trial","trial_index":31,"time_elapsed":601459,"internal_node_id":"0.0-28.0-0.0","task_version":"screening-prolific","missing":false,"accuracy":0},{"contexts":["red","green","blue"],"outcomes":[0,0,1],"key":39,"choice":2,"rt":441.3349999813363,"outcome":1,"trial":23,"correct":2,"trial_type":"three-arm-trial","trial_index":32,"time_elapsed":603105,"internal_node_id":"0.0-29.0-0.0","task_version":"screening-prolific","missing":false,"accuracy":1},{"contexts":["red","green","blue"],"outcomes":[0,0,1],"key":39,"choice":2,"rt":128.44000000040978,"outcome":1,"trial":24,"correct":2,"trial_type":"three-arm-trial","trial_index":33,"time_elapsed":604438,"internal_node_id":"0.0-30.0-0.0","task_version":"screening-prolific","missing":false,"accuracy":1},{"contexts":["red","green","blue"],"outcomes":[1,0,1],"key":39,"choice":2,"rt":38.77500002272427,"outcome":1,"trial":25,"correct":2,"trial_type":"three-arm-trial","trial_index":34,"time_elapsed":605682,"internal_node_id":"0.0-31.0-0.0","task_version":"screening-prolific","missing":false,"accuracy":1},{"contexts":["red","green","blue"],"outcomes":[0,0,1],"key":39,"choice":2,"rt":17.674999893642962,"outcome":1,"trial":26,"correct":2,"trial_type":"three-arm-trial","trial_index":35,"time_elapsed":606908,"internal_node_id":"0.0-32.0-0.0","task_version":"screening-prolific","missing":false,"accuracy":1},{"contexts":["red","green","blue"],"outcomes":[0,0,1],"key":39,"choice":2,"rt":352.4900000775233,"outcome":1,"trial":27,"correct":2,"trial_type":"three-arm-trial","trial_index":36,"time_elapsed":608467,"internal_node_id":"0.0-33.0-0.0","task_version":"screening-prolific","missing":false,"accuracy":1},{"contexts":["red","green","blue"],"outcomes":[0,1,0],"key":39,"choice":2,"rt":218.20000000298023,"outcome":0,"trial":28,"correct":2,"trial_type":"three-arm-trial","trial_index":37,"time_elapsed":609890,"internal_node_id":"0.0-34.0-0.0","task_version":"screening-prolific","missing":false,"accuracy":1},{"contexts":["red","green","blue"],"outcomes":[0,1,1],"key":38,"choice":1,"rt":545.8050000015646,"outcome":1,"trial":29,"correct":2,"trial_type":"three-arm-trial","trial_index":38,"time_elapsed":611641,"internal_node_id":"0.0-35.0-0.0","task_version":"screening-prolific","missing":false,"accuracy":0},{"contexts":["red","green","blue"],"outcomes":[1,1,1],"key":38,"choice":1,"rt":75.11000009253621,"outcome":1,"trial":30,"correct":2,"trial_type":"three-arm-trial","trial_index":39,"time_elapsed":612921,"internal_node_id":"0.0-36.0-0.0","task_version":"screening-prolific","missing":false,"accuracy":0},{"contexts":["red","green","blue"],"outcomes":[0,0,0],"key":38,"choice":1,"rt":175.6100000347942,"outcome":0,"trial":31,"correct":1,"trial_type":"three-arm-trial","trial_index":40,"time_elapsed":614302,"internal_node_id":"0.0-37.0-0.0","task_version":"screening-prolific","missing":false,"accuracy":1},{"contexts":["red","green","blue"],"outcomes":[0,1,1],"key":38,"choice":1,"rt":1412.1349999913946,"outcome":1,"trial":32,"correct":1,"trial_type":"three-arm-trial","trial_index":41,"time_elapsed":616920,"internal_node_id":"0.0-38.0-0.0","task_version":"screening-prolific","missing":false,"accuracy":1},{"contexts":["red","green","blue"],"outcomes":[1,1,0],"key":38,"choice":1,"rt":103.9999999338761,"outcome":1,"trial":33,"correct":1,"trial_type":"three-arm-trial","trial_index":42,"time_elapsed":618229,"internal_node_id":"0.0-39.0-0.0","task_version":"screening-prolific","missing":false,"accuracy":1},{"contexts":["red","green","blue"],"outcomes":[0,1,0],"key":38,"choice":1,"rt":151.35499997995794,"outcome":1,"trial":34,"correct":1,"trial_type":"three-arm-trial","trial_index":43,"time_elapsed":619586,"internal_node_id":"0.0-40.0-0.0","task_version":"screening-prolific","missing":false,"accuracy":1},{"contexts":["red","green","blue"],"outcomes":[0,1,0],"key":38,"choice":1,"rt":237.29999992065132,"outcome":1,"trial":35,"correct":1,"trial_type":"three-arm-trial","trial_index":44,"time_elapsed":621030,"internal_node_id":"0.0-41.0-0.0","task_version":"screening-prolific","missing":false,"accuracy":1},{"contexts":["red","green","blue"],"outcomes":[0,0,0],"key":38,"choice":1,"rt":7.959999958984554,"outcome":0,"trial":36,"correct":1,"trial_type":"three-arm-trial","trial_index":45,"time_elapsed":622244,"internal_node_id":"0.0-42.0-0.0","task_version":"screening-prolific","missing":false,"accuracy":1},{"contexts":["red","green","blue"],"outcomes":[1,1,0],"key":39,"choice":2,"rt":210.8200000366196,"outcome":0,"trial":37,"correct":1,"trial_type":"three-arm-trial","trial_index":46,"time_elapsed":623660,"internal_node_id":"0.0-43.0-0.0","task_version":"screening-prolific","missing":false,"accuracy":0},{"contexts":["red","green","blue"],"outcomes":[1,1,0],"key":37,"choice":0,"rt":236.475000041537,"outcome":1,"trial":38,"correct":1,"trial_type":"three-arm-trial","trial_index":47,"time_elapsed":625102,"internal_node_id":"0.0-44.0-0.0","task_version":"screening-prolific","missing":false,"accuracy":0},{"contexts":["red","green","blue"],"outcomes":[0,1,1],"key":37,"choice":0,"rt":98.60499994829297,"outcome":0,"trial":39,"correct":1,"trial_type":"three-arm-trial","trial_index":48,"time_elapsed":626405,"internal_node_id":"0.0-45.0-0.0","task_version":"screening-prolific","missing":false,"accuracy":0},{"contexts":["red","green","blue"],"outcomes":[0,1,0],"key":39,"choice":2,"rt":242.25000001024455,"outcome":0,"trial":40,"correct":1,"trial_type":"three-arm-trial","trial_index":49,"time_elapsed":627852,"internal_node_id":"0.0-46.0-0.0","task_version":"screening-prolific","missing":false,"accuracy":0},{"contexts":["red","green","blue"],"outcomes":[0,0,1],"key":37,"choice":0,"rt":79.26500006578863,"outcome":0,"trial":41,"correct":1,"trial_type":"three-arm-trial","trial_index":50,"time_elapsed":629136,"internal_node_id":"0.0-47.0-0.0","task_version":"screening-prolific","missing":false,"accuracy":0},{"contexts":["red","green","blue"],"outcomes":[0,1,1],"key":38,"choice":1,"rt":194.12000000011176,"outcome":1,"trial":42,"correct":1,"trial_type":"three-arm-trial","trial_index":51,"time_elapsed":630535,"internal_node_id":"0.0-48.0-0.0","task_version":"screening-prolific","missing":false,"accuracy":1},{"contexts":["red","green","blue"],"outcomes":[0,1,0],"key":38,"choice":1,"rt":300.22999993525445,"outcome":1,"trial":43,"correct":1,"trial_type":"three-arm-trial","trial_index":52,"time_elapsed":632041,"internal_node_id":"0.0-49.0-0.0","task_version":"screening-prolific","missing":false,"accuracy":1},{"contexts":["red","green","blue"],"outcomes":[1,0,1],"key":38,"choice":1,"rt":96.49999998509884,"outcome":0,"trial":44,"correct":1,"trial_type":"three-arm-trial","trial_index":53,"time_elapsed":633343,"internal_node_id":"0.0-50.0-0.0","task_version":"screening-prolific","missing":false,"accuracy":1},{"contexts":["red","green","blue"],"outcomes":[0,0,0],"key":39,"choice":2,"rt":948.6049999250099,"outcome":0,"trial":45,"correct":1,"trial_type":"three-arm-trial","trial_index":54,"time_elapsed":635496,"internal_node_id":"0.0-51.0-0.0","task_version":"screening-prolific","missing":false,"accuracy":0},{"contexts":["red","green","blue"],"outcomes":[0,1,0],"key":37,"choice":0,"rt":248.64000000525266,"outcome":0,"trial":46,"correct":2,"trial_type":"three-arm-trial","trial_index":55,"time_elapsed":636948,"internal_node_id":"0.0-52.0-0.0","task_version":"screening-prolific","missing":false,"accuracy":0},{"contexts":["red","green","blue"],"outcomes":[0,0,1],"key":39,"choice":2,"rt":43.96500007715076,"outcome":1,"trial":47,"correct":2,"trial_type":"three-arm-trial","trial_index":56,"time_elapsed":638196,"internal_node_id":"0.0-53.0-0.0","task_version":"screening-prolific","missing":false,"accuracy":1},{"contexts":["red","green","blue"],"outcomes":[0,0,0],"key":39,"choice":2,"rt":150.64499992877245,"outcome":0,"trial":48,"correct":2,"trial_type":"three-arm-trial","trial_index":57,"time_elapsed":639551,"internal_node_id":"0.0-54.0-0.0","task_version":"screening-prolific","missing":false,"accuracy":1},{"contexts":["red","green","blue"],"outcomes":[1,0,1],"key":38,"choice":1,"rt":77.96499994583428,"outcome":0,"trial":49,"correct":2,"trial_type":"three-arm-trial","trial_index":58,"time_elapsed":640833,"internal_node_id":"0.0-55.0-0.0","task_version":"screening-prolific","missing":false,"accuracy":0},{"contexts":["red","green","blue"],"outcomes":[0,0,0],"key":38,"choice":1,"rt":89.39999993890524,"outcome":0,"trial":50,"correct":2,"trial_type":"three-arm-trial","trial_index":59,"time_elapsed":642126,"internal_node_id":"0.0-56.0-0.0","task_version":"screening-prolific","missing":false,"accuracy":0},{"contexts":["red","green","blue"],"outcomes":[0,0,1],"key":37,"choice":0,"rt":53.315000026486814,"outcome":0,"trial":51,"correct":2,"trial_type":"three-arm-trial","trial_index":60,"time_elapsed":643384,"internal_node_id":"0.0-57.0-0.0","task_version":"screening-prolific","missing":false,"accuracy":0},{"contexts":["red","green","blue"],"outcomes":[0,0,1],"key":38,"choice":1,"rt":723.9449999760836,"outcome":0,"trial":52,"correct":2,"trial_type":"three-arm-trial","trial_index":61,"time_elapsed":645315,"internal_node_id":"0.0-58.0-0.0","task_version":"screening-prolific","missing":false,"accuracy":0},{"contexts":["red","green","blue"],"outcomes":[0,0,0],"key":39,"choice":2,"rt":105.1799999549985,"outcome":0,"trial":53,"correct":2,"trial_type":"three-arm-trial","trial_index":62,"time_elapsed":646624,"internal_node_id":"0.0-59.0-0.0","task_version":"screening-prolific","missing":false,"accuracy":1},{"contexts":["red","green","blue"],"outcomes":[0,1,1],"key":39,"choice":2,"rt":53.05500002577901,"outcome":1,"trial":54,"correct":2,"trial_type":"three-arm-trial","trial_index":63,"time_elapsed":647884,"internal_node_id":"0.0-60.0-0.0","task_version":"screening-prolific","missing":false,"accuracy":1},{"contexts":["red","green","blue"],"outcomes":[0,0,1],"key":39,"choice":2,"rt":279.96499999426305,"outcome":1,"trial":55,"correct":2,"trial_type":"three-arm-trial","trial_index":64,"time_elapsed":649370,"internal_node_id":"0.0-61.0-0.0","task_version":"screening-prolific","missing":false,"accuracy":1},{"contexts":["red","green","blue"],"outcomes":[1,0,0],"key":39,"choice":2,"rt":58.71500005014241,"outcome":0,"trial":56,"correct":2,"trial_type":"three-arm-trial","trial_index":65,"time_elapsed":650634,"internal_node_id":"0.0-62.0-0.0","task_version":"screening-prolific","missing":false,"accuracy":1},{"contexts":["red","green","blue"],"outcomes":[0,0,0],"key":37,"choice":0,"rt":546.2950000073761,"outcome":0,"trial":57,"correct":2,"trial_type":"three-arm-trial","trial_index":66,"time_elapsed":652387,"internal_node_id":"0.0-63.0-0.0","task_version":"screening-prolific","missing":false,"accuracy":0},{"contexts":["red","green","blue"],"outcomes":[0,1,1],"key":38,"choice":1,"rt":460.2100000483915,"outcome":1,"trial":58,"correct":2,"trial_type":"three-arm-trial","trial_index":67,"time_elapsed":654054,"internal_node_id":"0.0-64.0-0.0","task_version":"screening-prolific","missing":false,"accuracy":0},{"contexts":["red","green","blue"],"outcomes":[0,1,1],"key":38,"choice":1,"rt":171.06500000227243,"outcome":1,"trial":59,"correct":2,"trial_type":"three-arm-trial","trial_index":68,"time_elapsed":655431,"internal_node_id":"0.0-65.0-0.0","task_version":"screening-prolific","missing":false,"accuracy":0},{"contexts":["red","green","blue"],"outcomes":[0,0,1],"key":38,"choice":1,"rt":359.6100000431761,"outcome":0,"trial":60,"correct":2,"trial_type":"three-arm-trial","trial_index":69,"time_elapsed":656995,"internal_node_id":"0.0-66.0-0.0","task_version":"screening-prolific","missing":false,"accuracy":0},{"contexts":["red","green","blue"],"outcomes":[1,0,1],"key":37,"choice":0,"rt":1244.3800000473857,"outcome":1,"trial":61,"correct":0,"trial_type":"three-arm-trial","trial_index":70,"time_elapsed":659446,"internal_node_id":"0.0-67.0-0.0","task_version":"screening-prolific","missing":false,"accuracy":1},{"contexts":["red","green","blue"],"outcomes":[0,0,1],"key":37,"choice":0,"rt":238.69499994907528,"outcome":0,"trial":62,"correct":0,"trial_type":"three-arm-trial","trial_index":71,"time_elapsed":660889,"internal_node_id":"0.0-68.0-0.0","task_version":"screening-prolific","missing":false,"accuracy":1},{"contexts":["red","green","blue"],"outcomes":[1,0,0],"key":39,"choice":2,"rt":356.24999995343387,"outcome":0,"trial":63,"correct":0,"trial_type":"three-arm-trial","trial_index":72,"time_elapsed":662450,"internal_node_id":"0.0-69.0-0.0","task_version":"screening-prolific","missing":false,"accuracy":0},{"contexts":["red","green","blue"],"outcomes":[1,0,0],"key":39,"choice":2,"rt":266.1100000841543,"outcome":0,"trial":64,"correct":0,"trial_type":"three-arm-trial","trial_index":73,"time_elapsed":663921,"internal_node_id":"0.0-70.0-0.0","task_version":"screening-prolific","missing":false,"accuracy":0},{"contexts":["red","green","blue"],"outcomes":[0,0,0],"key":38,"choice":1,"rt":380.9600000968203,"outcome":0,"trial":65,"correct":0,"trial_type":"three-arm-trial","trial_index":74,"time_elapsed":665508,"internal_node_id":"0.0-71.0-0.0","task_version":"screening-prolific","missing":false,"accuracy":0},{"contexts":["red","green","blue"],"outcomes":[1,0,0],"key":39,"choice":2,"rt":3162.6999999862164,"outcome":0,"trial":66,"correct":0,"trial_type":"three-arm-trial","trial_index":75,"time_elapsed":669878,"internal_node_id":"0.0-72.0-0.0","task_version":"screening-prolific","missing":false,"accuracy":0},{"contexts":["red","green","blue"],"outcomes":[1,0,0],"key":37,"choice":0,"rt":608.5750000784174,"outcome":1,"trial":67,"correct":0,"trial_type":"three-arm-trial","trial_index":76,"time_elapsed":671691,"internal_node_id":"0.0-73.0-0.0","task_version":"screening-prolific","missing":false,"accuracy":1},{"contexts":["red","green","blue"],"outcomes":[1,0,0],"key":37,"choice":0,"rt":218.73500000219792,"outcome":1,"trial":68,"correct":0,"trial_type":"three-arm-trial","trial_index":77,"time_elapsed":673109,"internal_node_id":"0.0-74.0-0.0","task_version":"screening-prolific","missing":false,"accuracy":1},{"contexts":["red","green","blue"],"outcomes":[1,0,0],"key":37,"choice":0,"rt":38.18999999202788,"outcome":1,"trial":69,"correct":0,"trial_type":"three-arm-trial","trial_index":78,"time_elapsed":674352,"internal_node_id":"0.0-75.0-0.0","task_version":"screening-prolific","missing":false,"accuracy":1},{"contexts":["red","green","blue"],"outcomes":[0,1,0],"key":37,"choice":0,"rt":212.4100000364706,"outcome":0,"trial":70,"correct":0,"trial_type":"three-arm-trial","trial_index":79,"time_elapsed":675768,"internal_node_id":"0.0-76.0-0.0","task_version":"screening-prolific","missing":false,"accuracy":1},{"contexts":["red","green","blue"],"outcomes":[1,0,0],"key":39,"choice":2,"rt":351.9749999977648,"outcome":0,"trial":71,"correct":0,"trial_type":"three-arm-trial","trial_index":80,"time_elapsed":677327,"internal_node_id":"0.0-77.0-0.0","task_version":"screening-prolific","missing":false,"accuracy":0},{"contexts":["red","green","blue"],"outcomes":[0,1,0],"key":38,"choice":1,"rt":348.05000002961606,"outcome":1,"trial":72,"correct":0,"trial_type":"three-arm-trial","trial_index":81,"time_elapsed":678879,"internal_node_id":"0.0-78.0-0.0","task_version":"screening-prolific","missing":false,"accuracy":0},{"contexts":["red","green","blue"],"outcomes":[1,1,0],"key":38,"choice":1,"rt":138.34499998483807,"outcome":1,"trial":73,"correct":0,"trial_type":"three-arm-trial","trial_index":82,"time_elapsed":680222,"internal_node_id":"0.0-79.0-0.0","task_version":"screening-prolific","missing":false,"accuracy":0},{"contexts":["red","green","blue"],"outcomes":[1,0,0],"key":38,"choice":1,"rt":256.62000000011176,"outcome":0,"trial":74,"correct":0,"trial_type":"three-arm-trial","trial_index":83,"time_elapsed":681684,"internal_node_id":"0.0-80.0-0.0","task_version":"screening-prolific","missing":false,"accuracy":0},{"contexts":["red","green","blue"],"outcomes":[1,0,0],"key":39,"choice":2,"rt":1581.2449998920783,"outcome":0,"trial":75,"correct":0,"trial_type":"three-arm-trial","trial_index":84,"time_elapsed":684472,"internal_node_id":"0.0-81.0-0.0","task_version":"screening-prolific","missing":false,"accuracy":0},{"contexts":["red","green","blue"],"outcomes":[0,0,1],"key":37,"choice":0,"rt":615.8350000623614,"outcome":0,"trial":76,"correct":2,"trial_type":"three-arm-trial","trial_index":85,"time_elapsed":686292,"internal_node_id":"0.0-82.0-0.0","task_version":"screening-prolific","missing":false,"accuracy":0},{"contexts":["red","green","blue"],"outcomes":[0,0,1],"key":38,"choice":1,"rt":397.17500004917383,"outcome":0,"trial":77,"correct":2,"trial_type":"three-arm-trial","trial_index":86,"time_elapsed":687896,"internal_node_id":"0.0-83.0-0.0","task_version":"screening-prolific","missing":false,"accuracy":0},{"contexts":["red","green","blue"],"outcomes":[0,0,1],"key":39,"choice":2,"rt":381.43499998841435,"outcome":1,"trial":78,"correct":2,"trial_type":"three-arm-trial","trial_index":87,"time_elapsed":689483,"internal_node_id":"0.0-84.0-0.0","task_version":"screening-prolific","missing":false,"accuracy":1},{"contexts":["red","green","blue"],"outcomes":[0,0,1],"key":39,"choice":2,"rt":132.24499998614192,"outcome":1,"trial":79,"correct":2,"trial_type":"three-arm-trial","trial_index":88,"time_elapsed":690820,"internal_node_id":"0.0-85.0-0.0","task_version":"screening-prolific","missing":false,"accuracy":1},{"contexts":["red","green","blue"],"outcomes":[0,1,1],"key":39,"choice":2,"rt":412.2100000968203,"outcome":1,"trial":80,"correct":2,"trial_type":"three-arm-trial","trial_index":89,"time_elapsed":692438,"internal_node_id":"0.0-86.0-0.0","task_version":"screening-prolific","missing":false,"accuracy":1},{"contexts":["red","green","blue"],"outcomes":[1,0,1],"key":39,"choice":2,"rt":435.1449999958277,"outcome":1,"trial":81,"correct":2,"trial_type":"three-arm-trial","trial_index":90,"time_elapsed":694078,"internal_node_id":"0.0-87.0-0.0","task_version":"screening-prolific","missing":false,"accuracy":1},{"contexts":["red","green","blue"],"outcomes":[0,0,0],"key":39,"choice":2,"rt":667.4349999520928,"outcome":0,"trial":82,"correct":2,"trial_type":"three-arm-trial","trial_index":91,"time_elapsed":695951,"internal_node_id":"0.0-88.0-0.0","task_version":"screening-prolific","missing":false,"accuracy":1},{"contexts":["red","green","blue"],"outcomes":[1,0,1],"key":37,"choice":0,"rt":397.50500000081956,"outcome":1,"trial":83,"correct":2,"trial_type":"three-arm-trial","trial_index":92,"time_elapsed":697554,"internal_node_id":"0.0-89.0-0.0","task_version":"screening-prolific","missing":false,"accuracy":0},{"contexts":["red","green","blue"],"outcomes":[0,0,1],"key":37,"choice":0,"rt":375.9850000496954,"outcome":0,"trial":84,"correct":2,"trial_type":"three-arm-trial","trial_index":93,"time_elapsed":699136,"internal_node_id":"0.0-90.0-0.0","task_version":"screening-prolific","missing":false,"accuracy":0},{"contexts":["red","green","blue"],"outcomes":[0,1,1],"key":38,"choice":1,"rt":346.14999999757856,"outcome":1,"trial":85,"correct":2,"trial_type":"three-arm-trial","trial_index":94,"time_elapsed":700688,"internal_node_id":"0.0-91.0-0.0","task_version":"screening-prolific","missing":false,"accuracy":0},{"contexts":["red","green","blue"],"outcomes":[0,0,1],"key":38,"choice":1,"rt":349.74999993573874,"outcome":0,"trial":86,"correct":2,"trial_type":"three-arm-trial","trial_index":95,"time_elapsed":702243,"internal_node_id":"0.0-92.0-0.0","task_version":"screening-prolific","missing":false,"accuracy":0},{"contexts":["red","green","blue"],"outcomes":[0,0,1],"key":39,"choice":2,"rt":435.47000002581626,"outcome":1,"trial":87,"correct":2,"trial_type":"three-arm-trial","trial_index":96,"time_elapsed":703883,"internal_node_id":"0.0-93.0-0.0","task_version":"screening-prolific","missing":false,"accuracy":1},{"contexts":["red","green","blue"],"outcomes":[0,0,1],"key":39,"choice":2,"rt":471.2699999799952,"outcome":1,"trial":88,"correct":2,"trial_type":"three-arm-trial","trial_index":97,"time_elapsed":705559,"internal_node_id":"0.0-94.0-0.0","task_version":"screening-prolific","missing":false,"accuracy":1},{"contexts":["red","green","blue"],"outcomes":[0,0,1],"key":39,"choice":2,"rt":677.4450000375509,"outcome":1,"trial":89,"correct":2,"trial_type":"three-arm-trial","trial_index":98,"time_elapsed":707442,"internal_node_id":"0.0-95.0-0.0","task_version":"screening-prolific","missing":false,"accuracy":1},{"contexts":["red","green","blue"],"outcomes":[0,1,1],"key":39,"choice":2,"rt":829.4400000013411,"outcome":1,"trial":90,"correct":2,"trial_type":"three-arm-trial","trial_index":99,"time_elapsed":709477,"internal_node_id":"0.0-96.0-0.0","task_version":"screening-prolific","missing":false,"accuracy":1},{"rt":28144.744999939576,"responses":{"age":"43","gender-categorical":"Male","gender-free-response":"","ethnicity":"Not Hispanic or Latino","race":["White"],"language":"No","fluency":"Very well","mturk":"No","mturk-this-study":"No"},"survey":"demographics","trial_type":"survey-demo","trial_index":100,"time_elapsed":737628,"internal_node_id":"0.0-97.0","task_version":"screening-prolific","interactions":"[{\"event\":\"blur\",\"trial\":13,\"time\":528287},{\"event\":\"focus\",\"trial\":15,\"time\":552873}]"}]