[{"responses":{"Q14":"0","Q04":"0","Q09":"1","Q03":"1","Q01":"1","Q08":"1","Q12":"1","Q06":"0","Q13":"0","Q07":"1","Q10":"1","Q05":"1","Q11":"1","Q15":"0","Q02":"1"},"rt":140379,"survey":"7up7down","trial_type":"survey-template","trial_index":0,"time_elapsed":140392,"internal_node_id":"0.0-0.0","task_version":"screening-prolific"},{"responses":{"Q06":"3","Q13":"3","Q04":"3","Q01":"3","Q10":"2","Q08":"2","Q05":"2","Q03":"3","Q12":"1","Q09":"1","Q02":"3","Q07":"3","Q11":"3"},"rt":90151,"survey":"bisbas","trial_type":"survey-template","trial_index":1,"time_elapsed":230547,"internal_node_id":"0.0-1.0","task_version":"screening-prolific"},{"responses":{"Q14":"3","Q10":"2","Q02":"3","Q08":"3","Q15":"3","Q01":"3","Q05":"3","Q13":"3","Q07":"3","Q11":"3","Q12":"3","Q03":"3","Q04":"3","Q06":"3","Q09":"3"},"rt":52983,"survey":"shaps","trial_type":"survey-template","trial_index":2,"time_elapsed":283534,"internal_node_id":"0.0-2.0","task_version":"screening-prolific"},{"responses":{"Q03":"3","Q04":"3","Q08":"0","Q06":"1","Q05":"1","Q01":"1","Q07":"1","Q02":"3"},"rt":41231,"survey":"gad7","trial_type":"survey-template","trial_index":3,"time_elapsed":324767,"internal_node_id":"0.0-3.0","task_version":"screening-prolific"},{"responses":{"Q02":"4","Q03":"3","Q01":"3"},"rt":9634,"survey":"pswq","trial_type":"survey-template","trial_index":4,"time_elapsed":334403,"internal_node_id":"0.0-4.0","task_version":"screening-prolific"},{"view_history":"[{\"page_index\":0,\"viewing_time\":4856},{\"page_index\":1,\"viewing_time\":8028},{\"page_index\":2,\"viewing_time\":9072},{\"page_index\":3,\"viewing_time\":4270},{\"page_index\":4,\"viewing_time\":31000},{\"page_index\":5,\"viewing_time\":4776},{\"page_index\":6,\"viewing_time\":4441},{\"page_index\":7,\"viewing_time\":4674}]","rt":71117,"trial_type":"instructions","trial_index":5,"time_elapsed":405520,"internal_node_id":"0.0-5.0-0.0","task_version":"screening-prolific"},{"responses":["True","True","True","False","True"],"num_errors":1,"rt":24690,"trial_type":"three-arm-comprehension","trial_index":6,"time_elapsed":430212,"internal_node_id":"0.0-5.0-1.0","task_version":"screening-prolific"},{"view_history":"[{\"page_index\":0,\"viewing_time\":2670},{\"page_index\":1,\"viewing_time\":2862},{\"page_index\":2,\"viewing_time\":2150},{\"page_index\":3,\"viewing_time\":1092},{\"page_index\":4,\"viewing_time\":3139},{\"page_index\":5,\"viewing_time\":2425},{\"page_index\":6,\"viewing_time\":3662},{\"page_index\":7,\"viewing_time\":1148}]","rt":19148,"trial_type":"instructions","trial_index":7,"time_elapsed":449363,"internal_node_id":"0.0-5.1-0.1","task_version":"screening-prolific"},{"responses":["True","True","False","False","True"],"num_errors":0,"rt":15204,"trial_type":"three-arm-comprehension","trial_index":8,"time_elapsed":464568,"internal_node_id":"0.0-5.1-1.1","task_version":"screening-prolific"},{"view_history":"[{\"page_index\":0,\"viewing_time\":2139}]","rt":2139,"trial_type":"instructions","trial_index":9,"time_elapsed":466709,"internal_node_id":"0.0-6.0","task_version":"screening-prolific"},{"contexts":["blue","red","green"],"outcomes":[1,1,0],"key":38,"choice":1,"rt":3077,"outcome":1,"trial":1,"correct":1,"trial_type":"three-arm-trial","trial_index":10,"time_elapsed":470992,"internal_node_id":"0.0-7.0-0.0","task_version":"screening-prolific","missing":false,"accuracy":1},{"contexts":["blue","red","green"],"outcomes":[1,0,0],"key":38,"choice":1,"rt":5034,"outcome":0,"trial":2,"correct":1,"trial_type":"three-arm-trial","trial_index":11,"time_elapsed":477233,"internal_node_id":"0.0-8.0-0.0","task_version":"screening-prolific","missing":false,"accuracy":1},{"contexts":["blue","red","green"],"outcomes":[0,0,0],"key":38,"choice":1,"rt":960,"outcome":0,"trial":3,"correct":1,"trial_type":"three-arm-trial","trial_index":12,"time_elapsed":479398,"internal_node_id":"0.0-9.0-0.0","task_version":"screening-prolific","missing":false,"accuracy":1},{"contexts":["blue","red","green"],"outcomes":[0,1,1],"key":37,"choice":0,"rt":20,"outcome":0,"trial":4,"correct":1,"trial_type":"three-arm-trial","trial_index":13,"time_elapsed":480623,"internal_node_id":"0.0-10.0-0.0","task_version":"screening-prolific","missing":false,"accuracy":0},{"contexts":["blue","red","green"],"outcomes":[1,1,0],"key":37,"choice":0,"rt":226,"outcome":1,"trial":5,"correct":1,"trial_type":"three-arm-trial","trial_index":14,"time_elapsed":482050,"internal_node_id":"0.0-11.0-0.0","task_version":"screening-prolific","missing":false,"accuracy":0},{"contexts":["blue","red","green"],"outcomes":[0,1,0],"key":37,"choice":0,"rt":286,"outcome":0,"trial":6,"correct":1,"trial_type":"three-arm-trial","trial_index":15,"time_elapsed":483543,"internal_node_id":"0.0-12.0-0.0","task_version":"screening-prolific","missing":false,"accuracy":0},{"contexts":["blue","red","green"],"outcomes":[0,1,0],"key":37,"choice":0,"rt":610,"outcome":0,"trial":7,"correct":1,"trial_type":"three-arm-trial","trial_index":16,"time_elapsed":485356,"internal_node_id":"0.0-13.0-0.0","task_version":"screening-prolific","missing":false,"accuracy":0},{"contexts":["blue","red","green"],"outcomes":[0,1,0],"key":37,"choice":0,"rt":548,"outcome":0,"trial":8,"correct":1,"trial_type":"three-arm-trial","trial_index":17,"time_elapsed":487109,"internal_node_id":"0.0-14.0-0.0","task_version":"screening-prolific","missing":false,"accuracy":0},{"contexts":["blue","red","green"],"outcomes":[0,1,1],"key":39,"choice":2,"rt":315,"outcome":1,"trial":9,"correct":1,"trial_type":"three-arm-trial","trial_index":18,"time_elapsed":488631,"internal_node_id":"0.0-15.0-0.0","task_version":"screening-prolific","missing":false,"accuracy":0},{"contexts":["blue","red","green"],"outcomes":[1,0,1],"key":39,"choice":2,"rt":345,"outcome":1,"trial":10,"correct":1,"trial_type":"three-arm-trial","trial_index":19,"time_elapsed":490180,"internal_node_id":"0.0-16.0-0.0","task_version":"screening-prolific","missing":false,"accuracy":0},{"contexts":["blue","red","green"],"outcomes":[0,1,0],"key":39,"choice":2,"rt":332,"outcome":0,"trial":11,"correct":1,"trial_type":"three-arm-trial","trial_index":20,"time_elapsed":491716,"internal_node_id":"0.0-17.0-0.0","task_version":"screening-prolific","missing":false,"accuracy":0},{"contexts":["blue","red","green"],"outcomes":[0,0,1],"key":39,"choice":2,"rt":261,"outcome":1,"trial":12,"correct":1,"trial_type":"three-arm-trial","trial_index":21,"time_elapsed":493184,"internal_node_id":"0.0-18.0-0.0","task_version":"screening-prolific","missing":false,"accuracy":0},{"contexts":["blue","red","green"],"outcomes":[0,0,0],"key":39,"choice":2,"rt":280,"outcome":0,"trial":13,"correct":1,"trial_type":"three-arm-trial","trial_index":22,"time_elapsed":494671,"internal_node_id":"0.0-19.0-0.0","task_version":"screening-prolific","missing":false,"accuracy":0},{"contexts":["blue","red","green"],"outcomes":[0,1,0],"key":39,"choice":2,"rt":242,"outcome":0,"trial":14,"correct":1,"trial_type":"three-arm-trial","trial_index":23,"time_elapsed":496119,"internal_node_id":"0.0-20.0-0.0","task_version":"screening-prolific","missing":false,"accuracy":0},{"contexts":["blue","red","green"],"outcomes":[0,0,1],"key":39,"choice":2,"rt":26,"outcome":1,"trial":15,"correct":1,"trial_type":"three-arm-trial","trial_index":24,"time_elapsed":497348,"internal_node_id":"0.0-21.0-0.0","task_version":"screening-prolific","missing":false,"accuracy":0},{"contexts":["blue","red","green"],"outcomes":[0,0,0],"key":39,"choice":2,"rt":316,"outcome":0,"trial":16,"correct":2,"trial_type":"three-arm-trial","trial_index":25,"time_elapsed":498867,"internal_node_id":"0.0-22.0-0.0","task_version":"screening-prolific","missing":false,"accuracy":1},{"contexts":["blue","red","green"],"outcomes":[0,0,1],"key":39,"choice":2,"rt":485,"outcome":1,"trial":17,"correct":2,"trial_type":"three-arm-trial","trial_index":26,"time_elapsed":500557,"internal_node_id":"0.0-23.0-0.0","task_version":"screening-prolific","missing":false,"accuracy":1},{"contexts":["blue","red","green"],"outcomes":[0,1,1],"key":39,"choice":2,"rt":605,"outcome":1,"trial":18,"correct":2,"trial_type":"three-arm-trial","trial_index":27,"time_elapsed":502365,"internal_node_id":"0.0-24.0-0.0","task_version":"screening-prolific","missing":false,"accuracy":1},{"contexts":["blue","red","green"],"outcomes":[0,0,1],"key":39,"choice":2,"rt":485,"outcome":1,"trial":19,"correct":2,"trial_type":"three-arm-trial","trial_index":28,"time_elapsed":504054,"internal_node_id":"0.0-25.0-0.0","task_version":"screening-prolific","missing":false,"accuracy":1},{"contexts":["blue","red","green"],"outcomes":[0,1,0],"key":39,"choice":2,"rt":316,"outcome":0,"trial":20,"correct":2,"trial_type":"three-arm-trial","trial_index":29,"time_elapsed":505575,"internal_node_id":"0.0-26.0-0.0","task_version":"screening-prolific","missing":false,"accuracy":1},{"contexts":["blue","red","green"],"outcomes":[1,0,0],"key":39,"choice":2,"rt":331,"outcome":0,"trial":21,"correct":2,"trial_type":"three-arm-trial","trial_index":30,"time_elapsed":507110,"internal_node_id":"0.0-27.0-0.0","task_version":"screening-prolific","missing":false,"accuracy":1},{"contexts":["blue","red","green"],"outcomes":[0,1,1],"key":38,"choice":1,"rt":306,"outcome":1,"trial":22,"correct":2,"trial_type":"three-arm-trial","trial_index":31,"time_elapsed":508620,"internal_node_id":"0.0-28.0-0.0","task_version":"screening-prolific","missing":false,"accuracy":0},{"contexts":["blue","red","green"],"outcomes":[0,0,1],"key":38,"choice":1,"rt":1269,"outcome":0,"trial":23,"correct":2,"trial_type":"three-arm-trial","trial_index":32,"time_elapsed":511092,"internal_node_id":"0.0-29.0-0.0","task_version":"screening-prolific","missing":false,"accuracy":0},{"contexts":["blue","red","green"],"outcomes":[0,0,1],"key":38,"choice":1,"rt":309,"outcome":0,"trial":24,"correct":2,"trial_type":"three-arm-trial","trial_index":33,"time_elapsed":512608,"internal_node_id":"0.0-30.0-0.0","task_version":"screening-prolific","missing":false,"accuracy":0},{"contexts":["blue","red","green"],"outcomes":[0,0,1],"key":38,"choice":1,"rt":417,"outcome":0,"trial":25,"correct":2,"trial_type":"three-arm-trial","trial_index":34,"time_elapsed":514227,"internal_node_id":"0.0-31.0-0.0","task_version":"screening-prolific","missing":false,"accuracy":0},{"contexts":["blue","red","green"],"outcomes":[1,0,1],"key":38,"choice":1,"rt":342,"outcome":0,"trial":26,"correct":2,"trial_type":"three-arm-trial","trial_index":35,"time_elapsed":515771,"internal_node_id":"0.0-32.0-0.0","task_version":"screening-prolific","missing":false,"accuracy":0},{"contexts":["blue","red","green"],"outcomes":[0,0,0],"key":37,"choice":0,"rt":342,"outcome":0,"trial":27,"correct":2,"trial_type":"three-arm-trial","trial_index":36,"time_elapsed":517319,"internal_node_id":"0.0-33.0-0.0","task_version":"screening-prolific","missing":false,"accuracy":0},{"contexts":["blue","red","green"],"outcomes":[1,0,1],"key":37,"choice":0,"rt":531,"outcome":1,"trial":28,"correct":2,"trial_type":"three-arm-trial","trial_index":37,"time_elapsed":519054,"internal_node_id":"0.0-34.0-0.0","task_version":"screening-prolific","missing":false,"accuracy":0},{"contexts":["blue","red","green"],"outcomes":[0,0,1],"key":37,"choice":0,"rt":370,"outcome":0,"trial":29,"correct":2,"trial_type":"three-arm-trial","trial_index":38,"time_elapsed":520630,"internal_node_id":"0.0-35.0-0.0","task_version":"screening-prolific","missing":false,"accuracy":0},{"contexts":["blue","red","green"],"outcomes":[0,0,0],"key":37,"choice":0,"rt":730,"outcome":0,"trial":30,"correct":2,"trial_type":"three-arm-trial","trial_index":39,"time_elapsed":522566,"internal_node_id":"0.0-36.0-0.0","task_version":"screening-prolific","missing":false,"accuracy":0},{"contexts":["blue","red","green"],"outcomes":[0,1,0],"key":37,"choice":0,"rt":506,"outcome":0,"trial":31,"correct":1,"trial_type":"three-arm-trial","trial_index":40,"time_elapsed":524279,"internal_node_id":"0.0-37.0-0.0","task_version":"screening-prolific","missing":false,"accuracy":0},{"contexts":["blue","red","green"],"outcomes":[0,1,0],"key":39,"choice":2,"rt":18,"outcome":0,"trial":32,"correct":1,"trial_type":"three-arm-trial","trial_index":41,"time_elapsed":525500,"internal_node_id":"0.0-38.0-0.0","task_version":"screening-prolific","missing":false,"accuracy":0},{"contexts":["blue","red","green"],"outcomes":[0,0,0],"key":39,"choice":2,"rt":349,"outcome":0,"trial":33,"correct":1,"trial_type":"three-arm-trial","trial_index":42,"time_elapsed":527057,"internal_node_id":"0.0-39.0-0.0","task_version":"screening-prolific","missing":false,"accuracy":0},{"contexts":["blue","red","green"],"outcomes":[0,1,1],"key":38,"choice":1,"rt":576,"outcome":1,"trial":34,"correct":1,"trial_type":"three-arm-trial","trial_index":43,"time_elapsed":528839,"internal_node_id":"0.0-40.0-0.0","task_version":"screening-prolific","missing":false,"accuracy":1},{"contexts":["blue","red","green"],"outcomes":[0,1,0],"key":38,"choice":1,"rt":425,"outcome":1,"trial":35,"correct":1,"trial_type":"three-arm-trial","trial_index":44,"time_elapsed":530469,"internal_node_id":"0.0-41.0-0.0","task_version":"screening-prolific","missing":false,"accuracy":1},{"contexts":["blue","red","green"],"outcomes":[0,1,1],"key":38,"choice":1,"rt":194,"outcome":1,"trial":36,"correct":1,"trial_type":"three-arm-trial","trial_index":45,"time_elapsed":531869,"internal_node_id":"0.0-42.0-0.0","task_version":"screening-prolific","missing":false,"accuracy":1},{"contexts":["blue","red","green"],"outcomes":[0,0,1],"key":38,"choice":1,"rt":261,"outcome":0,"trial":37,"correct":1,"trial_type":"three-arm-trial","trial_index":46,"time_elapsed":533334,"internal_node_id":"0.0-43.0-0.0","task_version":"screening-prolific","missing":false,"accuracy":1},{"contexts":["blue","red","green"],"outcomes":[0,1,0],"key":38,"choice":1,"rt":499,"outcome":1,"trial":38,"correct":1,"trial_type":"three-arm-trial","trial_index":47,"time_elapsed":535038,"internal_node_id":"0.0-44.0-0.0","task_version":"screening-prolific","missing":false,"accuracy":1},{"contexts":["blue","red","green"],"outcomes":[0,1,0],"key":38,"choice":1,"rt":348,"outcome":1,"trial":39,"correct":1,"trial_type":"three-arm-trial","trial_index":48,"time_elapsed":536591,"internal_node_id":"0.0-45.0-0.0","task_version":"screening-prolific","missing":false,"accuracy":1},{"contexts":["blue","red","green"],"outcomes":[1,1,0],"key":38,"choice":1,"rt":305,"outcome":1,"trial":40,"correct":1,"trial_type":"three-arm-trial","trial_index":49,"time_elapsed":538100,"internal_node_id":"0.0-46.0-0.0","task_version":"screening-prolific","missing":false,"accuracy":1},{"contexts":["blue","red","green"],"outcomes":[0,0,0],"key":38,"choice":1,"rt":452,"outcome":0,"trial":41,"correct":1,"trial_type":"three-arm-trial","trial_index":50,"time_elapsed":539758,"internal_node_id":"0.0-47.0-0.0","task_version":"screening-prolific","missing":false,"accuracy":1},{"contexts":["blue","red","green"],"outcomes":[0,1,0],"key":38,"choice":1,"rt":394,"outcome":1,"trial":42,"correct":1,"trial_type":"three-arm-trial","trial_index":51,"time_elapsed":541356,"internal_node_id":"0.0-48.0-0.0","task_version":"screening-prolific","missing":false,"accuracy":1},{"contexts":["blue","red","green"],"outcomes":[1,1,1],"key":38,"choice":1,"rt":603,"outcome":1,"trial":43,"correct":1,"trial_type":"three-arm-trial","trial_index":52,"time_elapsed":543163,"internal_node_id":"0.0-49.0-0.0","task_version":"screening-prolific","missing":false,"accuracy":1},{"contexts":["blue","red","green"],"outcomes":[0,1,0],"key":38,"choice":1,"rt":316,"outcome":1,"trial":44,"correct":1,"trial_type":"three-arm-trial","trial_index":53,"time_elapsed":544686,"internal_node_id":"0.0-50.0-0.0","task_version":"screening-prolific","missing":false,"accuracy":1},{"contexts":["blue","red","green"],"outcomes":[0,1,0],"key":38,"choice":1,"rt":506,"outcome":1,"trial":45,"correct":1,"trial_type":"three-arm-trial","trial_index":54,"time_elapsed":546398,"internal_node_id":"0.0-51.0-0.0","task_version":"screening-prolific","missing":false,"accuracy":1},{"contexts":["blue","red","green"],"outcomes":[1,0,0],"key":38,"choice":1,"rt":337,"outcome":0,"trial":46,"correct":2,"trial_type":"three-arm-trial","trial_index":55,"time_elapsed":547938,"internal_node_id":"0.0-52.0-0.0","task_version":"screening-prolific","missing":false,"accuracy":0},{"contexts":["blue","red","green"],"outcomes":[0,1,0],"key":38,"choice":1,"rt":253,"outcome":1,"trial":47,"correct":2,"trial_type":"three-arm-trial","trial_index":56,"time_elapsed":549397,"internal_node_id":"0.0-53.0-0.0","task_version":"screening-prolific","missing":false,"accuracy":0},{"contexts":["blue","red","green"],"outcomes":[0,0,1],"key":38,"choice":1,"rt":548,"outcome":0,"trial":48,"correct":2,"trial_type":"three-arm-trial","trial_index":57,"time_elapsed":551150,"internal_node_id":"0.0-54.0-0.0","task_version":"screening-prolific","missing":false,"accuracy":0},{"contexts":["blue","red","green"],"outcomes":[0,0,1],"key":38,"choice":1,"rt":635,"outcome":0,"trial":49,"correct":2,"trial_type":"three-arm-trial","trial_index":58,"time_elapsed":552990,"internal_node_id":"0.0-55.0-0.0","task_version":"screening-prolific","missing":false,"accuracy":0},{"contexts":["blue","red","green"],"outcomes":[1,1,1],"key":38,"choice":1,"rt":505,"outcome":1,"trial":50,"correct":2,"trial_type":"three-arm-trial","trial_index":59,"time_elapsed":554702,"internal_node_id":"0.0-56.0-0.0","task_version":"screening-prolific","missing":false,"accuracy":0},{"contexts":["blue","red","green"],"outcomes":[0,0,1],"key":38,"choice":1,"rt":427,"outcome":0,"trial":51,"correct":2,"trial_type":"three-arm-trial","trial_index":60,"time_elapsed":556333,"internal_node_id":"0.0-57.0-0.0","task_version":"screening-prolific","missing":false,"accuracy":0},{"contexts":["blue","red","green"],"outcomes":[1,0,1],"key":38,"choice":1,"rt":411,"outcome":0,"trial":52,"correct":2,"trial_type":"three-arm-trial","trial_index":61,"time_elapsed":557950,"internal_node_id":"0.0-58.0-0.0","task_version":"screening-prolific","missing":false,"accuracy":0},{"contexts":["blue","red","green"],"outcomes":[0,0,0],"key":38,"choice":1,"rt":473,"outcome":0,"trial":53,"correct":2,"trial_type":"three-arm-trial","trial_index":62,"time_elapsed":559631,"internal_node_id":"0.0-59.0-0.0","task_version":"screening-prolific","missing":false,"accuracy":0},{"contexts":["blue","red","green"],"outcomes":[1,1,1],"key":37,"choice":0,"rt":297,"outcome":1,"trial":54,"correct":2,"trial_type":"three-arm-trial","trial_index":63,"time_elapsed":561131,"internal_node_id":"0.0-60.0-0.0","task_version":"screening-prolific","missing":false,"accuracy":0},{"contexts":["blue","red","green"],"outcomes":[0,0,1],"key":37,"choice":0,"rt":453,"outcome":0,"trial":55,"correct":2,"trial_type":"three-arm-trial","trial_index":64,"time_elapsed":562788,"internal_node_id":"0.0-61.0-0.0","task_version":"screening-prolific","missing":false,"accuracy":0},{"contexts":["blue","red","green"],"outcomes":[0,0,1],"key":37,"choice":0,"rt":500,"outcome":0,"trial":56,"correct":2,"trial_type":"three-arm-trial","trial_index":65,"time_elapsed":564489,"internal_node_id":"0.0-62.0-0.0","task_version":"screening-prolific","missing":false,"accuracy":0},{"contexts":["blue","red","green"],"outcomes":[0,0,1],"key":39,"choice":2,"rt":311,"outcome":1,"trial":57,"correct":2,"trial_type":"three-arm-trial","trial_index":66,"time_elapsed":566005,"internal_node_id":"0.0-63.0-0.0","task_version":"screening-prolific","missing":false,"accuracy":1},{"contexts":["blue","red","green"],"outcomes":[0,0,1],"key":39,"choice":2,"rt":388,"outcome":1,"trial":58,"correct":2,"trial_type":"three-arm-trial","trial_index":67,"time_elapsed":567598,"internal_node_id":"0.0-64.0-0.0","task_version":"screening-prolific","missing":false,"accuracy":1},{"contexts":["blue","red","green"],"outcomes":[0,1,1],"key":39,"choice":2,"rt":361,"outcome":1,"trial":59,"correct":2,"trial_type":"three-arm-trial","trial_index":68,"time_elapsed":569166,"internal_node_id":"0.0-65.0-0.0","task_version":"screening-prolific","missing":false,"accuracy":1},{"contexts":["blue","red","green"],"outcomes":[0,1,0],"key":39,"choice":2,"rt":244,"outcome":0,"trial":60,"correct":2,"trial_type":"three-arm-trial","trial_index":69,"time_elapsed":570612,"internal_node_id":"0.0-66.0-0.0","task_version":"screening-prolific","missing":false,"accuracy":1},{"contexts":["blue","red","green"],"outcomes":[1,1,0],"key":39,"choice":2,"rt":269,"outcome":0,"trial":61,"correct":1,"trial_type":"three-arm-trial","trial_index":70,"time_elapsed":572085,"internal_node_id":"0.0-67.0-0.0","task_version":"screening-prolific","missing":false,"accuracy":0},{"contexts":["blue","red","green"],"outcomes":[0,1,1],"key":39,"choice":2,"rt":418,"outcome":1,"trial":62,"correct":1,"trial_type":"three-arm-trial","trial_index":71,"time_elapsed":573711,"internal_node_id":"0.0-68.0-0.0","task_version":"screening-prolific","missing":false,"accuracy":0},{"contexts":["blue","red","green"],"outcomes":[0,1,0],"key":39,"choice":2,"rt":305,"outcome":0,"trial":63,"correct":1,"trial_type":"three-arm-trial","trial_index":72,"time_elapsed":575223,"internal_node_id":"0.0-69.0-0.0","task_version":"screening-prolific","missing":false,"accuracy":0},{"contexts":["blue","red","green"],"outcomes":[0,0,0],"key":38,"choice":1,"rt":618,"outcome":0,"trial":64,"correct":1,"trial_type":"three-arm-trial","trial_index":73,"time_elapsed":577046,"internal_node_id":"0.0-70.0-0.0","task_version":"screening-prolific","missing":false,"accuracy":1},{"contexts":["blue","red","green"],"outcomes":[0,1,1],"key":38,"choice":1,"rt":226,"outcome":1,"trial":65,"correct":1,"trial_type":"three-arm-trial","trial_index":74,"time_elapsed":578477,"internal_node_id":"0.0-71.0-0.0","task_version":"screening-prolific","missing":false,"accuracy":1},{"contexts":["blue","red","green"],"outcomes":[0,0,0],"key":38,"choice":1,"rt":138,"outcome":0,"trial":66,"correct":1,"trial_type":"three-arm-trial","trial_index":75,"time_elapsed":579822,"internal_node_id":"0.0-72.0-0.0","task_version":"screening-prolific","missing":false,"accuracy":1},{"contexts":["blue","red","green"],"outcomes":[0,1,0],"key":38,"choice":1,"rt":369,"outcome":1,"trial":67,"correct":1,"trial_type":"three-arm-trial","trial_index":76,"time_elapsed":581396,"internal_node_id":"0.0-73.0-0.0","task_version":"screening-prolific","missing":false,"accuracy":1},{"contexts":["blue","red","green"],"outcomes":[0,1,1],"key":38,"choice":1,"rt":164,"outcome":1,"trial":68,"correct":1,"trial_type":"three-arm-trial","trial_index":77,"time_elapsed":582766,"internal_node_id":"0.0-74.0-0.0","task_version":"screening-prolific","missing":false,"accuracy":1},{"contexts":["blue","red","green"],"outcomes":[0,1,0],"key":38,"choice":1,"rt":274,"outcome":1,"trial":69,"correct":1,"trial_type":"three-arm-trial","trial_index":78,"time_elapsed":584244,"internal_node_id":"0.0-75.0-0.0","task_version":"screening-prolific","missing":false,"accuracy":1},{"contexts":["blue","red","green"],"outcomes":[1,1,0],"key":38,"choice":1,"rt":172,"outcome":1,"trial":70,"correct":1,"trial_type":"three-arm-trial","trial_index":79,"time_elapsed":585618,"internal_node_id":"0.0-76.0-0.0","task_version":"screening-prolific","missing":false,"accuracy":1},{"contexts":["blue","red","green"],"outcomes":[1,1,0],"key":38,"choice":1,"rt":70,"outcome":1,"trial":71,"correct":1,"trial_type":"three-arm-trial","trial_index":80,"time_elapsed":586893,"internal_node_id":"0.0-77.0-0.0","task_version":"screening-prolific","missing":false,"accuracy":1},{"contexts":["blue","red","green"],"outcomes":[0,1,0],"key":38,"choice":1,"rt":226,"outcome":1,"trial":72,"correct":1,"trial_type":"three-arm-trial","trial_index":81,"time_elapsed":588321,"internal_node_id":"0.0-78.0-0.0","task_version":"screening-prolific","missing":false,"accuracy":1},{"contexts":["blue","red","green"],"outcomes":[0,1,0],"key":38,"choice":1,"rt":805,"outcome":1,"trial":73,"correct":1,"trial_type":"three-arm-trial","trial_index":82,"time_elapsed":590329,"internal_node_id":"0.0-79.0-0.0","task_version":"screening-prolific","missing":false,"accuracy":1},{"contexts":["blue","red","green"],"outcomes":[0,1,0],"key":38,"choice":1,"rt":239,"outcome":1,"trial":74,"correct":1,"trial_type":"three-arm-trial","trial_index":83,"time_elapsed":591772,"internal_node_id":"0.0-80.0-0.0","task_version":"screening-prolific","missing":false,"accuracy":1},{"contexts":["blue","red","green"],"outcomes":[0,1,0],"key":38,"choice":1,"rt":19,"outcome":1,"trial":75,"correct":1,"trial_type":"three-arm-trial","trial_index":84,"time_elapsed":592995,"internal_node_id":"0.0-81.0-0.0","task_version":"screening-prolific","missing":false,"accuracy":1},{"contexts":["blue","red","green"],"outcomes":[0,0,1],"key":38,"choice":1,"rt":150,"outcome":0,"trial":76,"correct":2,"trial_type":"three-arm-trial","trial_index":85,"time_elapsed":594350,"internal_node_id":"0.0-82.0-0.0","task_version":"screening-prolific","missing":false,"accuracy":0},{"contexts":["blue","red","green"],"outcomes":[0,0,1],"key":38,"choice":1,"rt":849,"outcome":0,"trial":77,"correct":2,"trial_type":"three-arm-trial","trial_index":86,"time_elapsed":596401,"internal_node_id":"0.0-83.0-0.0","task_version":"screening-prolific","missing":false,"accuracy":0},{"contexts":["blue","red","green"],"outcomes":[0,0,1],"key":38,"choice":1,"rt":184,"outcome":0,"trial":78,"correct":2,"trial_type":"three-arm-trial","trial_index":87,"time_elapsed":597788,"internal_node_id":"0.0-84.0-0.0","task_version":"screening-prolific","missing":false,"accuracy":0},{"contexts":["blue","red","green"],"outcomes":[1,0,1],"key":38,"choice":1,"rt":20,"outcome":0,"trial":79,"correct":2,"trial_type":"three-arm-trial","trial_index":88,"time_elapsed":599013,"internal_node_id":"0.0-85.0-0.0","task_version":"screening-prolific","missing":false,"accuracy":0},{"contexts":["blue","red","green"],"outcomes":[0,1,0],"key":37,"choice":0,"rt":145,"outcome":0,"trial":80,"correct":2,"trial_type":"three-arm-trial","trial_index":89,"time_elapsed":600365,"internal_node_id":"0.0-86.0-0.0","task_version":"screening-prolific","missing":false,"accuracy":0},{"contexts":["blue","red","green"],"outcomes":[0,0,1],"key":37,"choice":0,"rt":612,"outcome":0,"trial":81,"correct":2,"trial_type":"three-arm-trial","trial_index":90,"time_elapsed":602179,"internal_node_id":"0.0-87.0-0.0","task_version":"screening-prolific","missing":false,"accuracy":0},{"contexts":["blue","red","green"],"outcomes":[0,0,1],"key":39,"choice":2,"rt":43,"outcome":1,"trial":82,"correct":2,"trial_type":"three-arm-trial","trial_index":91,"time_elapsed":603425,"internal_node_id":"0.0-88.0-0.0","task_version":"screening-prolific","missing":false,"accuracy":1},{"contexts":["blue","red","green"],"outcomes":[0,1,1],"key":39,"choice":2,"rt":247,"outcome":1,"trial":83,"correct":2,"trial_type":"three-arm-trial","trial_index":92,"time_elapsed":604877,"internal_node_id":"0.0-89.0-0.0","task_version":"screening-prolific","missing":false,"accuracy":1},{"contexts":["blue","red","green"],"outcomes":[0,0,1],"key":39,"choice":2,"rt":75,"outcome":1,"trial":84,"correct":2,"trial_type":"three-arm-trial","trial_index":93,"time_elapsed":606157,"internal_node_id":"0.0-90.0-0.0","task_version":"screening-prolific","missing":false,"accuracy":1},{"contexts":["blue","red","green"],"outcomes":[0,0,1],"key":39,"choice":2,"rt":593,"outcome":1,"trial":85,"correct":2,"trial_type":"three-arm-trial","trial_index":94,"time_elapsed":607958,"internal_node_id":"0.0-91.0-0.0","task_version":"screening-prolific","missing":false,"accuracy":1},{"contexts":["blue","red","green"],"outcomes":[0,0,1],"key":39,"choice":2,"rt":505,"outcome":1,"trial":86,"correct":2,"trial_type":"three-arm-trial","trial_index":95,"time_elapsed":609666,"internal_node_id":"0.0-92.0-0.0","task_version":"screening-prolific","missing":false,"accuracy":1},{"contexts":["blue","red","green"],"outcomes":[0,0,1],"key":39,"choice":2,"rt":653,"outcome":1,"trial":87,"correct":2,"trial_type":"three-arm-trial","trial_index":96,"time_elapsed":611524,"internal_node_id":"0.0-93.0-0.0","task_version":"screening-prolific","missing":false,"accuracy":1},{"contexts":["blue","red","green"],"outcomes":[0,0,1],"key":39,"choice":2,"rt":278,"outcome":1,"trial":88,"correct":2,"trial_type":"three-arm-trial","trial_index":97,"time_elapsed":613007,"internal_node_id":"0.0-94.0-0.0","task_version":"screening-prolific","missing":false,"accuracy":1},{"contexts":["blue","red","green"],"outcomes":[0,0,1],"key":39,"choice":2,"rt":88,"outcome":1,"trial":89,"correct":2,"trial_type":"three-arm-trial","trial_index":98,"time_elapsed":614302,"internal_node_id":"0.0-95.0-0.0","task_version":"screening-prolific","missing":false,"accuracy":1},{"contexts":["blue","red","green"],"outcomes":[0,0,1],"key":39,"choice":2,"rt":441,"outcome":1,"trial":90,"correct":2,"trial_type":"three-arm-trial","trial_index":99,"time_elapsed":615948,"internal_node_id":"0.0-96.0-0.0","task_version":"screening-prolific","missing":false,"accuracy":1},{"rt":63366,"responses":{"age":"33","gender-categorical":"Female","gender-free-response":"","ethnicity":"Not Hispanic or Latino","race":["Asian"],"language":"Yes","fluency":"Very well","mturk":"No","mturk-this-study":"No"},"survey":"demographics","trial_type":"survey-demo","trial_index":100,"time_elapsed":679321,"internal_node_id":"0.0-97.0","task_version":"screening-prolific","interactions":"[{\"event\":\"focus\",\"trial\":0,\"time\":0}]"}]