[{"responses":{"Q03":"2","Q01":"3","Q02":"1"},"rt":12097,"survey":"pswq","trial_type":"survey-template","trial_index":0,"time_elapsed":12100,"internal_node_id":"0.0-0.0","task_version":"screening-prolific"},{"responses":{"Q02":"3","Q05":"3","Q03":"3","Q13":"2","Q01":"3","Q12":"3","Q07":"3","Q08":"3","Q04":"2","Q06":"3","Q09":"2","Q14":"3","Q10":"2","Q15":"2","Q11":"3"},"rt":69446,"survey":"shaps","trial_type":"survey-template","trial_index":1,"time_elapsed":81549,"internal_node_id":"0.0-1.0","task_version":"screening-prolific"},{"responses":{"Q01":"0","Q08":"0","Q02":"1","Q11":"1","Q15":"0","Q03":"0","Q04":"0","Q05":"1","Q12":"1","Q09":"1","Q06":"0","Q07":"0","Q10":"1","Q14":"0","Q13":"0"},"rt":93874,"survey":"7up7down","trial_type":"survey-template","trial_index":2,"time_elapsed":175428,"internal_node_id":"0.0-2.0","task_version":"screening-prolific"},{"responses":{"Q04":"2","Q12":"2","Q05":"3","Q10":"3","Q13":"3","Q09":"3","Q01":"2","Q08":"3","Q11":"3","Q06":"2","Q02":"2","Q03":"2","Q07":"3"},"rt":63820,"survey":"bisbas","trial_type":"survey-template","trial_index":3,"time_elapsed":239252,"internal_node_id":"0.0-3.0","task_version":"screening-prolific"},{"responses":{"Q05":"1","Q08":"0","Q07":"1","Q01":"1","Q03":"2","Q02":"1","Q06":"2","Q04":"2"},"rt":29195,"survey":"gad7","trial_type":"survey-template","trial_index":4,"time_elapsed":268450,"internal_node_id":"0.0-4.0","task_version":"screening-prolific"},{"view_history":"[{\"page_index\":0,\"viewing_time\":5597},{\"page_index\":1,\"viewing_time\":9147},{\"page_index\":2,\"viewing_time\":9108},{\"page_index\":3,\"viewing_time\":6232},{\"page_index\":4,\"viewing_time\":10588},{\"page_index\":5,\"viewing_time\":4593},{\"page_index\":6,\"viewing_time\":4206},{\"page_index\":7,\"viewing_time\":6576}]","rt":56047,"trial_type":"instructions","trial_index":5,"time_elapsed":324498,"internal_node_id":"0.0-5.0-0.0","task_version":"screening-prolific"},{"responses":["True","True","True","False","True"],"num_errors":1,"rt":26175,"trial_type":"three-arm-comprehension","trial_index":6,"time_elapsed":350675,"internal_node_id":"0.0-5.0-1.0","task_version":"screening-prolific"},{"view_history":"[{\"page_index\":0,\"viewing_time\":4770},{\"page_index\":1,\"viewing_time\":22751},{\"page_index\":2,\"viewing_time\":8047},{\"page_index\":3,\"viewing_time\":5216},{\"page_index\":4,\"viewing_time\":6837},{\"page_index\":5,\"viewing_time\":2821},{\"page_index\":6,\"viewing_time\":1862},{\"page_index\":7,\"viewing_time\":2568}]","rt":54872,"trial_type":"instructions","trial_index":7,"time_elapsed":405549,"internal_node_id":"0.0-5.1-0.1","task_version":"screening-prolific"},{"responses":["True","True","False","False","True"],"num_errors":0,"rt":29217,"trial_type":"three-arm-comprehension","trial_index":8,"time_elapsed":434768,"internal_node_id":"0.0-5.1-1.1","task_version":"screening-prolific"},{"view_history":"[{\"page_index\":0,\"viewing_time\":4114}]","rt":4114,"trial_type":"instructions","trial_index":9,"time_elapsed":438884,"internal_node_id":"0.0-6.0","task_version":"screening-prolific"},{"contexts":["blue","red","green"],"outcomes":[1,0,0],"key":38,"choice":1,"rt":5522,"outcome":0,"trial":1,"correct":0,"trial_type":"three-arm-trial","trial_index":10,"time_elapsed":445611,"internal_node_id":"0.0-7.0-0.0","task_version":"screening-prolific","missing":false,"accuracy":0},{"contexts":["blue","red","green"],"outcomes":[1,1,0],"key":39,"choice":2,"rt":2223,"outcome":0,"trial":2,"correct":0,"trial_type":"three-arm-trial","trial_index":11,"time_elapsed":449042,"internal_node_id":"0.0-8.0-0.0","task_version":"screening-prolific","missing":false,"accuracy":0},{"contexts":["blue","red","green"],"outcomes":[0,1,0],"key":37,"choice":0,"rt":357,"outcome":0,"trial":3,"correct":0,"trial_type":"three-arm-trial","trial_index":12,"time_elapsed":450601,"internal_node_id":"0.0-9.0-0.0","task_version":"screening-prolific","missing":false,"accuracy":1},{"contexts":["blue","red","green"],"outcomes":[0,0,0],"key":38,"choice":1,"rt":417,"outcome":0,"trial":4,"correct":0,"trial_type":"three-arm-trial","trial_index":13,"time_elapsed":452220,"internal_node_id":"0.0-10.0-0.0","task_version":"screening-prolific","missing":false,"accuracy":0},{"contexts":["blue","red","green"],"outcomes":[0,0,0],"key":37,"choice":0,"rt":280,"outcome":0,"trial":5,"correct":0,"trial_type":"three-arm-trial","trial_index":14,"time_elapsed":453703,"internal_node_id":"0.0-11.0-0.0","task_version":"screening-prolific","missing":false,"accuracy":1},{"contexts":["blue","red","green"],"outcomes":[1,0,0],"key":37,"choice":0,"rt":704,"outcome":1,"trial":6,"correct":0,"trial_type":"three-arm-trial","trial_index":15,"time_elapsed":455610,"internal_node_id":"0.0-12.0-0.0","task_version":"screening-prolific","missing":false,"accuracy":1},{"contexts":["blue","red","green"],"outcomes":[1,0,0],"key":38,"choice":1,"rt":332,"outcome":0,"trial":7,"correct":0,"trial_type":"three-arm-trial","trial_index":16,"time_elapsed":457143,"internal_node_id":"0.0-13.0-0.0","task_version":"screening-prolific","missing":false,"accuracy":0},{"contexts":["blue","red","green"],"outcomes":[1,0,0],"key":39,"choice":2,"rt":429,"outcome":0,"trial":8,"correct":0,"trial_type":"three-arm-trial","trial_index":17,"time_elapsed":458775,"internal_node_id":"0.0-14.0-0.0","task_version":"screening-prolific","missing":false,"accuracy":0},{"contexts":["blue","red","green"],"outcomes":[1,1,0],"key":37,"choice":0,"rt":498,"outcome":1,"trial":9,"correct":0,"trial_type":"three-arm-trial","trial_index":18,"time_elapsed":460475,"internal_node_id":"0.0-15.0-0.0","task_version":"screening-prolific","missing":false,"accuracy":1},{"contexts":["blue","red","green"],"outcomes":[1,0,0],"key":37,"choice":0,"rt":464,"outcome":1,"trial":10,"correct":0,"trial_type":"three-arm-trial","trial_index":19,"time_elapsed":462141,"internal_node_id":"0.0-16.0-0.0","task_version":"screening-prolific","missing":false,"accuracy":1},{"contexts":["blue","red","green"],"outcomes":[1,0,0],"key":37,"choice":0,"rt":542,"outcome":1,"trial":11,"correct":0,"trial_type":"three-arm-trial","trial_index":20,"time_elapsed":463886,"internal_node_id":"0.0-17.0-0.0","task_version":"screening-prolific","missing":false,"accuracy":1},{"contexts":["blue","red","green"],"outcomes":[0,0,0],"key":37,"choice":0,"rt":492,"outcome":0,"trial":12,"correct":0,"trial_type":"three-arm-trial","trial_index":21,"time_elapsed":465580,"internal_node_id":"0.0-18.0-0.0","task_version":"screening-prolific","missing":false,"accuracy":1},{"contexts":["blue","red","green"],"outcomes":[1,0,0],"key":38,"choice":1,"rt":303,"outcome":0,"trial":13,"correct":0,"trial_type":"three-arm-trial","trial_index":22,"time_elapsed":467084,"internal_node_id":"0.0-19.0-0.0","task_version":"screening-prolific","missing":false,"accuracy":0},{"contexts":["blue","red","green"],"outcomes":[1,0,1],"key":39,"choice":2,"rt":489,"outcome":1,"trial":14,"correct":0,"trial_type":"three-arm-trial","trial_index":23,"time_elapsed":468777,"internal_node_id":"0.0-20.0-0.0","task_version":"screening-prolific","missing":false,"accuracy":0},{"contexts":["blue","red","green"],"outcomes":[1,0,0],"key":39,"choice":2,"rt":390,"outcome":0,"trial":15,"correct":0,"trial_type":"three-arm-trial","trial_index":24,"time_elapsed":470372,"internal_node_id":"0.0-21.0-0.0","task_version":"screening-prolific","missing":false,"accuracy":0},{"contexts":["blue","red","green"],"outcomes":[0,0,0],"key":39,"choice":2,"rt":379,"outcome":0,"trial":16,"correct":2,"trial_type":"three-arm-trial","trial_index":25,"time_elapsed":471953,"internal_node_id":"0.0-22.0-0.0","task_version":"screening-prolific","missing":false,"accuracy":1},{"contexts":["blue","red","green"],"outcomes":[0,0,1],"key":37,"choice":0,"rt":391,"outcome":0,"trial":17,"correct":2,"trial_type":"three-arm-trial","trial_index":26,"time_elapsed":473546,"internal_node_id":"0.0-23.0-0.0","task_version":"screening-prolific","missing":false,"accuracy":0},{"contexts":["blue","red","green"],"outcomes":[0,0,0],"key":37,"choice":0,"rt":325,"outcome":0,"trial":18,"correct":2,"trial_type":"three-arm-trial","trial_index":27,"time_elapsed":475073,"internal_node_id":"0.0-24.0-0.0","task_version":"screening-prolific","missing":false,"accuracy":0},{"contexts":["blue","red","green"],"outcomes":[1,0,0],"key":38,"choice":1,"rt":334,"outcome":0,"trial":19,"correct":2,"trial_type":"three-arm-trial","trial_index":28,"time_elapsed":476610,"internal_node_id":"0.0-25.0-0.0","task_version":"screening-prolific","missing":false,"accuracy":0},{"contexts":["blue","red","green"],"outcomes":[0,1,1],"key":38,"choice":1,"rt":261,"outcome":1,"trial":20,"correct":2,"trial_type":"three-arm-trial","trial_index":29,"time_elapsed":478071,"internal_node_id":"0.0-26.0-0.0","task_version":"screening-prolific","missing":false,"accuracy":0},{"contexts":["blue","red","green"],"outcomes":[0,0,1],"key":38,"choice":1,"rt":675,"outcome":0,"trial":21,"correct":2,"trial_type":"three-arm-trial","trial_index":30,"time_elapsed":479947,"internal_node_id":"0.0-27.0-0.0","task_version":"screening-prolific","missing":false,"accuracy":0},{"contexts":["blue","red","green"],"outcomes":[1,0,1],"key":38,"choice":1,"rt":396,"outcome":0,"trial":22,"correct":2,"trial_type":"three-arm-trial","trial_index":31,"time_elapsed":481546,"internal_node_id":"0.0-28.0-0.0","task_version":"screening-prolific","missing":false,"accuracy":0},{"contexts":["blue","red","green"],"outcomes":[0,0,0],"key":37,"choice":0,"rt":578,"outcome":0,"trial":23,"correct":2,"trial_type":"three-arm-trial","trial_index":32,"time_elapsed":483330,"internal_node_id":"0.0-29.0-0.0","task_version":"screening-prolific","missing":false,"accuracy":0},{"contexts":["blue","red","green"],"outcomes":[0,0,1],"key":37,"choice":0,"rt":335,"outcome":0,"trial":24,"correct":2,"trial_type":"three-arm-trial","trial_index":33,"time_elapsed":484868,"internal_node_id":"0.0-30.0-0.0","task_version":"screening-prolific","missing":false,"accuracy":0},{"contexts":["blue","red","green"],"outcomes":[0,1,1],"key":39,"choice":2,"rt":297,"outcome":1,"trial":25,"correct":2,"trial_type":"three-arm-trial","trial_index":34,"time_elapsed":486370,"internal_node_id":"0.0-31.0-0.0","task_version":"screening-prolific","missing":false,"accuracy":1},{"contexts":["blue","red","green"],"outcomes":[0,0,1],"key":39,"choice":2,"rt":331,"outcome":1,"trial":26,"correct":2,"trial_type":"three-arm-trial","trial_index":35,"time_elapsed":487903,"internal_node_id":"0.0-32.0-0.0","task_version":"screening-prolific","missing":false,"accuracy":1},{"contexts":["blue","red","green"],"outcomes":[0,0,1],"key":39,"choice":2,"rt":389,"outcome":1,"trial":27,"correct":2,"trial_type":"three-arm-trial","trial_index":36,"time_elapsed":489494,"internal_node_id":"0.0-33.0-0.0","task_version":"screening-prolific","missing":false,"accuracy":1},{"contexts":["blue","red","green"],"outcomes":[0,0,1],"key":39,"choice":2,"rt":315,"outcome":1,"trial":28,"correct":2,"trial_type":"three-arm-trial","trial_index":37,"time_elapsed":491010,"internal_node_id":"0.0-34.0-0.0","task_version":"screening-prolific","missing":false,"accuracy":1},{"contexts":["blue","red","green"],"outcomes":[0,1,1],"key":39,"choice":2,"rt":402,"outcome":1,"trial":29,"correct":2,"trial_type":"three-arm-trial","trial_index":38,"time_elapsed":492615,"internal_node_id":"0.0-35.0-0.0","task_version":"screening-prolific","missing":false,"accuracy":1},{"contexts":["blue","red","green"],"outcomes":[0,0,0],"key":39,"choice":2,"rt":326,"outcome":0,"trial":30,"correct":2,"trial_type":"three-arm-trial","trial_index":39,"time_elapsed":494143,"internal_node_id":"0.0-36.0-0.0","task_version":"screening-prolific","missing":false,"accuracy":1},{"contexts":["blue","red","green"],"outcomes":[1,0,1],"key":38,"choice":1,"rt":365,"outcome":0,"trial":31,"correct":0,"trial_type":"three-arm-trial","trial_index":40,"time_elapsed":495710,"internal_node_id":"0.0-37.0-0.0","task_version":"screening-prolific","missing":false,"accuracy":0},{"contexts":["blue","red","green"],"outcomes":[1,0,0],"key":37,"choice":0,"rt":292,"outcome":1,"trial":32,"correct":0,"trial_type":"three-arm-trial","trial_index":41,"time_elapsed":497203,"internal_node_id":"0.0-38.0-0.0","task_version":"screening-prolific","missing":false,"accuracy":1},{"contexts":["blue","red","green"],"outcomes":[1,0,0],"key":37,"choice":0,"rt":463,"outcome":1,"trial":33,"correct":0,"trial_type":"three-arm-trial","trial_index":42,"time_elapsed":498867,"internal_node_id":"0.0-39.0-0.0","task_version":"screening-prolific","missing":false,"accuracy":1},{"contexts":["blue","red","green"],"outcomes":[1,0,0],"key":37,"choice":0,"rt":405,"outcome":1,"trial":34,"correct":0,"trial_type":"three-arm-trial","trial_index":43,"time_elapsed":500473,"internal_node_id":"0.0-40.0-0.0","task_version":"screening-prolific","missing":false,"accuracy":1},{"contexts":["blue","red","green"],"outcomes":[1,0,1],"key":37,"choice":0,"rt":368,"outcome":1,"trial":35,"correct":0,"trial_type":"three-arm-trial","trial_index":44,"time_elapsed":502042,"internal_node_id":"0.0-41.0-0.0","task_version":"screening-prolific","missing":false,"accuracy":1},{"contexts":["blue","red","green"],"outcomes":[1,0,0],"key":37,"choice":0,"rt":546,"outcome":1,"trial":36,"correct":0,"trial_type":"three-arm-trial","trial_index":45,"time_elapsed":503794,"internal_node_id":"0.0-42.0-0.0","task_version":"screening-prolific","missing":false,"accuracy":1},{"contexts":["blue","red","green"],"outcomes":[1,1,0],"key":37,"choice":0,"rt":737,"outcome":1,"trial":37,"correct":0,"trial_type":"three-arm-trial","trial_index":46,"time_elapsed":505739,"internal_node_id":"0.0-43.0-0.0","task_version":"screening-prolific","missing":false,"accuracy":1},{"contexts":["blue","red","green"],"outcomes":[0,0,0],"key":37,"choice":0,"rt":452,"outcome":0,"trial":38,"correct":0,"trial_type":"three-arm-trial","trial_index":47,"time_elapsed":507393,"internal_node_id":"0.0-44.0-0.0","task_version":"screening-prolific","missing":false,"accuracy":1},{"contexts":["blue","red","green"],"outcomes":[1,0,1],"key":38,"choice":1,"rt":374,"outcome":0,"trial":39,"correct":0,"trial_type":"three-arm-trial","trial_index":48,"time_elapsed":508969,"internal_node_id":"0.0-45.0-0.0","task_version":"screening-prolific","missing":false,"accuracy":0},{"contexts":["blue","red","green"],"outcomes":[1,0,1],"key":39,"choice":2,"rt":325,"outcome":1,"trial":40,"correct":0,"trial_type":"three-arm-trial","trial_index":49,"time_elapsed":510495,"internal_node_id":"0.0-46.0-0.0","task_version":"screening-prolific","missing":false,"accuracy":0},{"contexts":["blue","red","green"],"outcomes":[0,0,0],"key":39,"choice":2,"rt":407,"outcome":0,"trial":41,"correct":0,"trial_type":"three-arm-trial","trial_index":50,"time_elapsed":512104,"internal_node_id":"0.0-47.0-0.0","task_version":"screening-prolific","missing":false,"accuracy":0},{"contexts":["blue","red","green"],"outcomes":[1,1,0],"key":39,"choice":2,"rt":494,"outcome":0,"trial":42,"correct":0,"trial_type":"three-arm-trial","trial_index":51,"time_elapsed":513799,"internal_node_id":"0.0-48.0-0.0","task_version":"screening-prolific","missing":false,"accuracy":0},{"contexts":["blue","red","green"],"outcomes":[1,1,0],"key":37,"choice":0,"rt":372,"outcome":1,"trial":43,"correct":0,"trial_type":"three-arm-trial","trial_index":52,"time_elapsed":515373,"internal_node_id":"0.0-49.0-0.0","task_version":"screening-prolific","missing":false,"accuracy":1},{"contexts":["blue","red","green"],"outcomes":[1,1,0],"key":37,"choice":0,"rt":432,"outcome":1,"trial":44,"correct":0,"trial_type":"three-arm-trial","trial_index":53,"time_elapsed":517008,"internal_node_id":"0.0-50.0-0.0","task_version":"screening-prolific","missing":false,"accuracy":1},{"contexts":["blue","red","green"],"outcomes":[1,1,0],"key":37,"choice":0,"rt":441,"outcome":1,"trial":45,"correct":0,"trial_type":"three-arm-trial","trial_index":54,"time_elapsed":518651,"internal_node_id":"0.0-51.0-0.0","task_version":"screening-prolific","missing":false,"accuracy":1},{"contexts":["blue","red","green"],"outcomes":[1,0,1],"key":37,"choice":0,"rt":544,"outcome":1,"trial":46,"correct":2,"trial_type":"three-arm-trial","trial_index":55,"time_elapsed":520396,"internal_node_id":"0.0-52.0-0.0","task_version":"screening-prolific","missing":false,"accuracy":0},{"contexts":["blue","red","green"],"outcomes":[0,1,1],"key":37,"choice":0,"rt":318,"outcome":0,"trial":47,"correct":2,"trial_type":"three-arm-trial","trial_index":56,"time_elapsed":521915,"internal_node_id":"0.0-53.0-0.0","task_version":"screening-prolific","missing":false,"accuracy":0},{"contexts":["blue","red","green"],"outcomes":[1,0,1],"key":38,"choice":1,"rt":187,"outcome":0,"trial":48,"correct":2,"trial_type":"three-arm-trial","trial_index":57,"time_elapsed":523304,"internal_node_id":"0.0-54.0-0.0","task_version":"screening-prolific","missing":false,"accuracy":0},{"contexts":["blue","red","green"],"outcomes":[0,0,1],"key":39,"choice":2,"rt":343,"outcome":1,"trial":49,"correct":2,"trial_type":"three-arm-trial","trial_index":58,"time_elapsed":524848,"internal_node_id":"0.0-55.0-0.0","task_version":"screening-prolific","missing":false,"accuracy":1},{"contexts":["blue","red","green"],"outcomes":[0,0,0],"key":39,"choice":2,"rt":346,"outcome":0,"trial":50,"correct":2,"trial_type":"three-arm-trial","trial_index":59,"time_elapsed":526395,"internal_node_id":"0.0-56.0-0.0","task_version":"screening-prolific","missing":false,"accuracy":1},{"contexts":["blue","red","green"],"outcomes":[0,0,1],"key":39,"choice":2,"rt":345,"outcome":1,"trial":51,"correct":2,"trial_type":"three-arm-trial","trial_index":60,"time_elapsed":527942,"internal_node_id":"0.0-57.0-0.0","task_version":"screening-prolific","missing":false,"accuracy":1},{"contexts":["blue","red","green"],"outcomes":[1,0,1],"key":39,"choice":2,"rt":377,"outcome":1,"trial":52,"correct":2,"trial_type":"three-arm-trial","trial_index":61,"time_elapsed":529522,"internal_node_id":"0.0-58.0-0.0","task_version":"screening-prolific","missing":false,"accuracy":1},{"contexts":["blue","red","green"],"outcomes":[0,0,1],"key":39,"choice":2,"rt":329,"outcome":1,"trial":53,"correct":2,"trial_type":"three-arm-trial","trial_index":62,"time_elapsed":531052,"internal_node_id":"0.0-59.0-0.0","task_version":"screening-prolific","missing":false,"accuracy":1},{"contexts":["blue","red","green"],"outcomes":[0,0,1],"key":39,"choice":2,"rt":359,"outcome":1,"trial":54,"correct":2,"trial_type":"three-arm-trial","trial_index":63,"time_elapsed":532612,"internal_node_id":"0.0-60.0-0.0","task_version":"screening-prolific","missing":false,"accuracy":1},{"contexts":["blue","red","green"],"outcomes":[0,0,1],"key":39,"choice":2,"rt":374,"outcome":1,"trial":55,"correct":2,"trial_type":"three-arm-trial","trial_index":64,"time_elapsed":534188,"internal_node_id":"0.0-61.0-0.0","task_version":"screening-prolific","missing":false,"accuracy":1},{"contexts":["blue","red","green"],"outcomes":[0,1,1],"key":39,"choice":2,"rt":356,"outcome":1,"trial":56,"correct":2,"trial_type":"three-arm-trial","trial_index":65,"time_elapsed":535744,"internal_node_id":"0.0-62.0-0.0","task_version":"screening-prolific","missing":false,"accuracy":1},{"contexts":["blue","red","green"],"outcomes":[0,0,0],"key":39,"choice":2,"rt":613,"outcome":0,"trial":57,"correct":2,"trial_type":"three-arm-trial","trial_index":66,"time_elapsed":537560,"internal_node_id":"0.0-63.0-0.0","task_version":"screening-prolific","missing":false,"accuracy":1},{"contexts":["blue","red","green"],"outcomes":[0,0,1],"key":37,"choice":0,"rt":673,"outcome":0,"trial":58,"correct":2,"trial_type":"three-arm-trial","trial_index":67,"time_elapsed":539435,"internal_node_id":"0.0-64.0-0.0","task_version":"screening-prolific","missing":false,"accuracy":0},{"contexts":["blue","red","green"],"outcomes":[0,1,1],"key":38,"choice":1,"rt":280,"outcome":1,"trial":59,"correct":2,"trial_type":"three-arm-trial","trial_index":68,"time_elapsed":540918,"internal_node_id":"0.0-65.0-0.0","task_version":"screening-prolific","missing":false,"accuracy":0},{"contexts":["blue","red","green"],"outcomes":[0,0,1],"key":38,"choice":1,"rt":282,"outcome":0,"trial":60,"correct":2,"trial_type":"three-arm-trial","trial_index":69,"time_elapsed":542401,"internal_node_id":"0.0-66.0-0.0","task_version":"screening-prolific","missing":false,"accuracy":0},{"contexts":["blue","red","green"],"outcomes":[0,1,0],"key":38,"choice":1,"rt":345,"outcome":1,"trial":61,"correct":1,"trial_type":"three-arm-trial","trial_index":70,"time_elapsed":543951,"internal_node_id":"0.0-67.0-0.0","task_version":"screening-prolific","missing":false,"accuracy":1},{"contexts":["blue","red","green"],"outcomes":[1,1,0],"key":38,"choice":1,"rt":339,"outcome":1,"trial":62,"correct":1,"trial_type":"three-arm-trial","trial_index":71,"time_elapsed":545491,"internal_node_id":"0.0-68.0-0.0","task_version":"screening-prolific","missing":false,"accuracy":1},{"contexts":["blue","red","green"],"outcomes":[0,0,1],"key":38,"choice":1,"rt":326,"outcome":0,"trial":63,"correct":1,"trial_type":"three-arm-trial","trial_index":72,"time_elapsed":547020,"internal_node_id":"0.0-69.0-0.0","task_version":"screening-prolific","missing":false,"accuracy":1},{"contexts":["blue","red","green"],"outcomes":[1,0,0],"key":38,"choice":1,"rt":356,"outcome":0,"trial":64,"correct":1,"trial_type":"three-arm-trial","trial_index":73,"time_elapsed":548577,"internal_node_id":"0.0-70.0-0.0","task_version":"screening-prolific","missing":false,"accuracy":1},{"contexts":["blue","red","green"],"outcomes":[0,0,0],"key":39,"choice":2,"rt":475,"outcome":0,"trial":65,"correct":1,"trial_type":"three-arm-trial","trial_index":74,"time_elapsed":550252,"internal_node_id":"0.0-71.0-0.0","task_version":"screening-prolific","missing":false,"accuracy":0},{"contexts":["blue","red","green"],"outcomes":[0,1,0],"key":37,"choice":0,"rt":306,"outcome":0,"trial":66,"correct":1,"trial_type":"three-arm-trial","trial_index":75,"time_elapsed":551760,"internal_node_id":"0.0-72.0-0.0","task_version":"screening-prolific","missing":false,"accuracy":0},{"contexts":["blue","red","green"],"outcomes":[0,1,0],"key":38,"choice":1,"rt":262,"outcome":1,"trial":67,"correct":1,"trial_type":"three-arm-trial","trial_index":76,"time_elapsed":553224,"internal_node_id":"0.0-73.0-0.0","task_version":"screening-prolific","missing":false,"accuracy":1},{"contexts":["blue","red","green"],"outcomes":[0,1,1],"key":38,"choice":1,"rt":358,"outcome":1,"trial":68,"correct":1,"trial_type":"three-arm-trial","trial_index":77,"time_elapsed":554783,"internal_node_id":"0.0-74.0-0.0","task_version":"screening-prolific","missing":false,"accuracy":1},{"contexts":["blue","red","green"],"outcomes":[0,1,0],"key":38,"choice":1,"rt":399,"outcome":1,"trial":69,"correct":1,"trial_type":"three-arm-trial","trial_index":78,"time_elapsed":556386,"internal_node_id":"0.0-75.0-0.0","task_version":"screening-prolific","missing":false,"accuracy":1},{"contexts":["blue","red","green"],"outcomes":[0,0,0],"key":38,"choice":1,"rt":359,"outcome":0,"trial":70,"correct":1,"trial_type":"three-arm-trial","trial_index":79,"time_elapsed":557950,"internal_node_id":"0.0-76.0-0.0","task_version":"screening-prolific","missing":false,"accuracy":1},{"contexts":["blue","red","green"],"outcomes":[0,1,0],"key":38,"choice":1,"rt":342,"outcome":1,"trial":71,"correct":1,"trial_type":"three-arm-trial","trial_index":80,"time_elapsed":559494,"internal_node_id":"0.0-77.0-0.0","task_version":"screening-prolific","missing":false,"accuracy":1},{"contexts":["blue","red","green"],"outcomes":[0,1,0],"key":38,"choice":1,"rt":318,"outcome":1,"trial":72,"correct":1,"trial_type":"three-arm-trial","trial_index":81,"time_elapsed":561014,"internal_node_id":"0.0-78.0-0.0","task_version":"screening-prolific","missing":false,"accuracy":1},{"contexts":["blue","red","green"],"outcomes":[0,0,0],"key":38,"choice":1,"rt":394,"outcome":0,"trial":73,"correct":1,"trial_type":"three-arm-trial","trial_index":82,"time_elapsed":562608,"internal_node_id":"0.0-79.0-0.0","task_version":"screening-prolific","missing":false,"accuracy":1},{"contexts":["blue","red","green"],"outcomes":[1,1,0],"key":38,"choice":1,"rt":274,"outcome":1,"trial":74,"correct":1,"trial_type":"three-arm-trial","trial_index":83,"time_elapsed":564084,"internal_node_id":"0.0-80.0-0.0","task_version":"screening-prolific","missing":false,"accuracy":1},{"contexts":["blue","red","green"],"outcomes":[1,1,1],"key":38,"choice":1,"rt":299,"outcome":1,"trial":75,"correct":1,"trial_type":"three-arm-trial","trial_index":84,"time_elapsed":565585,"internal_node_id":"0.0-81.0-0.0","task_version":"screening-prolific","missing":false,"accuracy":1},{"contexts":["blue","red","green"],"outcomes":[1,0,0],"key":38,"choice":1,"rt":349,"outcome":0,"trial":76,"correct":0,"trial_type":"three-arm-trial","trial_index":85,"time_elapsed":567137,"internal_node_id":"0.0-82.0-0.0","task_version":"screening-prolific","missing":false,"accuracy":0},{"contexts":["blue","red","green"],"outcomes":[1,0,0],"key":38,"choice":1,"rt":372,"outcome":0,"trial":77,"correct":0,"trial_type":"three-arm-trial","trial_index":86,"time_elapsed":568709,"internal_node_id":"0.0-83.0-0.0","task_version":"screening-prolific","missing":false,"accuracy":0},{"contexts":["blue","red","green"],"outcomes":[0,0,0],"key":37,"choice":0,"rt":321,"outcome":0,"trial":78,"correct":0,"trial_type":"three-arm-trial","trial_index":87,"time_elapsed":570232,"internal_node_id":"0.0-84.0-0.0","task_version":"screening-prolific","missing":false,"accuracy":1},{"contexts":["blue","red","green"],"outcomes":[1,1,0],"key":37,"choice":0,"rt":290,"outcome":1,"trial":79,"correct":0,"trial_type":"three-arm-trial","trial_index":88,"time_elapsed":571723,"internal_node_id":"0.0-85.0-0.0","task_version":"screening-prolific","missing":false,"accuracy":1},{"contexts":["blue","red","green"],"outcomes":[0,0,0],"key":37,"choice":0,"rt":339,"outcome":0,"trial":80,"correct":0,"trial_type":"three-arm-trial","trial_index":89,"time_elapsed":573264,"internal_node_id":"0.0-86.0-0.0","task_version":"screening-prolific","missing":false,"accuracy":1},{"contexts":["blue","red","green"],"outcomes":[1,0,0],"key":37,"choice":0,"rt":280,"outcome":1,"trial":81,"correct":0,"trial_type":"three-arm-trial","trial_index":90,"time_elapsed":574746,"internal_node_id":"0.0-87.0-0.0","task_version":"screening-prolific","missing":false,"accuracy":1},{"contexts":["blue","red","green"],"outcomes":[0,0,0],"key":37,"choice":0,"rt":319,"outcome":0,"trial":82,"correct":0,"trial_type":"three-arm-trial","trial_index":91,"time_elapsed":576267,"internal_node_id":"0.0-88.0-0.0","task_version":"screening-prolific","missing":false,"accuracy":1},{"contexts":["blue","red","green"],"outcomes":[1,0,0],"key":37,"choice":0,"rt":310,"outcome":1,"trial":83,"correct":0,"trial_type":"three-arm-trial","trial_index":92,"time_elapsed":577780,"internal_node_id":"0.0-89.0-0.0","task_version":"screening-prolific","missing":false,"accuracy":1},{"contexts":["blue","red","green"],"outcomes":[1,0,0],"key":39,"choice":2,"rt":333,"outcome":0,"trial":84,"correct":0,"trial_type":"three-arm-trial","trial_index":93,"time_elapsed":579316,"internal_node_id":"0.0-90.0-0.0","task_version":"screening-prolific","missing":false,"accuracy":0},{"contexts":["blue","red","green"],"outcomes":[0,0,1],"key":39,"choice":2,"rt":72,"outcome":1,"trial":85,"correct":0,"trial_type":"three-arm-trial","trial_index":94,"time_elapsed":580590,"internal_node_id":"0.0-91.0-0.0","task_version":"screening-prolific","missing":false,"accuracy":0},{"contexts":["blue","red","green"],"outcomes":[1,0,0],"key":39,"choice":2,"rt":310,"outcome":0,"trial":86,"correct":0,"trial_type":"three-arm-trial","trial_index":95,"time_elapsed":582101,"internal_node_id":"0.0-92.0-0.0","task_version":"screening-prolific","missing":false,"accuracy":0},{"contexts":["blue","red","green"],"outcomes":[1,1,0],"key":39,"choice":2,"rt":291,"outcome":0,"trial":87,"correct":0,"trial_type":"three-arm-trial","trial_index":96,"time_elapsed":583595,"internal_node_id":"0.0-93.0-0.0","task_version":"screening-prolific","missing":false,"accuracy":0},{"contexts":["blue","red","green"],"outcomes":[1,0,0],"key":37,"choice":0,"rt":265,"outcome":1,"trial":88,"correct":0,"trial_type":"three-arm-trial","trial_index":97,"time_elapsed":585063,"internal_node_id":"0.0-94.0-0.0","task_version":"screening-prolific","missing":false,"accuracy":1},{"contexts":["blue","red","green"],"outcomes":[1,0,1],"key":37,"choice":0,"rt":464,"outcome":1,"trial":89,"correct":0,"trial_type":"three-arm-trial","trial_index":98,"time_elapsed":586727,"internal_node_id":"0.0-95.0-0.0","task_version":"screening-prolific","missing":false,"accuracy":1},{"contexts":["blue","red","green"],"outcomes":[0,0,0],"key":37,"choice":0,"rt":341,"outcome":0,"trial":90,"correct":0,"trial_type":"three-arm-trial","trial_index":99,"time_elapsed":588270,"internal_node_id":"0.0-96.0-0.0","task_version":"screening-prolific","missing":false,"accuracy":1},{"rt":23315,"responses":{"age":"28","gender-categorical":"Female","gender-free-response":"","ethnicity":"Not Hispanic or Latino","race":["White"],"language":"Yes","fluency":"Very well","mturk":"No","mturk-this-study":"No"},"survey":"demographics","trial_type":"survey-demo","trial_index":100,"time_elapsed":611589,"internal_node_id":"0.0-97.0","task_version":"screening-prolific","interactions":"[{\"event\":\"focus\",\"trial\":0,\"time\":0}]"}]