[{"responses":{"Q04":"1","Q07":"0","Q01":"1","Q06":"1","Q02":"1","Q08":"0","Q03":"1","Q05":"0"},"rt":17990.044999984093,"survey":"gad7","trial_type":"survey-template","trial_index":0,"time_elapsed":18027,"internal_node_id":"0.0-0.0","task_version":"screening-prolific"},{"responses":{"Q04":"3","Q05":"3","Q07":"3","Q12":"3","Q13":"3","Q06":"3","Q08":"3","Q14":"3","Q10":"3","Q01":"2","Q02":"3","Q03":"3","Q09":"3","Q11":"3","Q15":"3"},"rt":28643.98000005167,"survey":"shaps","trial_type":"survey-template","trial_index":1,"time_elapsed":46683,"internal_node_id":"0.0-1.0","task_version":"screening-prolific"},{"responses":{"Q01":"1","Q02":"2","Q03":"2"},"rt":7145.544999977574,"survey":"pswq","trial_type":"survey-template","trial_index":2,"time_elapsed":53837,"internal_node_id":"0.0-2.0","task_version":"screening-prolific"},{"responses":{"Q09":"1","Q10":"0","Q01":"1","Q07":"1","Q14":"0","Q15":"0","Q02":"0","Q12":"0","Q11":"0","Q13":"0","Q03":"1","Q08":"1","Q06":"0","Q05":"0","Q04":"0"},"rt":112596.26000002027,"survey":"7up7down","trial_type":"survey-template","trial_index":3,"time_elapsed":166443,"internal_node_id":"0.0-3.0","task_version":"screening-prolific"},{"responses":{"Q10":"2","Q12":"1","Q01":"3","Q07":"2","Q13":"3","Q11":"1","Q09":"0","Q04":"3","Q08":"2","Q05":"2","Q02":"1","Q06":"2","Q03":"2"},"rt":29108.53500000667,"survey":"bisbas","trial_type":"survey-template","trial_index":4,"time_elapsed":195562,"internal_node_id":"0.0-4.0","task_version":"screening-prolific"},{"view_history":"[{\"page_index\":0,\"viewing_time\":3292.6149999257177},{\"page_index\":1,\"viewing_time\":4183.569999993779},{\"page_index\":2,\"viewing_time\":4695.874999975786},{\"page_index\":3,\"viewing_time\":2511.83500001207},{\"page_index\":4,\"viewing_time\":8656.085000024177},{\"page_index\":5,\"viewing_time\":2256.6200000001118},{\"page_index\":6,\"viewing_time\":1959.4650000799447},{\"page_index\":7,\"viewing_time\":25503.8849998964}]","rt":53062.349999905564,"trial_type":"instructions","trial_index":5,"time_elapsed":248628,"internal_node_id":"0.0-5.0-0.0","task_version":"screening-prolific"},{"responses":["True","True","False","False","True"],"num_errors":0,"rt":11322.08999991417,"trial_type":"three-arm-comprehension","trial_index":6,"time_elapsed":259958,"internal_node_id":"0.0-5.0-1.0","task_version":"screening-prolific"},{"view_history":"[{\"page_index\":0,\"viewing_time\":1337.8350000130013}]","rt":1338.5400000261143,"trial_type":"instructions","trial_index":7,"time_elapsed":261306,"internal_node_id":"0.0-6.0","task_version":"screening-prolific"},{"contexts":["blue","red","green"],"outcomes":[1,0,1],"key":38,"choice":1,"rt":1579.909999971278,"outcome":0,"trial":1,"correct":2,"trial_type":"three-arm-trial","trial_index":8,"time_elapsed":264094,"internal_node_id":"0.0-7.0-0.0","task_version":"screening-prolific","missing":false,"accuracy":0},{"contexts":["blue","red","green"],"outcomes":[0,1,1],"key":37,"choice":0,"rt":543.7549999915063,"outcome":0,"trial":2,"correct":2,"trial_type":"three-arm-trial","trial_index":9,"time_elapsed":265843,"internal_node_id":"0.0-8.0-0.0","task_version":"screening-prolific","missing":false,"accuracy":0},{"contexts":["blue","red","green"],"outcomes":[1,0,0],"key":39,"choice":2,"rt":458.5699999006465,"outcome":0,"trial":3,"correct":2,"trial_type":"three-arm-trial","trial_index":10,"time_elapsed":267508,"internal_node_id":"0.0-9.0-0.0","task_version":"screening-prolific","missing":false,"accuracy":1},{"contexts":["blue","red","green"],"outcomes":[0,0,1],"key":38,"choice":1,"rt":306.1049999669194,"outcome":0,"trial":4,"correct":2,"trial_type":"three-arm-trial","trial_index":11,"time_elapsed":269019,"internal_node_id":"0.0-10.0-0.0","task_version":"screening-prolific","missing":false,"accuracy":0},{"contexts":["blue","red","green"],"outcomes":[0,0,0],"key":37,"choice":0,"rt":346.5399999404326,"outcome":0,"trial":5,"correct":2,"trial_type":"three-arm-trial","trial_index":12,"time_elapsed":270571,"internal_node_id":"0.0-11.0-0.0","task_version":"screening-prolific","missing":false,"accuracy":0},{"contexts":["blue","red","green"],"outcomes":[0,0,1],"key":39,"choice":2,"rt":234.66000007465482,"outcome":1,"trial":6,"correct":2,"trial_type":"three-arm-trial","trial_index":13,"time_elapsed":272012,"internal_node_id":"0.0-12.0-0.0","task_version":"screening-prolific","missing":false,"accuracy":1},{"contexts":["blue","red","green"],"outcomes":[1,0,1],"key":39,"choice":2,"rt":249.54500002786517,"outcome":1,"trial":7,"correct":2,"trial_type":"three-arm-trial","trial_index":14,"time_elapsed":273467,"internal_node_id":"0.0-13.0-0.0","task_version":"screening-prolific","missing":false,"accuracy":1},{"contexts":["blue","red","green"],"outcomes":[1,0,1],"key":39,"choice":2,"rt":274.09500000067055,"outcome":1,"trial":8,"correct":2,"trial_type":"three-arm-trial","trial_index":15,"time_elapsed":274948,"internal_node_id":"0.0-14.0-0.0","task_version":"screening-prolific","missing":false,"accuracy":1},{"contexts":["blue","red","green"],"outcomes":[0,1,1],"key":39,"choice":2,"rt":298.3849999727681,"outcome":1,"trial":9,"correct":2,"trial_type":"three-arm-trial","trial_index":16,"time_elapsed":276452,"internal_node_id":"0.0-15.0-0.0","task_version":"screening-prolific","missing":false,"accuracy":1},{"contexts":["blue","red","green"],"outcomes":[0,1,1],"key":39,"choice":2,"rt":282.81999996397644,"outcome":1,"trial":10,"correct":2,"trial_type":"three-arm-trial","trial_index":17,"time_elapsed":277941,"internal_node_id":"0.0-16.0-0.0","task_version":"screening-prolific","missing":false,"accuracy":1},{"contexts":["blue","red","green"],"outcomes":[0,0,0],"key":39,"choice":2,"rt":353.304999996908,"outcome":0,"trial":11,"correct":2,"trial_type":"three-arm-trial","trial_index":18,"time_elapsed":279499,"internal_node_id":"0.0-17.0-0.0","task_version":"screening-prolific","missing":false,"accuracy":1},{"contexts":["blue","red","green"],"outcomes":[0,0,0],"key":39,"choice":2,"rt":274.67000007163733,"outcome":0,"trial":12,"correct":2,"trial_type":"three-arm-trial","trial_index":19,"time_elapsed":280980,"internal_node_id":"0.0-18.0-0.0","task_version":"screening-prolific","missing":false,"accuracy":1},{"contexts":["blue","red","green"],"outcomes":[1,0,1],"key":38,"choice":1,"rt":154.89000000525266,"outcome":0,"trial":13,"correct":2,"trial_type":"three-arm-trial","trial_index":20,"time_elapsed":282340,"internal_node_id":"0.0-19.0-0.0","task_version":"screening-prolific","missing":false,"accuracy":0},{"contexts":["blue","red","green"],"outcomes":[0,0,0],"key":37,"choice":0,"rt":89.7399999666959,"outcome":0,"trial":14,"correct":2,"trial_type":"three-arm-trial","trial_index":21,"time_elapsed":283635,"internal_node_id":"0.0-20.0-0.0","task_version":"screening-prolific","missing":false,"accuracy":0},{"contexts":["blue","red","green"],"outcomes":[0,0,1],"key":39,"choice":2,"rt":83.39499996509403,"outcome":1,"trial":15,"correct":2,"trial_type":"three-arm-trial","trial_index":22,"time_elapsed":284925,"internal_node_id":"0.0-21.0-0.0","task_version":"screening-prolific","missing":false,"accuracy":1},{"contexts":["blue","red","green"],"outcomes":[1,0,0],"key":39,"choice":2,"rt":153.2850000075996,"outcome":0,"trial":16,"correct":0,"trial_type":"three-arm-trial","trial_index":23,"time_elapsed":286284,"internal_node_id":"0.0-22.0-0.0","task_version":"screening-prolific","missing":false,"accuracy":0},{"contexts":["blue","red","green"],"outcomes":[1,0,0],"key":38,"choice":1,"rt":121.5000000083819,"outcome":0,"trial":17,"correct":0,"trial_type":"three-arm-trial","trial_index":24,"time_elapsed":287612,"internal_node_id":"0.0-23.0-0.0","task_version":"screening-prolific","missing":false,"accuracy":0},{"contexts":["blue","red","green"],"outcomes":[1,1,0],"key":39,"choice":2,"rt":170.00500007998198,"outcome":0,"trial":18,"correct":0,"trial_type":"three-arm-trial","trial_index":25,"time_elapsed":288988,"internal_node_id":"0.0-24.0-0.0","task_version":"screening-prolific","missing":false,"accuracy":0},{"contexts":["blue","red","green"],"outcomes":[1,0,0],"key":37,"choice":0,"rt":50.285000004805624,"outcome":1,"trial":19,"correct":0,"trial_type":"three-arm-trial","trial_index":26,"time_elapsed":290244,"internal_node_id":"0.0-25.0-0.0","task_version":"screening-prolific","missing":false,"accuracy":1},{"contexts":["blue","red","green"],"outcomes":[0,0,0],"key":37,"choice":0,"rt":194.675000035204,"outcome":0,"trial":20,"correct":0,"trial_type":"three-arm-trial","trial_index":27,"time_elapsed":291644,"internal_node_id":"0.0-26.0-0.0","task_version":"screening-prolific","missing":false,"accuracy":1},{"contexts":["blue","red","green"],"outcomes":[0,1,0],"key":37,"choice":0,"rt":474.4600000558421,"outcome":0,"trial":21,"correct":0,"trial_type":"three-arm-trial","trial_index":28,"time_elapsed":293324,"internal_node_id":"0.0-27.0-0.0","task_version":"screening-prolific","missing":false,"accuracy":1},{"contexts":["blue","red","green"],"outcomes":[1,0,0],"key":37,"choice":0,"rt":178.01999999210238,"outcome":1,"trial":22,"correct":0,"trial_type":"three-arm-trial","trial_index":29,"time_elapsed":294709,"internal_node_id":"0.0-28.0-0.0","task_version":"screening-prolific","missing":false,"accuracy":1},{"contexts":["blue","red","green"],"outcomes":[0,0,1],"key":37,"choice":0,"rt":65.03000005614012,"outcome":0,"trial":23,"correct":0,"trial_type":"three-arm-trial","trial_index":30,"time_elapsed":295980,"internal_node_id":"0.0-29.0-0.0","task_version":"screening-prolific","missing":false,"accuracy":1},{"contexts":["blue","red","green"],"outcomes":[1,0,0],"key":38,"choice":1,"rt":441.5349999908358,"outcome":0,"trial":24,"correct":0,"trial_type":"three-arm-trial","trial_index":31,"time_elapsed":297628,"internal_node_id":"0.0-30.0-0.0","task_version":"screening-prolific","missing":false,"accuracy":0},{"contexts":["blue","red","green"],"outcomes":[0,0,0],"key":39,"choice":2,"rt":108.15999994520098,"outcome":0,"trial":25,"correct":0,"trial_type":"three-arm-trial","trial_index":32,"time_elapsed":298941,"internal_node_id":"0.0-31.0-0.0","task_version":"screening-prolific","missing":false,"accuracy":0},{"contexts":["blue","red","green"],"outcomes":[0,0,0],"key":37,"choice":0,"rt":57.94999992940575,"outcome":0,"trial":26,"correct":0,"trial_type":"three-arm-trial","trial_index":33,"time_elapsed":300205,"internal_node_id":"0.0-32.0-0.0","task_version":"screening-prolific","missing":false,"accuracy":1},{"contexts":["blue","red","green"],"outcomes":[0,0,0],"key":37,"choice":0,"rt":0.599999912083149,"outcome":0,"trial":27,"correct":0,"trial_type":"three-arm-trial","trial_index":34,"time_elapsed":301414,"internal_node_id":"0.0-33.0-0.0","task_version":"screening-prolific","missing":false,"accuracy":1},{"contexts":["blue","red","green"],"outcomes":[1,1,0],"key":38,"choice":1,"rt":895.7799999043345,"outcome":1,"trial":28,"correct":0,"trial_type":"three-arm-trial","trial_index":35,"time_elapsed":303516,"internal_node_id":"0.0-34.0-0.0","task_version":"screening-prolific","missing":false,"accuracy":0},{"contexts":["blue","red","green"],"outcomes":[1,0,0],"key":38,"choice":1,"rt":314.43999998737127,"outcome":0,"trial":29,"correct":0,"trial_type":"three-arm-trial","trial_index":36,"time_elapsed":305035,"internal_node_id":"0.0-35.0-0.0","task_version":"screening-prolific","missing":false,"accuracy":0},{"contexts":["blue","red","green"],"outcomes":[1,0,0],"key":38,"choice":1,"rt":74.60499997250736,"outcome":0,"trial":30,"correct":0,"trial_type":"three-arm-trial","trial_index":37,"time_elapsed":306316,"internal_node_id":"0.0-36.0-0.0","task_version":"screening-prolific","missing":false,"accuracy":0},{"contexts":["blue","red","green"],"outcomes":[0,0,1],"key":39,"choice":2,"rt":482.1150000207126,"outcome":1,"trial":31,"correct":2,"trial_type":"three-arm-trial","trial_index":38,"time_elapsed":308005,"internal_node_id":"0.0-37.0-0.0","task_version":"screening-prolific","missing":false,"accuracy":1},{"contexts":["blue","red","green"],"outcomes":[1,0,0],"key":39,"choice":2,"rt":153.6700000287965,"outcome":0,"trial":32,"correct":2,"trial_type":"three-arm-trial","trial_index":39,"time_elapsed":309364,"internal_node_id":"0.0-38.0-0.0","task_version":"screening-prolific","missing":false,"accuracy":1},{"contexts":["blue","red","green"],"outcomes":[0,0,1],"key":38,"choice":1,"rt":58.62499994691461,"outcome":0,"trial":33,"correct":2,"trial_type":"three-arm-trial","trial_index":40,"time_elapsed":310629,"internal_node_id":"0.0-39.0-0.0","task_version":"screening-prolific","missing":false,"accuracy":0},{"contexts":["blue","red","green"],"outcomes":[1,0,1],"key":37,"choice":0,"rt":146.4700000360608,"outcome":1,"trial":34,"correct":2,"trial_type":"three-arm-trial","trial_index":41,"time_elapsed":311981,"internal_node_id":"0.0-40.0-0.0","task_version":"screening-prolific","missing":false,"accuracy":0},{"contexts":["blue","red","green"],"outcomes":[0,0,1],"key":37,"choice":0,"rt":65.67999999970198,"outcome":0,"trial":35,"correct":2,"trial_type":"three-arm-trial","trial_index":42,"time_elapsed":313252,"internal_node_id":"0.0-41.0-0.0","task_version":"screening-prolific","missing":false,"accuracy":0},{"contexts":["blue","red","green"],"outcomes":[0,1,1],"key":39,"choice":2,"rt":106.43000004347414,"outcome":1,"trial":36,"correct":2,"trial_type":"three-arm-trial","trial_index":43,"time_elapsed":314565,"internal_node_id":"0.0-42.0-0.0","task_version":"screening-prolific","missing":false,"accuracy":1},{"contexts":["blue","red","green"],"outcomes":[0,0,1],"key":39,"choice":2,"rt":49.63500006124377,"outcome":1,"trial":37,"correct":2,"trial_type":"three-arm-trial","trial_index":44,"time_elapsed":315821,"internal_node_id":"0.0-43.0-0.0","task_version":"screening-prolific","missing":false,"accuracy":1},{"contexts":["blue","red","green"],"outcomes":[0,0,1],"key":39,"choice":2,"rt":18.634999985806644,"outcome":1,"trial":38,"correct":2,"trial_type":"three-arm-trial","trial_index":45,"time_elapsed":317045,"internal_node_id":"0.0-44.0-0.0","task_version":"screening-prolific","missing":false,"accuracy":1},{"contexts":["blue","red","green"],"outcomes":[0,0,1],"key":39,"choice":2,"rt":18.034999957308173,"outcome":1,"trial":39,"correct":2,"trial_type":"three-arm-trial","trial_index":46,"time_elapsed":318269,"internal_node_id":"0.0-45.0-0.0","task_version":"screening-prolific","missing":false,"accuracy":1},{"contexts":["blue","red","green"],"outcomes":[0,0,1],"key":38,"choice":1,"rt":82.09500007797033,"outcome":0,"trial":40,"correct":2,"trial_type":"three-arm-trial","trial_index":47,"time_elapsed":319557,"internal_node_id":"0.0-46.0-0.0","task_version":"screening-prolific","missing":false,"accuracy":0},{"contexts":["blue","red","green"],"outcomes":[1,0,1],"key":39,"choice":2,"rt":65.88000000920147,"outcome":1,"trial":41,"correct":2,"trial_type":"three-arm-trial","trial_index":48,"time_elapsed":320829,"internal_node_id":"0.0-47.0-0.0","task_version":"screening-prolific","missing":false,"accuracy":1},{"contexts":["blue","red","green"],"outcomes":[0,0,1],"key":39,"choice":2,"rt":154.4749999884516,"outcome":1,"trial":42,"correct":2,"trial_type":"three-arm-trial","trial_index":49,"time_elapsed":322189,"internal_node_id":"0.0-48.0-0.0","task_version":"screening-prolific","missing":false,"accuracy":1},{"contexts":["blue","red","green"],"outcomes":[0,0,1],"key":39,"choice":2,"rt":162.07000007852912,"outcome":1,"trial":43,"correct":2,"trial_type":"three-arm-trial","trial_index":50,"time_elapsed":323557,"internal_node_id":"0.0-49.0-0.0","task_version":"screening-prolific","missing":false,"accuracy":1},{"contexts":["blue","red","green"],"outcomes":[0,0,1],"key":39,"choice":2,"rt":346.04999993462116,"outcome":1,"trial":44,"correct":2,"trial_type":"three-arm-trial","trial_index":51,"time_elapsed":325108,"internal_node_id":"0.0-50.0-0.0","task_version":"screening-prolific","missing":false,"accuracy":1},{"contexts":["blue","red","green"],"outcomes":[0,0,1],"key":38,"choice":1,"rt":297.86999989300966,"outcome":0,"trial":45,"correct":2,"trial_type":"three-arm-trial","trial_index":52,"time_elapsed":326612,"internal_node_id":"0.0-51.0-0.0","task_version":"screening-prolific","missing":false,"accuracy":0},{"contexts":["blue","red","green"],"outcomes":[0,0,0],"key":37,"choice":0,"rt":99.48999993503094,"outcome":0,"trial":46,"correct":0,"trial_type":"three-arm-trial","trial_index":53,"time_elapsed":327916,"internal_node_id":"0.0-52.0-0.0","task_version":"screening-prolific","missing":false,"accuracy":1},{"contexts":["blue","red","green"],"outcomes":[1,0,0],"key":39,"choice":2,"rt":74.89000004716218,"outcome":0,"trial":47,"correct":0,"trial_type":"three-arm-trial","trial_index":54,"time_elapsed":329196,"internal_node_id":"0.0-53.0-0.0","task_version":"screening-prolific","missing":false,"accuracy":0},{"contexts":["blue","red","green"],"outcomes":[0,0,0],"key":39,"choice":2,"rt":339.76000000257045,"outcome":0,"trial":48,"correct":0,"trial_type":"three-arm-trial","trial_index":55,"time_elapsed":330741,"internal_node_id":"0.0-54.0-0.0","task_version":"screening-prolific","missing":false,"accuracy":0},{"contexts":["blue","red","green"],"outcomes":[1,0,0],"key":38,"choice":1,"rt":265.50500001758337,"outcome":0,"trial":49,"correct":0,"trial_type":"three-arm-trial","trial_index":56,"time_elapsed":332213,"internal_node_id":"0.0-55.0-0.0","task_version":"screening-prolific","missing":false,"accuracy":0},{"contexts":["blue","red","green"],"outcomes":[1,0,0],"key":39,"choice":2,"rt":313.2449999684468,"outcome":0,"trial":50,"correct":0,"trial_type":"three-arm-trial","trial_index":57,"time_elapsed":333732,"internal_node_id":"0.0-56.0-0.0","task_version":"screening-prolific","missing":false,"accuracy":0},{"contexts":["blue","red","green"],"outcomes":[1,1,0],"key":37,"choice":0,"rt":122.77999997604638,"outcome":1,"trial":51,"correct":0,"trial_type":"three-arm-trial","trial_index":58,"time_elapsed":335061,"internal_node_id":"0.0-57.0-0.0","task_version":"screening-prolific","missing":false,"accuracy":1},{"contexts":["blue","red","green"],"outcomes":[1,0,0],"key":37,"choice":0,"rt":96.69000003486872,"outcome":1,"trial":52,"correct":0,"trial_type":"three-arm-trial","trial_index":59,"time_elapsed":336364,"internal_node_id":"0.0-58.0-0.0","task_version":"screening-prolific","missing":false,"accuracy":1},{"contexts":["blue","red","green"],"outcomes":[0,1,1],"key":37,"choice":0,"rt":114.16999995708466,"outcome":0,"trial":53,"correct":0,"trial_type":"three-arm-trial","trial_index":60,"time_elapsed":337684,"internal_node_id":"0.0-59.0-0.0","task_version":"screening-prolific","missing":false,"accuracy":1},{"contexts":["blue","red","green"],"outcomes":[1,0,0],"key":37,"choice":0,"rt":35.23499995935708,"outcome":1,"trial":54,"correct":0,"trial_type":"three-arm-trial","trial_index":61,"time_elapsed":338925,"internal_node_id":"0.0-60.0-0.0","task_version":"screening-prolific","missing":false,"accuracy":1},{"contexts":["blue","red","green"],"outcomes":[1,0,1],"key":37,"choice":0,"rt":233.75499993562698,"outcome":1,"trial":55,"correct":0,"trial_type":"three-arm-trial","trial_index":62,"time_elapsed":340364,"internal_node_id":"0.0-61.0-0.0","task_version":"screening-prolific","missing":false,"accuracy":1},{"contexts":["blue","red","green"],"outcomes":[1,0,0],"key":37,"choice":0,"rt":306.6549999639392,"outcome":1,"trial":56,"correct":0,"trial_type":"three-arm-trial","trial_index":63,"time_elapsed":341877,"internal_node_id":"0.0-62.0-0.0","task_version":"screening-prolific","missing":false,"accuracy":1},{"contexts":["blue","red","green"],"outcomes":[1,0,0],"key":37,"choice":0,"rt":361.21499992441386,"outcome":1,"trial":57,"correct":0,"trial_type":"three-arm-trial","trial_index":64,"time_elapsed":343444,"internal_node_id":"0.0-63.0-0.0","task_version":"screening-prolific","missing":false,"accuracy":1},{"contexts":["blue","red","green"],"outcomes":[1,0,1],"key":37,"choice":0,"rt":394.48999997694045,"outcome":1,"trial":58,"correct":0,"trial_type":"three-arm-trial","trial_index":65,"time_elapsed":345045,"internal_node_id":"0.0-64.0-0.0","task_version":"screening-prolific","missing":false,"accuracy":1},{"contexts":["blue","red","green"],"outcomes":[0,0,0],"key":37,"choice":0,"rt":225.98999994806945,"outcome":0,"trial":59,"correct":0,"trial_type":"three-arm-trial","trial_index":66,"time_elapsed":346476,"internal_node_id":"0.0-65.0-0.0","task_version":"screening-prolific","missing":false,"accuracy":1},{"contexts":["blue","red","green"],"outcomes":[1,0,0],"key":37,"choice":0,"rt":187.44500004686415,"outcome":1,"trial":60,"correct":0,"trial_type":"three-arm-trial","trial_index":67,"time_elapsed":347868,"internal_node_id":"0.0-66.0-0.0","task_version":"screening-prolific","missing":false,"accuracy":1},{"contexts":["blue","red","green"],"outcomes":[0,1,1],"key":37,"choice":0,"rt":50.350000034086406,"outcome":0,"trial":61,"correct":1,"trial_type":"three-arm-trial","trial_index":68,"time_elapsed":349126,"internal_node_id":"0.0-67.0-0.0","task_version":"screening-prolific","missing":false,"accuracy":0},{"contexts":["blue","red","green"],"outcomes":[0,1,1],"key":37,"choice":0,"rt":100.37000000011176,"outcome":0,"trial":62,"correct":1,"trial_type":"three-arm-trial","trial_index":69,"time_elapsed":350436,"internal_node_id":"0.0-68.0-0.0","task_version":"screening-prolific","missing":false,"accuracy":0},{"contexts":["blue","red","green"],"outcomes":[0,1,0],"key":38,"choice":1,"rt":218.29500002786517,"outcome":1,"trial":63,"correct":1,"trial_type":"three-arm-trial","trial_index":70,"time_elapsed":351860,"internal_node_id":"0.0-69.0-0.0","task_version":"screening-prolific","missing":false,"accuracy":1},{"contexts":["blue","red","green"],"outcomes":[0,1,0],"key":38,"choice":1,"rt":586.8600000394508,"outcome":1,"trial":64,"correct":1,"trial_type":"three-arm-trial","trial_index":71,"time_elapsed":353652,"internal_node_id":"0.0-70.0-0.0","task_version":"screening-prolific","missing":false,"accuracy":1},{"contexts":["blue","red","green"],"outcomes":[1,0,1],"key":38,"choice":1,"rt":138.67500005289912,"outcome":0,"trial":65,"correct":1,"trial_type":"three-arm-trial","trial_index":72,"time_elapsed":354997,"internal_node_id":"0.0-71.0-0.0","task_version":"screening-prolific","missing":false,"accuracy":1},{"contexts":["blue","red","green"],"outcomes":[0,1,0],"key":38,"choice":1,"rt":417.879999964498,"outcome":1,"trial":66,"correct":1,"trial_type":"three-arm-trial","trial_index":73,"time_elapsed":356620,"internal_node_id":"0.0-72.0-0.0","task_version":"screening-prolific","missing":false,"accuracy":1},{"contexts":["blue","red","green"],"outcomes":[1,0,1],"key":38,"choice":1,"rt":474.0999999921769,"outcome":0,"trial":67,"correct":1,"trial_type":"three-arm-trial","trial_index":74,"time_elapsed":358300,"internal_node_id":"0.0-73.0-0.0","task_version":"screening-prolific","missing":false,"accuracy":1},{"contexts":["blue","red","green"],"outcomes":[1,1,0],"key":39,"choice":2,"rt":202.50499993562698,"outcome":0,"trial":68,"correct":1,"trial_type":"three-arm-trial","trial_index":75,"time_elapsed":359708,"internal_node_id":"0.0-74.0-0.0","task_version":"screening-prolific","missing":false,"accuracy":0},{"contexts":["blue","red","green"],"outcomes":[0,0,0],"key":37,"choice":0,"rt":138.83499999064952,"outcome":0,"trial":69,"correct":1,"trial_type":"three-arm-trial","trial_index":76,"time_elapsed":361052,"internal_node_id":"0.0-75.0-0.0","task_version":"screening-prolific","missing":false,"accuracy":0},{"contexts":["blue","red","green"],"outcomes":[0,1,0],"key":38,"choice":1,"rt":50.88999995496124,"outcome":1,"trial":70,"correct":1,"trial_type":"three-arm-trial","trial_index":77,"time_elapsed":362309,"internal_node_id":"0.0-76.0-0.0","task_version":"screening-prolific","missing":false,"accuracy":1},{"contexts":["blue","red","green"],"outcomes":[0,1,1],"key":38,"choice":1,"rt":345.6350000342354,"outcome":1,"trial":71,"correct":1,"trial_type":"three-arm-trial","trial_index":78,"time_elapsed":363860,"internal_node_id":"0.0-77.0-0.0","task_version":"screening-prolific","missing":false,"accuracy":1},{"contexts":["blue","red","green"],"outcomes":[0,1,0],"key":38,"choice":1,"rt":508.49499995820224,"outcome":1,"trial":72,"correct":1,"trial_type":"three-arm-trial","trial_index":79,"time_elapsed":365575,"internal_node_id":"0.0-78.0-0.0","task_version":"screening-prolific","missing":false,"accuracy":1},{"contexts":["blue","red","green"],"outcomes":[0,1,0],"key":38,"choice":1,"rt":407.68499998375773,"outcome":1,"trial":73,"correct":1,"trial_type":"three-arm-trial","trial_index":80,"time_elapsed":367189,"internal_node_id":"0.0-79.0-0.0","task_version":"screening-prolific","missing":false,"accuracy":1},{"contexts":["blue","red","green"],"outcomes":[1,1,0],"key":38,"choice":1,"rt":369.9249998899177,"outcome":1,"trial":74,"correct":1,"trial_type":"three-arm-trial","trial_index":81,"time_elapsed":368764,"internal_node_id":"0.0-80.0-0.0","task_version":"screening-prolific","missing":false,"accuracy":1},{"contexts":["blue","red","green"],"outcomes":[1,1,0],"key":38,"choice":1,"rt":305.85500004235655,"outcome":1,"trial":75,"correct":1,"trial_type":"three-arm-trial","trial_index":82,"time_elapsed":370275,"internal_node_id":"0.0-81.0-0.0","task_version":"screening-prolific","missing":false,"accuracy":1},{"contexts":["blue","red","green"],"outcomes":[1,1,0],"key":38,"choice":1,"rt":394.2599999718368,"outcome":1,"trial":76,"correct":0,"trial_type":"three-arm-trial","trial_index":83,"time_elapsed":371875,"internal_node_id":"0.0-82.0-0.0","task_version":"screening-prolific","missing":false,"accuracy":0},{"contexts":["blue","red","green"],"outcomes":[1,0,0],"key":38,"choice":1,"rt":27.265000040642917,"outcome":0,"trial":77,"correct":0,"trial_type":"three-arm-trial","trial_index":84,"time_elapsed":373107,"internal_node_id":"0.0-83.0-0.0","task_version":"screening-prolific","missing":false,"accuracy":0},{"contexts":["blue","red","green"],"outcomes":[1,0,0],"key":38,"choice":1,"rt":395.2800000552088,"outcome":0,"trial":78,"correct":0,"trial_type":"three-arm-trial","trial_index":85,"time_elapsed":374708,"internal_node_id":"0.0-84.0-0.0","task_version":"screening-prolific","missing":false,"accuracy":0},{"contexts":["blue","red","green"],"outcomes":[0,0,0],"key":39,"choice":2,"rt":34.37000000849366,"outcome":0,"trial":79,"correct":0,"trial_type":"three-arm-trial","trial_index":86,"time_elapsed":375948,"internal_node_id":"0.0-85.0-0.0","task_version":"screening-prolific","missing":false,"accuracy":0},{"contexts":["blue","red","green"],"outcomes":[1,0,0],"key":37,"choice":0,"rt":102.95000008773059,"outcome":1,"trial":80,"correct":0,"trial_type":"three-arm-trial","trial_index":87,"time_elapsed":377260,"internal_node_id":"0.0-86.0-0.0","task_version":"screening-prolific","missing":false,"accuracy":1},{"contexts":["blue","red","green"],"outcomes":[1,0,0],"key":37,"choice":0,"rt":138.3050000295043,"outcome":1,"trial":81,"correct":0,"trial_type":"three-arm-trial","trial_index":88,"time_elapsed":378604,"internal_node_id":"0.0-87.0-0.0","task_version":"screening-prolific","missing":false,"accuracy":1},{"contexts":["blue","red","green"],"outcomes":[1,0,1],"key":37,"choice":0,"rt":178.3399999840185,"outcome":1,"trial":82,"correct":0,"trial_type":"three-arm-trial","trial_index":89,"time_elapsed":379988,"internal_node_id":"0.0-88.0-0.0","task_version":"screening-prolific","missing":false,"accuracy":1},{"contexts":["blue","red","green"],"outcomes":[1,1,0],"key":37,"choice":0,"rt":22.499999962747097,"outcome":1,"trial":83,"correct":0,"trial_type":"three-arm-trial","trial_index":90,"time_elapsed":381218,"internal_node_id":"0.0-89.0-0.0","task_version":"screening-prolific","missing":false,"accuracy":1},{"contexts":["blue","red","green"],"outcomes":[1,0,0],"key":37,"choice":0,"rt":0.5000000819563866,"outcome":1,"trial":84,"correct":0,"trial_type":"three-arm-trial","trial_index":91,"time_elapsed":382424,"internal_node_id":"0.0-90.0-0.0","task_version":"screening-prolific","missing":false,"accuracy":1},{"contexts":["blue","red","green"],"outcomes":[0,1,0],"key":37,"choice":0,"rt":53.26499999500811,"outcome":0,"trial":85,"correct":0,"trial_type":"three-arm-trial","trial_index":92,"time_elapsed":383684,"internal_node_id":"0.0-91.0-0.0","task_version":"screening-prolific","missing":false,"accuracy":1},{"contexts":["blue","red","green"],"outcomes":[1,0,1],"key":37,"choice":0,"rt":66.67500000912696,"outcome":1,"trial":86,"correct":0,"trial_type":"three-arm-trial","trial_index":93,"time_elapsed":384956,"internal_node_id":"0.0-92.0-0.0","task_version":"screening-prolific","missing":false,"accuracy":1},{"contexts":["blue","red","green"],"outcomes":[1,1,0],"key":37,"choice":0,"rt":458.23500002734363,"outcome":1,"trial":87,"correct":0,"trial_type":"three-arm-trial","trial_index":94,"time_elapsed":386619,"internal_node_id":"0.0-93.0-0.0","task_version":"screening-prolific","missing":false,"accuracy":1},{"contexts":["blue","red","green"],"outcomes":[0,0,0],"key":37,"choice":0,"rt":114.7000000346452,"outcome":0,"trial":88,"correct":0,"trial_type":"three-arm-trial","trial_index":95,"time_elapsed":387940,"internal_node_id":"0.0-94.0-0.0","task_version":"screening-prolific","missing":false,"accuracy":1},{"contexts":["blue","red","green"],"outcomes":[1,0,0],"key":37,"choice":0,"rt":74.15999996010214,"outcome":1,"trial":89,"correct":0,"trial_type":"three-arm-trial","trial_index":96,"time_elapsed":389219,"internal_node_id":"0.0-95.0-0.0","task_version":"screening-prolific","missing":false,"accuracy":1},{"contexts":["blue","red","green"],"outcomes":[1,0,1],"key":37,"choice":0,"rt":682.7850000699982,"outcome":1,"trial":90,"correct":0,"trial_type":"three-arm-trial","trial_index":97,"time_elapsed":391109,"internal_node_id":"0.0-96.0-0.0","task_version":"screening-prolific","missing":false,"accuracy":1},{"rt":14209.260000032373,"responses":{"age":"28","gender-categorical":"Female","gender-free-response":"","ethnicity":"Not Hispanic or Latino","race":["Asian"],"language":"Yes","fluency":"Very well","mturk":"No","mturk-this-study":"No"},"survey":"demographics","trial_type":"survey-demo","trial_index":98,"time_elapsed":405332,"internal_node_id":"0.0-97.0","task_version":"screening-prolific","interactions":"[{\"event\":\"blur\",\"trial\":3,\"time\":55996},{\"event\":\"focus\",\"trial\":3,\"time\":118525},{\"event\":\"blur\",\"trial\":5,\"time\":214372},{\"event\":\"focus\",\"trial\":5,\"time\":218265},{\"event\":\"blur\",\"trial\":5,\"time\":224690},{\"event\":\"focus\",\"trial\":5,\"time\":247082}]"}]