[{"responses":{"Q02":"1","Q01":"1","Q03":"1"},"rt":37401,"survey":"pswq","trial_type":"survey-template","trial_index":0,"time_elapsed":37436,"internal_node_id":"0.0-0.0","task_version":"screening-prolific"},{"responses":{"Q07":"2","Q05":"1","Q13":"2","Q02":"1","Q14":"1","Q04":"2","Q03":"2","Q08":"2","Q12":"1","Q01":"2","Q09":"1","Q11":"1","Q10":"1","Q15":"0","Q06":"2"},"rt":135854,"survey":"7up7down","trial_type":"survey-template","trial_index":1,"time_elapsed":173298,"internal_node_id":"0.0-1.0","task_version":"screening-prolific"},{"responses":{"Q03":"1","Q08":"0","Q04":"0","Q02":"0","Q07":"1","Q01":"1","Q05":"0","Q06":"0"},"rt":27966,"survey":"gad7","trial_type":"survey-template","trial_index":2,"time_elapsed":201269,"internal_node_id":"0.0-2.0","task_version":"screening-prolific"},{"responses":{"Q09":"2","Q08":"2","Q10":"2","Q02":"1","Q04":"2","Q01":"2","Q07":"3","Q12":"1","Q13":"2","Q11":"2","Q03":"2","Q06":"3","Q05":"3"},"rt":78252,"survey":"bisbas","trial_type":"survey-template","trial_index":3,"time_elapsed":279526,"internal_node_id":"0.0-3.0","task_version":"screening-prolific"},{"responses":{"Q06":"2","Q12":"3","Q02":"3","Q04":"3","Q10":"2","Q13":"3","Q08":"3","Q03":"3","Q05":"2","Q01":"2","Q14":"2","Q09":"2","Q07":"2","Q15":"2","Q11":"2"},"rt":99336,"survey":"shaps","trial_type":"survey-template","trial_index":4,"time_elapsed":378867,"internal_node_id":"0.0-4.0","task_version":"screening-prolific"},{"view_history":"[{\"page_index\":0,\"viewing_time\":15375},{\"page_index\":1,\"viewing_time\":16845},{\"page_index\":2,\"viewing_time\":14091},{\"page_index\":3,\"viewing_time\":13732},{\"page_index\":4,\"viewing_time\":359},{\"page_index\":5,\"viewing_time\":7207},{\"page_index\":6,\"viewing_time\":4481},{\"page_index\":7,\"viewing_time\":10895}]","rt":82986,"trial_type":"instructions","trial_index":5,"time_elapsed":461856,"internal_node_id":"0.0-5.0-0.0","task_version":"screening-prolific"},{"responses":["True","True","False","True","True"],"num_errors":1,"rt":56951,"trial_type":"three-arm-comprehension","trial_index":6,"time_elapsed":518811,"internal_node_id":"0.0-5.0-1.0","task_version":"screening-prolific"},{"view_history":"[{\"page_index\":0,\"viewing_time\":5977},{\"page_index\":1,\"viewing_time\":9886},{\"page_index\":2,\"viewing_time\":2825},{\"page_index\":3,\"viewing_time\":2076},{\"page_index\":4,\"viewing_time\":3389},{\"page_index\":5,\"viewing_time\":2460},{\"page_index\":6,\"viewing_time\":3320},{\"page_index\":7,\"viewing_time\":2177}]","rt":32110,"trial_type":"instructions","trial_index":7,"time_elapsed":550925,"internal_node_id":"0.0-5.1-0.1","task_version":"screening-prolific"},{"responses":["True","True","True","True","True"],"num_errors":2,"rt":46070,"trial_type":"three-arm-comprehension","trial_index":8,"time_elapsed":597000,"internal_node_id":"0.0-5.1-1.1","task_version":"screening-prolific"},{"view_history":"[{\"page_index\":0,\"viewing_time\":2139},{\"page_index\":1,\"viewing_time\":6869},{\"page_index\":2,\"viewing_time\":899},{\"page_index\":3,\"viewing_time\":673},{\"page_index\":4,\"viewing_time\":6784},{\"page_index\":5,\"viewing_time\":3452},{\"page_index\":6,\"viewing_time\":2566},{\"page_index\":5,\"viewing_time\":5891},{\"page_index\":6,\"viewing_time\":1573},{\"page_index\":7,\"viewing_time\":1158}]","rt":32005,"trial_type":"instructions","trial_index":9,"time_elapsed":629010,"internal_node_id":"0.0-5.2-0.2","task_version":"screening-prolific"},{"responses":["True","True","True","False","True"],"num_errors":1,"rt":17718,"trial_type":"three-arm-comprehension","trial_index":10,"time_elapsed":646732,"internal_node_id":"0.0-5.2-1.2","task_version":"screening-prolific"},{"view_history":"[{\"page_index\":0,\"viewing_time\":1534},{\"page_index\":1,\"viewing_time\":594},{\"page_index\":2,\"viewing_time\":395},{\"page_index\":3,\"viewing_time\":382},{\"page_index\":4,\"viewing_time\":455},{\"page_index\":5,\"viewing_time\":483},{\"page_index\":6,\"viewing_time\":431},{\"page_index\":7,\"viewing_time\":487}]","rt":4761,"trial_type":"instructions","trial_index":11,"time_elapsed":651497,"internal_node_id":"0.0-5.3-0.3","task_version":"screening-prolific"},{"responses":["True","True","False","False","True"],"num_errors":0,"rt":13070,"trial_type":"three-arm-comprehension","trial_index":12,"time_elapsed":664570,"internal_node_id":"0.0-5.3-1.3","task_version":"screening-prolific"},{"view_history":"[{\"page_index\":0,\"viewing_time\":6970}]","rt":6971,"trial_type":"instructions","trial_index":13,"time_elapsed":671544,"internal_node_id":"0.0-6.0","task_version":"screening-prolific"},{"contexts":["blue","red","green"],"outcomes":[0,1,0],"key":39,"choice":2,"rt":2551,"outcome":0,"trial":1,"correct":1,"trial_type":"three-arm-trial","trial_index":14,"time_elapsed":675302,"internal_node_id":"0.0-7.0-0.0","task_version":"screening-prolific","missing":false,"accuracy":0},{"contexts":["blue","red","green"],"outcomes":[0,1,0],"key":38,"choice":1,"rt":2321,"outcome":1,"trial":2,"correct":1,"trial_type":"three-arm-trial","trial_index":15,"time_elapsed":678834,"internal_node_id":"0.0-8.0-0.0","task_version":"screening-prolific","missing":false,"accuracy":1},{"contexts":["blue","red","green"],"outcomes":[0,1,0],"key":37,"choice":0,"rt":845,"outcome":0,"trial":3,"correct":1,"trial_type":"three-arm-trial","trial_index":16,"time_elapsed":680886,"internal_node_id":"0.0-9.0-0.0","task_version":"screening-prolific","missing":false,"accuracy":0},{"contexts":["blue","red","green"],"outcomes":[1,0,0],"key":38,"choice":1,"rt":2337,"outcome":0,"trial":4,"correct":1,"trial_type":"three-arm-trial","trial_index":17,"time_elapsed":684431,"internal_node_id":"0.0-10.0-0.0","task_version":"screening-prolific","missing":false,"accuracy":1},{"contexts":["blue","red","green"],"outcomes":[1,1,0],"key":37,"choice":0,"rt":591,"outcome":1,"trial":5,"correct":1,"trial_type":"three-arm-trial","trial_index":18,"time_elapsed":686227,"internal_node_id":"0.0-11.0-0.0","task_version":"screening-prolific","missing":false,"accuracy":0},{"contexts":["blue","red","green"],"outcomes":[1,1,0],"key":38,"choice":1,"rt":706,"outcome":1,"trial":6,"correct":1,"trial_type":"three-arm-trial","trial_index":19,"time_elapsed":688143,"internal_node_id":"0.0-12.0-0.0","task_version":"screening-prolific","missing":false,"accuracy":1},{"contexts":["blue","red","green"],"outcomes":[0,0,0],"key":39,"choice":2,"rt":447,"outcome":0,"trial":7,"correct":1,"trial_type":"three-arm-trial","trial_index":20,"time_elapsed":689795,"internal_node_id":"0.0-13.0-0.0","task_version":"screening-prolific","missing":false,"accuracy":0},{"contexts":["blue","red","green"],"outcomes":[1,0,0],"key":38,"choice":1,"rt":515,"outcome":0,"trial":8,"correct":1,"trial_type":"three-arm-trial","trial_index":21,"time_elapsed":691518,"internal_node_id":"0.0-14.0-0.0","task_version":"screening-prolific","missing":false,"accuracy":1},{"contexts":["blue","red","green"],"outcomes":[0,1,0],"key":37,"choice":0,"rt":467,"outcome":0,"trial":9,"correct":1,"trial_type":"three-arm-trial","trial_index":22,"time_elapsed":693198,"internal_node_id":"0.0-15.0-0.0","task_version":"screening-prolific","missing":false,"accuracy":0},{"contexts":["blue","red","green"],"outcomes":[0,1,0],"key":39,"choice":2,"rt":487,"outcome":0,"trial":10,"correct":1,"trial_type":"three-arm-trial","trial_index":23,"time_elapsed":694895,"internal_node_id":"0.0-16.0-0.0","task_version":"screening-prolific","missing":false,"accuracy":0},{"contexts":["blue","red","green"],"outcomes":[0,1,1],"key":38,"choice":1,"rt":669,"outcome":1,"trial":11,"correct":1,"trial_type":"three-arm-trial","trial_index":24,"time_elapsed":696771,"internal_node_id":"0.0-17.0-0.0","task_version":"screening-prolific","missing":false,"accuracy":1},{"contexts":["blue","red","green"],"outcomes":[0,1,0],"key":39,"choice":2,"rt":331,"outcome":0,"trial":12,"correct":1,"trial_type":"three-arm-trial","trial_index":25,"time_elapsed":698310,"internal_node_id":"0.0-18.0-0.0","task_version":"screening-prolific","missing":false,"accuracy":0},{"contexts":["blue","red","green"],"outcomes":[0,0,0],"key":37,"choice":0,"rt":386,"outcome":0,"trial":13,"correct":1,"trial_type":"three-arm-trial","trial_index":26,"time_elapsed":699904,"internal_node_id":"0.0-19.0-0.0","task_version":"screening-prolific","missing":false,"accuracy":0},{"contexts":["blue","red","green"],"outcomes":[1,1,0],"key":38,"choice":1,"rt":458,"outcome":1,"trial":14,"correct":1,"trial_type":"three-arm-trial","trial_index":27,"time_elapsed":701569,"internal_node_id":"0.0-20.0-0.0","task_version":"screening-prolific","missing":false,"accuracy":1},{"contexts":["blue","red","green"],"outcomes":[1,1,0],"key":39,"choice":2,"rt":475,"outcome":0,"trial":15,"correct":1,"trial_type":"three-arm-trial","trial_index":28,"time_elapsed":703250,"internal_node_id":"0.0-21.0-0.0","task_version":"screening-prolific","missing":false,"accuracy":0},{"contexts":["blue","red","green"],"outcomes":[0,0,1],"key":38,"choice":1,"rt":413,"outcome":0,"trial":16,"correct":2,"trial_type":"three-arm-trial","trial_index":29,"time_elapsed":704873,"internal_node_id":"0.0-22.0-0.0","task_version":"screening-prolific","missing":false,"accuracy":0},{"contexts":["blue","red","green"],"outcomes":[0,0,1],"key":39,"choice":2,"rt":266,"outcome":1,"trial":17,"correct":2,"trial_type":"three-arm-trial","trial_index":30,"time_elapsed":706344,"internal_node_id":"0.0-23.0-0.0","task_version":"screening-prolific","missing":false,"accuracy":1},{"contexts":["blue","red","green"],"outcomes":[1,0,1],"key":38,"choice":1,"rt":396,"outcome":0,"trial":18,"correct":2,"trial_type":"three-arm-trial","trial_index":31,"time_elapsed":707944,"internal_node_id":"0.0-24.0-0.0","task_version":"screening-prolific","missing":false,"accuracy":0},{"contexts":["blue","red","green"],"outcomes":[0,0,1],"key":37,"choice":0,"rt":358,"outcome":0,"trial":19,"correct":2,"trial_type":"three-arm-trial","trial_index":32,"time_elapsed":709507,"internal_node_id":"0.0-25.0-0.0","task_version":"screening-prolific","missing":false,"accuracy":0},{"contexts":["blue","red","green"],"outcomes":[0,1,1],"key":38,"choice":1,"rt":1573,"outcome":1,"trial":20,"correct":2,"trial_type":"three-arm-trial","trial_index":33,"time_elapsed":712290,"internal_node_id":"0.0-26.0-0.0","task_version":"screening-prolific","missing":false,"accuracy":0},{"contexts":["blue","red","green"],"outcomes":[0,0,0],"key":37,"choice":0,"rt":387,"outcome":0,"trial":21,"correct":2,"trial_type":"three-arm-trial","trial_index":34,"time_elapsed":713884,"internal_node_id":"0.0-27.0-0.0","task_version":"screening-prolific","missing":false,"accuracy":0},{"contexts":["blue","red","green"],"outcomes":[0,0,1],"key":39,"choice":2,"rt":356,"outcome":1,"trial":22,"correct":2,"trial_type":"three-arm-trial","trial_index":35,"time_elapsed":715447,"internal_node_id":"0.0-28.0-0.0","task_version":"screening-prolific","missing":false,"accuracy":1},{"contexts":["blue","red","green"],"outcomes":[0,0,1],"key":37,"choice":0,"rt":436,"outcome":0,"trial":23,"correct":2,"trial_type":"three-arm-trial","trial_index":36,"time_elapsed":717088,"internal_node_id":"0.0-29.0-0.0","task_version":"screening-prolific","missing":false,"accuracy":0},{"contexts":["blue","red","green"],"outcomes":[0,1,0],"key":39,"choice":2,"rt":627,"outcome":0,"trial":24,"correct":2,"trial_type":"three-arm-trial","trial_index":37,"time_elapsed":718921,"internal_node_id":"0.0-30.0-0.0","task_version":"screening-prolific","missing":false,"accuracy":1},{"contexts":["blue","red","green"],"outcomes":[1,0,1],"key":38,"choice":1,"rt":215,"outcome":0,"trial":25,"correct":2,"trial_type":"three-arm-trial","trial_index":38,"time_elapsed":720342,"internal_node_id":"0.0-31.0-0.0","task_version":"screening-prolific","missing":false,"accuracy":0},{"contexts":["blue","red","green"],"outcomes":[0,0,0],"key":37,"choice":0,"rt":450,"outcome":0,"trial":26,"correct":2,"trial_type":"three-arm-trial","trial_index":39,"time_elapsed":722002,"internal_node_id":"0.0-32.0-0.0","task_version":"screening-prolific","missing":false,"accuracy":0},{"contexts":["blue","red","green"],"outcomes":[0,0,1],"key":37,"choice":0,"rt":371,"outcome":0,"trial":27,"correct":2,"trial_type":"three-arm-trial","trial_index":40,"time_elapsed":723580,"internal_node_id":"0.0-33.0-0.0","task_version":"screening-prolific","missing":false,"accuracy":0},{"contexts":["blue","red","green"],"outcomes":[0,0,1],"key":38,"choice":1,"rt":247,"outcome":0,"trial":28,"correct":2,"trial_type":"three-arm-trial","trial_index":41,"time_elapsed":725033,"internal_node_id":"0.0-34.0-0.0","task_version":"screening-prolific","missing":false,"accuracy":0},{"contexts":["blue","red","green"],"outcomes":[0,0,1],"key":37,"choice":0,"rt":325,"outcome":0,"trial":29,"correct":2,"trial_type":"three-arm-trial","trial_index":42,"time_elapsed":726564,"internal_node_id":"0.0-35.0-0.0","task_version":"screening-prolific","missing":false,"accuracy":0},{"contexts":["blue","red","green"],"outcomes":[0,0,1],"key":39,"choice":2,"rt":337,"outcome":1,"trial":30,"correct":2,"trial_type":"three-arm-trial","trial_index":43,"time_elapsed":728110,"internal_node_id":"0.0-36.0-0.0","task_version":"screening-prolific","missing":false,"accuracy":1},{"contexts":["blue","red","green"],"outcomes":[1,0,0],"key":39,"choice":2,"rt":970,"outcome":0,"trial":31,"correct":0,"trial_type":"three-arm-trial","trial_index":44,"time_elapsed":730286,"internal_node_id":"0.0-37.0-0.0","task_version":"screening-prolific","missing":false,"accuracy":0},{"contexts":["blue","red","green"],"outcomes":[0,1,0],"key":38,"choice":1,"rt":357,"outcome":1,"trial":32,"correct":0,"trial_type":"three-arm-trial","trial_index":45,"time_elapsed":731850,"internal_node_id":"0.0-38.0-0.0","task_version":"screening-prolific","missing":false,"accuracy":0},{"contexts":["blue","red","green"],"outcomes":[0,0,0],"key":38,"choice":1,"rt":393,"outcome":0,"trial":33,"correct":0,"trial_type":"three-arm-trial","trial_index":46,"time_elapsed":733452,"internal_node_id":"0.0-39.0-0.0","task_version":"screening-prolific","missing":false,"accuracy":0},{"contexts":["blue","red","green"],"outcomes":[1,0,1],"key":38,"choice":1,"rt":994,"outcome":0,"trial":34,"correct":0,"trial_type":"three-arm-trial","trial_index":47,"time_elapsed":735651,"internal_node_id":"0.0-40.0-0.0","task_version":"screening-prolific","missing":false,"accuracy":0},{"contexts":["blue","red","green"],"outcomes":[1,0,0],"key":37,"choice":0,"rt":348,"outcome":1,"trial":35,"correct":0,"trial_type":"three-arm-trial","trial_index":48,"time_elapsed":737204,"internal_node_id":"0.0-41.0-0.0","task_version":"screening-prolific","missing":false,"accuracy":1},{"contexts":["blue","red","green"],"outcomes":[0,0,1],"key":37,"choice":0,"rt":577,"outcome":0,"trial":36,"correct":0,"trial_type":"three-arm-trial","trial_index":49,"time_elapsed":738987,"internal_node_id":"0.0-42.0-0.0","task_version":"screening-prolific","missing":false,"accuracy":1},{"contexts":["blue","red","green"],"outcomes":[1,0,1],"key":38,"choice":1,"rt":814,"outcome":0,"trial":37,"correct":0,"trial_type":"three-arm-trial","trial_index":50,"time_elapsed":741008,"internal_node_id":"0.0-43.0-0.0","task_version":"screening-prolific","missing":false,"accuracy":0},{"contexts":["blue","red","green"],"outcomes":[0,0,0],"key":37,"choice":0,"rt":356,"outcome":0,"trial":38,"correct":0,"trial_type":"three-arm-trial","trial_index":51,"time_elapsed":742570,"internal_node_id":"0.0-44.0-0.0","task_version":"screening-prolific","missing":false,"accuracy":1},{"contexts":["blue","red","green"],"outcomes":[1,0,0],"key":39,"choice":2,"rt":403,"outcome":0,"trial":39,"correct":0,"trial_type":"three-arm-trial","trial_index":52,"time_elapsed":744179,"internal_node_id":"0.0-45.0-0.0","task_version":"screening-prolific","missing":false,"accuracy":0},{"contexts":["blue","red","green"],"outcomes":[1,1,0],"key":38,"choice":1,"rt":360,"outcome":1,"trial":40,"correct":0,"trial_type":"three-arm-trial","trial_index":53,"time_elapsed":745745,"internal_node_id":"0.0-46.0-0.0","task_version":"screening-prolific","missing":false,"accuracy":0},{"contexts":["blue","red","green"],"outcomes":[1,0,1],"key":38,"choice":1,"rt":1323,"outcome":0,"trial":41,"correct":0,"trial_type":"three-arm-trial","trial_index":54,"time_elapsed":748273,"internal_node_id":"0.0-47.0-0.0","task_version":"screening-prolific","missing":false,"accuracy":0},{"contexts":["blue","red","green"],"outcomes":[1,0,0],"key":39,"choice":2,"rt":362,"outcome":0,"trial":42,"correct":0,"trial_type":"three-arm-trial","trial_index":55,"time_elapsed":749845,"internal_node_id":"0.0-48.0-0.0","task_version":"screening-prolific","missing":false,"accuracy":0},{"contexts":["blue","red","green"],"outcomes":[1,0,0],"key":37,"choice":0,"rt":1630,"outcome":1,"trial":43,"correct":0,"trial_type":"three-arm-trial","trial_index":56,"time_elapsed":752680,"internal_node_id":"0.0-49.0-0.0","task_version":"screening-prolific","missing":false,"accuracy":1},{"contexts":["blue","red","green"],"outcomes":[1,0,0],"key":37,"choice":0,"rt":1029,"outcome":1,"trial":44,"correct":0,"trial_type":"three-arm-trial","trial_index":57,"time_elapsed":754914,"internal_node_id":"0.0-50.0-0.0","task_version":"screening-prolific","missing":false,"accuracy":1},{"contexts":["blue","red","green"],"outcomes":[1,0,0],"key":38,"choice":1,"rt":785,"outcome":0,"trial":45,"correct":0,"trial_type":"three-arm-trial","trial_index":58,"time_elapsed":756904,"internal_node_id":"0.0-51.0-0.0","task_version":"screening-prolific","missing":false,"accuracy":0},{"contexts":["blue","red","green"],"outcomes":[0,1,0],"key":39,"choice":2,"rt":200,"outcome":0,"trial":46,"correct":1,"trial_type":"three-arm-trial","trial_index":59,"time_elapsed":758310,"internal_node_id":"0.0-52.0-0.0","task_version":"screening-prolific","missing":false,"accuracy":0},{"contexts":["blue","red","green"],"outcomes":[0,1,0],"key":37,"choice":0,"rt":366,"outcome":0,"trial":47,"correct":1,"trial_type":"three-arm-trial","trial_index":60,"time_elapsed":759888,"internal_node_id":"0.0-53.0-0.0","task_version":"screening-prolific","missing":false,"accuracy":0},{"contexts":["blue","red","green"],"outcomes":[0,1,0],"key":39,"choice":2,"rt":382,"outcome":0,"trial":48,"correct":1,"trial_type":"three-arm-trial","trial_index":61,"time_elapsed":761476,"internal_node_id":"0.0-54.0-0.0","task_version":"screening-prolific","missing":false,"accuracy":0},{"contexts":["blue","red","green"],"outcomes":[0,1,1],"key":38,"choice":1,"rt":135,"outcome":1,"trial":49,"correct":1,"trial_type":"three-arm-trial","trial_index":62,"time_elapsed":762817,"internal_node_id":"0.0-55.0-0.0","task_version":"screening-prolific","missing":false,"accuracy":1},{"contexts":["blue","red","green"],"outcomes":[1,1,1],"key":39,"choice":2,"rt":521,"outcome":1,"trial":50,"correct":1,"trial_type":"three-arm-trial","trial_index":63,"time_elapsed":764547,"internal_node_id":"0.0-56.0-0.0","task_version":"screening-prolific","missing":false,"accuracy":0},{"contexts":["blue","red","green"],"outcomes":[0,1,1],"key":38,"choice":1,"rt":1462,"outcome":1,"trial":51,"correct":1,"trial_type":"three-arm-trial","trial_index":64,"time_elapsed":767214,"internal_node_id":"0.0-57.0-0.0","task_version":"screening-prolific","missing":false,"accuracy":1},{"contexts":["blue","red","green"],"outcomes":[0,1,1],"key":37,"choice":0,"rt":716,"outcome":0,"trial":52,"correct":1,"trial_type":"three-arm-trial","trial_index":65,"time_elapsed":769135,"internal_node_id":"0.0-58.0-0.0","task_version":"screening-prolific","missing":false,"accuracy":0},{"contexts":["blue","red","green"],"outcomes":[0,1,0],"key":39,"choice":2,"rt":291,"outcome":0,"trial":53,"correct":1,"trial_type":"three-arm-trial","trial_index":66,"time_elapsed":770632,"internal_node_id":"0.0-59.0-0.0","task_version":"screening-prolific","missing":false,"accuracy":0},{"contexts":["blue","red","green"],"outcomes":[0,1,0],"key":38,"choice":1,"rt":428,"outcome":1,"trial":54,"correct":1,"trial_type":"three-arm-trial","trial_index":67,"time_elapsed":772267,"internal_node_id":"0.0-60.0-0.0","task_version":"screening-prolific","missing":false,"accuracy":1},{"contexts":["blue","red","green"],"outcomes":[1,0,0],"key":null,"rt":null,"trial":55,"correct":1,"trial_type":"three-arm-trial","trial_index":68,"time_elapsed":787275,"internal_node_id":"0.0-61.0-0.0","task_version":"screening-prolific","missing":true},{"contexts":["blue","red","green"],"outcomes":[1,0,0],"key":37,"choice":0,"rt":3625,"outcome":1,"trial":55,"correct":1,"trial_type":"three-arm-trial","trial_index":69,"time_elapsed":792106,"internal_node_id":"0.0-61.1-0.1","task_version":"screening-prolific","missing":false,"accuracy":0},{"contexts":["blue","red","green"],"outcomes":[0,1,1],"key":39,"choice":2,"rt":2313,"outcome":1,"trial":56,"correct":1,"trial_type":"three-arm-trial","trial_index":70,"time_elapsed":795624,"internal_node_id":"0.0-62.0-0.0","task_version":"screening-prolific","missing":false,"accuracy":0},{"contexts":["blue","red","green"],"outcomes":[0,1,0],"key":37,"choice":0,"rt":570,"outcome":0,"trial":57,"correct":1,"trial_type":"three-arm-trial","trial_index":71,"time_elapsed":797398,"internal_node_id":"0.0-63.0-0.0","task_version":"screening-prolific","missing":false,"accuracy":0},{"contexts":["blue","red","green"],"outcomes":[0,0,1],"key":null,"rt":null,"trial":58,"correct":1,"trial_type":"three-arm-trial","trial_index":72,"time_elapsed":812406,"internal_node_id":"0.0-64.0-0.0","task_version":"screening-prolific","missing":true},{"contexts":["blue","red","green"],"outcomes":[0,0,1],"key":37,"choice":0,"rt":1303,"outcome":0,"trial":58,"correct":1,"trial_type":"three-arm-trial","trial_index":73,"time_elapsed":814913,"internal_node_id":"0.0-64.1-0.1","task_version":"screening-prolific","missing":false,"accuracy":0},{"contexts":["blue","red","green"],"outcomes":[1,1,0],"key":38,"choice":1,"rt":237,"outcome":1,"trial":59,"correct":1,"trial_type":"three-arm-trial","trial_index":74,"time_elapsed":816357,"internal_node_id":"0.0-65.0-0.0","task_version":"screening-prolific","missing":false,"accuracy":1},{"contexts":["blue","red","green"],"outcomes":[0,1,0],"key":38,"choice":1,"rt":367,"outcome":1,"trial":60,"correct":1,"trial_type":"three-arm-trial","trial_index":75,"time_elapsed":817929,"internal_node_id":"0.0-66.0-0.0","task_version":"screening-prolific","missing":false,"accuracy":1},{"contexts":["blue","red","green"],"outcomes":[1,0,1],"key":39,"choice":2,"rt":125,"outcome":1,"trial":61,"correct":0,"trial_type":"three-arm-trial","trial_index":76,"time_elapsed":819258,"internal_node_id":"0.0-67.0-0.0","task_version":"screening-prolific","missing":false,"accuracy":0},{"contexts":["blue","red","green"],"outcomes":[1,0,0],"key":37,"choice":0,"rt":494,"outcome":1,"trial":62,"correct":0,"trial_type":"three-arm-trial","trial_index":77,"time_elapsed":820956,"internal_node_id":"0.0-68.0-0.0","task_version":"screening-prolific","missing":false,"accuracy":1},{"contexts":["blue","red","green"],"outcomes":[1,0,0],"key":37,"choice":0,"rt":660,"outcome":1,"trial":63,"correct":0,"trial_type":"three-arm-trial","trial_index":78,"time_elapsed":822823,"internal_node_id":"0.0-69.0-0.0","task_version":"screening-prolific","missing":false,"accuracy":1},{"contexts":["blue","red","green"],"outcomes":[1,0,0],"key":39,"choice":2,"rt":411,"outcome":0,"trial":64,"correct":0,"trial_type":"three-arm-trial","trial_index":79,"time_elapsed":824443,"internal_node_id":"0.0-70.0-0.0","task_version":"screening-prolific","missing":false,"accuracy":0},{"contexts":["blue","red","green"],"outcomes":[1,1,0],"key":37,"choice":0,"rt":188,"outcome":1,"trial":65,"correct":0,"trial_type":"three-arm-trial","trial_index":80,"time_elapsed":825835,"internal_node_id":"0.0-71.0-0.0","task_version":"screening-prolific","missing":false,"accuracy":1},{"contexts":["blue","red","green"],"outcomes":[1,1,0],"key":38,"choice":1,"rt":118,"outcome":1,"trial":66,"correct":0,"trial_type":"three-arm-trial","trial_index":81,"time_elapsed":827158,"internal_node_id":"0.0-72.0-0.0","task_version":"screening-prolific","missing":false,"accuracy":0},{"contexts":["blue","red","green"],"outcomes":[0,0,0],"key":37,"choice":0,"rt":312,"outcome":0,"trial":67,"correct":0,"trial_type":"three-arm-trial","trial_index":82,"time_elapsed":828677,"internal_node_id":"0.0-73.0-0.0","task_version":"screening-prolific","missing":false,"accuracy":1},{"contexts":["blue","red","green"],"outcomes":[1,0,0],"key":38,"choice":1,"rt":351,"outcome":0,"trial":68,"correct":0,"trial_type":"three-arm-trial","trial_index":83,"time_elapsed":830236,"internal_node_id":"0.0-74.0-0.0","task_version":"screening-prolific","missing":false,"accuracy":0},{"contexts":["blue","red","green"],"outcomes":[1,0,0],"key":37,"choice":0,"rt":214,"outcome":1,"trial":69,"correct":0,"trial_type":"three-arm-trial","trial_index":84,"time_elapsed":831657,"internal_node_id":"0.0-75.0-0.0","task_version":"screening-prolific","missing":false,"accuracy":1},{"contexts":["blue","red","green"],"outcomes":[1,0,1],"key":37,"choice":0,"rt":316,"outcome":1,"trial":70,"correct":0,"trial_type":"three-arm-trial","trial_index":85,"time_elapsed":833182,"internal_node_id":"0.0-76.0-0.0","task_version":"screening-prolific","missing":false,"accuracy":1},{"contexts":["blue","red","green"],"outcomes":[1,0,0],"key":38,"choice":1,"rt":314,"outcome":0,"trial":71,"correct":0,"trial_type":"three-arm-trial","trial_index":86,"time_elapsed":834705,"internal_node_id":"0.0-77.0-0.0","task_version":"screening-prolific","missing":false,"accuracy":0},{"contexts":["blue","red","green"],"outcomes":[1,0,0],"key":39,"choice":2,"rt":225,"outcome":0,"trial":72,"correct":0,"trial_type":"three-arm-trial","trial_index":87,"time_elapsed":836140,"internal_node_id":"0.0-78.0-0.0","task_version":"screening-prolific","missing":false,"accuracy":0},{"contexts":["blue","red","green"],"outcomes":[0,0,0],"key":37,"choice":0,"rt":275,"outcome":0,"trial":73,"correct":0,"trial_type":"three-arm-trial","trial_index":88,"time_elapsed":837622,"internal_node_id":"0.0-79.0-0.0","task_version":"screening-prolific","missing":false,"accuracy":1},{"contexts":["blue","red","green"],"outcomes":[1,0,0],"key":38,"choice":1,"rt":195,"outcome":0,"trial":74,"correct":0,"trial_type":"three-arm-trial","trial_index":89,"time_elapsed":839026,"internal_node_id":"0.0-80.0-0.0","task_version":"screening-prolific","missing":false,"accuracy":0},{"contexts":["blue","red","green"],"outcomes":[1,0,0],"key":37,"choice":0,"rt":254,"outcome":1,"trial":75,"correct":0,"trial_type":"three-arm-trial","trial_index":90,"time_elapsed":840484,"internal_node_id":"0.0-81.0-0.0","task_version":"screening-prolific","missing":false,"accuracy":1},{"contexts":["blue","red","green"],"outcomes":[0,1,1],"key":37,"choice":0,"rt":291,"outcome":0,"trial":76,"correct":2,"trial_type":"three-arm-trial","trial_index":91,"time_elapsed":841982,"internal_node_id":"0.0-82.0-0.0","task_version":"screening-prolific","missing":false,"accuracy":0},{"contexts":["blue","red","green"],"outcomes":[0,1,0],"key":39,"choice":2,"rt":385,"outcome":0,"trial":77,"correct":2,"trial_type":"three-arm-trial","trial_index":92,"time_elapsed":843576,"internal_node_id":"0.0-83.0-0.0","task_version":"screening-prolific","missing":false,"accuracy":1},{"contexts":["blue","red","green"],"outcomes":[0,0,1],"key":37,"choice":0,"rt":253,"outcome":0,"trial":78,"correct":2,"trial_type":"three-arm-trial","trial_index":93,"time_elapsed":845037,"internal_node_id":"0.0-84.0-0.0","task_version":"screening-prolific","missing":false,"accuracy":0},{"contexts":["blue","red","green"],"outcomes":[1,0,1],"key":37,"choice":0,"rt":254,"outcome":1,"trial":79,"correct":2,"trial_type":"three-arm-trial","trial_index":94,"time_elapsed":846499,"internal_node_id":"0.0-85.0-0.0","task_version":"screening-prolific","missing":false,"accuracy":0},{"contexts":["blue","red","green"],"outcomes":[1,1,1],"key":37,"choice":0,"rt":367,"outcome":1,"trial":80,"correct":2,"trial_type":"three-arm-trial","trial_index":95,"time_elapsed":848070,"internal_node_id":"0.0-86.0-0.0","task_version":"screening-prolific","missing":false,"accuracy":0},{"contexts":["blue","red","green"],"outcomes":[0,0,1],"key":39,"choice":2,"rt":413,"outcome":1,"trial":81,"correct":2,"trial_type":"three-arm-trial","trial_index":96,"time_elapsed":849690,"internal_node_id":"0.0-87.0-0.0","task_version":"screening-prolific","missing":false,"accuracy":1},{"contexts":["blue","red","green"],"outcomes":[0,1,1],"key":38,"choice":1,"rt":67,"outcome":1,"trial":82,"correct":2,"trial_type":"three-arm-trial","trial_index":97,"time_elapsed":850963,"internal_node_id":"0.0-88.0-0.0","task_version":"screening-prolific","missing":false,"accuracy":0},{"contexts":["blue","red","green"],"outcomes":[0,1,0],"key":38,"choice":1,"rt":510,"outcome":1,"trial":83,"correct":2,"trial_type":"three-arm-trial","trial_index":98,"time_elapsed":852681,"internal_node_id":"0.0-89.0-0.0","task_version":"screening-prolific","missing":false,"accuracy":0},{"contexts":["blue","red","green"],"outcomes":[1,0,1],"key":39,"choice":2,"rt":429,"outcome":1,"trial":84,"correct":2,"trial_type":"three-arm-trial","trial_index":99,"time_elapsed":854319,"internal_node_id":"0.0-90.0-0.0","task_version":"screening-prolific","missing":false,"accuracy":1},{"contexts":["blue","red","green"],"outcomes":[0,1,1],"key":39,"choice":2,"rt":386,"outcome":1,"trial":85,"correct":2,"trial_type":"three-arm-trial","trial_index":100,"time_elapsed":855913,"internal_node_id":"0.0-91.0-0.0","task_version":"screening-prolific","missing":false,"accuracy":1},{"contexts":["blue","red","green"],"outcomes":[0,0,0],"key":38,"choice":1,"rt":460,"outcome":0,"trial":86,"correct":2,"trial_type":"three-arm-trial","trial_index":101,"time_elapsed":857578,"internal_node_id":"0.0-92.0-0.0","task_version":"screening-prolific","missing":false,"accuracy":0},{"contexts":["blue","red","green"],"outcomes":[0,0,0],"key":39,"choice":2,"rt":277,"outcome":0,"trial":87,"correct":2,"trial_type":"three-arm-trial","trial_index":102,"time_elapsed":859061,"internal_node_id":"0.0-93.0-0.0","task_version":"screening-prolific","missing":false,"accuracy":1},{"contexts":["blue","red","green"],"outcomes":[0,1,1],"key":38,"choice":1,"rt":419,"outcome":1,"trial":88,"correct":2,"trial_type":"three-arm-trial","trial_index":103,"time_elapsed":860685,"internal_node_id":"0.0-94.0-0.0","task_version":"screening-prolific","missing":false,"accuracy":0},{"contexts":["blue","red","green"],"outcomes":[1,0,1],"key":38,"choice":1,"rt":291,"outcome":0,"trial":89,"correct":2,"trial_type":"three-arm-trial","trial_index":104,"time_elapsed":862181,"internal_node_id":"0.0-95.0-0.0","task_version":"screening-prolific","missing":false,"accuracy":0},{"contexts":["blue","red","green"],"outcomes":[0,0,1],"key":37,"choice":0,"rt":350,"outcome":0,"trial":90,"correct":2,"trial_type":"three-arm-trial","trial_index":105,"time_elapsed":863735,"internal_node_id":"0.0-96.0-0.0","task_version":"screening-prolific","missing":false,"accuracy":0},{"rt":34820,"responses":{"age":"25","gender-categorical":"Male","gender-free-response":"","ethnicity":"Not Hispanic or Latino","race":["White"],"language":"Yes","fluency":"Very well","mturk":"No","mturk-this-study":"Yes"},"survey":"demographics","trial_type":"survey-demo","trial_index":106,"time_elapsed":898577,"internal_node_id":"0.0-97.0","task_version":"screening-prolific","interactions":"[{\"event\":\"focus\",\"trial\":0,\"time\":0}]"}]