[{"responses":{"Q02":"2","Q01":"1","Q03":"2"},"rt":34639.07000000472,"survey":"pswq","trial_type":"survey-template","trial_index":0,"time_elapsed":34650,"internal_node_id":"0.0-0.0","task_version":"screening-prolific"},{"responses":{"Q01":"0","Q08":"0","Q14":"0","Q10":"0","Q13":"0","Q02":"0","Q11":"0","Q03":"0","Q15":"0","Q05":"0","Q04":"0","Q12":"0","Q06":"0","Q07":"0","Q09":"0"},"rt":254188.9749999973,"survey":"7up7down","trial_type":"survey-template","trial_index":1,"time_elapsed":288832,"internal_node_id":"0.0-1.0","task_version":"screening-prolific"},{"responses":{"Q03":"0","Q06":"0","Q05":"0","Q02":"0","Q08":"0","Q04":"0","Q07":"0","Q01":"0"},"rt":86787.09500000696,"survey":"gad7","trial_type":"survey-template","trial_index":2,"time_elapsed":375619,"internal_node_id":"0.0-2.0","task_version":"screening-prolific"},{"responses":{"Q06":"2","Q09":"3","Q05":"2","Q08":"2","Q01":"2","Q07":"2","Q13":"2","Q12":"2","Q10":"2","Q14":"1","Q04":"1","Q02":"2","Q15":"3","Q03":"2","Q11":"3"},"rt":84403.36500000558,"survey":"shaps","trial_type":"survey-template","trial_index":3,"time_elapsed":460023,"internal_node_id":"0.0-3.0","task_version":"screening-prolific"},{"responses":{"Q09":"1","Q11":"1","Q10":"1","Q12":"1","Q03":"3","Q06":"2","Q01":"1","Q02":"2","Q04":"2","Q08":"2","Q07":"2","Q13":"3","Q05":"2"},"rt":78248.51499999932,"survey":"bisbas","trial_type":"survey-template","trial_index":4,"time_elapsed":538279,"internal_node_id":"0.0-4.0","task_version":"screening-prolific"},{"view_history":"[{\"page_index\":0,\"viewing_time\":9697.3100000032},{\"page_index\":1,\"viewing_time\":15753.494999997201},{\"page_index\":2,\"viewing_time\":16661.619999998948},{\"page_index\":3,\"viewing_time\":7576.460000011139},{\"page_index\":4,\"viewing_time\":10688.239999988582},{\"page_index\":5,\"viewing_time\":7839.965000006487},{\"page_index\":6,\"viewing_time\":3848.0299999937415},{\"page_index\":7,\"viewing_time\":4798.085000002175}]","rt":76864.19000000751,"trial_type":"instructions","trial_index":5,"time_elapsed":615141,"internal_node_id":"0.0-5.0-0.0","task_version":"screening-prolific"},{"responses":["True","True","False","False","False"],"num_errors":1,"rt":22494.264999986626,"trial_type":"three-arm-comprehension","trial_index":6,"time_elapsed":637639,"internal_node_id":"0.0-5.0-1.0","task_version":"screening-prolific"},{"view_history":"[{\"page_index\":0,\"viewing_time\":5636.599999997998},{\"page_index\":1,\"viewing_time\":6115.884999991977},{\"page_index\":2,\"viewing_time\":4952.115000007325},{\"page_index\":3,\"viewing_time\":3627.9599999979837},{\"page_index\":4,\"viewing_time\":9070.049999994808},{\"page_index\":5,\"viewing_time\":7510.025000010501},{\"page_index\":6,\"viewing_time\":4229.949999993551},{\"page_index\":7,\"viewing_time\":1845.9549999970477}]","rt":42988.83999999089,"trial_type":"instructions","trial_index":7,"time_elapsed":680630,"internal_node_id":"0.0-5.1-0.1","task_version":"screening-prolific"},{"responses":["True","True","False","False","True"],"num_errors":0,"rt":15528.699999995297,"trial_type":"three-arm-comprehension","trial_index":8,"time_elapsed":696160,"internal_node_id":"0.0-5.1-1.1","task_version":"screening-prolific"},{"view_history":"[{\"page_index\":0,\"viewing_time\":2580.310000004829}]","rt":2580.614999998943,"trial_type":"instructions","trial_index":9,"time_elapsed":698743,"internal_node_id":"0.0-6.0","task_version":"screening-prolific"},{"contexts":["green","red","blue"],"outcomes":[0,1,0],"key":null,"rt":null,"trial":1,"correct":1,"trial_type":"three-arm-trial","trial_index":10,"time_elapsed":713748,"internal_node_id":"0.0-7.0-0.0","task_version":"screening-prolific","missing":true},{"contexts":["green","red","blue"],"outcomes":[0,1,0],"key":null,"rt":null,"trial":1,"correct":1,"trial_type":"three-arm-trial","trial_index":11,"time_elapsed":728751,"internal_node_id":"0.0-7.1-0.1","task_version":"screening-prolific","missing":true},{"contexts":["green","red","blue"],"outcomes":[0,1,0],"key":38,"choice":1,"rt":1070.6600000121398,"outcome":1,"trial":1,"correct":1,"trial_type":"three-arm-trial","trial_index":12,"time_elapsed":731026,"internal_node_id":"0.0-7.2-0.2","task_version":"screening-prolific","missing":false,"accuracy":1},{"contexts":["green","red","blue"],"outcomes":[0,1,0],"key":37,"choice":0,"rt":2728.0400000017835,"outcome":0,"trial":2,"correct":1,"trial_type":"three-arm-trial","trial_index":13,"time_elapsed":734958,"internal_node_id":"0.0-8.0-0.0","task_version":"screening-prolific","missing":false,"accuracy":0},{"contexts":["green","red","blue"],"outcomes":[0,0,0],"key":37,"choice":0,"rt":1132.884999999078,"outcome":0,"trial":3,"correct":1,"trial_type":"three-arm-trial","trial_index":14,"time_elapsed":737296,"internal_node_id":"0.0-9.0-0.0","task_version":"screening-prolific","missing":false,"accuracy":0},{"contexts":["green","red","blue"],"outcomes":[0,0,1],"key":39,"choice":2,"rt":715.4599999921629,"outcome":1,"trial":4,"correct":1,"trial_type":"three-arm-trial","trial_index":15,"time_elapsed":739216,"internal_node_id":"0.0-10.0-0.0","task_version":"screening-prolific","missing":false,"accuracy":0},{"contexts":["green","red","blue"],"outcomes":[1,1,0],"key":39,"choice":2,"rt":859.1450000094483,"outcome":0,"trial":5,"correct":1,"trial_type":"three-arm-trial","trial_index":16,"time_elapsed":741279,"internal_node_id":"0.0-11.0-0.0","task_version":"screening-prolific","missing":false,"accuracy":0},{"contexts":["green","red","blue"],"outcomes":[0,1,1],"key":38,"choice":1,"rt":1223.760000008042,"outcome":1,"trial":6,"correct":1,"trial_type":"three-arm-trial","trial_index":17,"time_elapsed":743705,"internal_node_id":"0.0-12.0-0.0","task_version":"screening-prolific","missing":false,"accuracy":1},{"contexts":["green","red","blue"],"outcomes":[0,1,0],"key":38,"choice":1,"rt":797.3100000090199,"outcome":1,"trial":7,"correct":1,"trial_type":"three-arm-trial","trial_index":18,"time_elapsed":745705,"internal_node_id":"0.0-13.0-0.0","task_version":"screening-prolific","missing":false,"accuracy":1},{"contexts":["green","red","blue"],"outcomes":[1,1,0],"key":38,"choice":1,"rt":1674.910000001546,"outcome":1,"trial":8,"correct":1,"trial_type":"three-arm-trial","trial_index":19,"time_elapsed":748583,"internal_node_id":"0.0-14.0-0.0","task_version":"screening-prolific","missing":false,"accuracy":1},{"contexts":["green","red","blue"],"outcomes":[0,1,0],"key":38,"choice":1,"rt":995.7350000040606,"outcome":1,"trial":9,"correct":1,"trial_type":"three-arm-trial","trial_index":20,"time_elapsed":750784,"internal_node_id":"0.0-15.0-0.0","task_version":"screening-prolific","missing":false,"accuracy":1},{"contexts":["green","red","blue"],"outcomes":[0,1,0],"key":38,"choice":1,"rt":763.1750000000466,"outcome":1,"trial":10,"correct":1,"trial_type":"three-arm-trial","trial_index":21,"time_elapsed":752751,"internal_node_id":"0.0-16.0-0.0","task_version":"screening-prolific","missing":false,"accuracy":1},{"contexts":["green","red","blue"],"outcomes":[0,0,1],"key":38,"choice":1,"rt":628.0100000003586,"outcome":0,"trial":11,"correct":1,"trial_type":"three-arm-trial","trial_index":22,"time_elapsed":754584,"internal_node_id":"0.0-17.0-0.0","task_version":"screening-prolific","missing":false,"accuracy":1},{"contexts":["green","red","blue"],"outcomes":[0,0,0],"key":39,"choice":2,"rt":1620.9149999922374,"outcome":0,"trial":12,"correct":1,"trial_type":"three-arm-trial","trial_index":23,"time_elapsed":757409,"internal_node_id":"0.0-18.0-0.0","task_version":"screening-prolific","missing":false,"accuracy":0},{"contexts":["green","red","blue"],"outcomes":[0,1,0],"key":37,"choice":0,"rt":1697.4450000125216,"outcome":0,"trial":13,"correct":1,"trial_type":"three-arm-trial","trial_index":24,"time_elapsed":760311,"internal_node_id":"0.0-19.0-0.0","task_version":"screening-prolific","missing":false,"accuracy":0},{"contexts":["green","red","blue"],"outcomes":[0,1,1],"key":38,"choice":1,"rt":995.9099999978207,"outcome":1,"trial":14,"correct":1,"trial_type":"three-arm-trial","trial_index":25,"time_elapsed":762511,"internal_node_id":"0.0-20.0-0.0","task_version":"screening-prolific","missing":false,"accuracy":1},{"contexts":["green","red","blue"],"outcomes":[0,1,0],"key":38,"choice":1,"rt":710.5900000024121,"outcome":1,"trial":15,"correct":1,"trial_type":"three-arm-trial","trial_index":26,"time_elapsed":764424,"internal_node_id":"0.0-21.0-0.0","task_version":"screening-prolific","missing":false,"accuracy":1},{"contexts":["green","red","blue"],"outcomes":[1,0,0],"key":38,"choice":1,"rt":499.41500001295935,"outcome":0,"trial":16,"correct":0,"trial_type":"three-arm-trial","trial_index":27,"time_elapsed":766127,"internal_node_id":"0.0-22.0-0.0","task_version":"screening-prolific","missing":false,"accuracy":0},{"contexts":["green","red","blue"],"outcomes":[1,0,0],"key":38,"choice":1,"rt":650.4800000111572,"outcome":0,"trial":17,"correct":0,"trial_type":"three-arm-trial","trial_index":28,"time_elapsed":767983,"internal_node_id":"0.0-23.0-0.0","task_version":"screening-prolific","missing":false,"accuracy":0},{"contexts":["green","red","blue"],"outcomes":[1,0,0],"key":37,"choice":0,"rt":514.6899999963352,"outcome":1,"trial":18,"correct":0,"trial_type":"three-arm-trial","trial_index":29,"time_elapsed":769703,"internal_node_id":"0.0-24.0-0.0","task_version":"screening-prolific","missing":false,"accuracy":1},{"contexts":["green","red","blue"],"outcomes":[0,0,0],"key":37,"choice":0,"rt":555.370000001858,"outcome":0,"trial":19,"correct":0,"trial_type":"three-arm-trial","trial_index":30,"time_elapsed":771462,"internal_node_id":"0.0-25.0-0.0","task_version":"screening-prolific","missing":false,"accuracy":1},{"contexts":["green","red","blue"],"outcomes":[1,1,0],"key":39,"choice":2,"rt":635.5749999929685,"outcome":0,"trial":20,"correct":0,"trial_type":"three-arm-trial","trial_index":31,"time_elapsed":773303,"internal_node_id":"0.0-26.0-0.0","task_version":"screening-prolific","missing":false,"accuracy":0},{"contexts":["green","red","blue"],"outcomes":[1,0,0],"key":39,"choice":2,"rt":803.6649999994552,"outcome":0,"trial":21,"correct":0,"trial_type":"three-arm-trial","trial_index":32,"time_elapsed":775309,"internal_node_id":"0.0-27.0-0.0","task_version":"screening-prolific","missing":false,"accuracy":0},{"contexts":["green","red","blue"],"outcomes":[1,1,0],"key":38,"choice":1,"rt":524.1499999974621,"outcome":1,"trial":22,"correct":0,"trial_type":"three-arm-trial","trial_index":33,"time_elapsed":777037,"internal_node_id":"0.0-28.0-0.0","task_version":"screening-prolific","missing":false,"accuracy":0},{"contexts":["green","red","blue"],"outcomes":[1,0,0],"key":38,"choice":1,"rt":487.28999999002554,"outcome":0,"trial":23,"correct":0,"trial_type":"three-arm-trial","trial_index":34,"time_elapsed":778728,"internal_node_id":"0.0-29.0-0.0","task_version":"screening-prolific","missing":false,"accuracy":0},{"contexts":["green","red","blue"],"outcomes":[1,0,0],"key":37,"choice":0,"rt":497.55000000004657,"outcome":1,"trial":24,"correct":0,"trial_type":"three-arm-trial","trial_index":35,"time_elapsed":780430,"internal_node_id":"0.0-30.0-0.0","task_version":"screening-prolific","missing":false,"accuracy":1},{"contexts":["green","red","blue"],"outcomes":[1,0,0],"key":38,"choice":1,"rt":411.96499999205116,"outcome":0,"trial":25,"correct":0,"trial_type":"three-arm-trial","trial_index":36,"time_elapsed":782047,"internal_node_id":"0.0-31.0-0.0","task_version":"screening-prolific","missing":false,"accuracy":0},{"contexts":["green","red","blue"],"outcomes":[1,1,0],"key":38,"choice":1,"rt":428.27499999839347,"outcome":1,"trial":26,"correct":0,"trial_type":"three-arm-trial","trial_index":37,"time_elapsed":783679,"internal_node_id":"0.0-32.0-0.0","task_version":"screening-prolific","missing":false,"accuracy":0},{"contexts":["green","red","blue"],"outcomes":[1,1,1],"key":38,"choice":1,"rt":363.27000000164844,"outcome":1,"trial":27,"correct":0,"trial_type":"three-arm-trial","trial_index":38,"time_elapsed":785245,"internal_node_id":"0.0-33.0-0.0","task_version":"screening-prolific","missing":false,"accuracy":0},{"contexts":["green","red","blue"],"outcomes":[1,0,0],"key":38,"choice":1,"rt":479.18500000378117,"outcome":0,"trial":28,"correct":0,"trial_type":"three-arm-trial","trial_index":39,"time_elapsed":786927,"internal_node_id":"0.0-34.0-0.0","task_version":"screening-prolific","missing":false,"accuracy":0},{"contexts":["green","red","blue"],"outcomes":[1,1,0],"key":37,"choice":0,"rt":397.6400000101421,"outcome":1,"trial":29,"correct":0,"trial_type":"three-arm-trial","trial_index":40,"time_elapsed":788527,"internal_node_id":"0.0-35.0-0.0","task_version":"screening-prolific","missing":false,"accuracy":1},{"contexts":["green","red","blue"],"outcomes":[1,0,0],"key":38,"choice":1,"rt":450.28000000456814,"outcome":0,"trial":30,"correct":0,"trial_type":"three-arm-trial","trial_index":41,"time_elapsed":790181,"internal_node_id":"0.0-36.0-0.0","task_version":"screening-prolific","missing":false,"accuracy":0},{"contexts":["green","red","blue"],"outcomes":[1,0,1],"key":38,"choice":1,"rt":359.4500000035623,"outcome":0,"trial":31,"correct":2,"trial_type":"three-arm-trial","trial_index":42,"time_elapsed":791743,"internal_node_id":"0.0-37.0-0.0","task_version":"screening-prolific","missing":false,"accuracy":0},{"contexts":["green","red","blue"],"outcomes":[0,0,1],"key":37,"choice":0,"rt":348.47500000614673,"outcome":0,"trial":32,"correct":2,"trial_type":"three-arm-trial","trial_index":43,"time_elapsed":793294,"internal_node_id":"0.0-38.0-0.0","task_version":"screening-prolific","missing":false,"accuracy":0},{"contexts":["green","red","blue"],"outcomes":[0,0,1],"key":37,"choice":0,"rt":322.8349999990314,"outcome":0,"trial":33,"correct":2,"trial_type":"three-arm-trial","trial_index":44,"time_elapsed":794822,"internal_node_id":"0.0-39.0-0.0","task_version":"screening-prolific","missing":false,"accuracy":0},{"contexts":["green","red","blue"],"outcomes":[0,0,1],"key":39,"choice":2,"rt":387.5750000006519,"outcome":1,"trial":34,"correct":2,"trial_type":"three-arm-trial","trial_index":45,"time_elapsed":796413,"internal_node_id":"0.0-40.0-0.0","task_version":"screening-prolific","missing":false,"accuracy":1},{"contexts":["green","red","blue"],"outcomes":[0,1,1],"key":39,"choice":2,"rt":364.5199999882607,"outcome":1,"trial":35,"correct":2,"trial_type":"three-arm-trial","trial_index":46,"time_elapsed":797979,"internal_node_id":"0.0-41.0-0.0","task_version":"screening-prolific","missing":false,"accuracy":1},{"contexts":["green","red","blue"],"outcomes":[0,0,0],"key":39,"choice":2,"rt":374.02499999734573,"outcome":0,"trial":36,"correct":2,"trial_type":"three-arm-trial","trial_index":47,"time_elapsed":799556,"internal_node_id":"0.0-42.0-0.0","task_version":"screening-prolific","missing":false,"accuracy":1},{"contexts":["green","red","blue"],"outcomes":[0,0,1],"key":38,"choice":1,"rt":287.4500000034459,"outcome":0,"trial":37,"correct":2,"trial_type":"three-arm-trial","trial_index":48,"time_elapsed":801047,"internal_node_id":"0.0-43.0-0.0","task_version":"screening-prolific","missing":false,"accuracy":0},{"contexts":["green","red","blue"],"outcomes":[0,0,1],"key":37,"choice":0,"rt":281.9900000031339,"outcome":0,"trial":38,"correct":2,"trial_type":"three-arm-trial","trial_index":49,"time_elapsed":802531,"internal_node_id":"0.0-44.0-0.0","task_version":"screening-prolific","missing":false,"accuracy":0},{"contexts":["green","red","blue"],"outcomes":[0,1,1],"key":39,"choice":2,"rt":79.5149999903515,"outcome":1,"trial":39,"correct":2,"trial_type":"three-arm-trial","trial_index":50,"time_elapsed":803814,"internal_node_id":"0.0-45.0-0.0","task_version":"screening-prolific","missing":false,"accuracy":1},{"contexts":["green","red","blue"],"outcomes":[0,0,1],"key":39,"choice":2,"rt":370.58999999135267,"outcome":1,"trial":40,"correct":2,"trial_type":"three-arm-trial","trial_index":51,"time_elapsed":805389,"internal_node_id":"0.0-46.0-0.0","task_version":"screening-prolific","missing":false,"accuracy":1},{"contexts":["green","red","blue"],"outcomes":[1,0,1],"key":39,"choice":2,"rt":389.0550000069197,"outcome":1,"trial":41,"correct":2,"trial_type":"three-arm-trial","trial_index":52,"time_elapsed":806982,"internal_node_id":"0.0-47.0-0.0","task_version":"screening-prolific","missing":false,"accuracy":1},{"contexts":["green","red","blue"],"outcomes":[0,0,1],"key":39,"choice":2,"rt":402.02000000863336,"outcome":1,"trial":42,"correct":2,"trial_type":"three-arm-trial","trial_index":53,"time_elapsed":808588,"internal_node_id":"0.0-48.0-0.0","task_version":"screening-prolific","missing":false,"accuracy":1},{"contexts":["green","red","blue"],"outcomes":[0,0,1],"key":39,"choice":2,"rt":374.08500000310596,"outcome":1,"trial":43,"correct":2,"trial_type":"three-arm-trial","trial_index":54,"time_elapsed":810166,"internal_node_id":"0.0-49.0-0.0","task_version":"screening-prolific","missing":false,"accuracy":1},{"contexts":["green","red","blue"],"outcomes":[0,0,1],"key":39,"choice":2,"rt":306.5599999972619,"outcome":1,"trial":44,"correct":2,"trial_type":"three-arm-trial","trial_index":55,"time_elapsed":811675,"internal_node_id":"0.0-50.0-0.0","task_version":"screening-prolific","missing":false,"accuracy":1},{"contexts":["green","red","blue"],"outcomes":[0,0,1],"key":39,"choice":2,"rt":336.26000001095235,"outcome":1,"trial":45,"correct":2,"trial_type":"three-arm-trial","trial_index":56,"time_elapsed":813215,"internal_node_id":"0.0-51.0-0.0","task_version":"screening-prolific","missing":false,"accuracy":1},{"contexts":["green","red","blue"],"outcomes":[1,0,0],"key":39,"choice":2,"rt":337.87000000302214,"outcome":0,"trial":46,"correct":0,"trial_type":"three-arm-trial","trial_index":57,"time_elapsed":814758,"internal_node_id":"0.0-52.0-0.0","task_version":"screening-prolific","missing":false,"accuracy":0},{"contexts":["green","red","blue"],"outcomes":[1,0,0],"key":38,"choice":1,"rt":89.37499999592546,"outcome":0,"trial":47,"correct":0,"trial_type":"three-arm-trial","trial_index":58,"time_elapsed":816050,"internal_node_id":"0.0-53.0-0.0","task_version":"screening-prolific","missing":false,"accuracy":0},{"contexts":["green","red","blue"],"outcomes":[0,1,1],"key":39,"choice":2,"rt":717.5200000056066,"outcome":1,"trial":48,"correct":0,"trial_type":"three-arm-trial","trial_index":59,"time_elapsed":817970,"internal_node_id":"0.0-54.0-0.0","task_version":"screening-prolific","missing":false,"accuracy":0},{"contexts":["green","red","blue"],"outcomes":[1,0,1],"key":39,"choice":2,"rt":301.68000000412576,"outcome":1,"trial":49,"correct":0,"trial_type":"three-arm-trial","trial_index":60,"time_elapsed":819475,"internal_node_id":"0.0-55.0-0.0","task_version":"screening-prolific","missing":false,"accuracy":0},{"contexts":["green","red","blue"],"outcomes":[0,0,1],"key":39,"choice":2,"rt":365.8549999963725,"outcome":1,"trial":50,"correct":0,"trial_type":"three-arm-trial","trial_index":61,"time_elapsed":821044,"internal_node_id":"0.0-56.0-0.0","task_version":"screening-prolific","missing":false,"accuracy":0},{"contexts":["green","red","blue"],"outcomes":[1,0,1],"key":39,"choice":2,"rt":387.50000001164153,"outcome":1,"trial":51,"correct":0,"trial_type":"three-arm-trial","trial_index":62,"time_elapsed":822636,"internal_node_id":"0.0-57.0-0.0","task_version":"screening-prolific","missing":false,"accuracy":0},{"contexts":["green","red","blue"],"outcomes":[0,0,0],"key":39,"choice":2,"rt":575.4600000072969,"outcome":0,"trial":52,"correct":0,"trial_type":"three-arm-trial","trial_index":63,"time_elapsed":824414,"internal_node_id":"0.0-58.0-0.0","task_version":"screening-prolific","missing":false,"accuracy":0},{"contexts":["green","red","blue"],"outcomes":[1,0,0],"key":37,"choice":0,"rt":257.5749999959953,"outcome":1,"trial":53,"correct":0,"trial_type":"three-arm-trial","trial_index":64,"time_elapsed":825876,"internal_node_id":"0.0-59.0-0.0","task_version":"screening-prolific","missing":false,"accuracy":1},{"contexts":["green","red","blue"],"outcomes":[1,0,1],"key":37,"choice":0,"rt":339.26000000792556,"outcome":1,"trial":54,"correct":0,"trial_type":"three-arm-trial","trial_index":65,"time_elapsed":827420,"internal_node_id":"0.0-60.0-0.0","task_version":"screening-prolific","missing":false,"accuracy":1},{"contexts":["green","red","blue"],"outcomes":[0,0,1],"key":37,"choice":0,"rt":314.76999999722466,"outcome":0,"trial":55,"correct":0,"trial_type":"three-arm-trial","trial_index":66,"time_elapsed":828940,"internal_node_id":"0.0-61.0-0.0","task_version":"screening-prolific","missing":false,"accuracy":1},{"contexts":["green","red","blue"],"outcomes":[1,0,0],"key":38,"choice":1,"rt":75.98999999754597,"outcome":0,"trial":56,"correct":0,"trial_type":"three-arm-trial","trial_index":67,"time_elapsed":830221,"internal_node_id":"0.0-62.0-0.0","task_version":"screening-prolific","missing":false,"accuracy":0},{"contexts":["green","red","blue"],"outcomes":[1,0,1],"key":39,"choice":2,"rt":529.9599999998463,"outcome":1,"trial":57,"correct":0,"trial_type":"three-arm-trial","trial_index":68,"time_elapsed":831955,"internal_node_id":"0.0-63.0-0.0","task_version":"screening-prolific","missing":false,"accuracy":0},{"contexts":["green","red","blue"],"outcomes":[1,0,0],"key":39,"choice":2,"rt":331.50000000023283,"outcome":0,"trial":58,"correct":0,"trial_type":"three-arm-trial","trial_index":69,"time_elapsed":833493,"internal_node_id":"0.0-64.0-0.0","task_version":"screening-prolific","missing":false,"accuracy":0},{"contexts":["green","red","blue"],"outcomes":[0,0,0],"key":37,"choice":0,"rt":298.8900000054855,"outcome":0,"trial":59,"correct":0,"trial_type":"three-arm-trial","trial_index":70,"time_elapsed":834994,"internal_node_id":"0.0-65.0-0.0","task_version":"screening-prolific","missing":false,"accuracy":1},{"contexts":["green","red","blue"],"outcomes":[1,0,0],"key":39,"choice":2,"rt":340.1799999992363,"outcome":0,"trial":60,"correct":0,"trial_type":"three-arm-trial","trial_index":71,"time_elapsed":836540,"internal_node_id":"0.0-66.0-0.0","task_version":"screening-prolific","missing":false,"accuracy":0},{"contexts":["green","red","blue"],"outcomes":[1,1,0],"key":38,"choice":1,"rt":108.48999999871012,"outcome":1,"trial":61,"correct":1,"trial_type":"three-arm-trial","trial_index":72,"time_elapsed":837852,"internal_node_id":"0.0-67.0-0.0","task_version":"screening-prolific","missing":false,"accuracy":1},{"contexts":["green","red","blue"],"outcomes":[1,1,0],"key":38,"choice":1,"rt":371.3750000024447,"outcome":1,"trial":62,"correct":1,"trial_type":"three-arm-trial","trial_index":73,"time_elapsed":839428,"internal_node_id":"0.0-68.0-0.0","task_version":"screening-prolific","missing":false,"accuracy":1},{"contexts":["green","red","blue"],"outcomes":[0,1,0],"key":38,"choice":1,"rt":347.4900000001071,"outcome":1,"trial":63,"correct":1,"trial_type":"three-arm-trial","trial_index":74,"time_elapsed":840978,"internal_node_id":"0.0-69.0-0.0","task_version":"screening-prolific","missing":false,"accuracy":1},{"contexts":["green","red","blue"],"outcomes":[0,1,0],"key":38,"choice":1,"rt":352.64500000630505,"outcome":1,"trial":64,"correct":1,"trial_type":"three-arm-trial","trial_index":75,"time_elapsed":842534,"internal_node_id":"0.0-70.0-0.0","task_version":"screening-prolific","missing":false,"accuracy":1},{"contexts":["green","red","blue"],"outcomes":[0,1,0],"key":38,"choice":1,"rt":433.43499999900814,"outcome":1,"trial":65,"correct":1,"trial_type":"three-arm-trial","trial_index":76,"time_elapsed":844172,"internal_node_id":"0.0-71.0-0.0","task_version":"screening-prolific","missing":false,"accuracy":1},{"contexts":["green","red","blue"],"outcomes":[0,1,0],"key":38,"choice":1,"rt":372.0549999998184,"outcome":1,"trial":66,"correct":1,"trial_type":"three-arm-trial","trial_index":77,"time_elapsed":845746,"internal_node_id":"0.0-72.0-0.0","task_version":"screening-prolific","missing":false,"accuracy":1},{"contexts":["green","red","blue"],"outcomes":[0,1,0],"key":38,"choice":1,"rt":323.67500000691507,"outcome":1,"trial":67,"correct":1,"trial_type":"three-arm-trial","trial_index":78,"time_elapsed":847275,"internal_node_id":"0.0-73.0-0.0","task_version":"screening-prolific","missing":false,"accuracy":1},{"contexts":["green","red","blue"],"outcomes":[0,1,0],"key":38,"choice":1,"rt":390.11499998741783,"outcome":1,"trial":68,"correct":1,"trial_type":"three-arm-trial","trial_index":79,"time_elapsed":848868,"internal_node_id":"0.0-74.0-0.0","task_version":"screening-prolific","missing":false,"accuracy":1},{"contexts":["green","red","blue"],"outcomes":[0,1,0],"key":38,"choice":1,"rt":347.77500000200234,"outcome":1,"trial":69,"correct":1,"trial_type":"three-arm-trial","trial_index":80,"time_elapsed":850420,"internal_node_id":"0.0-75.0-0.0","task_version":"screening-prolific","missing":false,"accuracy":1},{"contexts":["green","red","blue"],"outcomes":[0,0,0],"key":38,"choice":1,"rt":330.7499999937136,"outcome":0,"trial":70,"correct":1,"trial_type":"three-arm-trial","trial_index":81,"time_elapsed":851953,"internal_node_id":"0.0-76.0-0.0","task_version":"screening-prolific","missing":false,"accuracy":1},{"contexts":["green","red","blue"],"outcomes":[0,1,0],"key":37,"choice":0,"rt":190.62500000291038,"outcome":0,"trial":71,"correct":1,"trial_type":"three-arm-trial","trial_index":82,"time_elapsed":853346,"internal_node_id":"0.0-77.0-0.0","task_version":"screening-prolific","missing":false,"accuracy":0},{"contexts":["green","red","blue"],"outcomes":[0,1,0],"key":39,"choice":2,"rt":470.37499998987187,"outcome":0,"trial":72,"correct":1,"trial_type":"three-arm-trial","trial_index":83,"time_elapsed":855019,"internal_node_id":"0.0-78.0-0.0","task_version":"screening-prolific","missing":false,"accuracy":0},{"contexts":["green","red","blue"],"outcomes":[0,1,0],"key":38,"choice":1,"rt":323.69499999913387,"outcome":1,"trial":73,"correct":1,"trial_type":"three-arm-trial","trial_index":84,"time_elapsed":856547,"internal_node_id":"0.0-79.0-0.0","task_version":"screening-prolific","missing":false,"accuracy":1},{"contexts":["green","red","blue"],"outcomes":[1,1,0],"key":38,"choice":1,"rt":336.4399999991292,"outcome":1,"trial":74,"correct":1,"trial_type":"three-arm-trial","trial_index":85,"time_elapsed":858087,"internal_node_id":"0.0-80.0-0.0","task_version":"screening-prolific","missing":false,"accuracy":1},{"contexts":["green","red","blue"],"outcomes":[1,1,1],"key":38,"choice":1,"rt":351.1500000022352,"outcome":1,"trial":75,"correct":1,"trial_type":"three-arm-trial","trial_index":86,"time_elapsed":859643,"internal_node_id":"0.0-81.0-0.0","task_version":"screening-prolific","missing":false,"accuracy":1},{"contexts":["green","red","blue"],"outcomes":[1,0,1],"key":38,"choice":1,"rt":330.35999999265186,"outcome":0,"trial":76,"correct":0,"trial_type":"three-arm-trial","trial_index":87,"time_elapsed":861179,"internal_node_id":"0.0-82.0-0.0","task_version":"screening-prolific","missing":false,"accuracy":0},{"contexts":["green","red","blue"],"outcomes":[1,1,0],"key":37,"choice":0,"rt":355.8049999992363,"outcome":1,"trial":77,"correct":0,"trial_type":"three-arm-trial","trial_index":88,"time_elapsed":862739,"internal_node_id":"0.0-83.0-0.0","task_version":"screening-prolific","missing":false,"accuracy":1},{"contexts":["green","red","blue"],"outcomes":[0,0,0],"key":37,"choice":0,"rt":372.3699999973178,"outcome":0,"trial":78,"correct":0,"trial_type":"three-arm-trial","trial_index":89,"time_elapsed":864314,"internal_node_id":"0.0-84.0-0.0","task_version":"screening-prolific","missing":false,"accuracy":1},{"contexts":["green","red","blue"],"outcomes":[0,0,1],"key":39,"choice":2,"rt":364.0350000059698,"outcome":1,"trial":79,"correct":0,"trial_type":"three-arm-trial","trial_index":90,"time_elapsed":865881,"internal_node_id":"0.0-85.0-0.0","task_version":"screening-prolific","missing":false,"accuracy":0},{"contexts":["green","red","blue"],"outcomes":[1,0,1],"key":39,"choice":2,"rt":372.8899999987334,"outcome":1,"trial":80,"correct":0,"trial_type":"three-arm-trial","trial_index":91,"time_elapsed":867459,"internal_node_id":"0.0-86.0-0.0","task_version":"screening-prolific","missing":false,"accuracy":0},{"contexts":["green","red","blue"],"outcomes":[0,0,1],"key":39,"choice":2,"rt":451.775000008638,"outcome":1,"trial":81,"correct":0,"trial_type":"three-arm-trial","trial_index":92,"time_elapsed":869115,"internal_node_id":"0.0-87.0-0.0","task_version":"screening-prolific","missing":false,"accuracy":0},{"contexts":["green","red","blue"],"outcomes":[1,0,0],"key":39,"choice":2,"rt":780.0399999978254,"outcome":0,"trial":82,"correct":0,"trial_type":"three-arm-trial","trial_index":93,"time_elapsed":871098,"internal_node_id":"0.0-88.0-0.0","task_version":"screening-prolific","missing":false,"accuracy":0},{"contexts":["green","red","blue"],"outcomes":[1,1,0],"key":38,"choice":1,"rt":470.5499999981839,"outcome":1,"trial":83,"correct":0,"trial_type":"three-arm-trial","trial_index":94,"time_elapsed":872772,"internal_node_id":"0.0-89.0-0.0","task_version":"screening-prolific","missing":false,"accuracy":0},{"contexts":["green","red","blue"],"outcomes":[0,0,0],"key":38,"choice":1,"rt":386.0500000009779,"outcome":0,"trial":84,"correct":0,"trial_type":"three-arm-trial","trial_index":95,"time_elapsed":874363,"internal_node_id":"0.0-90.0-0.0","task_version":"screening-prolific","missing":false,"accuracy":0},{"contexts":["green","red","blue"],"outcomes":[1,0,0],"key":37,"choice":0,"rt":361.8949999945471,"outcome":1,"trial":85,"correct":0,"trial_type":"three-arm-trial","trial_index":96,"time_elapsed":875931,"internal_node_id":"0.0-91.0-0.0","task_version":"screening-prolific","missing":false,"accuracy":1},{"contexts":["green","red","blue"],"outcomes":[1,1,0],"key":37,"choice":0,"rt":378.43499999144115,"outcome":1,"trial":86,"correct":0,"trial_type":"three-arm-trial","trial_index":97,"time_elapsed":877515,"internal_node_id":"0.0-92.0-0.0","task_version":"screening-prolific","missing":false,"accuracy":1},{"contexts":["green","red","blue"],"outcomes":[1,0,0],"key":37,"choice":0,"rt":346.2849999923492,"outcome":1,"trial":87,"correct":0,"trial_type":"three-arm-trial","trial_index":98,"time_elapsed":879066,"internal_node_id":"0.0-93.0-0.0","task_version":"screening-prolific","missing":false,"accuracy":1},{"contexts":["green","red","blue"],"outcomes":[1,1,0],"key":37,"choice":0,"rt":371.3749999878928,"outcome":1,"trial":88,"correct":0,"trial_type":"three-arm-trial","trial_index":99,"time_elapsed":880642,"internal_node_id":"0.0-94.0-0.0","task_version":"screening-prolific","missing":false,"accuracy":1},{"contexts":["green","red","blue"],"outcomes":[1,0,0],"key":37,"choice":0,"rt":404.3249999958789,"outcome":1,"trial":89,"correct":0,"trial_type":"three-arm-trial","trial_index":100,"time_elapsed":882250,"internal_node_id":"0.0-95.0-0.0","task_version":"screening-prolific","missing":false,"accuracy":1},{"contexts":["green","red","blue"],"outcomes":[1,0,0],"key":37,"choice":0,"rt":427.6300000055926,"outcome":1,"trial":90,"correct":0,"trial_type":"three-arm-trial","trial_index":101,"time_elapsed":883883,"internal_node_id":"0.0-96.0-0.0","task_version":"screening-prolific","missing":false,"accuracy":1},{"rt":28618.51500000921,"responses":{"age":"54","gender-categorical":"Female","gender-free-response":"","ethnicity":"Not Hispanic or Latino","race":["White"],"language":"Yes","fluency":"Very well","mturk":"No","mturk-this-study":"No"},"survey":"demographics","trial_type":"survey-demo","trial_index":102,"time_elapsed":912506,"internal_node_id":"0.0-97.0","task_version":"screening-prolific","interactions":"[{\"event\":\"blur\",\"trial\":1,\"time\":83020},{\"event\":\"focus\",\"trial\":1,\"time\":225011}]"}]