[{"responses":{"Q08":"0","Q05":"2","Q02":"2","Q01":"2","Q03":"2","Q04":"2","Q07":"0","Q06":"3"},"rt":25374.36499999967,"survey":"gad7","trial_type":"survey-template","trial_index":0,"time_elapsed":25410,"internal_node_id":"0.0-0.0","task_version":"screening-prolific"},{"responses":{"Q12":"2","Q03":"3","Q09":"2","Q04":"3","Q13":"3","Q10":"1","Q06":"3","Q05":"3","Q01":"3","Q08":"3","Q02":"2","Q07":"3","Q11":"3"},"rt":67497.02999999863,"survey":"bisbas","trial_type":"survey-template","trial_index":1,"time_elapsed":92941,"internal_node_id":"0.0-1.0","task_version":"screening-prolific"},{"responses":{"Q14":"3","Q07":"0","Q02":"3","Q12":"3","Q06":"3","Q03":"3","Q09":"3","Q01":"2","Q15":"0","Q08":"1","Q04":"2","Q13":"1","Q10":"3","Q11":"3","Q05":"3"},"rt":218330.5599999985,"survey":"7up7down","trial_type":"survey-template","trial_index":2,"time_elapsed":311303,"internal_node_id":"0.0-2.0","task_version":"screening-prolific"},{"responses":{"Q13":"2","Q02":"1","Q06":"2","Q12":"3","Q14":"3","Q05":"3","Q08":"3","Q01":"3","Q11":"2","Q07":"1","Q04":"2","Q09":"3","Q15":"0","Q03":"3","Q10":"3"},"rt":69106.11000000063,"survey":"shaps","trial_type":"survey-template","trial_index":3,"time_elapsed":380439,"internal_node_id":"0.0-3.0","task_version":"screening-prolific"},{"responses":{"Q03":"4","Q01":"4","Q02":"4"},"rt":17792.7600000003,"survey":"pswq","trial_type":"survey-template","trial_index":4,"time_elapsed":398261,"internal_node_id":"0.0-4.0","task_version":"screening-prolific"},{"view_history":"[{\"page_index\":0,\"viewing_time\":5167.9650000005495},{\"page_index\":1,\"viewing_time\":6547.934999998717},{\"page_index\":2,\"viewing_time\":8629.909999999625},{\"page_index\":3,\"viewing_time\":2700.3800000021},{\"page_index\":4,\"viewing_time\":6005.430000001041},{\"page_index\":5,\"viewing_time\":3379.8299999980372},{\"page_index\":6,\"viewing_time\":9402.225000001607},{\"page_index\":7,\"viewing_time\":9403.259999999194}]","rt":51238.95500000077,"trial_type":"instructions","trial_index":5,"time_elapsed":449519,"internal_node_id":"0.0-5.0-0.0","task_version":"screening-prolific"},{"responses":["True","True","False","False","True"],"num_errors":0,"rt":33186.689999998605,"trial_type":"three-arm-comprehension","trial_index":6,"time_elapsed":482720,"internal_node_id":"0.0-5.0-1.0","task_version":"screening-prolific"},{"view_history":"[{\"page_index\":0,\"viewing_time\":4326.665000000503}]","rt":4328.140000001469,"trial_type":"instructions","trial_index":7,"time_elapsed":487081,"internal_node_id":"0.0-6.0","task_version":"screening-prolific"},{"contexts":["blue","green","red"],"outcomes":[1,0,0],"key":37,"choice":0,"rt":3305.244999999588,"outcome":1,"trial":1,"correct":1,"trial_type":"three-arm-trial","trial_index":8,"time_elapsed":491614,"internal_node_id":"0.0-7.0-0.0","task_version":"screening-prolific","missing":false,"accuracy":0},{"contexts":["blue","green","red"],"outcomes":[1,0,0],"key":38,"choice":1,"rt":110.92000000277767,"outcome":0,"trial":2,"correct":1,"trial_type":"three-arm-trial","trial_index":9,"time_elapsed":492961,"internal_node_id":"0.0-8.0-0.0","task_version":"screening-prolific","missing":false,"accuracy":1},{"contexts":["blue","green","red"],"outcomes":[0,1,0],"key":37,"choice":0,"rt":95.28999999747612,"outcome":0,"trial":3,"correct":1,"trial_type":"three-arm-trial","trial_index":10,"time_elapsed":494277,"internal_node_id":"0.0-9.0-0.0","task_version":"screening-prolific","missing":false,"accuracy":0},{"contexts":["blue","green","red"],"outcomes":[0,0,0],"key":39,"choice":2,"rt":762.0250000000233,"outcome":0,"trial":4,"correct":1,"trial_type":"three-arm-trial","trial_index":11,"time_elapsed":496261,"internal_node_id":"0.0-10.0-0.0","task_version":"screening-prolific","missing":false,"accuracy":0},{"contexts":["blue","green","red"],"outcomes":[1,1,1],"key":38,"choice":1,"rt":2015.1350000014063,"outcome":1,"trial":5,"correct":1,"trial_type":"three-arm-trial","trial_index":12,"time_elapsed":499503,"internal_node_id":"0.0-11.0-0.0","task_version":"screening-prolific","missing":false,"accuracy":1},{"contexts":["blue","green","red"],"outcomes":[1,1,0],"key":39,"choice":2,"rt":2215.105000003008,"outcome":0,"trial":6,"correct":1,"trial_type":"three-arm-trial","trial_index":13,"time_elapsed":502949,"internal_node_id":"0.0-12.0-0.0","task_version":"screening-prolific","missing":false,"accuracy":0},{"contexts":["blue","green","red"],"outcomes":[0,1,0],"key":37,"choice":0,"rt":1083.5549999974319,"outcome":0,"trial":7,"correct":1,"trial_type":"three-arm-trial","trial_index":14,"time_elapsed":505257,"internal_node_id":"0.0-13.0-0.0","task_version":"screening-prolific","missing":false,"accuracy":0},{"contexts":["blue","green","red"],"outcomes":[0,1,0],"key":39,"choice":2,"rt":1567.930000001099,"outcome":0,"trial":8,"correct":1,"trial_type":"three-arm-trial","trial_index":15,"time_elapsed":508045,"internal_node_id":"0.0-14.0-0.0","task_version":"screening-prolific","missing":false,"accuracy":0},{"contexts":["blue","green","red"],"outcomes":[0,1,0],"key":38,"choice":1,"rt":554.3399999988033,"outcome":1,"trial":9,"correct":1,"trial_type":"three-arm-trial","trial_index":16,"time_elapsed":509825,"internal_node_id":"0.0-15.0-0.0","task_version":"screening-prolific","missing":false,"accuracy":1},{"contexts":["blue","green","red"],"outcomes":[0,1,0],"key":38,"choice":1,"rt":404.1499999985099,"outcome":1,"trial":10,"correct":1,"trial_type":"three-arm-trial","trial_index":17,"time_elapsed":511445,"internal_node_id":"0.0-16.0-0.0","task_version":"screening-prolific","missing":false,"accuracy":1},{"contexts":["blue","green","red"],"outcomes":[1,1,0],"key":38,"choice":1,"rt":411.60999999922933,"outcome":1,"trial":11,"correct":1,"trial_type":"three-arm-trial","trial_index":18,"time_elapsed":513077,"internal_node_id":"0.0-17.0-0.0","task_version":"screening-prolific","missing":false,"accuracy":1},{"contexts":["blue","green","red"],"outcomes":[0,1,0],"key":38,"choice":1,"rt":353.10500000196043,"outcome":1,"trial":12,"correct":1,"trial_type":"three-arm-trial","trial_index":19,"time_elapsed":514657,"internal_node_id":"0.0-18.0-0.0","task_version":"screening-prolific","missing":false,"accuracy":1},{"contexts":["blue","green","red"],"outcomes":[1,1,0],"key":38,"choice":1,"rt":423.69500000128755,"outcome":1,"trial":13,"correct":1,"trial_type":"three-arm-trial","trial_index":20,"time_elapsed":516319,"internal_node_id":"0.0-19.0-0.0","task_version":"screening-prolific","missing":false,"accuracy":1},{"contexts":["blue","green","red"],"outcomes":[0,1,1],"key":38,"choice":1,"rt":301.579999999376,"outcome":1,"trial":14,"correct":1,"trial_type":"three-arm-trial","trial_index":21,"time_elapsed":517845,"internal_node_id":"0.0-20.0-0.0","task_version":"screening-prolific","missing":false,"accuracy":1},{"contexts":["blue","green","red"],"outcomes":[0,1,0],"key":38,"choice":1,"rt":360.7300000003306,"outcome":1,"trial":15,"correct":1,"trial_type":"three-arm-trial","trial_index":22,"time_elapsed":519429,"internal_node_id":"0.0-21.0-0.0","task_version":"screening-prolific","missing":false,"accuracy":1},{"contexts":["blue","green","red"],"outcomes":[1,1,0],"key":38,"choice":1,"rt":377.17499999777647,"outcome":1,"trial":16,"correct":0,"trial_type":"three-arm-trial","trial_index":23,"time_elapsed":521029,"internal_node_id":"0.0-22.0-0.0","task_version":"screening-prolific","missing":false,"accuracy":0},{"contexts":["blue","green","red"],"outcomes":[1,0,0],"key":38,"choice":1,"rt":425.91999999783,"outcome":0,"trial":17,"correct":0,"trial_type":"three-arm-trial","trial_index":24,"time_elapsed":522703,"internal_node_id":"0.0-23.0-0.0","task_version":"screening-prolific","missing":false,"accuracy":0},{"contexts":["blue","green","red"],"outcomes":[0,0,1],"key":37,"choice":0,"rt":453.7899999995716,"outcome":0,"trial":18,"correct":0,"trial_type":"three-arm-trial","trial_index":25,"time_elapsed":524399,"internal_node_id":"0.0-24.0-0.0","task_version":"screening-prolific","missing":false,"accuracy":1},{"contexts":["blue","green","red"],"outcomes":[1,0,0],"key":38,"choice":1,"rt":490.8800000011688,"outcome":0,"trial":19,"correct":0,"trial_type":"three-arm-trial","trial_index":26,"time_elapsed":526154,"internal_node_id":"0.0-25.0-0.0","task_version":"screening-prolific","missing":false,"accuracy":0},{"contexts":["blue","green","red"],"outcomes":[1,0,0],"key":39,"choice":2,"rt":852.435000000638,"outcome":0,"trial":20,"correct":0,"trial_type":"three-arm-trial","trial_index":27,"time_elapsed":528242,"internal_node_id":"0.0-26.0-0.0","task_version":"screening-prolific","missing":false,"accuracy":0},{"contexts":["blue","green","red"],"outcomes":[1,0,0],"key":38,"choice":1,"rt":368.02000000164844,"outcome":0,"trial":21,"correct":0,"trial_type":"three-arm-trial","trial_index":28,"time_elapsed":529830,"internal_node_id":"0.0-27.0-0.0","task_version":"screening-prolific","missing":false,"accuracy":0},{"contexts":["blue","green","red"],"outcomes":[1,0,0],"key":38,"choice":1,"rt":447.56499999854714,"outcome":0,"trial":22,"correct":0,"trial_type":"three-arm-trial","trial_index":29,"time_elapsed":531508,"internal_node_id":"0.0-28.0-0.0","task_version":"screening-prolific","missing":false,"accuracy":0},{"contexts":["blue","green","red"],"outcomes":[1,0,0],"key":37,"choice":0,"rt":361.3949999999022,"outcome":1,"trial":23,"correct":0,"trial_type":"three-arm-trial","trial_index":30,"time_elapsed":533096,"internal_node_id":"0.0-29.0-0.0","task_version":"screening-prolific","missing":false,"accuracy":1},{"contexts":["blue","green","red"],"outcomes":[1,1,0],"key":37,"choice":0,"rt":8123.550000000279,"outcome":1,"trial":24,"correct":0,"trial_type":"three-arm-trial","trial_index":31,"time_elapsed":542445,"internal_node_id":"0.0-30.0-0.0","task_version":"screening-prolific","missing":false,"accuracy":1},{"contexts":["blue","green","red"],"outcomes":[1,1,0],"key":37,"choice":0,"rt":567.4199999994598,"outcome":1,"trial":25,"correct":0,"trial_type":"three-arm-trial","trial_index":32,"time_elapsed":544241,"internal_node_id":"0.0-31.0-0.0","task_version":"screening-prolific","missing":false,"accuracy":1},{"contexts":["blue","green","red"],"outcomes":[1,0,0],"key":37,"choice":0,"rt":419.2849999999162,"outcome":1,"trial":26,"correct":0,"trial_type":"three-arm-trial","trial_index":33,"time_elapsed":545888,"internal_node_id":"0.0-32.0-0.0","task_version":"screening-prolific","missing":false,"accuracy":1},{"contexts":["blue","green","red"],"outcomes":[1,0,0],"key":37,"choice":0,"rt":404.7850000024773,"outcome":1,"trial":27,"correct":0,"trial_type":"three-arm-trial","trial_index":34,"time_elapsed":547516,"internal_node_id":"0.0-33.0-0.0","task_version":"screening-prolific","missing":false,"accuracy":1},{"contexts":["blue","green","red"],"outcomes":[1,1,0],"key":37,"choice":0,"rt":579.9699999989243,"outcome":1,"trial":28,"correct":0,"trial_type":"three-arm-trial","trial_index":35,"time_elapsed":549335,"internal_node_id":"0.0-34.0-0.0","task_version":"screening-prolific","missing":false,"accuracy":1},{"contexts":["blue","green","red"],"outcomes":[1,0,0],"key":37,"choice":0,"rt":483.16500000155065,"outcome":1,"trial":29,"correct":0,"trial_type":"three-arm-trial","trial_index":36,"time_elapsed":551053,"internal_node_id":"0.0-35.0-0.0","task_version":"screening-prolific","missing":false,"accuracy":1},{"contexts":["blue","green","red"],"outcomes":[1,0,0],"key":37,"choice":0,"rt":408.4599999987986,"outcome":1,"trial":30,"correct":0,"trial_type":"three-arm-trial","trial_index":37,"time_elapsed":552709,"internal_node_id":"0.0-36.0-0.0","task_version":"screening-prolific","missing":false,"accuracy":1},{"contexts":["blue","green","red"],"outcomes":[0,1,0],"key":37,"choice":0,"rt":591.2250000000931,"outcome":0,"trial":31,"correct":1,"trial_type":"three-arm-trial","trial_index":38,"time_elapsed":554537,"internal_node_id":"0.0-37.0-0.0","task_version":"screening-prolific","missing":false,"accuracy":0},{"contexts":["blue","green","red"],"outcomes":[0,1,0],"key":38,"choice":1,"rt":447.4099999970058,"outcome":1,"trial":32,"correct":1,"trial_type":"three-arm-trial","trial_index":39,"time_elapsed":556209,"internal_node_id":"0.0-38.0-0.0","task_version":"screening-prolific","missing":false,"accuracy":1},{"contexts":["blue","green","red"],"outcomes":[0,0,0],"key":39,"choice":2,"rt":8858.2150000002,"outcome":0,"trial":33,"correct":1,"trial_type":"three-arm-trial","trial_index":40,"time_elapsed":566291,"internal_node_id":"0.0-39.0-0.0","task_version":"screening-prolific","missing":false,"accuracy":0},{"contexts":["blue","green","red"],"outcomes":[0,1,0],"key":38,"choice":1,"rt":536.9699999974109,"outcome":1,"trial":34,"correct":1,"trial_type":"three-arm-trial","trial_index":41,"time_elapsed":568051,"internal_node_id":"0.0-40.0-0.0","task_version":"screening-prolific","missing":false,"accuracy":1},{"contexts":["blue","green","red"],"outcomes":[1,1,0],"key":38,"choice":1,"rt":1937.5,"outcome":1,"trial":35,"correct":1,"trial_type":"three-arm-trial","trial_index":42,"time_elapsed":571214,"internal_node_id":"0.0-41.0-0.0","task_version":"screening-prolific","missing":false,"accuracy":1},{"contexts":["blue","green","red"],"outcomes":[0,1,1],"key":38,"choice":1,"rt":149.39500000036787,"outcome":1,"trial":36,"correct":1,"trial_type":"three-arm-trial","trial_index":43,"time_elapsed":572585,"internal_node_id":"0.0-42.0-0.0","task_version":"screening-prolific","missing":false,"accuracy":1},{"contexts":["blue","green","red"],"outcomes":[0,1,0],"key":38,"choice":1,"rt":451.48500000149943,"outcome":1,"trial":37,"correct":1,"trial_type":"three-arm-trial","trial_index":44,"time_elapsed":574276,"internal_node_id":"0.0-43.0-0.0","task_version":"screening-prolific","missing":false,"accuracy":1},{"contexts":["blue","green","red"],"outcomes":[0,0,0],"key":38,"choice":1,"rt":25.969999998807907,"outcome":0,"trial":38,"correct":1,"trial_type":"three-arm-trial","trial_index":45,"time_elapsed":575535,"internal_node_id":"0.0-44.0-0.0","task_version":"screening-prolific","missing":false,"accuracy":1},{"contexts":["blue","green","red"],"outcomes":[0,1,0],"key":37,"choice":0,"rt":361.46999999985565,"outcome":0,"trial":39,"correct":1,"trial_type":"three-arm-trial","trial_index":46,"time_elapsed":577123,"internal_node_id":"0.0-45.0-0.0","task_version":"screening-prolific","missing":false,"accuracy":0},{"contexts":["blue","green","red"],"outcomes":[0,1,0],"key":38,"choice":1,"rt":148.8550000031246,"outcome":1,"trial":40,"correct":1,"trial_type":"three-arm-trial","trial_index":47,"time_elapsed":578491,"internal_node_id":"0.0-46.0-0.0","task_version":"screening-prolific","missing":false,"accuracy":1},{"contexts":["blue","green","red"],"outcomes":[0,1,0],"key":38,"choice":1,"rt":81.57999999821186,"outcome":1,"trial":41,"correct":1,"trial_type":"three-arm-trial","trial_index":48,"time_elapsed":579799,"internal_node_id":"0.0-47.0-0.0","task_version":"screening-prolific","missing":false,"accuracy":1},{"contexts":["blue","green","red"],"outcomes":[0,1,0],"key":38,"choice":1,"rt":304.4499999997206,"outcome":1,"trial":42,"correct":1,"trial_type":"three-arm-trial","trial_index":49,"time_elapsed":581323,"internal_node_id":"0.0-48.0-0.0","task_version":"screening-prolific","missing":false,"accuracy":1},{"contexts":["blue","green","red"],"outcomes":[0,1,1],"key":38,"choice":1,"rt":730.300000002957,"outcome":1,"trial":43,"correct":1,"trial_type":"three-arm-trial","trial_index":50,"time_elapsed":583275,"internal_node_id":"0.0-49.0-0.0","task_version":"screening-prolific","missing":false,"accuracy":1},{"contexts":["blue","green","red"],"outcomes":[0,0,1],"key":38,"choice":1,"rt":482.7450000011595,"outcome":0,"trial":44,"correct":1,"trial_type":"three-arm-trial","trial_index":51,"time_elapsed":584981,"internal_node_id":"0.0-50.0-0.0","task_version":"screening-prolific","missing":false,"accuracy":1},{"contexts":["blue","green","red"],"outcomes":[0,0,0],"key":39,"choice":2,"rt":3019.2600000009406,"outcome":0,"trial":45,"correct":1,"trial_type":"three-arm-trial","trial_index":52,"time_elapsed":589232,"internal_node_id":"0.0-51.0-0.0","task_version":"screening-prolific","missing":false,"accuracy":0},{"contexts":["blue","green","red"],"outcomes":[0,0,1],"key":38,"choice":1,"rt":313.5949999995064,"outcome":0,"trial":46,"correct":2,"trial_type":"three-arm-trial","trial_index":53,"time_elapsed":590771,"internal_node_id":"0.0-52.0-0.0","task_version":"screening-prolific","missing":false,"accuracy":0},{"contexts":["blue","green","red"],"outcomes":[0,0,0],"key":37,"choice":0,"rt":548.4850000030128,"outcome":0,"trial":47,"correct":2,"trial_type":"three-arm-trial","trial_index":54,"time_elapsed":592539,"internal_node_id":"0.0-53.0-0.0","task_version":"screening-prolific","missing":false,"accuracy":0},{"contexts":["blue","green","red"],"outcomes":[0,1,1],"key":38,"choice":1,"rt":219.31499999843072,"outcome":1,"trial":48,"correct":2,"trial_type":"three-arm-trial","trial_index":55,"time_elapsed":593988,"internal_node_id":"0.0-54.0-0.0","task_version":"screening-prolific","missing":false,"accuracy":0},{"contexts":["blue","green","red"],"outcomes":[0,0,0],"key":38,"choice":1,"rt":408.500000001397,"outcome":0,"trial":49,"correct":2,"trial_type":"three-arm-trial","trial_index":56,"time_elapsed":595637,"internal_node_id":"0.0-55.0-0.0","task_version":"screening-prolific","missing":false,"accuracy":0},{"contexts":["blue","green","red"],"outcomes":[0,0,1],"key":38,"choice":1,"rt":369.42500000074506,"outcome":0,"trial":50,"correct":2,"trial_type":"three-arm-trial","trial_index":57,"time_elapsed":597247,"internal_node_id":"0.0-56.0-0.0","task_version":"screening-prolific","missing":false,"accuracy":0},{"contexts":["blue","green","red"],"outcomes":[0,0,1],"key":37,"choice":0,"rt":738.6399999995483,"outcome":0,"trial":51,"correct":2,"trial_type":"three-arm-trial","trial_index":58,"time_elapsed":599218,"internal_node_id":"0.0-57.0-0.0","task_version":"screening-prolific","missing":false,"accuracy":0},{"contexts":["blue","green","red"],"outcomes":[0,0,0],"key":38,"choice":1,"rt":128.89999999967404,"outcome":0,"trial":52,"correct":2,"trial_type":"three-arm-trial","trial_index":59,"time_elapsed":600572,"internal_node_id":"0.0-58.0-0.0","task_version":"screening-prolific","missing":false,"accuracy":0},{"contexts":["blue","green","red"],"outcomes":[0,0,0],"key":39,"choice":2,"rt":747.6649999989895,"outcome":0,"trial":53,"correct":2,"trial_type":"three-arm-trial","trial_index":60,"time_elapsed":602556,"internal_node_id":"0.0-59.0-0.0","task_version":"screening-prolific","missing":false,"accuracy":1},{"contexts":["blue","green","red"],"outcomes":[0,0,0],"key":38,"choice":1,"rt":396.67499999993015,"outcome":0,"trial":54,"correct":2,"trial_type":"three-arm-trial","trial_index":61,"time_elapsed":604173,"internal_node_id":"0.0-60.0-0.0","task_version":"screening-prolific","missing":false,"accuracy":0},{"contexts":["blue","green","red"],"outcomes":[0,1,1],"key":38,"choice":1,"rt":3093.8199999982025,"outcome":1,"trial":55,"correct":2,"trial_type":"three-arm-trial","trial_index":62,"time_elapsed":608499,"internal_node_id":"0.0-61.0-0.0","task_version":"screening-prolific","missing":false,"accuracy":0},{"contexts":["blue","green","red"],"outcomes":[0,1,1],"key":38,"choice":1,"rt":480.2750000016531,"outcome":1,"trial":56,"correct":2,"trial_type":"three-arm-trial","trial_index":63,"time_elapsed":610206,"internal_node_id":"0.0-62.0-0.0","task_version":"screening-prolific","missing":false,"accuracy":0},{"contexts":["blue","green","red"],"outcomes":[0,0,1],"key":38,"choice":1,"rt":413.6999999973923,"outcome":0,"trial":57,"correct":2,"trial_type":"three-arm-trial","trial_index":64,"time_elapsed":611858,"internal_node_id":"0.0-63.0-0.0","task_version":"screening-prolific","missing":false,"accuracy":0},{"contexts":["blue","green","red"],"outcomes":[1,0,1],"key":38,"choice":1,"rt":7192.549999999697,"outcome":0,"trial":58,"correct":2,"trial_type":"three-arm-trial","trial_index":65,"time_elapsed":620283,"internal_node_id":"0.0-64.0-0.0","task_version":"screening-prolific","missing":false,"accuracy":0},{"contexts":["blue","green","red"],"outcomes":[1,1,1],"key":38,"choice":1,"rt":4799.484999999637,"outcome":1,"trial":59,"correct":2,"trial_type":"three-arm-trial","trial_index":66,"time_elapsed":626315,"internal_node_id":"0.0-65.0-0.0","task_version":"screening-prolific","missing":false,"accuracy":0},{"contexts":["blue","green","red"],"outcomes":[0,0,0],"key":37,"choice":0,"rt":820.1200000003446,"outcome":0,"trial":60,"correct":2,"trial_type":"three-arm-trial","trial_index":67,"time_elapsed":628362,"internal_node_id":"0.0-66.0-0.0","task_version":"screening-prolific","missing":false,"accuracy":0},{"contexts":["blue","green","red"],"outcomes":[0,0,0],"key":38,"choice":1,"rt":1047.4099999992177,"outcome":0,"trial":61,"correct":1,"trial_type":"three-arm-trial","trial_index":68,"time_elapsed":630638,"internal_node_id":"0.0-67.0-0.0","task_version":"screening-prolific","missing":false,"accuracy":1},{"contexts":["blue","green","red"],"outcomes":[1,1,0],"key":38,"choice":1,"rt":5895.564999998896,"outcome":1,"trial":62,"correct":1,"trial_type":"three-arm-trial","trial_index":69,"time_elapsed":637777,"internal_node_id":"0.0-68.0-0.0","task_version":"screening-prolific","missing":false,"accuracy":1},{"contexts":["blue","green","red"],"outcomes":[1,1,0],"key":38,"choice":1,"rt":471.67999999865424,"outcome":1,"trial":63,"correct":1,"trial_type":"three-arm-trial","trial_index":70,"time_elapsed":639500,"internal_node_id":"0.0-69.0-0.0","task_version":"screening-prolific","missing":false,"accuracy":1},{"contexts":["blue","green","red"],"outcomes":[0,1,1],"key":38,"choice":1,"rt":434.3399999997346,"outcome":1,"trial":64,"correct":1,"trial_type":"three-arm-trial","trial_index":71,"time_elapsed":641161,"internal_node_id":"0.0-70.0-0.0","task_version":"screening-prolific","missing":false,"accuracy":1},{"contexts":["blue","green","red"],"outcomes":[0,1,0],"key":38,"choice":1,"rt":382.37999999918975,"outcome":1,"trial":65,"correct":1,"trial_type":"three-arm-trial","trial_index":72,"time_elapsed":642768,"internal_node_id":"0.0-71.0-0.0","task_version":"screening-prolific","missing":false,"accuracy":1},{"contexts":["blue","green","red"],"outcomes":[0,1,1],"key":39,"choice":2,"rt":584.0949999983422,"outcome":1,"trial":66,"correct":1,"trial_type":"three-arm-trial","trial_index":73,"time_elapsed":644583,"internal_node_id":"0.0-72.0-0.0","task_version":"screening-prolific","missing":false,"accuracy":0},{"contexts":["blue","green","red"],"outcomes":[0,0,0],"key":39,"choice":2,"rt":486.11000000173226,"outcome":0,"trial":67,"correct":1,"trial_type":"three-arm-trial","trial_index":74,"time_elapsed":646313,"internal_node_id":"0.0-73.0-0.0","task_version":"screening-prolific","missing":false,"accuracy":0},{"contexts":["blue","green","red"],"outcomes":[0,1,0],"key":38,"choice":1,"rt":513.6649999985239,"outcome":1,"trial":68,"correct":1,"trial_type":"three-arm-trial","trial_index":75,"time_elapsed":648061,"internal_node_id":"0.0-74.0-0.0","task_version":"screening-prolific","missing":false,"accuracy":1},{"contexts":["blue","green","red"],"outcomes":[0,1,0],"key":38,"choice":1,"rt":304.9399999981979,"outcome":1,"trial":69,"correct":1,"trial_type":"three-arm-trial","trial_index":76,"time_elapsed":649598,"internal_node_id":"0.0-75.0-0.0","task_version":"screening-prolific","missing":false,"accuracy":1},{"contexts":["blue","green","red"],"outcomes":[0,1,0],"key":38,"choice":1,"rt":205.46499999903608,"outcome":1,"trial":70,"correct":1,"trial_type":"three-arm-trial","trial_index":77,"time_elapsed":651033,"internal_node_id":"0.0-76.0-0.0","task_version":"screening-prolific","missing":false,"accuracy":1},{"contexts":["blue","green","red"],"outcomes":[0,0,0],"key":38,"choice":1,"rt":376.4999999983702,"outcome":0,"trial":71,"correct":1,"trial_type":"three-arm-trial","trial_index":78,"time_elapsed":652632,"internal_node_id":"0.0-77.0-0.0","task_version":"screening-prolific","missing":false,"accuracy":1},{"contexts":["blue","green","red"],"outcomes":[0,1,0],"key":38,"choice":1,"rt":6505.795000000973,"outcome":1,"trial":72,"correct":1,"trial_type":"three-arm-trial","trial_index":79,"time_elapsed":660359,"internal_node_id":"0.0-78.0-0.0","task_version":"screening-prolific","missing":false,"accuracy":1},{"contexts":["blue","green","red"],"outcomes":[1,1,0],"key":38,"choice":1,"rt":183.01500000234228,"outcome":1,"trial":73,"correct":1,"trial_type":"three-arm-trial","trial_index":80,"time_elapsed":661777,"internal_node_id":"0.0-79.0-0.0","task_version":"screening-prolific","missing":false,"accuracy":1},{"contexts":["blue","green","red"],"outcomes":[0,1,0],"key":38,"choice":1,"rt":140.99500000162516,"outcome":1,"trial":74,"correct":1,"trial_type":"three-arm-trial","trial_index":81,"time_elapsed":663148,"internal_node_id":"0.0-80.0-0.0","task_version":"screening-prolific","missing":false,"accuracy":1},{"contexts":["blue","green","red"],"outcomes":[0,1,1],"key":38,"choice":1,"rt":548.3449999992736,"outcome":1,"trial":75,"correct":1,"trial_type":"three-arm-trial","trial_index":82,"time_elapsed":664918,"internal_node_id":"0.0-81.0-0.0","task_version":"screening-prolific","missing":false,"accuracy":1},{"contexts":["blue","green","red"],"outcomes":[1,1,0],"key":38,"choice":1,"rt":373.0299999988638,"outcome":1,"trial":76,"correct":0,"trial_type":"three-arm-trial","trial_index":83,"time_elapsed":666516,"internal_node_id":"0.0-82.0-0.0","task_version":"screening-prolific","missing":false,"accuracy":0},{"contexts":["blue","green","red"],"outcomes":[1,0,1],"key":38,"choice":1,"rt":397.51999999862164,"outcome":0,"trial":77,"correct":0,"trial_type":"three-arm-trial","trial_index":84,"time_elapsed":668134,"internal_node_id":"0.0-83.0-0.0","task_version":"screening-prolific","missing":false,"accuracy":0},{"contexts":["blue","green","red"],"outcomes":[1,0,1],"key":37,"choice":0,"rt":2587.1899999983143,"outcome":1,"trial":78,"correct":0,"trial_type":"three-arm-trial","trial_index":85,"time_elapsed":671948,"internal_node_id":"0.0-84.0-0.0","task_version":"screening-prolific","missing":false,"accuracy":1},{"contexts":["blue","green","red"],"outcomes":[1,1,0],"key":37,"choice":0,"rt":696.4200000002747,"outcome":1,"trial":79,"correct":0,"trial_type":"three-arm-trial","trial_index":86,"time_elapsed":673872,"internal_node_id":"0.0-85.0-0.0","task_version":"screening-prolific","missing":false,"accuracy":1},{"contexts":["blue","green","red"],"outcomes":[1,0,0],"key":37,"choice":0,"rt":337.52999999711756,"outcome":1,"trial":80,"correct":0,"trial_type":"three-arm-trial","trial_index":87,"time_elapsed":675448,"internal_node_id":"0.0-86.0-0.0","task_version":"screening-prolific","missing":false,"accuracy":1},{"contexts":["blue","green","red"],"outcomes":[1,0,0],"key":37,"choice":0,"rt":46.8299999992596,"outcome":1,"trial":81,"correct":0,"trial_type":"three-arm-trial","trial_index":88,"time_elapsed":676715,"internal_node_id":"0.0-87.0-0.0","task_version":"screening-prolific","missing":false,"accuracy":1},{"contexts":["blue","green","red"],"outcomes":[0,0,0],"key":37,"choice":0,"rt":550.8349999982165,"outcome":0,"trial":82,"correct":0,"trial_type":"three-arm-trial","trial_index":89,"time_elapsed":678488,"internal_node_id":"0.0-88.0-0.0","task_version":"screening-prolific","missing":false,"accuracy":1},{"contexts":["blue","green","red"],"outcomes":[1,0,0],"key":38,"choice":1,"rt":304,"outcome":0,"trial":83,"correct":0,"trial_type":"three-arm-trial","trial_index":90,"time_elapsed":680029,"internal_node_id":"0.0-89.0-0.0","task_version":"screening-prolific","missing":false,"accuracy":0},{"contexts":["blue","green","red"],"outcomes":[1,1,1],"key":39,"choice":2,"rt":2527.640000000247,"outcome":1,"trial":84,"correct":0,"trial_type":"three-arm-trial","trial_index":91,"time_elapsed":683784,"internal_node_id":"0.0-90.0-0.0","task_version":"screening-prolific","missing":false,"accuracy":0},{"contexts":["blue","green","red"],"outcomes":[1,0,1],"key":39,"choice":2,"rt":146.67499999993015,"outcome":1,"trial":85,"correct":0,"trial_type":"three-arm-trial","trial_index":92,"time_elapsed":685152,"internal_node_id":"0.0-91.0-0.0","task_version":"screening-prolific","missing":false,"accuracy":0},{"contexts":["blue","green","red"],"outcomes":[1,0,0],"key":39,"choice":2,"rt":525.740000000922,"outcome":0,"trial":86,"correct":0,"trial_type":"three-arm-trial","trial_index":93,"time_elapsed":686914,"internal_node_id":"0.0-92.0-0.0","task_version":"screening-prolific","missing":false,"accuracy":0},{"contexts":["blue","green","red"],"outcomes":[1,0,0],"key":38,"choice":1,"rt":2897.7149999991525,"outcome":0,"trial":87,"correct":0,"trial_type":"three-arm-trial","trial_index":94,"time_elapsed":691032,"internal_node_id":"0.0-93.0-0.0","task_version":"screening-prolific","missing":false,"accuracy":0},{"contexts":["blue","green","red"],"outcomes":[0,0,0],"key":37,"choice":0,"rt":738.5800000011222,"outcome":0,"trial":88,"correct":0,"trial_type":"three-arm-trial","trial_index":95,"time_elapsed":692995,"internal_node_id":"0.0-94.0-0.0","task_version":"screening-prolific","missing":false,"accuracy":1},{"contexts":["blue","green","red"],"outcomes":[0,1,0],"key":38,"choice":1,"rt":1098.7000000022817,"outcome":1,"trial":89,"correct":0,"trial_type":"three-arm-trial","trial_index":96,"time_elapsed":695320,"internal_node_id":"0.0-95.0-0.0","task_version":"screening-prolific","missing":false,"accuracy":0},{"contexts":["blue","green","red"],"outcomes":[1,0,0],"key":38,"choice":1,"rt":690.2399999998743,"outcome":0,"trial":90,"correct":0,"trial_type":"three-arm-trial","trial_index":97,"time_elapsed":697247,"internal_node_id":"0.0-96.0-0.0","task_version":"screening-prolific","missing":false,"accuracy":0},{"rt":27486.93999999878,"responses":{"age":"19","gender-categorical":"Female","gender-free-response":"","ethnicity":"Not Hispanic or Latino","race":["White"],"language":"Yes","fluency":"Very well","mturk":"No","mturk-this-study":"No"},"survey":"demographics","trial_type":"survey-demo","trial_index":98,"time_elapsed":724829,"internal_node_id":"0.0-97.0","task_version":"screening-prolific","interactions":"[{\"event\":\"blur\",\"trial\":2,\"time\":184672},{\"event\":\"focus\",\"trial\":2,\"time\":223694}]"}]