[{"responses":{"Q02":"2","Q01":"2","Q03":"1"},"rt":21647.294999915175,"survey":"pswq","trial_type":"survey-template","trial_index":0,"time_elapsed":21658,"internal_node_id":"0.0-0.0","task_version":"screening-prolific"},{"responses":{"Q06":"3","Q12":"3","Q13":"3","Q11":"3","Q09":"3","Q01":"3","Q07":"3","Q10":"2","Q02":"3","Q05":"3","Q14":"3","Q08":"3","Q15":"2","Q04":"3","Q03":"3"},"rt":70035.37500009406,"survey":"shaps","trial_type":"survey-template","trial_index":1,"time_elapsed":91699,"internal_node_id":"0.0-1.0","task_version":"screening-prolific"},{"responses":{"Q04":"0","Q08":"0","Q02":"0","Q07":"0","Q01":"0","Q03":"0","Q06":"0","Q05":"0"},"rt":70966.37999999803,"survey":"gad7","trial_type":"survey-template","trial_index":2,"time_elapsed":162669,"internal_node_id":"0.0-2.0","task_version":"screening-prolific"},{"responses":{"Q14":"0","Q13":"0","Q06":"0","Q08":"0","Q03":"1","Q12":"0","Q05":"0","Q04":"1","Q15":"0","Q01":"1","Q10":"0","Q11":"0","Q02":"0","Q07":"1","Q09":"0"},"rt":204473.9749999717,"survey":"7up7down","trial_type":"survey-template","trial_index":3,"time_elapsed":367147,"internal_node_id":"0.0-3.0","task_version":"screening-prolific"},{"responses":{"Q13":"3","Q09":"1","Q05":"3","Q10":"1","Q03":"2","Q07":"2","Q11":"1","Q08":"2","Q06":"3","Q12":"1","Q01":"1","Q04":"2","Q02":"2"},"rt":91405.049999943,"survey":"bisbas","trial_type":"survey-template","trial_index":4,"time_elapsed":458556,"internal_node_id":"0.0-4.0","task_version":"screening-prolific"},{"view_history":"[{\"page_index\":0,\"viewing_time\":8906.499999924563},{\"page_index\":1,\"viewing_time\":5295.3400000697},{\"page_index\":2,\"viewing_time\":712.0449999347329},{\"page_index\":1,\"viewing_time\":5304.469999973662},{\"page_index\":2,\"viewing_time\":16864.505000063218},{\"page_index\":3,\"viewing_time\":5216.215000022203},{\"page_index\":4,\"viewing_time\":7888.544999994338},{\"page_index\":5,\"viewing_time\":1991.8599999509752},{\"page_index\":6,\"viewing_time\":3456.2450000084937},{\"page_index\":7,\"viewing_time\":3512.11000001058}]","rt":59148.1049999129,"trial_type":"instructions","trial_index":5,"time_elapsed":517707,"internal_node_id":"0.0-5.0-0.0","task_version":"screening-prolific"},{"responses":["True","True","False","True","True"],"num_errors":1,"rt":41024.14500003215,"trial_type":"three-arm-comprehension","trial_index":6,"time_elapsed":558734,"internal_node_id":"0.0-5.0-1.0","task_version":"screening-prolific"},{"view_history":"[{\"page_index\":0,\"viewing_time\":1628.0249999836087},{\"page_index\":1,\"viewing_time\":509.87499998882413},{\"page_index\":2,\"viewing_time\":329.9600000027567},{\"page_index\":3,\"viewing_time\":598.1300000566989},{\"page_index\":4,\"viewing_time\":439.9549999507144},{\"page_index\":5,\"viewing_time\":352.03499998897314},{\"page_index\":6,\"viewing_time\":260.0150000071153},{\"page_index\":7,\"viewing_time\":305.9750000247732}]","rt":4424.245000001974,"trial_type":"instructions","trial_index":7,"time_elapsed":563162,"internal_node_id":"0.0-5.1-0.1","task_version":"screening-prolific"},{"responses":["True","True","True","False","True"],"num_errors":1,"rt":9701.340000028722,"trial_type":"three-arm-comprehension","trial_index":8,"time_elapsed":572866,"internal_node_id":"0.0-5.1-1.1","task_version":"screening-prolific"},{"view_history":"[{\"page_index\":0,\"viewing_time\":1095.5100000137463},{\"page_index\":1,\"viewing_time\":215.97500005736947},{\"page_index\":2,\"viewing_time\":135.92499995138496},{\"page_index\":3,\"viewing_time\":888.124999939464},{\"page_index\":4,\"viewing_time\":143.98500008974224},{\"page_index\":5,\"viewing_time\":143.98499997332692},{\"page_index\":6,\"viewing_time\":144.0500000026077},{\"page_index\":7,\"viewing_time\":128.0399999814108}]","rt":2895.755000063218,"trial_type":"instructions","trial_index":9,"time_elapsed":575765,"internal_node_id":"0.0-5.2-0.2","task_version":"screening-prolific"},{"responses":["True","True","False","True","True"],"num_errors":1,"rt":13491.299999994226,"trial_type":"three-arm-comprehension","trial_index":10,"time_elapsed":589258,"internal_node_id":"0.0-5.2-1.2","task_version":"screening-prolific"},{"view_history":"[{\"page_index\":0,\"viewing_time\":975.7349999854341},{\"page_index\":1,\"viewing_time\":183.97999997250736},{\"page_index\":2,\"viewing_time\":135.81500004511327},{\"page_index\":3,\"viewing_time\":120.02499995287508},{\"page_index\":4,\"viewing_time\":144.1400001058355},{\"page_index\":5,\"viewing_time\":135.8349999645725},{\"page_index\":6,\"viewing_time\":128.05499997921288},{\"page_index\":7,\"viewing_time\":152.1299999440089}]","rt":1975.8750000037253,"trial_type":"instructions","trial_index":11,"time_elapsed":591237,"internal_node_id":"0.0-5.3-0.3","task_version":"screening-prolific"},{"responses":["True","True","False","False","True"],"num_errors":0,"rt":12635.054999962449,"trial_type":"three-arm-comprehension","trial_index":12,"time_elapsed":603875,"internal_node_id":"0.0-5.3-1.3","task_version":"screening-prolific"},{"view_history":"[{\"page_index\":0,\"viewing_time\":1855.5799999739975}]","rt":1855.7599999476224,"trial_type":"instructions","trial_index":13,"time_elapsed":605734,"internal_node_id":"0.0-6.0","task_version":"screening-prolific"},{"contexts":["blue","green","red"],"outcomes":[0,0,0],"key":38,"choice":1,"rt":2750.484999967739,"outcome":0,"trial":1,"correct":1,"trial_type":"three-arm-trial","trial_index":14,"time_elapsed":609689,"internal_node_id":"0.0-7.0-0.0","task_version":"screening-prolific","missing":false,"accuracy":1},{"contexts":["blue","green","red"],"outcomes":[0,0,0],"key":38,"choice":1,"rt":2092.0500000938773,"outcome":0,"trial":2,"correct":1,"trial_type":"three-arm-trial","trial_index":15,"time_elapsed":612983,"internal_node_id":"0.0-8.0-0.0","task_version":"screening-prolific","missing":false,"accuracy":1},{"contexts":["blue","green","red"],"outcomes":[1,1,0],"key":37,"choice":0,"rt":5654.0449999738485,"outcome":1,"trial":3,"correct":1,"trial_type":"three-arm-trial","trial_index":16,"time_elapsed":619840,"internal_node_id":"0.0-9.0-0.0","task_version":"screening-prolific","missing":false,"accuracy":0},{"contexts":["blue","green","red"],"outcomes":[0,0,0],"key":39,"choice":2,"rt":4893.849999993108,"outcome":0,"trial":4,"correct":1,"trial_type":"three-arm-trial","trial_index":17,"time_elapsed":625936,"internal_node_id":"0.0-10.0-0.0","task_version":"screening-prolific","missing":false,"accuracy":0},{"contexts":["blue","green","red"],"outcomes":[1,1,0],"key":38,"choice":1,"rt":52.325000055134296,"outcome":1,"trial":5,"correct":1,"trial_type":"three-arm-trial","trial_index":18,"time_elapsed":627193,"internal_node_id":"0.0-11.0-0.0","task_version":"screening-prolific","missing":false,"accuracy":1},{"contexts":["blue","green","red"],"outcomes":[1,0,1],"key":37,"choice":0,"rt":372.38499999511987,"outcome":1,"trial":6,"correct":1,"trial_type":"three-arm-trial","trial_index":19,"time_elapsed":628768,"internal_node_id":"0.0-12.0-0.0","task_version":"screening-prolific","missing":false,"accuracy":0},{"contexts":["blue","green","red"],"outcomes":[1,1,0],"key":39,"choice":2,"rt":45.440000016242266,"outcome":0,"trial":7,"correct":1,"trial_type":"three-arm-trial","trial_index":20,"time_elapsed":630016,"internal_node_id":"0.0-13.0-0.0","task_version":"screening-prolific","missing":false,"accuracy":0},{"contexts":["blue","green","red"],"outcomes":[0,1,0],"key":38,"choice":1,"rt":61.47499999497086,"outcome":1,"trial":8,"correct":1,"trial_type":"three-arm-trial","trial_index":21,"time_elapsed":631281,"internal_node_id":"0.0-14.0-0.0","task_version":"screening-prolific","missing":false,"accuracy":1},{"contexts":["blue","green","red"],"outcomes":[0,1,0],"key":37,"choice":0,"rt":20.235000061802566,"outcome":0,"trial":9,"correct":1,"trial_type":"three-arm-trial","trial_index":22,"time_elapsed":632505,"internal_node_id":"0.0-15.0-0.0","task_version":"screening-prolific","missing":false,"accuracy":0},{"contexts":["blue","green","red"],"outcomes":[1,0,0],"key":39,"choice":2,"rt":188.41499998234212,"outcome":0,"trial":10,"correct":1,"trial_type":"three-arm-trial","trial_index":23,"time_elapsed":633897,"internal_node_id":"0.0-16.0-0.0","task_version":"screening-prolific","missing":false,"accuracy":0},{"contexts":["blue","green","red"],"outcomes":[0,1,0],"key":38,"choice":1,"rt":141.0850000102073,"outcome":1,"trial":11,"correct":1,"trial_type":"three-arm-trial","trial_index":24,"time_elapsed":635241,"internal_node_id":"0.0-17.0-0.0","task_version":"screening-prolific","missing":false,"accuracy":1},{"contexts":["blue","green","red"],"outcomes":[1,1,1],"key":37,"choice":0,"rt":229.0999999968335,"outcome":1,"trial":12,"correct":1,"trial_type":"three-arm-trial","trial_index":25,"time_elapsed":636673,"internal_node_id":"0.0-18.0-0.0","task_version":"screening-prolific","missing":false,"accuracy":0},{"contexts":["blue","green","red"],"outcomes":[0,1,0],"key":39,"choice":2,"rt":60.97999995108694,"outcome":0,"trial":13,"correct":1,"trial_type":"three-arm-trial","trial_index":26,"time_elapsed":637936,"internal_node_id":"0.0-19.0-0.0","task_version":"screening-prolific","missing":false,"accuracy":0},{"contexts":["blue","green","red"],"outcomes":[0,1,0],"key":38,"choice":1,"rt":29.60999996867031,"outcome":1,"trial":14,"correct":1,"trial_type":"three-arm-trial","trial_index":27,"time_elapsed":639169,"internal_node_id":"0.0-20.0-0.0","task_version":"screening-prolific","missing":false,"accuracy":1},{"contexts":["blue","green","red"],"outcomes":[0,1,0],"key":37,"choice":0,"rt":37.61500003747642,"outcome":0,"trial":15,"correct":1,"trial_type":"three-arm-trial","trial_index":28,"time_elapsed":640409,"internal_node_id":"0.0-21.0-0.0","task_version":"screening-prolific","missing":false,"accuracy":0},{"contexts":["blue","green","red"],"outcomes":[1,1,0],"key":38,"choice":1,"rt":476.98500007390976,"outcome":1,"trial":16,"correct":0,"trial_type":"three-arm-trial","trial_index":29,"time_elapsed":642090,"internal_node_id":"0.0-22.0-0.0","task_version":"screening-prolific","missing":false,"accuracy":0},{"contexts":["blue","green","red"],"outcomes":[1,0,0],"key":39,"choice":2,"rt":51.57000001054257,"outcome":0,"trial":17,"correct":0,"trial_type":"three-arm-trial","trial_index":30,"time_elapsed":643345,"internal_node_id":"0.0-23.0-0.0","task_version":"screening-prolific","missing":false,"accuracy":0},{"contexts":["blue","green","red"],"outcomes":[0,0,0],"key":37,"choice":0,"rt":92.82499994151294,"outcome":0,"trial":18,"correct":0,"trial_type":"three-arm-trial","trial_index":31,"time_elapsed":644641,"internal_node_id":"0.0-24.0-0.0","task_version":"screening-prolific","missing":false,"accuracy":1},{"contexts":["blue","green","red"],"outcomes":[1,0,0],"key":38,"choice":1,"rt":6.129999994300306,"outcome":0,"trial":19,"correct":0,"trial_type":"three-arm-trial","trial_index":32,"time_elapsed":645850,"internal_node_id":"0.0-25.0-0.0","task_version":"screening-prolific","missing":false,"accuracy":0},{"contexts":["blue","green","red"],"outcomes":[1,0,1],"key":37,"choice":0,"rt":20.129999960772693,"outcome":1,"trial":20,"correct":0,"trial_type":"three-arm-trial","trial_index":33,"time_elapsed":647073,"internal_node_id":"0.0-26.0-0.0","task_version":"screening-prolific","missing":false,"accuracy":1},{"contexts":["blue","green","red"],"outcomes":[1,0,1],"key":38,"choice":1,"rt":188.46500001382083,"outcome":0,"trial":21,"correct":0,"trial_type":"three-arm-trial","trial_index":34,"time_elapsed":648466,"internal_node_id":"0.0-27.0-0.0","task_version":"screening-prolific","missing":false,"accuracy":0},{"contexts":["blue","green","red"],"outcomes":[1,0,0],"key":37,"choice":0,"rt":1164.6649999311194,"outcome":1,"trial":22,"correct":0,"trial_type":"three-arm-trial","trial_index":35,"time_elapsed":650833,"internal_node_id":"0.0-28.0-0.0","task_version":"screening-prolific","missing":false,"accuracy":1},{"contexts":["blue","green","red"],"outcomes":[0,1,0],"key":38,"choice":1,"rt":237.2300000861287,"outcome":1,"trial":23,"correct":0,"trial_type":"three-arm-trial","trial_index":36,"time_elapsed":652273,"internal_node_id":"0.0-29.0-0.0","task_version":"screening-prolific","missing":false,"accuracy":0},{"contexts":["blue","green","red"],"outcomes":[0,0,0],"key":37,"choice":0,"rt":709.3950000125915,"outcome":0,"trial":24,"correct":0,"trial_type":"three-arm-trial","trial_index":37,"time_elapsed":654186,"internal_node_id":"0.0-30.0-0.0","task_version":"screening-prolific","missing":false,"accuracy":1},{"contexts":["blue","green","red"],"outcomes":[0,0,0],"key":38,"choice":1,"rt":108.41500002425164,"outcome":0,"trial":25,"correct":0,"trial_type":"three-arm-trial","trial_index":38,"time_elapsed":655498,"internal_node_id":"0.0-31.0-0.0","task_version":"screening-prolific","missing":false,"accuracy":0},{"contexts":["blue","green","red"],"outcomes":[1,0,0],"key":37,"choice":0,"rt":629.0850000223145,"outcome":1,"trial":26,"correct":0,"trial_type":"three-arm-trial","trial_index":39,"time_elapsed":657330,"internal_node_id":"0.0-32.0-0.0","task_version":"screening-prolific","missing":false,"accuracy":1},{"contexts":["blue","green","red"],"outcomes":[1,1,0],"key":39,"choice":2,"rt":44.560000067576766,"outcome":0,"trial":27,"correct":0,"trial_type":"three-arm-trial","trial_index":40,"time_elapsed":658579,"internal_node_id":"0.0-33.0-0.0","task_version":"screening-prolific","missing":false,"accuracy":0},{"contexts":["blue","green","red"],"outcomes":[1,1,0],"key":38,"choice":1,"rt":292.35000000335276,"outcome":1,"trial":28,"correct":0,"trial_type":"three-arm-trial","trial_index":41,"time_elapsed":660074,"internal_node_id":"0.0-34.0-0.0","task_version":"screening-prolific","missing":false,"accuracy":0},{"contexts":["blue","green","red"],"outcomes":[1,0,0],"key":38,"choice":1,"rt":261.32499997038394,"outcome":0,"trial":29,"correct":0,"trial_type":"three-arm-trial","trial_index":42,"time_elapsed":661538,"internal_node_id":"0.0-35.0-0.0","task_version":"screening-prolific","missing":false,"accuracy":0},{"contexts":["blue","green","red"],"outcomes":[0,1,0],"key":38,"choice":1,"rt":77.41000002715737,"outcome":1,"trial":30,"correct":0,"trial_type":"three-arm-trial","trial_index":43,"time_elapsed":662818,"internal_node_id":"0.0-36.0-0.0","task_version":"screening-prolific","missing":false,"accuracy":0},{"contexts":["blue","green","red"],"outcomes":[0,1,0],"key":38,"choice":1,"rt":324.75500006694347,"outcome":1,"trial":31,"correct":1,"trial_type":"three-arm-trial","trial_index":44,"time_elapsed":664347,"internal_node_id":"0.0-37.0-0.0","task_version":"screening-prolific","missing":false,"accuracy":1},{"contexts":["blue","green","red"],"outcomes":[0,1,0],"key":38,"choice":1,"rt":204.51000006869435,"outcome":1,"trial":32,"correct":1,"trial_type":"three-arm-trial","trial_index":45,"time_elapsed":665755,"internal_node_id":"0.0-38.0-0.0","task_version":"screening-prolific","missing":false,"accuracy":1},{"contexts":["blue","green","red"],"outcomes":[0,1,0],"key":37,"choice":0,"rt":268.6450000619516,"outcome":0,"trial":33,"correct":1,"trial_type":"three-arm-trial","trial_index":46,"time_elapsed":667227,"internal_node_id":"0.0-39.0-0.0","task_version":"screening-prolific","missing":false,"accuracy":0},{"contexts":["blue","green","red"],"outcomes":[0,1,0],"key":38,"choice":1,"rt":84.54000006895512,"outcome":1,"trial":34,"correct":1,"trial_type":"three-arm-trial","trial_index":47,"time_elapsed":668514,"internal_node_id":"0.0-40.0-0.0","task_version":"screening-prolific","missing":false,"accuracy":1},{"contexts":["blue","green","red"],"outcomes":[0,1,0],"key":38,"choice":1,"rt":13.64999997895211,"outcome":1,"trial":35,"correct":1,"trial_type":"three-arm-trial","trial_index":48,"time_elapsed":669731,"internal_node_id":"0.0-41.0-0.0","task_version":"screening-prolific","missing":false,"accuracy":1},{"contexts":["blue","green","red"],"outcomes":[0,1,0],"key":38,"choice":1,"rt":60.24499994236976,"outcome":1,"trial":36,"correct":1,"trial_type":"three-arm-trial","trial_index":49,"time_elapsed":670994,"internal_node_id":"0.0-42.0-0.0","task_version":"screening-prolific","missing":false,"accuracy":1},{"contexts":["blue","green","red"],"outcomes":[1,1,0],"key":38,"choice":1,"rt":61.35500001255423,"outcome":1,"trial":37,"correct":1,"trial_type":"three-arm-trial","trial_index":50,"time_elapsed":672258,"internal_node_id":"0.0-43.0-0.0","task_version":"screening-prolific","missing":false,"accuracy":1},{"contexts":["blue","green","red"],"outcomes":[1,1,1],"key":38,"choice":1,"rt":29.93999992031604,"outcome":1,"trial":38,"correct":1,"trial_type":"three-arm-trial","trial_index":51,"time_elapsed":673491,"internal_node_id":"0.0-44.0-0.0","task_version":"screening-prolific","missing":false,"accuracy":1},{"contexts":["blue","green","red"],"outcomes":[0,0,0],"key":38,"choice":1,"rt":301.09999992419034,"outcome":0,"trial":39,"correct":1,"trial_type":"three-arm-trial","trial_index":52,"time_elapsed":674994,"internal_node_id":"0.0-45.0-0.0","task_version":"screening-prolific","missing":false,"accuracy":1},{"contexts":["blue","green","red"],"outcomes":[0,1,0],"key":38,"choice":1,"rt":157.19999989960343,"outcome":1,"trial":40,"correct":1,"trial_type":"three-arm-trial","trial_index":53,"time_elapsed":676355,"internal_node_id":"0.0-46.0-0.0","task_version":"screening-prolific","missing":false,"accuracy":1},{"contexts":["blue","green","red"],"outcomes":[1,1,0],"key":38,"choice":1,"rt":132.8450000146404,"outcome":1,"trial":41,"correct":1,"trial_type":"three-arm-trial","trial_index":54,"time_elapsed":677691,"internal_node_id":"0.0-47.0-0.0","task_version":"screening-prolific","missing":false,"accuracy":1},{"contexts":["blue","green","red"],"outcomes":[1,0,0],"key":38,"choice":1,"rt":405.0099999876693,"outcome":0,"trial":42,"correct":1,"trial_type":"three-arm-trial","trial_index":55,"time_elapsed":679299,"internal_node_id":"0.0-48.0-0.0","task_version":"screening-prolific","missing":false,"accuracy":1},{"contexts":["blue","green","red"],"outcomes":[0,1,1],"key":38,"choice":1,"rt":37.019999930635095,"outcome":1,"trial":43,"correct":1,"trial_type":"three-arm-trial","trial_index":56,"time_elapsed":680538,"internal_node_id":"0.0-49.0-0.0","task_version":"screening-prolific","missing":false,"accuracy":1},{"contexts":["blue","green","red"],"outcomes":[0,0,0],"key":38,"choice":1,"rt":37.86000004038215,"outcome":0,"trial":44,"correct":1,"trial_type":"three-arm-trial","trial_index":57,"time_elapsed":681780,"internal_node_id":"0.0-50.0-0.0","task_version":"screening-prolific","missing":false,"accuracy":1},{"contexts":["blue","green","red"],"outcomes":[0,1,0],"key":37,"choice":0,"rt":12.280000024475157,"outcome":0,"trial":45,"correct":1,"trial_type":"three-arm-trial","trial_index":58,"time_elapsed":682994,"internal_node_id":"0.0-51.0-0.0","task_version":"screening-prolific","missing":false,"accuracy":0},{"contexts":["blue","green","red"],"outcomes":[0,0,1],"key":39,"choice":2,"rt":293.46000007353723,"outcome":1,"trial":46,"correct":2,"trial_type":"three-arm-trial","trial_index":59,"time_elapsed":684491,"internal_node_id":"0.0-52.0-0.0","task_version":"screening-prolific","missing":false,"accuracy":1},{"contexts":["blue","green","red"],"outcomes":[0,0,1],"key":39,"choice":2,"rt":237.36999998800457,"outcome":1,"trial":47,"correct":2,"trial_type":"three-arm-trial","trial_index":60,"time_elapsed":685931,"internal_node_id":"0.0-53.0-0.0","task_version":"screening-prolific","missing":false,"accuracy":1},{"contexts":["blue","green","red"],"outcomes":[0,0,1],"key":39,"choice":2,"rt":213.04499998223037,"outcome":1,"trial":48,"correct":2,"trial_type":"three-arm-trial","trial_index":61,"time_elapsed":687347,"internal_node_id":"0.0-54.0-0.0","task_version":"screening-prolific","missing":false,"accuracy":1},{"contexts":["blue","green","red"],"outcomes":[0,0,0],"key":39,"choice":2,"rt":15.910000074654818,"outcome":0,"trial":49,"correct":2,"trial_type":"three-arm-trial","trial_index":62,"time_elapsed":688566,"internal_node_id":"0.0-55.0-0.0","task_version":"screening-prolific","missing":false,"accuracy":1},{"contexts":["blue","green","red"],"outcomes":[0,0,0],"key":37,"choice":0,"rt":426.00999993737787,"outcome":0,"trial":50,"correct":2,"trial_type":"three-arm-trial","trial_index":63,"time_elapsed":690195,"internal_node_id":"0.0-56.0-0.0","task_version":"screening-prolific","missing":false,"accuracy":0},{"contexts":["blue","green","red"],"outcomes":[0,0,1],"key":38,"choice":1,"rt":29.37999996356666,"outcome":0,"trial":51,"correct":2,"trial_type":"three-arm-trial","trial_index":64,"time_elapsed":691427,"internal_node_id":"0.0-57.0-0.0","task_version":"screening-prolific","missing":false,"accuracy":0},{"contexts":["blue","green","red"],"outcomes":[0,0,1],"key":37,"choice":0,"rt":101.20500007178634,"outcome":0,"trial":52,"correct":2,"trial_type":"three-arm-trial","trial_index":65,"time_elapsed":692732,"internal_node_id":"0.0-58.0-0.0","task_version":"screening-prolific","missing":false,"accuracy":0},{"contexts":["blue","green","red"],"outcomes":[0,0,1],"key":39,"choice":2,"rt":116.85500002931803,"outcome":1,"trial":53,"correct":2,"trial_type":"three-arm-trial","trial_index":66,"time_elapsed":694052,"internal_node_id":"0.0-59.0-0.0","task_version":"screening-prolific","missing":false,"accuracy":1},{"contexts":["blue","green","red"],"outcomes":[0,1,1],"key":39,"choice":2,"rt":60.35499996505678,"outcome":1,"trial":54,"correct":2,"trial_type":"three-arm-trial","trial_index":67,"time_elapsed":695316,"internal_node_id":"0.0-60.0-0.0","task_version":"screening-prolific","missing":false,"accuracy":1},{"contexts":["blue","green","red"],"outcomes":[1,0,1],"key":39,"choice":2,"rt":260.2650000480935,"outcome":1,"trial":55,"correct":2,"trial_type":"three-arm-trial","trial_index":68,"time_elapsed":696779,"internal_node_id":"0.0-61.0-0.0","task_version":"screening-prolific","missing":false,"accuracy":1},{"contexts":["blue","green","red"],"outcomes":[0,0,1],"key":39,"choice":2,"rt":99.34499999508262,"outcome":1,"trial":56,"correct":2,"trial_type":"three-arm-trial","trial_index":69,"time_elapsed":698083,"internal_node_id":"0.0-62.0-0.0","task_version":"screening-prolific","missing":false,"accuracy":1},{"contexts":["blue","green","red"],"outcomes":[1,0,1],"key":39,"choice":2,"rt":405.4699999978766,"outcome":1,"trial":57,"correct":2,"trial_type":"three-arm-trial","trial_index":70,"time_elapsed":699691,"internal_node_id":"0.0-63.0-0.0","task_version":"screening-prolific","missing":false,"accuracy":1},{"contexts":["blue","green","red"],"outcomes":[0,0,1],"key":39,"choice":2,"rt":236.96999996900558,"outcome":1,"trial":58,"correct":2,"trial_type":"three-arm-trial","trial_index":71,"time_elapsed":701132,"internal_node_id":"0.0-64.0-0.0","task_version":"screening-prolific","missing":false,"accuracy":1},{"contexts":["blue","green","red"],"outcomes":[1,0,1],"key":39,"choice":2,"rt":20.194999990053475,"outcome":1,"trial":59,"correct":2,"trial_type":"three-arm-trial","trial_index":72,"time_elapsed":702356,"internal_node_id":"0.0-65.0-0.0","task_version":"screening-prolific","missing":false,"accuracy":1},{"contexts":["blue","green","red"],"outcomes":[0,0,1],"key":39,"choice":2,"rt":397.13499997742474,"outcome":1,"trial":60,"correct":2,"trial_type":"three-arm-trial","trial_index":73,"time_elapsed":703955,"internal_node_id":"0.0-66.0-0.0","task_version":"screening-prolific","missing":false,"accuracy":1},{"contexts":["blue","green","red"],"outcomes":[0,0,0],"key":39,"choice":2,"rt":277.3149999557063,"outcome":0,"trial":61,"correct":0,"trial_type":"three-arm-trial","trial_index":74,"time_elapsed":705435,"internal_node_id":"0.0-67.0-0.0","task_version":"screening-prolific","missing":false,"accuracy":0},{"contexts":["blue","green","red"],"outcomes":[1,0,1],"key":38,"choice":1,"rt":69.18500002939254,"outcome":0,"trial":62,"correct":0,"trial_type":"three-arm-trial","trial_index":75,"time_elapsed":706708,"internal_node_id":"0.0-68.0-0.0","task_version":"screening-prolific","missing":false,"accuracy":0},{"contexts":["blue","green","red"],"outcomes":[0,0,1],"key":37,"choice":0,"rt":108.86000003665686,"outcome":0,"trial":63,"correct":0,"trial_type":"three-arm-trial","trial_index":76,"time_elapsed":708019,"internal_node_id":"0.0-69.0-0.0","task_version":"screening-prolific","missing":false,"accuracy":1},{"contexts":["blue","green","red"],"outcomes":[1,0,0],"key":38,"choice":1,"rt":85.48000000882894,"outcome":0,"trial":64,"correct":0,"trial_type":"three-arm-trial","trial_index":77,"time_elapsed":709307,"internal_node_id":"0.0-70.0-0.0","task_version":"screening-prolific","missing":false,"accuracy":0},{"contexts":["blue","green","red"],"outcomes":[1,0,0],"key":38,"choice":1,"rt":29.280000017024577,"outcome":0,"trial":65,"correct":0,"trial_type":"three-arm-trial","trial_index":78,"time_elapsed":710539,"internal_node_id":"0.0-71.0-0.0","task_version":"screening-prolific","missing":false,"accuracy":0},{"contexts":["blue","green","red"],"outcomes":[1,0,1],"key":39,"choice":2,"rt":189.59500000346452,"outcome":1,"trial":66,"correct":0,"trial_type":"three-arm-trial","trial_index":79,"time_elapsed":711932,"internal_node_id":"0.0-72.0-0.0","task_version":"screening-prolific","missing":false,"accuracy":0},{"contexts":["blue","green","red"],"outcomes":[1,0,0],"key":39,"choice":2,"rt":243.29000001307577,"outcome":0,"trial":67,"correct":0,"trial_type":"three-arm-trial","trial_index":80,"time_elapsed":713380,"internal_node_id":"0.0-73.0-0.0","task_version":"screening-prolific","missing":false,"accuracy":0},{"contexts":["blue","green","red"],"outcomes":[1,1,0],"key":37,"choice":0,"rt":764.4849999342114,"outcome":1,"trial":68,"correct":0,"trial_type":"three-arm-trial","trial_index":81,"time_elapsed":715349,"internal_node_id":"0.0-74.0-0.0","task_version":"screening-prolific","missing":false,"accuracy":1},{"contexts":["blue","green","red"],"outcomes":[1,0,0],"key":37,"choice":0,"rt":227.88499994203448,"outcome":1,"trial":69,"correct":0,"trial_type":"three-arm-trial","trial_index":82,"time_elapsed":716779,"internal_node_id":"0.0-75.0-0.0","task_version":"screening-prolific","missing":false,"accuracy":1},{"contexts":["blue","green","red"],"outcomes":[1,0,1],"key":37,"choice":0,"rt":205.6100000627339,"outcome":1,"trial":70,"correct":0,"trial_type":"three-arm-trial","trial_index":83,"time_elapsed":718189,"internal_node_id":"0.0-76.0-0.0","task_version":"screening-prolific","missing":false,"accuracy":1},{"contexts":["blue","green","red"],"outcomes":[1,1,0],"key":37,"choice":0,"rt":116.75000004470348,"outcome":1,"trial":71,"correct":0,"trial_type":"three-arm-trial","trial_index":84,"time_elapsed":719508,"internal_node_id":"0.0-77.0-0.0","task_version":"screening-prolific","missing":false,"accuracy":1},{"contexts":["blue","green","red"],"outcomes":[1,1,0],"key":37,"choice":0,"rt":213.2400000700727,"outcome":1,"trial":72,"correct":0,"trial_type":"three-arm-trial","trial_index":85,"time_elapsed":720925,"internal_node_id":"0.0-78.0-0.0","task_version":"screening-prolific","missing":false,"accuracy":1},{"contexts":["blue","green","red"],"outcomes":[1,0,0],"key":37,"choice":0,"rt":252.81500001437962,"outcome":1,"trial":73,"correct":0,"trial_type":"three-arm-trial","trial_index":86,"time_elapsed":722380,"internal_node_id":"0.0-79.0-0.0","task_version":"screening-prolific","missing":false,"accuracy":1},{"contexts":["blue","green","red"],"outcomes":[1,0,1],"key":37,"choice":0,"rt":469.344999990426,"outcome":1,"trial":74,"correct":0,"trial_type":"three-arm-trial","trial_index":87,"time_elapsed":724053,"internal_node_id":"0.0-80.0-0.0","task_version":"screening-prolific","missing":false,"accuracy":1},{"contexts":["blue","green","red"],"outcomes":[1,0,0],"key":37,"choice":0,"rt":291.6999999433756,"outcome":1,"trial":75,"correct":0,"trial_type":"three-arm-trial","trial_index":88,"time_elapsed":725548,"internal_node_id":"0.0-81.0-0.0","task_version":"screening-prolific","missing":false,"accuracy":1},{"contexts":["blue","green","red"],"outcomes":[0,0,1],"key":37,"choice":0,"rt":237.0799999916926,"outcome":0,"trial":76,"correct":2,"trial_type":"three-arm-trial","trial_index":89,"time_elapsed":726989,"internal_node_id":"0.0-82.0-0.0","task_version":"screening-prolific","missing":false,"accuracy":0},{"contexts":["blue","green","red"],"outcomes":[0,0,0],"key":38,"choice":1,"rt":37.675000028684735,"outcome":0,"trial":77,"correct":2,"trial_type":"three-arm-trial","trial_index":90,"time_elapsed":728229,"internal_node_id":"0.0-83.0-0.0","task_version":"screening-prolific","missing":false,"accuracy":0},{"contexts":["blue","green","red"],"outcomes":[0,0,0],"key":38,"choice":1,"rt":276.9200000911951,"outcome":0,"trial":78,"correct":2,"trial_type":"three-arm-trial","trial_index":91,"time_elapsed":729708,"internal_node_id":"0.0-84.0-0.0","task_version":"screening-prolific","missing":false,"accuracy":0},{"contexts":["blue","green","red"],"outcomes":[0,0,1],"key":39,"choice":2,"rt":93.32500002346933,"outcome":1,"trial":79,"correct":2,"trial_type":"three-arm-trial","trial_index":92,"time_elapsed":731005,"internal_node_id":"0.0-85.0-0.0","task_version":"screening-prolific","missing":false,"accuracy":1},{"contexts":["blue","green","red"],"outcomes":[0,0,1],"key":39,"choice":2,"rt":300.44500005897135,"outcome":1,"trial":80,"correct":2,"trial_type":"three-arm-trial","trial_index":93,"time_elapsed":732509,"internal_node_id":"0.0-86.0-0.0","task_version":"screening-prolific","missing":false,"accuracy":1},{"contexts":["blue","green","red"],"outcomes":[0,0,0],"key":39,"choice":2,"rt":205.42500005103648,"outcome":0,"trial":81,"correct":2,"trial_type":"three-arm-trial","trial_index":94,"time_elapsed":733917,"internal_node_id":"0.0-87.0-0.0","task_version":"screening-prolific","missing":false,"accuracy":1},{"contexts":["blue","green","red"],"outcomes":[0,0,1],"key":38,"choice":1,"rt":189.05000004451722,"outcome":0,"trial":82,"correct":2,"trial_type":"three-arm-trial","trial_index":95,"time_elapsed":735309,"internal_node_id":"0.0-88.0-0.0","task_version":"screening-prolific","missing":false,"accuracy":0},{"contexts":["blue","green","red"],"outcomes":[1,0,1],"key":39,"choice":2,"rt":141.22999995015562,"outcome":1,"trial":83,"correct":2,"trial_type":"three-arm-trial","trial_index":96,"time_elapsed":736653,"internal_node_id":"0.0-89.0-0.0","task_version":"screening-prolific","missing":false,"accuracy":1},{"contexts":["blue","green","red"],"outcomes":[0,1,0],"key":39,"choice":2,"rt":316.5000000735745,"outcome":0,"trial":84,"correct":2,"trial_type":"three-arm-trial","trial_index":97,"time_elapsed":738173,"internal_node_id":"0.0-90.0-0.0","task_version":"screening-prolific","missing":false,"accuracy":1},{"contexts":["blue","green","red"],"outcomes":[0,0,0],"key":37,"choice":0,"rt":500.73000008706003,"outcome":0,"trial":85,"correct":2,"trial_type":"three-arm-trial","trial_index":98,"time_elapsed":739878,"internal_node_id":"0.0-91.0-0.0","task_version":"screening-prolific","missing":false,"accuracy":0},{"contexts":["blue","green","red"],"outcomes":[0,1,0],"key":39,"choice":2,"rt":252.6049999287352,"outcome":0,"trial":86,"correct":2,"trial_type":"three-arm-trial","trial_index":99,"time_elapsed":741333,"internal_node_id":"0.0-92.0-0.0","task_version":"screening-prolific","missing":false,"accuracy":1},{"contexts":["blue","green","red"],"outcomes":[0,1,1],"key":38,"choice":1,"rt":149.474999983795,"outcome":1,"trial":87,"correct":2,"trial_type":"three-arm-trial","trial_index":100,"time_elapsed":742686,"internal_node_id":"0.0-93.0-0.0","task_version":"screening-prolific","missing":false,"accuracy":0},{"contexts":["blue","green","red"],"outcomes":[0,0,0],"key":38,"choice":1,"rt":292.5449999747798,"outcome":0,"trial":88,"correct":2,"trial_type":"three-arm-trial","trial_index":101,"time_elapsed":744182,"internal_node_id":"0.0-94.0-0.0","task_version":"screening-prolific","missing":false,"accuracy":0},{"contexts":["blue","green","red"],"outcomes":[1,0,1],"key":39,"choice":2,"rt":12.165000080130994,"outcome":1,"trial":89,"correct":2,"trial_type":"three-arm-trial","trial_index":102,"time_elapsed":745397,"internal_node_id":"0.0-95.0-0.0","task_version":"screening-prolific","missing":false,"accuracy":1},{"contexts":["blue","green","red"],"outcomes":[1,0,1],"key":39,"choice":2,"rt":173.68500004522502,"outcome":1,"trial":90,"correct":2,"trial_type":"three-arm-trial","trial_index":103,"time_elapsed":746774,"internal_node_id":"0.0-96.0-0.0","task_version":"screening-prolific","missing":false,"accuracy":1},{"rt":18795.22500000894,"responses":{"age":"44","gender-categorical":"Female","gender-free-response":"","ethnicity":"Not Hispanic or Latino","race":["White"],"language":"Yes","fluency":"Very well","mturk":"No","mturk-this-study":"No"},"survey":"demographics","trial_type":"survey-demo","trial_index":104,"time_elapsed":765574,"internal_node_id":"0.0-97.0","task_version":"screening-prolific","interactions":"[{\"event\":\"blur\",\"trial\":0,\"time\":521},{\"event\":\"focus\",\"trial\":0,\"time\":1170},{\"event\":\"blur\",\"trial\":2,\"time\":95583},{\"event\":\"focus\",\"trial\":2,\"time\":98299},{\"event\":\"blur\",\"trial\":2,\"time\":113992},{\"event\":\"focus\",\"trial\":2,\"time\":115907},{\"event\":\"blur\",\"trial\":2,\"time\":116670},{\"event\":\"focus\",\"trial\":2,\"time\":125534},{\"event\":\"blur\",\"trial\":2,\"time\":127926},{\"event\":\"focus\",\"trial\":2,\"time\":130617},{\"event\":\"blur\",\"trial\":3,\"time\":318910},{\"event\":\"focus\",\"trial\":3,\"time\":321750},{\"event\":\"blur\",\"trial\":5,\"time\":460477},{\"event\":\"focus\",\"trial\":5,\"time\":461465},{\"event\":\"blur\",\"trial\":6,\"time\":519521},{\"event\":\"focus\",\"trial\":6,\"time\":520209},{\"event\":\"blur\",\"trial\":10,\"time\":576839},{\"event\":\"focus\",\"trial\":10,\"time\":577316}]"}]