[{"responses":{"Q01":"1","Q07":"0","Q05":"0","Q06":"0","Q03":"0","Q04":"0","Q02":"0","Q08":"0"},"rt":12713.36500000325,"survey":"gad7","trial_type":"survey-template","trial_index":0,"time_elapsed":12741,"internal_node_id":"0.0-0.0","task_version":"screening-prolific"},{"responses":{"Q12":"3","Q11":"3","Q15":"3","Q08":"3","Q09":"2","Q04":"2","Q05":"3","Q01":"2","Q10":"2","Q14":"3","Q06":"3","Q03":"3","Q07":"2","Q13":"2","Q02":"2"},"rt":30869.300000020303,"survey":"shaps","trial_type":"survey-template","trial_index":1,"time_elapsed":43614,"internal_node_id":"0.0-1.0","task_version":"screening-prolific"},{"responses":{"Q10":"2","Q04":"3","Q03":"2","Q01":"3","Q02":"2","Q05":"2","Q09":"3","Q12":"1","Q11":"2","Q06":"2","Q08":"2","Q13":"3","Q07":"2"},"rt":33978.27000002144,"survey":"bisbas","trial_type":"survey-template","trial_index":2,"time_elapsed":77595,"internal_node_id":"0.0-2.0","task_version":"screening-prolific"},{"responses":{"Q02":"2","Q03":"2","Q01":"2"},"rt":6700.744999980088,"survey":"pswq","trial_type":"survey-template","trial_index":3,"time_elapsed":84298,"internal_node_id":"0.0-3.0","task_version":"screening-prolific"},{"responses":{"Q09":"1","Q10":"1","Q08":"0","Q15":"0","Q14":"0","Q13":"0","Q05":"0","Q11":"0","Q01":"0","Q03":"0","Q12":"0","Q02":"0","Q07":"0","Q04":"0","Q06":"1"},"rt":39946.429999981774,"survey":"7up7down","trial_type":"survey-template","trial_index":4,"time_elapsed":124248,"internal_node_id":"0.0-4.0","task_version":"screening-prolific"},{"view_history":"[{\"page_index\":0,\"viewing_time\":2300.4500000097323},{\"page_index\":1,\"viewing_time\":3290.4449999914505},{\"page_index\":2,\"viewing_time\":4807.950000016717},{\"page_index\":3,\"viewing_time\":3744.66999998549},{\"page_index\":4,\"viewing_time\":4410.495000018273},{\"page_index\":5,\"viewing_time\":1811.7099999799393},{\"page_index\":6,\"viewing_time\":2408.950000011828},{\"page_index\":7,\"viewing_time\":1346.4450000028592}]","rt":24121.68000001111,"trial_type":"instructions","trial_index":5,"time_elapsed":148370,"internal_node_id":"0.0-5.0-0.0","task_version":"screening-prolific"},{"responses":["True","True","False","False","True"],"num_errors":0,"rt":13804.039999988163,"trial_type":"three-arm-comprehension","trial_index":6,"time_elapsed":162176,"internal_node_id":"0.0-5.0-1.0","task_version":"screening-prolific"},{"view_history":"[{\"page_index\":0,\"viewing_time\":1303.0350000190083}]","rt":1303.2250000105705,"trial_type":"instructions","trial_index":7,"time_elapsed":163483,"internal_node_id":"0.0-6.0","task_version":"screening-prolific"},{"contexts":["green","blue","red"],"outcomes":[0,1,0],"key":null,"rt":null,"trial":1,"correct":1,"trial_type":"three-arm-trial","trial_index":8,"time_elapsed":178487,"internal_node_id":"0.0-7.0-0.0","task_version":"screening-prolific","missing":true},{"contexts":["green","blue","red"],"outcomes":[0,1,0],"key":38,"choice":1,"rt":4765.190000005532,"outcome":1,"trial":1,"correct":1,"trial_type":"three-arm-trial","trial_index":9,"time_elapsed":184456,"internal_node_id":"0.0-7.1-0.1","task_version":"screening-prolific","missing":false,"accuracy":1},{"contexts":["green","blue","red"],"outcomes":[0,1,0],"key":38,"choice":1,"rt":2424.8249999945983,"outcome":1,"trial":2,"correct":1,"trial_type":"three-arm-trial","trial_index":10,"time_elapsed":188085,"internal_node_id":"0.0-8.0-0.0","task_version":"screening-prolific","missing":false,"accuracy":1},{"contexts":["green","blue","red"],"outcomes":[1,0,0],"key":38,"choice":1,"rt":20.450000010896474,"outcome":0,"trial":3,"correct":1,"trial_type":"three-arm-trial","trial_index":11,"time_elapsed":189309,"internal_node_id":"0.0-9.0-0.0","task_version":"screening-prolific","missing":false,"accuracy":1},{"contexts":["green","blue","red"],"outcomes":[1,0,0],"key":38,"choice":1,"rt":445.4400000104215,"outcome":0,"trial":4,"correct":1,"trial_type":"three-arm-trial","trial_index":12,"time_elapsed":190959,"internal_node_id":"0.0-10.0-0.0","task_version":"screening-prolific","missing":false,"accuracy":1},{"contexts":["green","blue","red"],"outcomes":[0,0,1],"key":38,"choice":1,"rt":107.6349999930244,"outcome":0,"trial":5,"correct":1,"trial_type":"three-arm-trial","trial_index":13,"time_elapsed":192270,"internal_node_id":"0.0-11.0-0.0","task_version":"screening-prolific","missing":false,"accuracy":1},{"contexts":["green","blue","red"],"outcomes":[0,1,0],"key":38,"choice":1,"rt":59.94999999529682,"outcome":1,"trial":6,"correct":1,"trial_type":"three-arm-trial","trial_index":14,"time_elapsed":193534,"internal_node_id":"0.0-12.0-0.0","task_version":"screening-prolific","missing":false,"accuracy":1},{"contexts":["green","blue","red"],"outcomes":[1,1,0],"key":37,"choice":0,"rt":124.21499998890795,"outcome":1,"trial":7,"correct":1,"trial_type":"three-arm-trial","trial_index":15,"time_elapsed":194862,"internal_node_id":"0.0-13.0-0.0","task_version":"screening-prolific","missing":false,"accuracy":0},{"contexts":["green","blue","red"],"outcomes":[0,0,0],"key":37,"choice":0,"rt":221.47499999846332,"outcome":0,"trial":8,"correct":1,"trial_type":"three-arm-trial","trial_index":16,"time_elapsed":196287,"internal_node_id":"0.0-14.0-0.0","task_version":"screening-prolific","missing":false,"accuracy":0},{"contexts":["green","blue","red"],"outcomes":[0,1,0],"key":37,"choice":0,"rt":28.029999986756593,"outcome":0,"trial":9,"correct":1,"trial_type":"three-arm-trial","trial_index":17,"time_elapsed":197518,"internal_node_id":"0.0-15.0-0.0","task_version":"screening-prolific","missing":false,"accuracy":0},{"contexts":["green","blue","red"],"outcomes":[0,1,0],"key":37,"choice":0,"rt":260.5899999907706,"outcome":0,"trial":10,"correct":1,"trial_type":"three-arm-trial","trial_index":18,"time_elapsed":198982,"internal_node_id":"0.0-16.0-0.0","task_version":"screening-prolific","missing":false,"accuracy":0},{"contexts":["green","blue","red"],"outcomes":[0,1,0],"key":39,"choice":2,"rt":13.470000005327165,"outcome":0,"trial":11,"correct":1,"trial_type":"three-arm-trial","trial_index":19,"time_elapsed":200200,"internal_node_id":"0.0-17.0-0.0","task_version":"screening-prolific","missing":false,"accuracy":0},{"contexts":["green","blue","red"],"outcomes":[0,1,0],"key":39,"choice":2,"rt":13.944999984232709,"outcome":0,"trial":12,"correct":1,"trial_type":"three-arm-trial","trial_index":20,"time_elapsed":201418,"internal_node_id":"0.0-18.0-0.0","task_version":"screening-prolific","missing":false,"accuracy":0},{"contexts":["green","blue","red"],"outcomes":[0,1,0],"key":38,"choice":1,"rt":120.45499999658205,"outcome":1,"trial":13,"correct":1,"trial_type":"three-arm-trial","trial_index":21,"time_elapsed":202743,"internal_node_id":"0.0-19.0-0.0","task_version":"screening-prolific","missing":false,"accuracy":1},{"contexts":["green","blue","red"],"outcomes":[0,1,0],"key":38,"choice":1,"rt":4.795000015292317,"outcome":1,"trial":14,"correct":1,"trial_type":"three-arm-trial","trial_index":22,"time_elapsed":203950,"internal_node_id":"0.0-20.0-0.0","task_version":"screening-prolific","missing":false,"accuracy":1},{"contexts":["green","blue","red"],"outcomes":[0,0,0],"key":38,"choice":1,"rt":26.610000000800937,"outcome":0,"trial":15,"correct":1,"trial_type":"three-arm-trial","trial_index":23,"time_elapsed":205181,"internal_node_id":"0.0-21.0-0.0","task_version":"screening-prolific","missing":false,"accuracy":1},{"contexts":["green","blue","red"],"outcomes":[1,0,0],"key":38,"choice":1,"rt":34.91000001667999,"outcome":0,"trial":16,"correct":0,"trial_type":"three-arm-trial","trial_index":24,"time_elapsed":206421,"internal_node_id":"0.0-22.0-0.0","task_version":"screening-prolific","missing":false,"accuracy":0},{"contexts":["green","blue","red"],"outcomes":[1,1,0],"key":38,"choice":1,"rt":162.78500002226792,"outcome":1,"trial":17,"correct":0,"trial_type":"three-arm-trial","trial_index":25,"time_elapsed":207791,"internal_node_id":"0.0-23.0-0.0","task_version":"screening-prolific","missing":false,"accuracy":0},{"contexts":["green","blue","red"],"outcomes":[1,0,1],"key":38,"choice":1,"rt":162.70499999518506,"outcome":0,"trial":18,"correct":0,"trial_type":"three-arm-trial","trial_index":26,"time_elapsed":209158,"internal_node_id":"0.0-24.0-0.0","task_version":"screening-prolific","missing":false,"accuracy":0},{"contexts":["green","blue","red"],"outcomes":[1,0,0],"key":38,"choice":1,"rt":147.0850000041537,"outcome":0,"trial":19,"correct":0,"trial_type":"three-arm-trial","trial_index":27,"time_elapsed":210509,"internal_node_id":"0.0-25.0-0.0","task_version":"screening-prolific","missing":false,"accuracy":0},{"contexts":["green","blue","red"],"outcomes":[1,0,1],"key":38,"choice":1,"rt":333.0150000110734,"outcome":0,"trial":20,"correct":0,"trial_type":"three-arm-trial","trial_index":28,"time_elapsed":212047,"internal_node_id":"0.0-26.0-0.0","task_version":"screening-prolific","missing":false,"accuracy":0},{"contexts":["green","blue","red"],"outcomes":[0,0,1],"key":38,"choice":1,"rt":121.68999999994412,"outcome":0,"trial":21,"correct":0,"trial_type":"three-arm-trial","trial_index":29,"time_elapsed":213375,"internal_node_id":"0.0-27.0-0.0","task_version":"screening-prolific","missing":false,"accuracy":0},{"contexts":["green","blue","red"],"outcomes":[1,0,0],"key":38,"choice":1,"rt":68.76500000362284,"outcome":0,"trial":22,"correct":0,"trial_type":"three-arm-trial","trial_index":30,"time_elapsed":214648,"internal_node_id":"0.0-28.0-0.0","task_version":"screening-prolific","missing":false,"accuracy":0},{"contexts":["green","blue","red"],"outcomes":[1,0,0],"key":39,"choice":2,"rt":34.565000009024516,"outcome":0,"trial":23,"correct":0,"trial_type":"three-arm-trial","trial_index":31,"time_elapsed":215886,"internal_node_id":"0.0-29.0-0.0","task_version":"screening-prolific","missing":false,"accuracy":0},{"contexts":["green","blue","red"],"outcomes":[1,0,0],"key":39,"choice":2,"rt":133.85499999276362,"outcome":0,"trial":24,"correct":0,"trial_type":"three-arm-trial","trial_index":32,"time_elapsed":217222,"internal_node_id":"0.0-30.0-0.0","task_version":"screening-prolific","missing":false,"accuracy":0},{"contexts":["green","blue","red"],"outcomes":[1,0,0],"key":39,"choice":2,"rt":196.76500000059605,"outcome":0,"trial":25,"correct":0,"trial_type":"three-arm-trial","trial_index":33,"time_elapsed":218621,"internal_node_id":"0.0-31.0-0.0","task_version":"screening-prolific","missing":false,"accuracy":0},{"contexts":["green","blue","red"],"outcomes":[1,0,0],"key":39,"choice":2,"rt":83.60500002163462,"outcome":0,"trial":26,"correct":0,"trial_type":"three-arm-trial","trial_index":34,"time_elapsed":219909,"internal_node_id":"0.0-32.0-0.0","task_version":"screening-prolific","missing":false,"accuracy":0},{"contexts":["green","blue","red"],"outcomes":[0,0,0],"key":37,"choice":0,"rt":69.82999999308959,"outcome":0,"trial":27,"correct":0,"trial_type":"three-arm-trial","trial_index":35,"time_elapsed":221182,"internal_node_id":"0.0-33.0-0.0","task_version":"screening-prolific","missing":false,"accuracy":1},{"contexts":["green","blue","red"],"outcomes":[1,0,0],"key":38,"choice":1,"rt":18.685000017285347,"outcome":0,"trial":28,"correct":0,"trial_type":"three-arm-trial","trial_index":36,"time_elapsed":222405,"internal_node_id":"0.0-34.0-0.0","task_version":"screening-prolific","missing":false,"accuracy":0},{"contexts":["green","blue","red"],"outcomes":[1,0,0],"key":38,"choice":1,"rt":142.64999999431893,"outcome":0,"trial":29,"correct":0,"trial_type":"three-arm-trial","trial_index":37,"time_elapsed":223750,"internal_node_id":"0.0-35.0-0.0","task_version":"screening-prolific","missing":false,"accuracy":0},{"contexts":["green","blue","red"],"outcomes":[1,0,0],"key":38,"choice":1,"rt":136.11500000115484,"outcome":0,"trial":30,"correct":0,"trial_type":"three-arm-trial","trial_index":38,"time_elapsed":225089,"internal_node_id":"0.0-36.0-0.0","task_version":"screening-prolific","missing":false,"accuracy":0},{"contexts":["green","blue","red"],"outcomes":[0,0,0],"key":38,"choice":1,"rt":59.025000024121255,"outcome":0,"trial":31,"correct":2,"trial_type":"three-arm-trial","trial_index":39,"time_elapsed":226350,"internal_node_id":"0.0-37.0-0.0","task_version":"screening-prolific","missing":false,"accuracy":0},{"contexts":["green","blue","red"],"outcomes":[0,1,1],"key":38,"choice":1,"rt":11.789999989559874,"outcome":1,"trial":32,"correct":2,"trial_type":"three-arm-trial","trial_index":40,"time_elapsed":227565,"internal_node_id":"0.0-38.0-0.0","task_version":"screening-prolific","missing":false,"accuracy":0},{"contexts":["green","blue","red"],"outcomes":[0,0,1],"key":38,"choice":1,"rt":135.30500000342727,"outcome":0,"trial":33,"correct":2,"trial_type":"three-arm-trial","trial_index":41,"time_elapsed":228903,"internal_node_id":"0.0-39.0-0.0","task_version":"screening-prolific","missing":false,"accuracy":0},{"contexts":["green","blue","red"],"outcomes":[0,1,1],"key":38,"choice":1,"rt":90.970000019297,"outcome":1,"trial":34,"correct":2,"trial_type":"three-arm-trial","trial_index":42,"time_elapsed":230197,"internal_node_id":"0.0-40.0-0.0","task_version":"screening-prolific","missing":false,"accuracy":0},{"contexts":["green","blue","red"],"outcomes":[0,0,0],"key":38,"choice":1,"rt":110.56499998085201,"outcome":0,"trial":35,"correct":2,"trial_type":"three-arm-trial","trial_index":43,"time_elapsed":231510,"internal_node_id":"0.0-41.0-0.0","task_version":"screening-prolific","missing":false,"accuracy":0},{"contexts":["green","blue","red"],"outcomes":[0,0,0],"key":38,"choice":1,"rt":99.01999999419786,"outcome":0,"trial":36,"correct":2,"trial_type":"three-arm-trial","trial_index":44,"time_elapsed":232814,"internal_node_id":"0.0-42.0-0.0","task_version":"screening-prolific","missing":false,"accuracy":0},{"contexts":["green","blue","red"],"outcomes":[0,0,1],"key":38,"choice":1,"rt":125.01499999780208,"outcome":0,"trial":37,"correct":2,"trial_type":"three-arm-trial","trial_index":45,"time_elapsed":234142,"internal_node_id":"0.0-43.0-0.0","task_version":"screening-prolific","missing":false,"accuracy":0},{"contexts":["green","blue","red"],"outcomes":[1,0,1],"key":38,"choice":1,"rt":68.98999999975786,"outcome":0,"trial":38,"correct":2,"trial_type":"three-arm-trial","trial_index":46,"time_elapsed":235414,"internal_node_id":"0.0-44.0-0.0","task_version":"screening-prolific","missing":false,"accuracy":0},{"contexts":["green","blue","red"],"outcomes":[1,1,1],"key":38,"choice":1,"rt":83.15500000026077,"outcome":1,"trial":39,"correct":2,"trial_type":"three-arm-trial","trial_index":47,"time_elapsed":236701,"internal_node_id":"0.0-45.0-0.0","task_version":"screening-prolific","missing":false,"accuracy":0},{"contexts":["green","blue","red"],"outcomes":[0,0,1],"key":38,"choice":1,"rt":70.24999998975545,"outcome":0,"trial":40,"correct":2,"trial_type":"three-arm-trial","trial_index":48,"time_elapsed":237974,"internal_node_id":"0.0-46.0-0.0","task_version":"screening-prolific","missing":false,"accuracy":0},{"contexts":["green","blue","red"],"outcomes":[0,1,1],"key":38,"choice":1,"rt":157.20499999588355,"outcome":1,"trial":41,"correct":2,"trial_type":"three-arm-trial","trial_index":49,"time_elapsed":239335,"internal_node_id":"0.0-47.0-0.0","task_version":"screening-prolific","missing":false,"accuracy":0},{"contexts":["green","blue","red"],"outcomes":[0,0,1],"key":38,"choice":1,"rt":179.32499997550622,"outcome":0,"trial":42,"correct":2,"trial_type":"three-arm-trial","trial_index":50,"time_elapsed":240720,"internal_node_id":"0.0-48.0-0.0","task_version":"screening-prolific","missing":false,"accuracy":0},{"contexts":["green","blue","red"],"outcomes":[0,0,0],"key":38,"choice":1,"rt":3.855000017210841,"outcome":0,"trial":43,"correct":2,"trial_type":"three-arm-trial","trial_index":51,"time_elapsed":241928,"internal_node_id":"0.0-49.0-0.0","task_version":"screening-prolific","missing":false,"accuracy":0},{"contexts":["green","blue","red"],"outcomes":[0,0,1],"key":38,"choice":1,"rt":306.40000000130385,"outcome":0,"trial":44,"correct":2,"trial_type":"three-arm-trial","trial_index":52,"time_elapsed":243438,"internal_node_id":"0.0-50.0-0.0","task_version":"screening-prolific","missing":false,"accuracy":0},{"contexts":["green","blue","red"],"outcomes":[0,0,0],"key":38,"choice":1,"rt":76.57999999355525,"outcome":0,"trial":45,"correct":2,"trial_type":"three-arm-trial","trial_index":53,"time_elapsed":244717,"internal_node_id":"0.0-51.0-0.0","task_version":"screening-prolific","missing":false,"accuracy":0},{"contexts":["green","blue","red"],"outcomes":[0,1,0],"key":38,"choice":1,"rt":78.49499999429099,"outcome":1,"trial":46,"correct":1,"trial_type":"three-arm-trial","trial_index":54,"time_elapsed":245997,"internal_node_id":"0.0-52.0-0.0","task_version":"screening-prolific","missing":false,"accuracy":1},{"contexts":["green","blue","red"],"outcomes":[0,1,0],"key":38,"choice":1,"rt":164.90999999223277,"outcome":1,"trial":47,"correct":1,"trial_type":"three-arm-trial","trial_index":55,"time_elapsed":247367,"internal_node_id":"0.0-53.0-0.0","task_version":"screening-prolific","missing":false,"accuracy":1},{"contexts":["green","blue","red"],"outcomes":[0,1,1],"key":38,"choice":1,"rt":107.37499999231659,"outcome":1,"trial":48,"correct":1,"trial_type":"three-arm-trial","trial_index":56,"time_elapsed":248678,"internal_node_id":"0.0-54.0-0.0","task_version":"screening-prolific","missing":false,"accuracy":1},{"contexts":["green","blue","red"],"outcomes":[0,1,0],"key":38,"choice":1,"rt":124.08500001765788,"outcome":1,"trial":49,"correct":1,"trial_type":"three-arm-trial","trial_index":57,"time_elapsed":250005,"internal_node_id":"0.0-55.0-0.0","task_version":"screening-prolific","missing":false,"accuracy":1},{"contexts":["green","blue","red"],"outcomes":[0,1,0],"key":38,"choice":1,"rt":21.330000017769635,"outcome":1,"trial":50,"correct":1,"trial_type":"three-arm-trial","trial_index":58,"time_elapsed":251231,"internal_node_id":"0.0-56.0-0.0","task_version":"screening-prolific","missing":false,"accuracy":1},{"contexts":["green","blue","red"],"outcomes":[0,1,0],"key":38,"choice":1,"rt":40.65500001888722,"outcome":1,"trial":51,"correct":1,"trial_type":"three-arm-trial","trial_index":59,"time_elapsed":252477,"internal_node_id":"0.0-57.0-0.0","task_version":"screening-prolific","missing":false,"accuracy":1},{"contexts":["green","blue","red"],"outcomes":[0,1,1],"key":38,"choice":1,"rt":11.185000010300428,"outcome":1,"trial":52,"correct":1,"trial_type":"three-arm-trial","trial_index":60,"time_elapsed":253693,"internal_node_id":"0.0-58.0-0.0","task_version":"screening-prolific","missing":false,"accuracy":1},{"contexts":["green","blue","red"],"outcomes":[0,1,0],"key":38,"choice":1,"rt":173.32500001066364,"outcome":1,"trial":53,"correct":1,"trial_type":"three-arm-trial","trial_index":61,"time_elapsed":255070,"internal_node_id":"0.0-59.0-0.0","task_version":"screening-prolific","missing":false,"accuracy":1},{"contexts":["green","blue","red"],"outcomes":[0,1,0],"key":38,"choice":1,"rt":113.66500001167879,"outcome":1,"trial":54,"correct":1,"trial_type":"three-arm-trial","trial_index":62,"time_elapsed":256389,"internal_node_id":"0.0-60.0-0.0","task_version":"screening-prolific","missing":false,"accuracy":1},{"contexts":["green","blue","red"],"outcomes":[0,1,0],"key":38,"choice":1,"rt":109.77999999886379,"outcome":1,"trial":55,"correct":1,"trial_type":"three-arm-trial","trial_index":63,"time_elapsed":257701,"internal_node_id":"0.0-61.0-0.0","task_version":"screening-prolific","missing":false,"accuracy":1},{"contexts":["green","blue","red"],"outcomes":[0,1,0],"key":38,"choice":1,"rt":83.88500000000931,"outcome":1,"trial":56,"correct":1,"trial_type":"three-arm-trial","trial_index":64,"time_elapsed":258988,"internal_node_id":"0.0-62.0-0.0","task_version":"screening-prolific","missing":false,"accuracy":1},{"contexts":["green","blue","red"],"outcomes":[0,0,0],"key":38,"choice":1,"rt":127.00999999651685,"outcome":0,"trial":57,"correct":1,"trial_type":"three-arm-trial","trial_index":65,"time_elapsed":260318,"internal_node_id":"0.0-63.0-0.0","task_version":"screening-prolific","missing":false,"accuracy":1},{"contexts":["green","blue","red"],"outcomes":[1,1,0],"key":38,"choice":1,"rt":149.04499999829568,"outcome":1,"trial":58,"correct":1,"trial_type":"three-arm-trial","trial_index":66,"time_elapsed":261670,"internal_node_id":"0.0-64.0-0.0","task_version":"screening-prolific","missing":false,"accuracy":1},{"contexts":["green","blue","red"],"outcomes":[0,0,0],"key":38,"choice":1,"rt":109.10999999032356,"outcome":0,"trial":59,"correct":1,"trial_type":"three-arm-trial","trial_index":67,"time_elapsed":262982,"internal_node_id":"0.0-65.0-0.0","task_version":"screening-prolific","missing":false,"accuracy":1},{"contexts":["green","blue","red"],"outcomes":[0,1,1],"key":38,"choice":1,"rt":108.0200000142213,"outcome":1,"trial":60,"correct":1,"trial_type":"three-arm-trial","trial_index":68,"time_elapsed":264293,"internal_node_id":"0.0-66.0-0.0","task_version":"screening-prolific","missing":false,"accuracy":1},{"contexts":["green","blue","red"],"outcomes":[0,0,1],"key":38,"choice":1,"rt":60.07000000681728,"outcome":0,"trial":61,"correct":2,"trial_type":"three-arm-trial","trial_index":69,"time_elapsed":265557,"internal_node_id":"0.0-67.0-0.0","task_version":"screening-prolific","missing":false,"accuracy":0},{"contexts":["green","blue","red"],"outcomes":[1,0,1],"key":38,"choice":1,"rt":5.96500001847744,"outcome":0,"trial":62,"correct":2,"trial_type":"three-arm-trial","trial_index":70,"time_elapsed":266765,"internal_node_id":"0.0-68.0-0.0","task_version":"screening-prolific","missing":false,"accuracy":0},{"contexts":["green","blue","red"],"outcomes":[0,0,1],"key":38,"choice":1,"rt":173.75999997602776,"outcome":0,"trial":63,"correct":2,"trial_type":"three-arm-trial","trial_index":71,"time_elapsed":268141,"internal_node_id":"0.0-69.0-0.0","task_version":"screening-prolific","missing":false,"accuracy":0},{"contexts":["green","blue","red"],"outcomes":[0,0,1],"key":38,"choice":1,"rt":150.40000001317821,"outcome":0,"trial":64,"correct":2,"trial_type":"three-arm-trial","trial_index":72,"time_elapsed":269494,"internal_node_id":"0.0-70.0-0.0","task_version":"screening-prolific","missing":false,"accuracy":0},{"contexts":["green","blue","red"],"outcomes":[0,0,1],"key":38,"choice":1,"rt":76.73999998951331,"outcome":0,"trial":65,"correct":2,"trial_type":"three-arm-trial","trial_index":73,"time_elapsed":270773,"internal_node_id":"0.0-71.0-0.0","task_version":"screening-prolific","missing":false,"accuracy":0},{"contexts":["green","blue","red"],"outcomes":[0,0,1],"key":38,"choice":1,"rt":92.78499998617917,"outcome":0,"trial":66,"correct":2,"trial_type":"three-arm-trial","trial_index":74,"time_elapsed":272068,"internal_node_id":"0.0-72.0-0.0","task_version":"screening-prolific","missing":false,"accuracy":0},{"contexts":["green","blue","red"],"outcomes":[1,0,1],"key":38,"choice":1,"rt":71.460000006482,"outcome":0,"trial":67,"correct":2,"trial_type":"three-arm-trial","trial_index":75,"time_elapsed":273342,"internal_node_id":"0.0-73.0-0.0","task_version":"screening-prolific","missing":false,"accuracy":0},{"contexts":["green","blue","red"],"outcomes":[0,0,1],"key":38,"choice":1,"rt":76.61499999812804,"outcome":0,"trial":68,"correct":2,"trial_type":"three-arm-trial","trial_index":76,"time_elapsed":274621,"internal_node_id":"0.0-74.0-0.0","task_version":"screening-prolific","missing":false,"accuracy":0},{"contexts":["green","blue","red"],"outcomes":[0,0,0],"key":38,"choice":1,"rt":13.264999986859038,"outcome":0,"trial":69,"correct":2,"trial_type":"three-arm-trial","trial_index":77,"time_elapsed":275837,"internal_node_id":"0.0-75.0-0.0","task_version":"screening-prolific","missing":false,"accuracy":0},{"contexts":["green","blue","red"],"outcomes":[0,0,1],"key":38,"choice":1,"rt":94.51999998418614,"outcome":0,"trial":70,"correct":2,"trial_type":"three-arm-trial","trial_index":78,"time_elapsed":277134,"internal_node_id":"0.0-76.0-0.0","task_version":"screening-prolific","missing":false,"accuracy":0},{"contexts":["green","blue","red"],"outcomes":[0,1,1],"key":38,"choice":1,"rt":187.2049999947194,"outcome":1,"trial":71,"correct":2,"trial_type":"three-arm-trial","trial_index":79,"time_elapsed":278525,"internal_node_id":"0.0-77.0-0.0","task_version":"screening-prolific","missing":false,"accuracy":0},{"contexts":["green","blue","red"],"outcomes":[1,0,1],"key":38,"choice":1,"rt":130.65499998629093,"outcome":0,"trial":72,"correct":2,"trial_type":"three-arm-trial","trial_index":80,"time_elapsed":279862,"internal_node_id":"0.0-78.0-0.0","task_version":"screening-prolific","missing":false,"accuracy":0},{"contexts":["green","blue","red"],"outcomes":[0,0,1],"key":38,"choice":1,"rt":7946.819999982836,"outcome":0,"trial":73,"correct":2,"trial_type":"three-arm-trial","trial_index":81,"time_elapsed":289012,"internal_node_id":"0.0-79.0-0.0","task_version":"screening-prolific","missing":false,"accuracy":0},{"contexts":["green","blue","red"],"outcomes":[0,0,0],"key":38,"choice":1,"rt":6.1249999853316694,"outcome":0,"trial":74,"correct":2,"trial_type":"three-arm-trial","trial_index":82,"time_elapsed":290222,"internal_node_id":"0.0-80.0-0.0","task_version":"screening-prolific","missing":false,"accuracy":0},{"contexts":["green","blue","red"],"outcomes":[1,0,1],"key":38,"choice":1,"rt":148.53999999468215,"outcome":0,"trial":75,"correct":2,"trial_type":"three-arm-trial","trial_index":83,"time_elapsed":291574,"internal_node_id":"0.0-81.0-0.0","task_version":"screening-prolific","missing":false,"accuracy":0},{"contexts":["green","blue","red"],"outcomes":[1,0,0],"key":38,"choice":1,"rt":138.67499999469146,"outcome":0,"trial":76,"correct":0,"trial_type":"three-arm-trial","trial_index":84,"time_elapsed":292916,"internal_node_id":"0.0-82.0-0.0","task_version":"screening-prolific","missing":false,"accuracy":0},{"contexts":["green","blue","red"],"outcomes":[1,0,0],"key":38,"choice":1,"rt":150.82000000984408,"outcome":0,"trial":77,"correct":0,"trial_type":"three-arm-trial","trial_index":85,"time_elapsed":294269,"internal_node_id":"0.0-83.0-0.0","task_version":"screening-prolific","missing":false,"accuracy":0},{"contexts":["green","blue","red"],"outcomes":[1,0,0],"key":38,"choice":1,"rt":68.33500001812354,"outcome":0,"trial":78,"correct":0,"trial_type":"three-arm-trial","trial_index":86,"time_elapsed":295540,"internal_node_id":"0.0-84.0-0.0","task_version":"screening-prolific","missing":false,"accuracy":0},{"contexts":["green","blue","red"],"outcomes":[1,0,0],"key":38,"choice":1,"rt":85.33500001067296,"outcome":0,"trial":79,"correct":0,"trial_type":"three-arm-trial","trial_index":87,"time_elapsed":296828,"internal_node_id":"0.0-85.0-0.0","task_version":"screening-prolific","missing":false,"accuracy":0},{"contexts":["green","blue","red"],"outcomes":[1,0,0],"key":38,"choice":1,"rt":93.38000000570901,"outcome":0,"trial":80,"correct":0,"trial_type":"three-arm-trial","trial_index":88,"time_elapsed":298124,"internal_node_id":"0.0-86.0-0.0","task_version":"screening-prolific","missing":false,"accuracy":0},{"contexts":["green","blue","red"],"outcomes":[1,0,0],"key":38,"choice":1,"rt":78.60000000800937,"outcome":0,"trial":81,"correct":0,"trial_type":"three-arm-trial","trial_index":89,"time_elapsed":299406,"internal_node_id":"0.0-87.0-0.0","task_version":"screening-prolific","missing":false,"accuracy":0},{"contexts":["green","blue","red"],"outcomes":[0,0,0],"key":38,"choice":1,"rt":52.6149999932386,"outcome":0,"trial":82,"correct":0,"trial_type":"three-arm-trial","trial_index":90,"time_elapsed":300660,"internal_node_id":"0.0-88.0-0.0","task_version":"screening-prolific","missing":false,"accuracy":0},{"contexts":["green","blue","red"],"outcomes":[0,0,0],"key":38,"choice":1,"rt":79.31500000995584,"outcome":0,"trial":83,"correct":0,"trial_type":"three-arm-trial","trial_index":91,"time_elapsed":301942,"internal_node_id":"0.0-89.0-0.0","task_version":"screening-prolific","missing":false,"accuracy":0},{"contexts":["green","blue","red"],"outcomes":[1,0,0],"key":38,"choice":1,"rt":83.9550000091549,"outcome":0,"trial":84,"correct":0,"trial_type":"three-arm-trial","trial_index":92,"time_elapsed":303228,"internal_node_id":"0.0-90.0-0.0","task_version":"screening-prolific","missing":false,"accuracy":0},{"contexts":["green","blue","red"],"outcomes":[1,0,0],"key":38,"choice":1,"rt":151.03999999701045,"outcome":0,"trial":85,"correct":0,"trial_type":"three-arm-trial","trial_index":93,"time_elapsed":304582,"internal_node_id":"0.0-91.0-0.0","task_version":"screening-prolific","missing":false,"accuracy":0},{"contexts":["green","blue","red"],"outcomes":[1,0,0],"key":37,"choice":0,"rt":44.08500000135973,"outcome":1,"trial":86,"correct":0,"trial_type":"three-arm-trial","trial_index":94,"time_elapsed":305828,"internal_node_id":"0.0-92.0-0.0","task_version":"screening-prolific","missing":false,"accuracy":1},{"contexts":["green","blue","red"],"outcomes":[1,1,1],"key":37,"choice":0,"rt":94.89499998744577,"outcome":1,"trial":87,"correct":0,"trial_type":"three-arm-trial","trial_index":95,"time_elapsed":307125,"internal_node_id":"0.0-93.0-0.0","task_version":"screening-prolific","missing":false,"accuracy":1},{"contexts":["green","blue","red"],"outcomes":[1,0,0],"key":37,"choice":0,"rt":117.83500001183711,"outcome":1,"trial":88,"correct":0,"trial_type":"three-arm-trial","trial_index":96,"time_elapsed":308445,"internal_node_id":"0.0-94.0-0.0","task_version":"screening-prolific","missing":false,"accuracy":1},{"contexts":["green","blue","red"],"outcomes":[1,0,0],"key":37,"choice":0,"rt":37.22500000731088,"outcome":1,"trial":89,"correct":0,"trial_type":"three-arm-trial","trial_index":97,"time_elapsed":309685,"internal_node_id":"0.0-95.0-0.0","task_version":"screening-prolific","missing":false,"accuracy":1},{"contexts":["green","blue","red"],"outcomes":[1,0,0],"key":37,"choice":0,"rt":149.30499999900348,"outcome":1,"trial":90,"correct":0,"trial_type":"three-arm-trial","trial_index":98,"time_elapsed":311037,"internal_node_id":"0.0-96.0-0.0","task_version":"screening-prolific","missing":false,"accuracy":1},{"rt":14553.099999990081,"responses":{"age":"30","gender-categorical":"Male","gender-free-response":"","ethnicity":"Not Hispanic or Latino","race":["White"],"language":"Yes","fluency":"Very well","mturk":"Yes","mturk-this-study":"No"},"survey":"demographics","trial_type":"survey-demo","trial_index":99,"time_elapsed":325594,"internal_node_id":"0.0-97.0","task_version":"screening-prolific","interactions":"[{\"event\":\"blur\",\"trial\":10,\"time\":185695},{\"event\":\"focus\",\"trial\":10,\"time\":186100},{\"event\":\"blur\",\"trial\":81,\"time\":281506},{\"event\":\"focus\",\"trial\":81,\"time\":286670}]"}]