[{"responses":{"Q08":"0","Q01":"1","Q05":"1","Q07":"0","Q03":"1","Q04":"1","Q02":"1","Q06":"2"},"rt":21640.87499998277,"survey":"gad7","trial_type":"survey-template","trial_index":0,"time_elapsed":21656,"internal_node_id":"0.0-0.0","task_version":"screening-prolific"},{"responses":{"Q07":"1","Q13":"1","Q04":"2","Q09":"1","Q02":"1","Q01":"0","Q12":"1","Q05":"1","Q11":"1","Q03":"2","Q06":"1","Q15":"0","Q10":"1","Q14":"1","Q08":"1"},"rt":101906.58000000985,"survey":"7up7down","trial_type":"survey-template","trial_index":1,"time_elapsed":123567,"internal_node_id":"0.0-1.0","task_version":"screening-prolific"},{"responses":{"Q07":"3","Q03":"1","Q02":"2","Q13":"3","Q08":"2","Q12":"2","Q05":"2","Q01":"3","Q11":"3","Q06":"3","Q10":"2","Q04":"3","Q09":"3"},"rt":52629.20500000473,"survey":"bisbas","trial_type":"survey-template","trial_index":2,"time_elapsed":176202,"internal_node_id":"0.0-2.0","task_version":"screening-prolific"},{"responses":{"Q01":"2","Q03":"2","Q02":"3"},"rt":8292.439999990165,"survey":"pswq","trial_type":"survey-template","trial_index":3,"time_elapsed":184498,"internal_node_id":"0.0-3.0","task_version":"screening-prolific"},{"responses":{"Q02":"2","Q13":"2","Q06":"1","Q03":"2","Q09":"2","Q14":"3","Q07":"2","Q08":"3","Q10":"3","Q05":"3","Q11":"1","Q12":"2","Q15":"3","Q04":"3","Q01":"3"},"rt":45654.21000000788,"survey":"shaps","trial_type":"survey-template","trial_index":4,"time_elapsed":230156,"internal_node_id":"0.0-4.0","task_version":"screening-prolific"},{"view_history":"[{\"page_index\":0,\"viewing_time\":5108.414999966044},{\"page_index\":1,\"viewing_time\":6344.154999998864},{\"page_index\":2,\"viewing_time\":9481.870000017807},{\"page_index\":3,\"viewing_time\":3880.5150000262074},{\"page_index\":4,\"viewing_time\":5273.9849999779835},{\"page_index\":5,\"viewing_time\":2175.8499999996275},{\"page_index\":6,\"viewing_time\":2072.860000014771},{\"page_index\":7,\"viewing_time\":3090.8700000145473}]","rt":37428.81499999203,"trial_type":"instructions","trial_index":5,"time_elapsed":267587,"internal_node_id":"0.0-5.0-0.0","task_version":"screening-prolific"},{"responses":["True","True","False","False","True"],"num_errors":0,"rt":13037.109999975655,"trial_type":"three-arm-comprehension","trial_index":6,"time_elapsed":280628,"internal_node_id":"0.0-5.0-1.0","task_version":"screening-prolific"},{"view_history":"[{\"page_index\":0,\"viewing_time\":2245.634999999311}]","rt":2245.8350000088103,"trial_type":"instructions","trial_index":7,"time_elapsed":282877,"internal_node_id":"0.0-6.0","task_version":"screening-prolific"},{"contexts":["blue","red","green"],"outcomes":[1,0,0],"key":38,"choice":1,"rt":1923.5000000335276,"outcome":0,"trial":1,"correct":0,"trial_type":"three-arm-trial","trial_index":8,"time_elapsed":286005,"internal_node_id":"0.0-7.0-0.0","task_version":"screening-prolific","missing":false,"accuracy":0},{"contexts":["blue","red","green"],"outcomes":[1,0,0],"key":38,"choice":1,"rt":1919.5400000317022,"outcome":0,"trial":2,"correct":0,"trial_type":"three-arm-trial","trial_index":9,"time_elapsed":289128,"internal_node_id":"0.0-8.0-0.0","task_version":"screening-prolific","missing":false,"accuracy":0},{"contexts":["blue","red","green"],"outcomes":[0,0,0],"key":37,"choice":0,"rt":956.1400000238791,"outcome":0,"trial":3,"correct":0,"trial_type":"three-arm-trial","trial_index":10,"time_elapsed":291287,"internal_node_id":"0.0-9.0-0.0","task_version":"screening-prolific","missing":false,"accuracy":1},{"contexts":["blue","red","green"],"outcomes":[1,0,0],"key":37,"choice":0,"rt":880.9550000005402,"outcome":1,"trial":4,"correct":0,"trial_type":"three-arm-trial","trial_index":11,"time_elapsed":293372,"internal_node_id":"0.0-10.0-0.0","task_version":"screening-prolific","missing":false,"accuracy":1},{"contexts":["blue","red","green"],"outcomes":[1,0,0],"key":39,"choice":2,"rt":1047.1499999985099,"outcome":0,"trial":5,"correct":0,"trial_type":"three-arm-trial","trial_index":12,"time_elapsed":295621,"internal_node_id":"0.0-11.0-0.0","task_version":"screening-prolific","missing":false,"accuracy":0},{"contexts":["blue","red","green"],"outcomes":[0,0,1],"key":37,"choice":0,"rt":1412.0199999888428,"outcome":0,"trial":6,"correct":0,"trial_type":"three-arm-trial","trial_index":13,"time_elapsed":298236,"internal_node_id":"0.0-12.0-0.0","task_version":"screening-prolific","missing":false,"accuracy":1},{"contexts":["blue","red","green"],"outcomes":[1,1,0],"key":37,"choice":0,"rt":331.70000003883615,"outcome":1,"trial":7,"correct":0,"trial_type":"three-arm-trial","trial_index":14,"time_elapsed":299771,"internal_node_id":"0.0-13.0-0.0","task_version":"screening-prolific","missing":false,"accuracy":1},{"contexts":["blue","red","green"],"outcomes":[1,0,0],"key":37,"choice":0,"rt":548.4100000467151,"outcome":1,"trial":8,"correct":0,"trial_type":"three-arm-trial","trial_index":15,"time_elapsed":301522,"internal_node_id":"0.0-14.0-0.0","task_version":"screening-prolific","missing":false,"accuracy":1},{"contexts":["blue","red","green"],"outcomes":[0,0,0],"key":37,"choice":0,"rt":397.65499997884035,"outcome":0,"trial":9,"correct":0,"trial_type":"three-arm-trial","trial_index":16,"time_elapsed":303122,"internal_node_id":"0.0-15.0-0.0","task_version":"screening-prolific","missing":false,"accuracy":1},{"contexts":["blue","red","green"],"outcomes":[0,0,0],"key":39,"choice":2,"rt":302.28500004159287,"outcome":0,"trial":10,"correct":0,"trial_type":"three-arm-trial","trial_index":17,"time_elapsed":304628,"internal_node_id":"0.0-16.0-0.0","task_version":"screening-prolific","missing":false,"accuracy":0},{"contexts":["blue","red","green"],"outcomes":[0,0,0],"key":39,"choice":2,"rt":286.5150000434369,"outcome":0,"trial":11,"correct":0,"trial_type":"three-arm-trial","trial_index":18,"time_elapsed":306118,"internal_node_id":"0.0-17.0-0.0","task_version":"screening-prolific","missing":false,"accuracy":0},{"contexts":["blue","red","green"],"outcomes":[1,1,1],"key":38,"choice":1,"rt":129.04000002890825,"outcome":1,"trial":12,"correct":0,"trial_type":"three-arm-trial","trial_index":19,"time_elapsed":307450,"internal_node_id":"0.0-18.0-0.0","task_version":"screening-prolific","missing":false,"accuracy":0},{"contexts":["blue","red","green"],"outcomes":[1,0,0],"key":38,"choice":1,"rt":300.54999998537824,"outcome":0,"trial":13,"correct":0,"trial_type":"three-arm-trial","trial_index":20,"time_elapsed":308954,"internal_node_id":"0.0-19.0-0.0","task_version":"screening-prolific","missing":false,"accuracy":0},{"contexts":["blue","red","green"],"outcomes":[1,0,1],"key":38,"choice":1,"rt":221.69999999459833,"outcome":0,"trial":14,"correct":0,"trial_type":"three-arm-trial","trial_index":21,"time_elapsed":310379,"internal_node_id":"0.0-20.0-0.0","task_version":"screening-prolific","missing":false,"accuracy":0},{"contexts":["blue","red","green"],"outcomes":[1,0,0],"key":37,"choice":0,"rt":33.9500000118278,"outcome":1,"trial":15,"correct":0,"trial_type":"three-arm-trial","trial_index":22,"time_elapsed":311617,"internal_node_id":"0.0-21.0-0.0","task_version":"screening-prolific","missing":false,"accuracy":1},{"contexts":["blue","red","green"],"outcomes":[0,1,1],"key":37,"choice":0,"rt":130.69499999983236,"outcome":0,"trial":16,"correct":2,"trial_type":"three-arm-trial","trial_index":23,"time_elapsed":312950,"internal_node_id":"0.0-22.0-0.0","task_version":"screening-prolific","missing":false,"accuracy":0},{"contexts":["blue","red","green"],"outcomes":[0,0,1],"key":37,"choice":0,"rt":90.02999996300787,"outcome":0,"trial":17,"correct":2,"trial_type":"three-arm-trial","trial_index":24,"time_elapsed":314243,"internal_node_id":"0.0-23.0-0.0","task_version":"screening-prolific","missing":false,"accuracy":0},{"contexts":["blue","red","green"],"outcomes":[1,0,1],"key":37,"choice":0,"rt":21.000000007916242,"outcome":1,"trial":18,"correct":2,"trial_type":"three-arm-trial","trial_index":25,"time_elapsed":315467,"internal_node_id":"0.0-24.0-0.0","task_version":"screening-prolific","missing":false,"accuracy":0},{"contexts":["blue","red","green"],"outcomes":[0,0,1],"key":37,"choice":0,"rt":46.08499997993931,"outcome":0,"trial":19,"correct":2,"trial_type":"three-arm-trial","trial_index":26,"time_elapsed":316716,"internal_node_id":"0.0-25.0-0.0","task_version":"screening-prolific","missing":false,"accuracy":0},{"contexts":["blue","red","green"],"outcomes":[0,0,1],"key":37,"choice":0,"rt":285.89499997906387,"outcome":0,"trial":20,"correct":2,"trial_type":"three-arm-trial","trial_index":27,"time_elapsed":318204,"internal_node_id":"0.0-26.0-0.0","task_version":"screening-prolific","missing":false,"accuracy":0},{"contexts":["blue","red","green"],"outcomes":[0,1,0],"key":37,"choice":0,"rt":492.97999998088926,"outcome":0,"trial":21,"correct":2,"trial_type":"three-arm-trial","trial_index":28,"time_elapsed":319900,"internal_node_id":"0.0-27.0-0.0","task_version":"screening-prolific","missing":false,"accuracy":0},{"contexts":["blue","red","green"],"outcomes":[1,0,1],"key":38,"choice":1,"rt":327.48500001616776,"outcome":0,"trial":22,"correct":2,"trial_type":"three-arm-trial","trial_index":29,"time_elapsed":321430,"internal_node_id":"0.0-28.0-0.0","task_version":"screening-prolific","missing":false,"accuracy":0},{"contexts":["blue","red","green"],"outcomes":[0,0,1],"key":38,"choice":1,"rt":296.764999977313,"outcome":0,"trial":23,"correct":2,"trial_type":"three-arm-trial","trial_index":30,"time_elapsed":322930,"internal_node_id":"0.0-29.0-0.0","task_version":"screening-prolific","missing":false,"accuracy":0},{"contexts":["blue","red","green"],"outcomes":[0,0,1],"key":38,"choice":1,"rt":159.57499999785796,"outcome":0,"trial":24,"correct":2,"trial_type":"three-arm-trial","trial_index":31,"time_elapsed":324292,"internal_node_id":"0.0-30.0-0.0","task_version":"screening-prolific","missing":false,"accuracy":0},{"contexts":["blue","red","green"],"outcomes":[0,0,1],"key":39,"choice":2,"rt":320.10499999159947,"outcome":1,"trial":25,"correct":2,"trial_type":"three-arm-trial","trial_index":32,"time_elapsed":325815,"internal_node_id":"0.0-31.0-0.0","task_version":"screening-prolific","missing":false,"accuracy":1},{"contexts":["blue","red","green"],"outcomes":[0,0,1],"key":39,"choice":2,"rt":349.11499998997897,"outcome":1,"trial":26,"correct":2,"trial_type":"three-arm-trial","trial_index":33,"time_elapsed":327368,"internal_node_id":"0.0-32.0-0.0","task_version":"screening-prolific","missing":false,"accuracy":1},{"contexts":["blue","red","green"],"outcomes":[0,1,1],"key":39,"choice":2,"rt":298.4849999775179,"outcome":1,"trial":27,"correct":2,"trial_type":"three-arm-trial","trial_index":34,"time_elapsed":328870,"internal_node_id":"0.0-33.0-0.0","task_version":"screening-prolific","missing":false,"accuracy":1},{"contexts":["blue","red","green"],"outcomes":[0,0,1],"key":39,"choice":2,"rt":284.19999999459833,"outcome":1,"trial":28,"correct":2,"trial_type":"three-arm-trial","trial_index":35,"time_elapsed":330358,"internal_node_id":"0.0-34.0-0.0","task_version":"screening-prolific","missing":false,"accuracy":1},{"contexts":["blue","red","green"],"outcomes":[0,0,0],"key":39,"choice":2,"rt":235.8449999592267,"outcome":0,"trial":29,"correct":2,"trial_type":"three-arm-trial","trial_index":36,"time_elapsed":331797,"internal_node_id":"0.0-35.0-0.0","task_version":"screening-prolific","missing":false,"accuracy":1},{"contexts":["blue","red","green"],"outcomes":[0,1,1],"key":37,"choice":0,"rt":205.1600000122562,"outcome":0,"trial":30,"correct":2,"trial_type":"three-arm-trial","trial_index":37,"time_elapsed":333205,"internal_node_id":"0.0-36.0-0.0","task_version":"screening-prolific","missing":false,"accuracy":0},{"contexts":["blue","red","green"],"outcomes":[1,1,1],"key":37,"choice":0,"rt":115.98000000230968,"outcome":1,"trial":31,"correct":0,"trial_type":"three-arm-trial","trial_index":38,"time_elapsed":334524,"internal_node_id":"0.0-37.0-0.0","task_version":"screening-prolific","missing":false,"accuracy":1},{"contexts":["blue","red","green"],"outcomes":[1,1,0],"key":37,"choice":0,"rt":300.12500000884756,"outcome":1,"trial":32,"correct":0,"trial_type":"three-arm-trial","trial_index":39,"time_elapsed":336026,"internal_node_id":"0.0-38.0-0.0","task_version":"screening-prolific","missing":false,"accuracy":1},{"contexts":["blue","red","green"],"outcomes":[1,0,0],"key":37,"choice":0,"rt":120.66499999491498,"outcome":1,"trial":33,"correct":0,"trial_type":"three-arm-trial","trial_index":40,"time_elapsed":337349,"internal_node_id":"0.0-39.0-0.0","task_version":"screening-prolific","missing":false,"accuracy":1},{"contexts":["blue","red","green"],"outcomes":[0,1,0],"key":37,"choice":0,"rt":261.76500000292435,"outcome":0,"trial":34,"correct":0,"trial_type":"three-arm-trial","trial_index":41,"time_elapsed":338814,"internal_node_id":"0.0-40.0-0.0","task_version":"screening-prolific","missing":false,"accuracy":1},{"contexts":["blue","red","green"],"outcomes":[1,0,0],"key":38,"choice":1,"rt":48.96000004373491,"outcome":0,"trial":35,"correct":0,"trial_type":"three-arm-trial","trial_index":42,"time_elapsed":340066,"internal_node_id":"0.0-41.0-0.0","task_version":"screening-prolific","missing":false,"accuracy":0},{"contexts":["blue","red","green"],"outcomes":[1,1,0],"key":38,"choice":1,"rt":127.55499995546415,"outcome":1,"trial":36,"correct":0,"trial_type":"three-arm-trial","trial_index":43,"time_elapsed":341396,"internal_node_id":"0.0-42.0-0.0","task_version":"screening-prolific","missing":false,"accuracy":0},{"contexts":["blue","red","green"],"outcomes":[1,0,0],"key":38,"choice":1,"rt":229.8150000278838,"outcome":0,"trial":37,"correct":0,"trial_type":"three-arm-trial","trial_index":44,"time_elapsed":342829,"internal_node_id":"0.0-43.0-0.0","task_version":"screening-prolific","missing":false,"accuracy":0},{"contexts":["blue","red","green"],"outcomes":[0,1,0],"key":38,"choice":1,"rt":18.30499997595325,"outcome":1,"trial":38,"correct":0,"trial_type":"three-arm-trial","trial_index":45,"time_elapsed":344050,"internal_node_id":"0.0-44.0-0.0","task_version":"screening-prolific","missing":false,"accuracy":0},{"contexts":["blue","red","green"],"outcomes":[1,0,0],"key":38,"choice":1,"rt":173.41500002657995,"outcome":0,"trial":39,"correct":0,"trial_type":"three-arm-trial","trial_index":46,"time_elapsed":345427,"internal_node_id":"0.0-45.0-0.0","task_version":"screening-prolific","missing":false,"accuracy":0},{"contexts":["blue","red","green"],"outcomes":[1,0,0],"key":38,"choice":1,"rt":119.66500000562519,"outcome":0,"trial":40,"correct":0,"trial_type":"three-arm-trial","trial_index":47,"time_elapsed":346751,"internal_node_id":"0.0-46.0-0.0","task_version":"screening-prolific","missing":false,"accuracy":0},{"contexts":["blue","red","green"],"outcomes":[1,0,0],"key":39,"choice":2,"rt":131.920000014361,"outcome":0,"trial":41,"correct":0,"trial_type":"three-arm-trial","trial_index":48,"time_elapsed":348087,"internal_node_id":"0.0-47.0-0.0","task_version":"screening-prolific","missing":false,"accuracy":0},{"contexts":["blue","red","green"],"outcomes":[1,0,0],"key":39,"choice":2,"rt":118.54499997571111,"outcome":0,"trial":42,"correct":0,"trial_type":"three-arm-trial","trial_index":49,"time_elapsed":349408,"internal_node_id":"0.0-48.0-0.0","task_version":"screening-prolific","missing":false,"accuracy":0},{"contexts":["blue","red","green"],"outcomes":[1,0,0],"key":39,"choice":2,"rt":190.56000001728535,"outcome":0,"trial":43,"correct":0,"trial_type":"three-arm-trial","trial_index":50,"time_elapsed":350802,"internal_node_id":"0.0-49.0-0.0","task_version":"screening-prolific","missing":false,"accuracy":0},{"contexts":["blue","red","green"],"outcomes":[1,1,0],"key":37,"choice":0,"rt":206.72499999636784,"outcome":1,"trial":44,"correct":0,"trial_type":"three-arm-trial","trial_index":51,"time_elapsed":352211,"internal_node_id":"0.0-50.0-0.0","task_version":"screening-prolific","missing":false,"accuracy":1},{"contexts":["blue","red","green"],"outcomes":[0,0,0],"key":37,"choice":0,"rt":164.2050000373274,"outcome":0,"trial":45,"correct":0,"trial_type":"three-arm-trial","trial_index":52,"time_elapsed":353578,"internal_node_id":"0.0-51.0-0.0","task_version":"screening-prolific","missing":false,"accuracy":1},{"contexts":["blue","red","green"],"outcomes":[0,1,0],"key":37,"choice":0,"rt":238.5249999933876,"outcome":0,"trial":46,"correct":1,"trial_type":"three-arm-trial","trial_index":53,"time_elapsed":355019,"internal_node_id":"0.0-52.0-0.0","task_version":"screening-prolific","missing":false,"accuracy":0},{"contexts":["blue","red","green"],"outcomes":[0,1,0],"key":37,"choice":0,"rt":6.935000012163073,"outcome":0,"trial":47,"correct":1,"trial_type":"three-arm-trial","trial_index":54,"time_elapsed":356229,"internal_node_id":"0.0-53.0-0.0","task_version":"screening-prolific","missing":false,"accuracy":0},{"contexts":["blue","red","green"],"outcomes":[0,1,1],"key":37,"choice":0,"rt":434.10000001313165,"outcome":0,"trial":48,"correct":1,"trial_type":"three-arm-trial","trial_index":55,"time_elapsed":357868,"internal_node_id":"0.0-54.0-0.0","task_version":"screening-prolific","missing":false,"accuracy":0},{"contexts":["blue","red","green"],"outcomes":[0,1,0],"key":38,"choice":1,"rt":279.0000000386499,"outcome":1,"trial":49,"correct":1,"trial_type":"three-arm-trial","trial_index":56,"time_elapsed":359350,"internal_node_id":"0.0-55.0-0.0","task_version":"screening-prolific","missing":false,"accuracy":1},{"contexts":["blue","red","green"],"outcomes":[0,1,0],"key":38,"choice":1,"rt":152.71000005304813,"outcome":1,"trial":50,"correct":1,"trial_type":"three-arm-trial","trial_index":57,"time_elapsed":360705,"internal_node_id":"0.0-56.0-0.0","task_version":"screening-prolific","missing":false,"accuracy":1},{"contexts":["blue","red","green"],"outcomes":[0,1,0],"key":38,"choice":1,"rt":107.14499995810911,"outcome":1,"trial":51,"correct":1,"trial_type":"three-arm-trial","trial_index":58,"time_elapsed":362015,"internal_node_id":"0.0-57.0-0.0","task_version":"screening-prolific","missing":false,"accuracy":1},{"contexts":["blue","red","green"],"outcomes":[0,1,0],"key":38,"choice":1,"rt":184.464999998454,"outcome":1,"trial":52,"correct":1,"trial_type":"three-arm-trial","trial_index":59,"time_elapsed":363402,"internal_node_id":"0.0-58.0-0.0","task_version":"screening-prolific","missing":false,"accuracy":1},{"contexts":["blue","red","green"],"outcomes":[0,1,0],"key":38,"choice":1,"rt":48.70500002289191,"outcome":1,"trial":53,"correct":1,"trial_type":"three-arm-trial","trial_index":60,"time_elapsed":364654,"internal_node_id":"0.0-59.0-0.0","task_version":"screening-prolific","missing":false,"accuracy":1},{"contexts":["blue","red","green"],"outcomes":[0,1,0],"key":38,"choice":1,"rt":185.825000051409,"outcome":1,"trial":54,"correct":1,"trial_type":"three-arm-trial","trial_index":61,"time_elapsed":366042,"internal_node_id":"0.0-60.0-0.0","task_version":"screening-prolific","missing":false,"accuracy":1},{"contexts":["blue","red","green"],"outcomes":[0,0,0],"key":38,"choice":1,"rt":74.9550000182353,"outcome":0,"trial":55,"correct":1,"trial_type":"three-arm-trial","trial_index":62,"time_elapsed":367321,"internal_node_id":"0.0-61.0-0.0","task_version":"screening-prolific","missing":false,"accuracy":1},{"contexts":["blue","red","green"],"outcomes":[0,0,0],"key":38,"choice":1,"rt":421.0149999707937,"outcome":0,"trial":56,"correct":1,"trial_type":"three-arm-trial","trial_index":63,"time_elapsed":368945,"internal_node_id":"0.0-62.0-0.0","task_version":"screening-prolific","missing":false,"accuracy":1},{"contexts":["blue","red","green"],"outcomes":[0,1,0],"key":38,"choice":1,"rt":288.1150000030175,"outcome":1,"trial":57,"correct":1,"trial_type":"three-arm-trial","trial_index":64,"time_elapsed":370437,"internal_node_id":"0.0-63.0-0.0","task_version":"screening-prolific","missing":false,"accuracy":1},{"contexts":["blue","red","green"],"outcomes":[0,1,0],"key":38,"choice":1,"rt":132.63499998720363,"outcome":1,"trial":58,"correct":1,"trial_type":"three-arm-trial","trial_index":65,"time_elapsed":371773,"internal_node_id":"0.0-64.0-0.0","task_version":"screening-prolific","missing":false,"accuracy":1},{"contexts":["blue","red","green"],"outcomes":[0,1,0],"key":38,"choice":1,"rt":39.145000046119094,"outcome":1,"trial":59,"correct":1,"trial_type":"three-arm-trial","trial_index":66,"time_elapsed":373015,"internal_node_id":"0.0-65.0-0.0","task_version":"screening-prolific","missing":false,"accuracy":1},{"contexts":["blue","red","green"],"outcomes":[0,0,0],"key":38,"choice":1,"rt":69.11499996203929,"outcome":0,"trial":60,"correct":1,"trial_type":"three-arm-trial","trial_index":67,"time_elapsed":374288,"internal_node_id":"0.0-66.0-0.0","task_version":"screening-prolific","missing":false,"accuracy":1},{"contexts":["blue","red","green"],"outcomes":[1,0,0],"key":38,"choice":1,"rt":154.10499996505678,"outcome":0,"trial":61,"correct":0,"trial_type":"three-arm-trial","trial_index":68,"time_elapsed":375645,"internal_node_id":"0.0-67.0-0.0","task_version":"screening-prolific","missing":false,"accuracy":0},{"contexts":["blue","red","green"],"outcomes":[1,0,0],"key":39,"choice":2,"rt":84.77000001585111,"outcome":0,"trial":62,"correct":0,"trial_type":"three-arm-trial","trial_index":69,"time_elapsed":376934,"internal_node_id":"0.0-68.0-0.0","task_version":"screening-prolific","missing":false,"accuracy":0},{"contexts":["blue","red","green"],"outcomes":[1,1,1],"key":39,"choice":2,"rt":366.78000004030764,"outcome":1,"trial":63,"correct":0,"trial_type":"three-arm-trial","trial_index":70,"time_elapsed":378504,"internal_node_id":"0.0-69.0-0.0","task_version":"screening-prolific","missing":false,"accuracy":0},{"contexts":["blue","red","green"],"outcomes":[0,0,0],"key":39,"choice":2,"rt":143.5349999810569,"outcome":0,"trial":64,"correct":0,"trial_type":"three-arm-trial","trial_index":71,"time_elapsed":379850,"internal_node_id":"0.0-70.0-0.0","task_version":"screening-prolific","missing":false,"accuracy":0},{"contexts":["blue","red","green"],"outcomes":[1,0,0],"key":39,"choice":2,"rt":366.9600000139326,"outcome":0,"trial":65,"correct":0,"trial_type":"three-arm-trial","trial_index":72,"time_elapsed":381421,"internal_node_id":"0.0-71.0-0.0","task_version":"screening-prolific","missing":false,"accuracy":0},{"contexts":["blue","red","green"],"outcomes":[1,0,0],"key":37,"choice":0,"rt":144.69999994616956,"outcome":1,"trial":66,"correct":0,"trial_type":"three-arm-trial","trial_index":73,"time_elapsed":382769,"internal_node_id":"0.0-72.0-0.0","task_version":"screening-prolific","missing":false,"accuracy":1},{"contexts":["blue","red","green"],"outcomes":[1,0,1],"key":37,"choice":0,"rt":162.18999994453043,"outcome":1,"trial":67,"correct":0,"trial_type":"three-arm-trial","trial_index":74,"time_elapsed":384134,"internal_node_id":"0.0-73.0-0.0","task_version":"screening-prolific","missing":false,"accuracy":1},{"contexts":["blue","red","green"],"outcomes":[1,0,0],"key":37,"choice":0,"rt":258.7700000149198,"outcome":1,"trial":68,"correct":0,"trial_type":"three-arm-trial","trial_index":75,"time_elapsed":385595,"internal_node_id":"0.0-74.0-0.0","task_version":"screening-prolific","missing":false,"accuracy":1},{"contexts":["blue","red","green"],"outcomes":[1,0,0],"key":37,"choice":0,"rt":189.33500000275671,"outcome":1,"trial":69,"correct":0,"trial_type":"three-arm-trial","trial_index":76,"time_elapsed":386987,"internal_node_id":"0.0-75.0-0.0","task_version":"screening-prolific","missing":false,"accuracy":1},{"contexts":["blue","red","green"],"outcomes":[1,0,0],"key":37,"choice":0,"rt":262.7949999878183,"outcome":1,"trial":70,"correct":0,"trial_type":"three-arm-trial","trial_index":77,"time_elapsed":388453,"internal_node_id":"0.0-76.0-0.0","task_version":"screening-prolific","missing":false,"accuracy":1},{"contexts":["blue","red","green"],"outcomes":[1,0,0],"key":37,"choice":0,"rt":269.20500001870096,"outcome":1,"trial":71,"correct":0,"trial_type":"three-arm-trial","trial_index":78,"time_elapsed":389925,"internal_node_id":"0.0-77.0-0.0","task_version":"screening-prolific","missing":false,"accuracy":1},{"contexts":["blue","red","green"],"outcomes":[1,0,0],"key":37,"choice":0,"rt":261.17999997222796,"outcome":1,"trial":72,"correct":0,"trial_type":"three-arm-trial","trial_index":79,"time_elapsed":391389,"internal_node_id":"0.0-78.0-0.0","task_version":"screening-prolific","missing":false,"accuracy":1},{"contexts":["blue","red","green"],"outcomes":[1,0,0],"key":37,"choice":0,"rt":238.34500001976267,"outcome":1,"trial":73,"correct":0,"trial_type":"three-arm-trial","trial_index":80,"time_elapsed":392830,"internal_node_id":"0.0-79.0-0.0","task_version":"screening-prolific","missing":false,"accuracy":1},{"contexts":["blue","red","green"],"outcomes":[1,0,0],"key":37,"choice":0,"rt":145.95499995630234,"outcome":1,"trial":74,"correct":0,"trial_type":"three-arm-trial","trial_index":81,"time_elapsed":394179,"internal_node_id":"0.0-80.0-0.0","task_version":"screening-prolific","missing":false,"accuracy":1},{"contexts":["blue","red","green"],"outcomes":[0,0,1],"key":37,"choice":0,"rt":104.76000001654029,"outcome":0,"trial":75,"correct":0,"trial_type":"three-arm-trial","trial_index":82,"time_elapsed":395487,"internal_node_id":"0.0-81.0-0.0","task_version":"screening-prolific","missing":false,"accuracy":1},{"contexts":["blue","red","green"],"outcomes":[0,0,1],"key":38,"choice":1,"rt":38.890000025276095,"outcome":0,"trial":76,"correct":2,"trial_type":"three-arm-trial","trial_index":83,"time_elapsed":396728,"internal_node_id":"0.0-82.0-0.0","task_version":"screening-prolific","missing":false,"accuracy":0},{"contexts":["blue","red","green"],"outcomes":[1,0,0],"key":38,"choice":1,"rt":115.63499999465421,"outcome":0,"trial":77,"correct":2,"trial_type":"three-arm-trial","trial_index":84,"time_elapsed":398047,"internal_node_id":"0.0-83.0-0.0","task_version":"screening-prolific","missing":false,"accuracy":0},{"contexts":["blue","red","green"],"outcomes":[1,0,1],"key":39,"choice":2,"rt":330.0399999716319,"outcome":1,"trial":78,"correct":2,"trial_type":"three-arm-trial","trial_index":85,"time_elapsed":399579,"internal_node_id":"0.0-84.0-0.0","task_version":"screening-prolific","missing":false,"accuracy":1},{"contexts":["blue","red","green"],"outcomes":[1,0,1],"key":39,"choice":2,"rt":199.59999999264255,"outcome":1,"trial":79,"correct":2,"trial_type":"three-arm-trial","trial_index":86,"time_elapsed":400982,"internal_node_id":"0.0-85.0-0.0","task_version":"screening-prolific","missing":false,"accuracy":1},{"contexts":["blue","red","green"],"outcomes":[1,0,1],"key":39,"choice":2,"rt":250.63000002410263,"outcome":1,"trial":80,"correct":2,"trial_type":"three-arm-trial","trial_index":87,"time_elapsed":402437,"internal_node_id":"0.0-86.0-0.0","task_version":"screening-prolific","missing":false,"accuracy":1},{"contexts":["blue","red","green"],"outcomes":[0,0,1],"key":39,"choice":2,"rt":221.5899999719113,"outcome":1,"trial":81,"correct":2,"trial_type":"three-arm-trial","trial_index":88,"time_elapsed":403861,"internal_node_id":"0.0-87.0-0.0","task_version":"screening-prolific","missing":false,"accuracy":1},{"contexts":["blue","red","green"],"outcomes":[0,0,0],"key":39,"choice":2,"rt":205.85500000743195,"outcome":0,"trial":82,"correct":2,"trial_type":"three-arm-trial","trial_index":89,"time_elapsed":405269,"internal_node_id":"0.0-88.0-0.0","task_version":"screening-prolific","missing":false,"accuracy":1},{"contexts":["blue","red","green"],"outcomes":[1,0,1],"key":38,"choice":1,"rt":247.9699999676086,"outcome":0,"trial":83,"correct":2,"trial_type":"three-arm-trial","trial_index":90,"time_elapsed":406721,"internal_node_id":"0.0-89.0-0.0","task_version":"screening-prolific","missing":false,"accuracy":0},{"contexts":["blue","red","green"],"outcomes":[0,0,0],"key":37,"choice":0,"rt":178.16499999025837,"outcome":0,"trial":84,"correct":2,"trial_type":"three-arm-trial","trial_index":91,"time_elapsed":408103,"internal_node_id":"0.0-90.0-0.0","task_version":"screening-prolific","missing":false,"accuracy":0},{"contexts":["blue","red","green"],"outcomes":[0,0,1],"key":38,"choice":1,"rt":187.51000001793727,"outcome":0,"trial":85,"correct":2,"trial_type":"three-arm-trial","trial_index":92,"time_elapsed":409494,"internal_node_id":"0.0-91.0-0.0","task_version":"screening-prolific","missing":false,"accuracy":0},{"contexts":["blue","red","green"],"outcomes":[0,0,0],"key":38,"choice":1,"rt":243.13999997684732,"outcome":0,"trial":86,"correct":2,"trial_type":"three-arm-trial","trial_index":93,"time_elapsed":410941,"internal_node_id":"0.0-92.0-0.0","task_version":"screening-prolific","missing":false,"accuracy":0},{"contexts":["blue","red","green"],"outcomes":[0,1,1],"key":37,"choice":0,"rt":240.38999999174848,"outcome":0,"trial":87,"correct":2,"trial_type":"three-arm-trial","trial_index":94,"time_elapsed":412384,"internal_node_id":"0.0-93.0-0.0","task_version":"screening-prolific","missing":false,"accuracy":0},{"contexts":["blue","red","green"],"outcomes":[0,1,1],"key":37,"choice":0,"rt":220.9300000104122,"outcome":0,"trial":88,"correct":2,"trial_type":"three-arm-trial","trial_index":95,"time_elapsed":413808,"internal_node_id":"0.0-94.0-0.0","task_version":"screening-prolific","missing":false,"accuracy":0},{"contexts":["blue","red","green"],"outcomes":[0,0,1],"key":39,"choice":2,"rt":3.425000002607703,"outcome":1,"trial":89,"correct":2,"trial_type":"three-arm-trial","trial_index":96,"time_elapsed":415015,"internal_node_id":"0.0-95.0-0.0","task_version":"screening-prolific","missing":false,"accuracy":1},{"contexts":["blue","red","green"],"outcomes":[0,1,1],"key":39,"choice":2,"rt":189.600000041537,"outcome":1,"trial":90,"correct":2,"trial_type":"three-arm-trial","trial_index":97,"time_elapsed":416407,"internal_node_id":"0.0-96.0-0.0","task_version":"screening-prolific","missing":false,"accuracy":1},{"rt":22013.085000042338,"responses":{"age":"19","gender-categorical":"Male","gender-free-response":"","ethnicity":"Not Hispanic or Latino","race":["Asian"],"language":"No","fluency":"Very well","mturk":"No","mturk-this-study":"No"},"survey":"demographics","trial_type":"survey-demo","trial_index":98,"time_elapsed":438428,"internal_node_id":"0.0-97.0","task_version":"screening-prolific","interactions":"[{\"event\":\"blur\",\"trial\":2,\"time\":127425},{\"event\":\"focus\",\"trial\":2,\"time\":129238}]"}]