[{"responses":{"Q05":"1","Q04":"3","Q08":"0","Q06":"1","Q01":"2","Q02":"2","Q07":"0","Q03":"3"},"rt":33685.46500010416,"survey":"gad7","trial_type":"survey-template","trial_index":0,"time_elapsed":33692,"internal_node_id":"0.0-0.0","task_version":"screening-prolific"},{"responses":{"Q01":"1","Q02":"2","Q03":"3"},"rt":15052.809999790043,"survey":"pswq","trial_type":"survey-template","trial_index":1,"time_elapsed":48747,"internal_node_id":"0.0-1.0","task_version":"screening-prolific"},{"responses":{"Q05":"2","Q03":"1","Q02":"0","Q10":"3","Q07":"1","Q14":"2","Q15":"3","Q11":"1","Q12":"2","Q13":"1","Q06":"2","Q01":"2","Q04":"2","Q08":"1","Q09":"2"},"rt":63270.950000034645,"survey":"shaps","trial_type":"survey-template","trial_index":2,"time_elapsed":112021,"internal_node_id":"0.0-2.0","task_version":"screening-prolific"},{"responses":{"Q11":"3","Q09":"1","Q07":"2","Q06":"0","Q12":"3","Q03":"0","Q15":"0","Q14":"2","Q01":"0","Q05":"3","Q10":"2","Q08":"1","Q13":"1","Q04":"0","Q02":"3"},"rt":112029.43999995477,"survey":"7up7down","trial_type":"survey-template","trial_index":3,"time_elapsed":224052,"internal_node_id":"0.0-3.0","task_version":"screening-prolific"},{"responses":{"Q06":"3","Q11":"0","Q09":"1","Q10":"2","Q13":"0","Q02":"2","Q05":"3","Q04":"3","Q03":"3","Q08":"2","Q07":"2","Q12":"1","Q01":"3"},"rt":64205.314999911934,"survey":"bisbas","trial_type":"survey-template","trial_index":4,"time_elapsed":288260,"internal_node_id":"0.0-4.0","task_version":"screening-prolific"},{"view_history":"[{\"page_index\":0,\"viewing_time\":13853.074999991804},{\"page_index\":1,\"viewing_time\":11343.885000096634},{\"page_index\":2,\"viewing_time\":10128.044999903068},{\"page_index\":3,\"viewing_time\":5968.010000186041},{\"page_index\":4,\"viewing_time\":9583.794999867678},{\"page_index\":5,\"viewing_time\":4632.010000059381},{\"page_index\":6,\"viewing_time\":4560.025000013411},{\"page_index\":7,\"viewing_time\":5288.165000034496}]","rt":65357.70500008948,"trial_type":"instructions","trial_index":5,"time_elapsed":353619,"internal_node_id":"0.0-5.0-0.0","task_version":"screening-prolific"},{"responses":["True","True","False","False","True"],"num_errors":0,"rt":14606.630000052974,"trial_type":"three-arm-comprehension","trial_index":6,"time_elapsed":368228,"internal_node_id":"0.0-5.0-1.0","task_version":"screening-prolific"},{"view_history":"[{\"page_index\":0,\"viewing_time\":2771.6600000858307}]","rt":2771.9050000887364,"trial_type":"instructions","trial_index":7,"time_elapsed":371003,"internal_node_id":"0.0-6.0","task_version":"screening-prolific"},{"contexts":["blue","green","red"],"outcomes":[0,1,0],"key":38,"choice":1,"rt":3327.440000139177,"outcome":1,"trial":1,"correct":1,"trial_type":"three-arm-trial","trial_index":8,"time_elapsed":375533,"internal_node_id":"0.0-7.0-0.0","task_version":"screening-prolific","missing":false,"accuracy":1},{"contexts":["blue","green","red"],"outcomes":[0,1,0],"key":38,"choice":1,"rt":1228.1649999786168,"outcome":1,"trial":2,"correct":1,"trial_type":"three-arm-trial","trial_index":9,"time_elapsed":377963,"internal_node_id":"0.0-8.0-0.0","task_version":"screening-prolific","missing":false,"accuracy":1},{"contexts":["blue","green","red"],"outcomes":[1,1,0],"key":38,"choice":1,"rt":662.3299999628216,"outcome":1,"trial":3,"correct":1,"trial_type":"three-arm-trial","trial_index":10,"time_elapsed":379827,"internal_node_id":"0.0-9.0-0.0","task_version":"screening-prolific","missing":false,"accuracy":1},{"contexts":["blue","green","red"],"outcomes":[1,1,0],"key":38,"choice":1,"rt":454.15999996475875,"outcome":1,"trial":4,"correct":1,"trial_type":"three-arm-trial","trial_index":11,"time_elapsed":381483,"internal_node_id":"0.0-10.0-0.0","task_version":"screening-prolific","missing":false,"accuracy":1},{"contexts":["blue","green","red"],"outcomes":[1,1,1],"key":38,"choice":1,"rt":462.21500006504357,"outcome":1,"trial":5,"correct":1,"trial_type":"three-arm-trial","trial_index":12,"time_elapsed":383148,"internal_node_id":"0.0-11.0-0.0","task_version":"screening-prolific","missing":false,"accuracy":1},{"contexts":["blue","green","red"],"outcomes":[1,1,0],"key":38,"choice":1,"rt":285.5199999175966,"outcome":1,"trial":6,"correct":1,"trial_type":"three-arm-trial","trial_index":13,"time_elapsed":384635,"internal_node_id":"0.0-12.0-0.0","task_version":"screening-prolific","missing":false,"accuracy":1},{"contexts":["blue","green","red"],"outcomes":[0,1,0],"key":38,"choice":1,"rt":350.90499999932945,"outcome":1,"trial":7,"correct":1,"trial_type":"three-arm-trial","trial_index":14,"time_elapsed":386189,"internal_node_id":"0.0-13.0-0.0","task_version":"screening-prolific","missing":false,"accuracy":1},{"contexts":["blue","green","red"],"outcomes":[0,1,0],"key":38,"choice":1,"rt":284.9749999586493,"outcome":1,"trial":8,"correct":1,"trial_type":"three-arm-trial","trial_index":15,"time_elapsed":387676,"internal_node_id":"0.0-14.0-0.0","task_version":"screening-prolific","missing":false,"accuracy":1},{"contexts":["blue","green","red"],"outcomes":[1,1,0],"key":38,"choice":1,"rt":261.87000004574656,"outcome":1,"trial":9,"correct":1,"trial_type":"three-arm-trial","trial_index":16,"time_elapsed":389141,"internal_node_id":"0.0-15.0-0.0","task_version":"screening-prolific","missing":false,"accuracy":1},{"contexts":["blue","green","red"],"outcomes":[0,1,0],"key":38,"choice":1,"rt":284.6449997741729,"outcome":1,"trial":10,"correct":1,"trial_type":"three-arm-trial","trial_index":17,"time_elapsed":390628,"internal_node_id":"0.0-16.0-0.0","task_version":"screening-prolific","missing":false,"accuracy":1},{"contexts":["blue","green","red"],"outcomes":[0,0,1],"key":38,"choice":1,"rt":325.92500001192093,"outcome":0,"trial":11,"correct":1,"trial_type":"three-arm-trial","trial_index":18,"time_elapsed":392156,"internal_node_id":"0.0-17.0-0.0","task_version":"screening-prolific","missing":false,"accuracy":1},{"contexts":["blue","green","red"],"outcomes":[0,1,1],"key":38,"choice":1,"rt":1444.9700000695884,"outcome":1,"trial":12,"correct":1,"trial_type":"three-arm-trial","trial_index":19,"time_elapsed":394803,"internal_node_id":"0.0-18.0-0.0","task_version":"screening-prolific","missing":false,"accuracy":1},{"contexts":["blue","green","red"],"outcomes":[0,1,0],"key":38,"choice":1,"rt":454.8800000920892,"outcome":1,"trial":13,"correct":1,"trial_type":"three-arm-trial","trial_index":20,"time_elapsed":396460,"internal_node_id":"0.0-19.0-0.0","task_version":"screening-prolific","missing":false,"accuracy":1},{"contexts":["blue","green","red"],"outcomes":[0,1,1],"key":38,"choice":1,"rt":349.309999961406,"outcome":1,"trial":14,"correct":1,"trial_type":"three-arm-trial","trial_index":21,"time_elapsed":398012,"internal_node_id":"0.0-20.0-0.0","task_version":"screening-prolific","missing":false,"accuracy":1},{"contexts":["blue","green","red"],"outcomes":[0,1,0],"key":38,"choice":1,"rt":733.940000180155,"outcome":1,"trial":15,"correct":1,"trial_type":"three-arm-trial","trial_index":22,"time_elapsed":399947,"internal_node_id":"0.0-21.0-0.0","task_version":"screening-prolific","missing":false,"accuracy":1},{"contexts":["blue","green","red"],"outcomes":[0,1,1],"key":38,"choice":1,"rt":454.0850000921637,"outcome":1,"trial":16,"correct":2,"trial_type":"three-arm-trial","trial_index":23,"time_elapsed":401603,"internal_node_id":"0.0-22.0-0.0","task_version":"screening-prolific","missing":false,"accuracy":0},{"contexts":["blue","green","red"],"outcomes":[1,0,0],"key":38,"choice":1,"rt":374.40000008791685,"outcome":0,"trial":17,"correct":2,"trial_type":"three-arm-trial","trial_index":24,"time_elapsed":403179,"internal_node_id":"0.0-23.0-0.0","task_version":"screening-prolific","missing":false,"accuracy":0},{"contexts":["blue","green","red"],"outcomes":[0,0,0],"key":39,"choice":2,"rt":502.3600000422448,"outcome":0,"trial":18,"correct":2,"trial_type":"three-arm-trial","trial_index":25,"time_elapsed":404883,"internal_node_id":"0.0-24.0-0.0","task_version":"screening-prolific","missing":false,"accuracy":1},{"contexts":["blue","green","red"],"outcomes":[0,0,1],"key":39,"choice":2,"rt":270.5149999819696,"outcome":1,"trial":19,"correct":2,"trial_type":"three-arm-trial","trial_index":26,"time_elapsed":406355,"internal_node_id":"0.0-25.0-0.0","task_version":"screening-prolific","missing":false,"accuracy":1},{"contexts":["blue","green","red"],"outcomes":[0,0,1],"key":39,"choice":2,"rt":286.67999990284443,"outcome":1,"trial":20,"correct":2,"trial_type":"three-arm-trial","trial_index":27,"time_elapsed":407845,"internal_node_id":"0.0-26.0-0.0","task_version":"screening-prolific","missing":false,"accuracy":1},{"contexts":["blue","green","red"],"outcomes":[0,0,1],"key":39,"choice":2,"rt":300.9149997960776,"outcome":1,"trial":21,"correct":2,"trial_type":"three-arm-trial","trial_index":28,"time_elapsed":409347,"internal_node_id":"0.0-27.0-0.0","task_version":"screening-prolific","missing":false,"accuracy":1},{"contexts":["blue","green","red"],"outcomes":[0,0,1],"key":39,"choice":2,"rt":318.52000020444393,"outcome":1,"trial":22,"correct":2,"trial_type":"three-arm-trial","trial_index":29,"time_elapsed":410868,"internal_node_id":"0.0-28.0-0.0","task_version":"screening-prolific","missing":false,"accuracy":1},{"contexts":["blue","green","red"],"outcomes":[0,0,1],"key":39,"choice":2,"rt":396.6200000140816,"outcome":1,"trial":23,"correct":2,"trial_type":"three-arm-trial","trial_index":30,"time_elapsed":412467,"internal_node_id":"0.0-29.0-0.0","task_version":"screening-prolific","missing":false,"accuracy":1},{"contexts":["blue","green","red"],"outcomes":[0,1,0],"key":39,"choice":2,"rt":389.27000015974045,"outcome":0,"trial":24,"correct":2,"trial_type":"three-arm-trial","trial_index":31,"time_elapsed":414063,"internal_node_id":"0.0-30.0-0.0","task_version":"screening-prolific","missing":false,"accuracy":1},{"contexts":["blue","green","red"],"outcomes":[0,1,1],"key":39,"choice":2,"rt":545.589999994263,"outcome":1,"trial":25,"correct":2,"trial_type":"three-arm-trial","trial_index":32,"time_elapsed":415812,"internal_node_id":"0.0-31.0-0.0","task_version":"screening-prolific","missing":false,"accuracy":1},{"contexts":["blue","green","red"],"outcomes":[0,0,1],"key":39,"choice":2,"rt":213.36499997414649,"outcome":1,"trial":26,"correct":2,"trial_type":"three-arm-trial","trial_index":33,"time_elapsed":417227,"internal_node_id":"0.0-32.0-0.0","task_version":"screening-prolific","missing":false,"accuracy":1},{"contexts":["blue","green","red"],"outcomes":[0,0,0],"key":39,"choice":2,"rt":285.9400000888854,"outcome":0,"trial":27,"correct":2,"trial_type":"three-arm-trial","trial_index":34,"time_elapsed":418716,"internal_node_id":"0.0-33.0-0.0","task_version":"screening-prolific","missing":false,"accuracy":1},{"contexts":["blue","green","red"],"outcomes":[0,0,1],"key":37,"choice":0,"rt":253.76500003039837,"outcome":0,"trial":28,"correct":2,"trial_type":"three-arm-trial","trial_index":35,"time_elapsed":420172,"internal_node_id":"0.0-34.0-0.0","task_version":"screening-prolific","missing":false,"accuracy":0},{"contexts":["blue","green","red"],"outcomes":[0,0,1],"key":37,"choice":0,"rt":93.22999999858439,"outcome":0,"trial":29,"correct":2,"trial_type":"three-arm-trial","trial_index":36,"time_elapsed":421467,"internal_node_id":"0.0-35.0-0.0","task_version":"screening-prolific","missing":false,"accuracy":0},{"contexts":["blue","green","red"],"outcomes":[0,0,1],"key":38,"choice":1,"rt":318.02999996580184,"outcome":0,"trial":30,"correct":2,"trial_type":"three-arm-trial","trial_index":37,"time_elapsed":422987,"internal_node_id":"0.0-36.0-0.0","task_version":"screening-prolific","missing":false,"accuracy":0},{"contexts":["blue","green","red"],"outcomes":[1,0,0],"key":38,"choice":1,"rt":237.82000015489757,"outcome":0,"trial":31,"correct":0,"trial_type":"three-arm-trial","trial_index":38,"time_elapsed":424427,"internal_node_id":"0.0-37.0-0.0","task_version":"screening-prolific","missing":false,"accuracy":0},{"contexts":["blue","green","red"],"outcomes":[1,0,1],"key":39,"choice":2,"rt":1437.9050000570714,"outcome":1,"trial":32,"correct":0,"trial_type":"three-arm-trial","trial_index":39,"time_elapsed":427068,"internal_node_id":"0.0-38.0-0.0","task_version":"screening-prolific","missing":false,"accuracy":0},{"contexts":["blue","green","red"],"outcomes":[1,0,1],"key":39,"choice":2,"rt":37.490000016987324,"outcome":1,"trial":33,"correct":0,"trial_type":"three-arm-trial","trial_index":40,"time_elapsed":428307,"internal_node_id":"0.0-39.0-0.0","task_version":"screening-prolific","missing":false,"accuracy":0},{"contexts":["blue","green","red"],"outcomes":[1,0,0],"key":39,"choice":2,"rt":326.6650000587106,"outcome":0,"trial":34,"correct":0,"trial_type":"three-arm-trial","trial_index":41,"time_elapsed":429837,"internal_node_id":"0.0-40.0-0.0","task_version":"screening-prolific","missing":false,"accuracy":0},{"contexts":["blue","green","red"],"outcomes":[1,0,1],"key":39,"choice":2,"rt":308.6550000589341,"outcome":1,"trial":35,"correct":0,"trial_type":"three-arm-trial","trial_index":42,"time_elapsed":431347,"internal_node_id":"0.0-41.0-0.0","task_version":"screening-prolific","missing":false,"accuracy":0},{"contexts":["blue","green","red"],"outcomes":[1,0,1],"key":39,"choice":2,"rt":286.1349999438971,"outcome":1,"trial":36,"correct":0,"trial_type":"three-arm-trial","trial_index":43,"time_elapsed":432836,"internal_node_id":"0.0-42.0-0.0","task_version":"screening-prolific","missing":false,"accuracy":0},{"contexts":["blue","green","red"],"outcomes":[1,0,0],"key":39,"choice":2,"rt":357.5500000733882,"outcome":0,"trial":37,"correct":0,"trial_type":"three-arm-trial","trial_index":44,"time_elapsed":434396,"internal_node_id":"0.0-43.0-0.0","task_version":"screening-prolific","missing":false,"accuracy":0},{"contexts":["blue","green","red"],"outcomes":[1,0,0],"key":37,"choice":0,"rt":301.2850000523031,"outcome":1,"trial":38,"correct":0,"trial_type":"three-arm-trial","trial_index":45,"time_elapsed":435899,"internal_node_id":"0.0-44.0-0.0","task_version":"screening-prolific","missing":false,"accuracy":1},{"contexts":["blue","green","red"],"outcomes":[1,0,0],"key":37,"choice":0,"rt":205.8899998664856,"outcome":1,"trial":39,"correct":0,"trial_type":"three-arm-trial","trial_index":46,"time_elapsed":437307,"internal_node_id":"0.0-45.0-0.0","task_version":"screening-prolific","missing":false,"accuracy":1},{"contexts":["blue","green","red"],"outcomes":[1,0,0],"key":37,"choice":0,"rt":269.9649999849498,"outcome":1,"trial":40,"correct":0,"trial_type":"three-arm-trial","trial_index":47,"time_elapsed":438780,"internal_node_id":"0.0-46.0-0.0","task_version":"screening-prolific","missing":false,"accuracy":1},{"contexts":["blue","green","red"],"outcomes":[1,0,0],"key":37,"choice":0,"rt":229.2599999345839,"outcome":1,"trial":41,"correct":0,"trial_type":"three-arm-trial","trial_index":48,"time_elapsed":440213,"internal_node_id":"0.0-47.0-0.0","task_version":"screening-prolific","missing":false,"accuracy":1},{"contexts":["blue","green","red"],"outcomes":[0,0,0],"key":37,"choice":0,"rt":324.60499997250736,"outcome":0,"trial":42,"correct":0,"trial_type":"three-arm-trial","trial_index":49,"time_elapsed":441740,"internal_node_id":"0.0-48.0-0.0","task_version":"screening-prolific","missing":false,"accuracy":1},{"contexts":["blue","green","red"],"outcomes":[1,0,1],"key":38,"choice":1,"rt":462.2849998995662,"outcome":0,"trial":43,"correct":0,"trial_type":"three-arm-trial","trial_index":50,"time_elapsed":443404,"internal_node_id":"0.0-49.0-0.0","task_version":"screening-prolific","missing":false,"accuracy":0},{"contexts":["blue","green","red"],"outcomes":[1,0,0],"key":38,"choice":1,"rt":573.1099999975413,"outcome":0,"trial":44,"correct":0,"trial_type":"three-arm-trial","trial_index":51,"time_elapsed":445180,"internal_node_id":"0.0-50.0-0.0","task_version":"screening-prolific","missing":false,"accuracy":0},{"contexts":["blue","green","red"],"outcomes":[1,0,1],"key":38,"choice":1,"rt":437.70499993115664,"outcome":0,"trial":45,"correct":0,"trial_type":"three-arm-trial","trial_index":52,"time_elapsed":446819,"internal_node_id":"0.0-51.0-0.0","task_version":"screening-prolific","missing":false,"accuracy":0},{"contexts":["blue","green","red"],"outcomes":[0,1,0],"key":37,"choice":0,"rt":181.6300000064075,"outcome":0,"trial":46,"correct":1,"trial_type":"three-arm-trial","trial_index":53,"time_elapsed":448204,"internal_node_id":"0.0-52.0-0.0","task_version":"screening-prolific","missing":false,"accuracy":0},{"contexts":["blue","green","red"],"outcomes":[0,0,0],"key":37,"choice":0,"rt":237.62000002898276,"outcome":0,"trial":47,"correct":1,"trial_type":"three-arm-trial","trial_index":54,"time_elapsed":449644,"internal_node_id":"0.0-53.0-0.0","task_version":"screening-prolific","missing":false,"accuracy":0},{"contexts":["blue","green","red"],"outcomes":[0,1,0],"key":37,"choice":0,"rt":533.7449999060482,"outcome":0,"trial":48,"correct":1,"trial_type":"three-arm-trial","trial_index":55,"time_elapsed":451381,"internal_node_id":"0.0-54.0-0.0","task_version":"screening-prolific","missing":false,"accuracy":0},{"contexts":["blue","green","red"],"outcomes":[1,1,0],"key":39,"choice":2,"rt":308.784999884665,"outcome":0,"trial":49,"correct":1,"trial_type":"three-arm-trial","trial_index":56,"time_elapsed":452892,"internal_node_id":"0.0-55.0-0.0","task_version":"screening-prolific","missing":false,"accuracy":0},{"contexts":["blue","green","red"],"outcomes":[0,1,0],"key":39,"choice":2,"rt":221.4899999089539,"outcome":0,"trial":50,"correct":1,"trial_type":"three-arm-trial","trial_index":57,"time_elapsed":454315,"internal_node_id":"0.0-56.0-0.0","task_version":"screening-prolific","missing":false,"accuracy":0},{"contexts":["blue","green","red"],"outcomes":[1,1,1],"key":39,"choice":2,"rt":494.24999998882413,"outcome":1,"trial":51,"correct":1,"trial_type":"three-arm-trial","trial_index":58,"time_elapsed":456011,"internal_node_id":"0.0-57.0-0.0","task_version":"screening-prolific","missing":false,"accuracy":0},{"contexts":["blue","green","red"],"outcomes":[1,1,0],"key":39,"choice":2,"rt":286.1950001679361,"outcome":0,"trial":52,"correct":1,"trial_type":"three-arm-trial","trial_index":59,"time_elapsed":457499,"internal_node_id":"0.0-58.0-0.0","task_version":"screening-prolific","missing":false,"accuracy":0},{"contexts":["blue","green","red"],"outcomes":[0,1,0],"key":37,"choice":0,"rt":286.3550002221018,"outcome":0,"trial":53,"correct":1,"trial_type":"three-arm-trial","trial_index":60,"time_elapsed":458987,"internal_node_id":"0.0-59.0-0.0","task_version":"screening-prolific","missing":false,"accuracy":0},{"contexts":["blue","green","red"],"outcomes":[0,1,0],"key":37,"choice":0,"rt":190.0850001256913,"outcome":0,"trial":54,"correct":1,"trial_type":"three-arm-trial","trial_index":61,"time_elapsed":460379,"internal_node_id":"0.0-60.0-0.0","task_version":"screening-prolific","missing":false,"accuracy":0},{"contexts":["blue","green","red"],"outcomes":[1,1,0],"key":38,"choice":1,"rt":206.559999845922,"outcome":1,"trial":55,"correct":1,"trial_type":"three-arm-trial","trial_index":62,"time_elapsed":461788,"internal_node_id":"0.0-61.0-0.0","task_version":"screening-prolific","missing":false,"accuracy":1},{"contexts":["blue","green","red"],"outcomes":[1,1,0],"key":38,"choice":1,"rt":260.93999994918704,"outcome":1,"trial":56,"correct":1,"trial_type":"three-arm-trial","trial_index":63,"time_elapsed":463251,"internal_node_id":"0.0-62.0-0.0","task_version":"screening-prolific","missing":false,"accuracy":1},{"contexts":["blue","green","red"],"outcomes":[0,1,0],"key":38,"choice":1,"rt":238.344999961555,"outcome":1,"trial":57,"correct":1,"trial_type":"three-arm-trial","trial_index":64,"time_elapsed":464692,"internal_node_id":"0.0-63.0-0.0","task_version":"screening-prolific","missing":false,"accuracy":1},{"contexts":["blue","green","red"],"outcomes":[0,0,0],"key":38,"choice":1,"rt":341.4050000719726,"outcome":0,"trial":58,"correct":1,"trial_type":"three-arm-trial","trial_index":65,"time_elapsed":466235,"internal_node_id":"0.0-64.0-0.0","task_version":"screening-prolific","missing":false,"accuracy":1},{"contexts":["blue","green","red"],"outcomes":[0,0,0],"key":38,"choice":1,"rt":262.0999999344349,"outcome":0,"trial":59,"correct":1,"trial_type":"three-arm-trial","trial_index":66,"time_elapsed":467699,"internal_node_id":"0.0-65.0-0.0","task_version":"screening-prolific","missing":false,"accuracy":1},{"contexts":["blue","green","red"],"outcomes":[0,1,1],"key":38,"choice":1,"rt":694.2300000227988,"outcome":1,"trial":60,"correct":1,"trial_type":"three-arm-trial","trial_index":67,"time_elapsed":469595,"internal_node_id":"0.0-66.0-0.0","task_version":"screening-prolific","missing":false,"accuracy":1},{"contexts":["blue","green","red"],"outcomes":[0,0,1],"key":38,"choice":1,"rt":294.08999998122454,"outcome":0,"trial":61,"correct":2,"trial_type":"three-arm-trial","trial_index":68,"time_elapsed":471091,"internal_node_id":"0.0-67.0-0.0","task_version":"screening-prolific","missing":false,"accuracy":0},{"contexts":["blue","green","red"],"outcomes":[0,0,0],"key":38,"choice":1,"rt":340.84999980404973,"outcome":0,"trial":62,"correct":2,"trial_type":"three-arm-trial","trial_index":69,"time_elapsed":472636,"internal_node_id":"0.0-68.0-0.0","task_version":"screening-prolific","missing":false,"accuracy":0},{"contexts":["blue","green","red"],"outcomes":[0,1,1],"key":39,"choice":2,"rt":125.38000009953976,"outcome":1,"trial":63,"correct":2,"trial_type":"three-arm-trial","trial_index":70,"time_elapsed":473963,"internal_node_id":"0.0-69.0-0.0","task_version":"screening-prolific","missing":false,"accuracy":1},{"contexts":["blue","green","red"],"outcomes":[0,1,1],"key":39,"choice":2,"rt":965.8900001086295,"outcome":1,"trial":64,"correct":2,"trial_type":"three-arm-trial","trial_index":71,"time_elapsed":476131,"internal_node_id":"0.0-70.0-0.0","task_version":"screening-prolific","missing":false,"accuracy":1},{"contexts":["blue","green","red"],"outcomes":[1,1,1],"key":39,"choice":2,"rt":686.3750000484288,"outcome":1,"trial":65,"correct":2,"trial_type":"three-arm-trial","trial_index":72,"time_elapsed":478019,"internal_node_id":"0.0-71.0-0.0","task_version":"screening-prolific","missing":false,"accuracy":1},{"contexts":["blue","green","red"],"outcomes":[0,0,1],"key":39,"choice":2,"rt":357.5950001832098,"outcome":1,"trial":66,"correct":2,"trial_type":"three-arm-trial","trial_index":73,"time_elapsed":479579,"internal_node_id":"0.0-72.0-0.0","task_version":"screening-prolific","missing":false,"accuracy":1},{"contexts":["blue","green","red"],"outcomes":[0,0,0],"key":39,"choice":2,"rt":357.8850000631064,"outcome":0,"trial":67,"correct":2,"trial_type":"three-arm-trial","trial_index":74,"time_elapsed":481140,"internal_node_id":"0.0-73.0-0.0","task_version":"screening-prolific","missing":false,"accuracy":1},{"contexts":["blue","green","red"],"outcomes":[0,0,1],"key":39,"choice":2,"rt":365.59499986469746,"outcome":1,"trial":68,"correct":2,"trial_type":"three-arm-trial","trial_index":75,"time_elapsed":482708,"internal_node_id":"0.0-74.0-0.0","task_version":"screening-prolific","missing":false,"accuracy":1},{"contexts":["blue","green","red"],"outcomes":[1,0,1],"key":39,"choice":2,"rt":285.08000005967915,"outcome":1,"trial":69,"correct":2,"trial_type":"three-arm-trial","trial_index":76,"time_elapsed":484195,"internal_node_id":"0.0-75.0-0.0","task_version":"screening-prolific","missing":false,"accuracy":1},{"contexts":["blue","green","red"],"outcomes":[0,0,1],"key":39,"choice":2,"rt":350.37999995984137,"outcome":1,"trial":70,"correct":2,"trial_type":"three-arm-trial","trial_index":77,"time_elapsed":485747,"internal_node_id":"0.0-76.0-0.0","task_version":"screening-prolific","missing":false,"accuracy":1},{"contexts":["blue","green","red"],"outcomes":[0,0,0],"key":39,"choice":2,"rt":286.2599999643862,"outcome":0,"trial":71,"correct":2,"trial_type":"three-arm-trial","trial_index":78,"time_elapsed":487236,"internal_node_id":"0.0-77.0-0.0","task_version":"screening-prolific","missing":false,"accuracy":1},{"contexts":["blue","green","red"],"outcomes":[0,0,0],"key":39,"choice":2,"rt":261.0549998935312,"outcome":0,"trial":72,"correct":2,"trial_type":"three-arm-trial","trial_index":79,"time_elapsed":488699,"internal_node_id":"0.0-78.0-0.0","task_version":"screening-prolific","missing":false,"accuracy":1},{"contexts":["blue","green","red"],"outcomes":[1,0,1],"key":37,"choice":0,"rt":285.6399999000132,"outcome":1,"trial":73,"correct":2,"trial_type":"three-arm-trial","trial_index":80,"time_elapsed":490188,"internal_node_id":"0.0-79.0-0.0","task_version":"screening-prolific","missing":false,"accuracy":0},{"contexts":["blue","green","red"],"outcomes":[1,1,0],"key":37,"choice":0,"rt":213.49500003270805,"outcome":1,"trial":74,"correct":2,"trial_type":"three-arm-trial","trial_index":81,"time_elapsed":491604,"internal_node_id":"0.0-80.0-0.0","task_version":"screening-prolific","missing":false,"accuracy":0},{"contexts":["blue","green","red"],"outcomes":[0,0,1],"key":37,"choice":0,"rt":277.4749998934567,"outcome":0,"trial":75,"correct":2,"trial_type":"three-arm-trial","trial_index":82,"time_elapsed":493084,"internal_node_id":"0.0-81.0-0.0","task_version":"screening-prolific","missing":false,"accuracy":0},{"contexts":["blue","green","red"],"outcomes":[0,0,0],"key":37,"choice":0,"rt":292.8249998949468,"outcome":0,"trial":76,"correct":0,"trial_type":"three-arm-trial","trial_index":83,"time_elapsed":494579,"internal_node_id":"0.0-82.0-0.0","task_version":"screening-prolific","missing":false,"accuracy":1},{"contexts":["blue","green","red"],"outcomes":[1,0,0],"key":37,"choice":0,"rt":406.1499999370426,"outcome":1,"trial":77,"correct":0,"trial_type":"three-arm-trial","trial_index":84,"time_elapsed":496188,"internal_node_id":"0.0-83.0-0.0","task_version":"screening-prolific","missing":false,"accuracy":1},{"contexts":["blue","green","red"],"outcomes":[0,1,0],"key":37,"choice":0,"rt":301.3200000859797,"outcome":0,"trial":78,"correct":0,"trial_type":"three-arm-trial","trial_index":85,"time_elapsed":497692,"internal_node_id":"0.0-84.0-0.0","task_version":"screening-prolific","missing":false,"accuracy":1},{"contexts":["blue","green","red"],"outcomes":[1,0,0],"key":38,"choice":1,"rt":469.40500009804964,"outcome":0,"trial":79,"correct":0,"trial_type":"three-arm-trial","trial_index":86,"time_elapsed":499364,"internal_node_id":"0.0-85.0-0.0","task_version":"screening-prolific","missing":false,"accuracy":0},{"contexts":["blue","green","red"],"outcomes":[1,0,0],"key":38,"choice":1,"rt":244.97000011615455,"outcome":0,"trial":80,"correct":0,"trial_type":"three-arm-trial","trial_index":87,"time_elapsed":500811,"internal_node_id":"0.0-86.0-0.0","task_version":"screening-prolific","missing":false,"accuracy":0},{"contexts":["blue","green","red"],"outcomes":[1,0,0],"key":39,"choice":2,"rt":238.04500000551343,"outcome":0,"trial":81,"correct":0,"trial_type":"three-arm-trial","trial_index":88,"time_elapsed":502251,"internal_node_id":"0.0-87.0-0.0","task_version":"screening-prolific","missing":false,"accuracy":0},{"contexts":["blue","green","red"],"outcomes":[0,1,0],"key":37,"choice":0,"rt":94.51500000432134,"outcome":0,"trial":82,"correct":0,"trial_type":"three-arm-trial","trial_index":89,"time_elapsed":503547,"internal_node_id":"0.0-88.0-0.0","task_version":"screening-prolific","missing":false,"accuracy":1},{"contexts":["blue","green","red"],"outcomes":[1,1,0],"key":38,"choice":1,"rt":317.6349999848753,"outcome":1,"trial":83,"correct":0,"trial_type":"three-arm-trial","trial_index":90,"time_elapsed":505068,"internal_node_id":"0.0-89.0-0.0","task_version":"screening-prolific","missing":false,"accuracy":0},{"contexts":["blue","green","red"],"outcomes":[0,0,0],"key":38,"choice":1,"rt":349.54000008292496,"outcome":0,"trial":84,"correct":0,"trial_type":"three-arm-trial","trial_index":91,"time_elapsed":506620,"internal_node_id":"0.0-90.0-0.0","task_version":"screening-prolific","missing":false,"accuracy":0},{"contexts":["blue","green","red"],"outcomes":[1,0,0],"key":38,"choice":1,"rt":356.5500001423061,"outcome":0,"trial":85,"correct":0,"trial_type":"three-arm-trial","trial_index":92,"time_elapsed":508179,"internal_node_id":"0.0-91.0-0.0","task_version":"screening-prolific","missing":false,"accuracy":0},{"contexts":["blue","green","red"],"outcomes":[0,0,0],"key":39,"choice":2,"rt":342.2000000718981,"outcome":0,"trial":86,"correct":0,"trial_type":"three-arm-trial","trial_index":93,"time_elapsed":509723,"internal_node_id":"0.0-92.0-0.0","task_version":"screening-prolific","missing":false,"accuracy":0},{"contexts":["blue","green","red"],"outcomes":[1,1,0],"key":39,"choice":2,"rt":253.58000001870096,"outcome":0,"trial":87,"correct":0,"trial_type":"three-arm-trial","trial_index":94,"time_elapsed":511179,"internal_node_id":"0.0-93.0-0.0","task_version":"screening-prolific","missing":false,"accuracy":0},{"contexts":["blue","green","red"],"outcomes":[1,0,1],"key":39,"choice":2,"rt":302.1400000434369,"outcome":1,"trial":88,"correct":0,"trial_type":"three-arm-trial","trial_index":95,"time_elapsed":512684,"internal_node_id":"0.0-94.0-0.0","task_version":"screening-prolific","missing":false,"accuracy":0},{"contexts":["blue","green","red"],"outcomes":[0,0,1],"key":39,"choice":2,"rt":533.8049998972565,"outcome":1,"trial":89,"correct":0,"trial_type":"three-arm-trial","trial_index":96,"time_elapsed":514420,"internal_node_id":"0.0-95.0-0.0","task_version":"screening-prolific","missing":false,"accuracy":0},{"contexts":["blue","green","red"],"outcomes":[1,1,1],"key":39,"choice":2,"rt":477.0400000270456,"outcome":1,"trial":90,"correct":0,"trial_type":"three-arm-trial","trial_index":97,"time_elapsed":516100,"internal_node_id":"0.0-96.0-0.0","task_version":"screening-prolific","missing":false,"accuracy":0},{"rt":17805.78500009142,"responses":{"age":"31","gender-categorical":"Female","gender-free-response":"","ethnicity":"Not Hispanic or Latino","race":"White","language":"Yes","fluency":"Very well","mturk":"No","mturk-this-study":"No"},"survey":"demographics","trial_type":"survey-demo","trial_index":98,"time_elapsed":533910,"internal_node_id":"0.0-97.0","task_version":"screening-prolific","interactions":"[]"}]