[{"responses":{"Q11":"2","Q06":"2","Q01":"2","Q12":"2","Q15":"3","Q08":"2","Q02":"1","Q05":"2","Q04":"1","Q10":"3","Q09":"1","Q14":"2","Q07":"1","Q13":"3","Q03":"2"},"rt":88231.2099999981,"survey":"shaps","trial_type":"survey-template","trial_index":0,"time_elapsed":88241,"internal_node_id":"0.0-0.0","task_version":"screening-prolific"},{"responses":{"Q03":"2","Q01":"3","Q02":"2"},"rt":12980.22500006482,"survey":"pswq","trial_type":"survey-template","trial_index":1,"time_elapsed":101246,"internal_node_id":"0.0-1.0","task_version":"screening-prolific"},{"responses":{"Q11":"0","Q08":"2","Q05":"3","Q10":"1","Q09":"0","Q07":"3","Q13":"3","Q04":"3","Q06":"3","Q01":"3","Q02":"3","Q12":"1","Q03":"2"},"rt":67434.8099998897,"survey":"bisbas","trial_type":"survey-template","trial_index":2,"time_elapsed":168704,"internal_node_id":"0.0-2.0","task_version":"screening-prolific"},{"responses":{"Q01":"1","Q02":"0","Q08":"0","Q05":"0","Q06":"2","Q03":"1","Q04":"1","Q07":"1"},"rt":32955.74999996461,"survey":"gad7","trial_type":"survey-template","trial_index":3,"time_elapsed":201683,"internal_node_id":"0.0-3.0","task_version":"screening-prolific"},{"responses":{"Q08":"1","Q03":"0","Q07":"0","Q06":"0","Q12":"1","Q13":"0","Q09":"1","Q01":"0","Q10":"1","Q02":"0","Q04":"0","Q05":"2","Q15":"0","Q14":"0","Q11":"1"},"rt":123885.01999992877,"survey":"7up7down","trial_type":"survey-template","trial_index":4,"time_elapsed":325592,"internal_node_id":"0.0-4.0","task_version":"screening-prolific"},{"view_history":"[{\"page_index\":0,\"viewing_time\":20356.514999992214},{\"page_index\":1,\"viewing_time\":10490.530000068247},{\"page_index\":2,\"viewing_time\":9674.484999966808},{\"page_index\":3,\"viewing_time\":4522.104999981821},{\"page_index\":4,\"viewing_time\":4546.104999957606},{\"page_index\":5,\"viewing_time\":3134.3650000635535},{\"page_index\":6,\"viewing_time\":8763.75000004191},{\"page_index\":7,\"viewing_time\":3155.9949999209493}]","rt":64644.12000006996,"trial_type":"instructions","trial_index":5,"time_elapsed":390260,"internal_node_id":"0.0-5.0-0.0","task_version":"screening-prolific"},{"responses":["True","True","False","False","True"],"num_errors":0,"rt":15605.370000004768,"trial_type":"three-arm-comprehension","trial_index":6,"time_elapsed":405868,"internal_node_id":"0.0-5.0-1.0","task_version":"screening-prolific"},{"view_history":"[{\"page_index\":0,\"viewing_time\":2253.194999997504}]","rt":2253.3400000538677,"trial_type":"instructions","trial_index":7,"time_elapsed":408145,"internal_node_id":"0.0-6.0","task_version":"screening-prolific"},{"contexts":["blue","green","red"],"outcomes":[1,0,0],"key":null,"rt":null,"trial":1,"correct":0,"trial_type":"three-arm-trial","trial_index":8,"time_elapsed":423150,"internal_node_id":"0.0-7.0-0.0","task_version":"screening-prolific","missing":true},{"contexts":["blue","green","red"],"outcomes":[1,0,0],"key":39,"choice":2,"rt":500.84999995306134,"outcome":0,"trial":1,"correct":0,"trial_type":"three-arm-trial","trial_index":9,"time_elapsed":424854,"internal_node_id":"0.0-7.1-0.1","task_version":"screening-prolific","missing":false,"accuracy":0},{"contexts":["blue","green","red"],"outcomes":[1,0,0],"key":37,"choice":0,"rt":563.6950000189245,"outcome":1,"trial":2,"correct":0,"trial_type":"three-arm-trial","trial_index":10,"time_elapsed":426642,"internal_node_id":"0.0-8.0-0.0","task_version":"screening-prolific","missing":false,"accuracy":1},{"contexts":["blue","green","red"],"outcomes":[1,1,0],"key":37,"choice":0,"rt":205.98500000778586,"outcome":1,"trial":3,"correct":0,"trial_type":"three-arm-trial","trial_index":11,"time_elapsed":428071,"internal_node_id":"0.0-9.0-0.0","task_version":"screening-prolific","missing":false,"accuracy":1},{"contexts":["blue","green","red"],"outcomes":[0,0,0],"key":null,"rt":null,"trial":4,"correct":0,"trial_type":"three-arm-trial","trial_index":12,"time_elapsed":443097,"internal_node_id":"0.0-10.0-0.0","task_version":"screening-prolific","missing":true},{"contexts":["blue","green","red"],"outcomes":[0,0,0],"key":38,"choice":1,"rt":5540.954999974929,"outcome":0,"trial":4,"correct":0,"trial_type":"three-arm-trial","trial_index":13,"time_elapsed":449840,"internal_node_id":"0.0-10.1-0.1","task_version":"screening-prolific","missing":false,"accuracy":0},{"contexts":["blue","green","red"],"outcomes":[0,0,1],"key":39,"choice":2,"rt":971.7349999118596,"outcome":1,"trial":5,"correct":0,"trial_type":"three-arm-trial","trial_index":14,"time_elapsed":452034,"internal_node_id":"0.0-11.0-0.0","task_version":"screening-prolific","missing":false,"accuracy":0},{"contexts":["blue","green","red"],"outcomes":[0,0,0],"key":37,"choice":0,"rt":3337.2300000628456,"outcome":0,"trial":6,"correct":0,"trial_type":"three-arm-trial","trial_index":15,"time_elapsed":456593,"internal_node_id":"0.0-12.0-0.0","task_version":"screening-prolific","missing":false,"accuracy":1},{"contexts":["blue","green","red"],"outcomes":[1,0,0],"key":39,"choice":2,"rt":52.35000001266599,"outcome":0,"trial":7,"correct":0,"trial_type":"three-arm-trial","trial_index":16,"time_elapsed":457869,"internal_node_id":"0.0-13.0-0.0","task_version":"screening-prolific","missing":false,"accuracy":0},{"contexts":["blue","green","red"],"outcomes":[1,0,0],"key":38,"choice":1,"rt":491.9849999714643,"outcome":0,"trial":8,"correct":0,"trial_type":"three-arm-trial","trial_index":17,"time_elapsed":459585,"internal_node_id":"0.0-14.0-0.0","task_version":"screening-prolific","missing":false,"accuracy":0},{"contexts":["blue","green","red"],"outcomes":[1,1,0],"key":37,"choice":0,"rt":1321.750000002794,"outcome":1,"trial":9,"correct":0,"trial_type":"three-arm-trial","trial_index":18,"time_elapsed":462131,"internal_node_id":"0.0-15.0-0.0","task_version":"screening-prolific","missing":false,"accuracy":1},{"contexts":["blue","green","red"],"outcomes":[0,0,0],"key":37,"choice":0,"rt":168.3150000171736,"outcome":0,"trial":10,"correct":0,"trial_type":"three-arm-trial","trial_index":19,"time_elapsed":463524,"internal_node_id":"0.0-16.0-0.0","task_version":"screening-prolific","missing":false,"accuracy":1},{"contexts":["blue","green","red"],"outcomes":[1,0,0],"key":39,"choice":2,"rt":638.3599999826401,"outcome":0,"trial":11,"correct":0,"trial_type":"three-arm-trial","trial_index":20,"time_elapsed":465387,"internal_node_id":"0.0-17.0-0.0","task_version":"screening-prolific","missing":false,"accuracy":0},{"contexts":["blue","green","red"],"outcomes":[1,0,0],"key":38,"choice":1,"rt":436.3750000484288,"outcome":0,"trial":12,"correct":0,"trial_type":"three-arm-trial","trial_index":21,"time_elapsed":467048,"internal_node_id":"0.0-18.0-0.0","task_version":"screening-prolific","missing":false,"accuracy":0},{"contexts":["blue","green","red"],"outcomes":[1,0,0],"key":38,"choice":1,"rt":640.6100000021979,"outcome":0,"trial":13,"correct":0,"trial_type":"three-arm-trial","trial_index":22,"time_elapsed":468911,"internal_node_id":"0.0-19.0-0.0","task_version":"screening-prolific","missing":false,"accuracy":0},{"contexts":["blue","green","red"],"outcomes":[1,0,0],"key":37,"choice":0,"rt":420.1599999796599,"outcome":1,"trial":14,"correct":0,"trial_type":"three-arm-trial","trial_index":23,"time_elapsed":470554,"internal_node_id":"0.0-20.0-0.0","task_version":"screening-prolific","missing":false,"accuracy":1},{"contexts":["blue","green","red"],"outcomes":[1,0,0],"key":37,"choice":0,"rt":530.4200000828132,"outcome":1,"trial":15,"correct":0,"trial_type":"three-arm-trial","trial_index":24,"time_elapsed":472308,"internal_node_id":"0.0-21.0-0.0","task_version":"screening-prolific","missing":false,"accuracy":1},{"contexts":["blue","green","red"],"outcomes":[0,1,1],"key":37,"choice":0,"rt":517.714999965392,"outcome":0,"trial":16,"correct":1,"trial_type":"three-arm-trial","trial_index":25,"time_elapsed":474047,"internal_node_id":"0.0-22.0-0.0","task_version":"screening-prolific","missing":false,"accuracy":0},{"contexts":["blue","green","red"],"outcomes":[0,1,0],"key":39,"choice":2,"rt":931.5799999749288,"outcome":0,"trial":17,"correct":1,"trial_type":"three-arm-trial","trial_index":26,"time_elapsed":476201,"internal_node_id":"0.0-23.0-0.0","task_version":"screening-prolific","missing":false,"accuracy":0},{"contexts":["blue","green","red"],"outcomes":[0,1,0],"key":38,"choice":1,"rt":72.6999999023974,"outcome":1,"trial":18,"correct":1,"trial_type":"three-arm-trial","trial_index":27,"time_elapsed":477496,"internal_node_id":"0.0-24.0-0.0","task_version":"screening-prolific","missing":false,"accuracy":1},{"contexts":["blue","green","red"],"outcomes":[1,0,0],"key":38,"choice":1,"rt":264.37499991152436,"outcome":0,"trial":19,"correct":1,"trial_type":"three-arm-trial","trial_index":28,"time_elapsed":478983,"internal_node_id":"0.0-25.0-0.0","task_version":"screening-prolific","missing":false,"accuracy":1},{"contexts":["blue","green","red"],"outcomes":[0,1,1],"key":37,"choice":0,"rt":518.3599999872968,"outcome":0,"trial":20,"correct":1,"trial_type":"three-arm-trial","trial_index":29,"time_elapsed":480727,"internal_node_id":"0.0-26.0-0.0","task_version":"screening-prolific","missing":false,"accuracy":0},{"contexts":["blue","green","red"],"outcomes":[0,1,1],"key":39,"choice":2,"rt":528.5199999343604,"outcome":1,"trial":21,"correct":1,"trial_type":"three-arm-trial","trial_index":30,"time_elapsed":482477,"internal_node_id":"0.0-27.0-0.0","task_version":"screening-prolific","missing":false,"accuracy":0},{"contexts":["blue","green","red"],"outcomes":[0,1,1],"key":38,"choice":1,"rt":1160.9450000105426,"outcome":1,"trial":22,"correct":1,"trial_type":"three-arm-trial","trial_index":31,"time_elapsed":484861,"internal_node_id":"0.0-28.0-0.0","task_version":"screening-prolific","missing":false,"accuracy":1},{"contexts":["blue","green","red"],"outcomes":[1,0,1],"key":38,"choice":1,"rt":269.76499997545034,"outcome":0,"trial":23,"correct":1,"trial_type":"three-arm-trial","trial_index":32,"time_elapsed":486354,"internal_node_id":"0.0-29.0-0.0","task_version":"screening-prolific","missing":false,"accuracy":1},{"contexts":["blue","green","red"],"outcomes":[1,1,0],"key":39,"choice":2,"rt":803.7699999986216,"outcome":0,"trial":24,"correct":1,"trial_type":"three-arm-trial","trial_index":33,"time_elapsed":488381,"internal_node_id":"0.0-30.0-0.0","task_version":"screening-prolific","missing":false,"accuracy":0},{"contexts":["blue","green","red"],"outcomes":[0,1,0],"key":37,"choice":0,"rt":1200.8650000207126,"outcome":0,"trial":25,"correct":1,"trial_type":"three-arm-trial","trial_index":34,"time_elapsed":490804,"internal_node_id":"0.0-31.0-0.0","task_version":"screening-prolific","missing":false,"accuracy":0},{"contexts":["blue","green","red"],"outcomes":[1,1,0],"key":38,"choice":1,"rt":322.78500008396804,"outcome":1,"trial":26,"correct":1,"trial_type":"three-arm-trial","trial_index":35,"time_elapsed":492350,"internal_node_id":"0.0-32.0-0.0","task_version":"screening-prolific","missing":false,"accuracy":1},{"contexts":["blue","green","red"],"outcomes":[0,0,0],"key":38,"choice":1,"rt":294.7050000075251,"outcome":0,"trial":27,"correct":1,"trial_type":"three-arm-trial","trial_index":36,"time_elapsed":493868,"internal_node_id":"0.0-33.0-0.0","task_version":"screening-prolific","missing":false,"accuracy":1},{"contexts":["blue","green","red"],"outcomes":[0,0,0],"key":39,"choice":2,"rt":422.7100000716746,"outcome":0,"trial":28,"correct":1,"trial_type":"three-arm-trial","trial_index":37,"time_elapsed":495516,"internal_node_id":"0.0-34.0-0.0","task_version":"screening-prolific","missing":false,"accuracy":0},{"contexts":["blue","green","red"],"outcomes":[0,1,0],"key":37,"choice":0,"rt":262.3199999798089,"outcome":0,"trial":29,"correct":1,"trial_type":"three-arm-trial","trial_index":38,"time_elapsed":497001,"internal_node_id":"0.0-35.0-0.0","task_version":"screening-prolific","missing":false,"accuracy":0},{"contexts":["blue","green","red"],"outcomes":[0,1,0],"key":38,"choice":1,"rt":310.69499999284744,"outcome":1,"trial":30,"correct":1,"trial_type":"three-arm-trial","trial_index":39,"time_elapsed":498536,"internal_node_id":"0.0-36.0-0.0","task_version":"screening-prolific","missing":false,"accuracy":1},{"contexts":["blue","green","red"],"outcomes":[1,0,0],"key":38,"choice":1,"rt":150.44500003568828,"outcome":0,"trial":31,"correct":0,"trial_type":"three-arm-trial","trial_index":40,"time_elapsed":499910,"internal_node_id":"0.0-37.0-0.0","task_version":"screening-prolific","missing":false,"accuracy":0},{"contexts":["blue","green","red"],"outcomes":[1,0,1],"key":39,"choice":2,"rt":240.1100000133738,"outcome":1,"trial":32,"correct":0,"trial_type":"three-arm-trial","trial_index":41,"time_elapsed":501372,"internal_node_id":"0.0-38.0-0.0","task_version":"screening-prolific","missing":false,"accuracy":0},{"contexts":["blue","green","red"],"outcomes":[1,0,0],"key":39,"choice":2,"rt":326.43000001553446,"outcome":0,"trial":33,"correct":0,"trial_type":"three-arm-trial","trial_index":42,"time_elapsed":502922,"internal_node_id":"0.0-39.0-0.0","task_version":"screening-prolific","missing":false,"accuracy":0},{"contexts":["blue","green","red"],"outcomes":[1,0,1],"key":37,"choice":0,"rt":677.5100000668317,"outcome":1,"trial":34,"correct":0,"trial_type":"three-arm-trial","trial_index":43,"time_elapsed":504823,"internal_node_id":"0.0-40.0-0.0","task_version":"screening-prolific","missing":false,"accuracy":1},{"contexts":["blue","green","red"],"outcomes":[0,0,0],"key":37,"choice":0,"rt":162.58499992545694,"outcome":0,"trial":35,"correct":0,"trial_type":"three-arm-trial","trial_index":44,"time_elapsed":506209,"internal_node_id":"0.0-41.0-0.0","task_version":"screening-prolific","missing":false,"accuracy":1},{"contexts":["blue","green","red"],"outcomes":[1,1,0],"key":38,"choice":1,"rt":325.83500002510846,"outcome":1,"trial":36,"correct":0,"trial_type":"three-arm-trial","trial_index":45,"time_elapsed":507759,"internal_node_id":"0.0-42.0-0.0","task_version":"screening-prolific","missing":false,"accuracy":0},{"contexts":["blue","green","red"],"outcomes":[1,0,0],"key":38,"choice":1,"rt":274.8099999735132,"outcome":0,"trial":37,"correct":0,"trial_type":"three-arm-trial","trial_index":46,"time_elapsed":509257,"internal_node_id":"0.0-43.0-0.0","task_version":"screening-prolific","missing":false,"accuracy":0},{"contexts":["blue","green","red"],"outcomes":[1,0,0],"key":37,"choice":0,"rt":762.0849999366328,"outcome":1,"trial":38,"correct":0,"trial_type":"three-arm-trial","trial_index":47,"time_elapsed":511242,"internal_node_id":"0.0-44.0-0.0","task_version":"screening-prolific","missing":false,"accuracy":1},{"contexts":["blue","green","red"],"outcomes":[1,0,0],"key":37,"choice":0,"rt":327.530000009574,"outcome":1,"trial":39,"correct":0,"trial_type":"three-arm-trial","trial_index":48,"time_elapsed":512792,"internal_node_id":"0.0-45.0-0.0","task_version":"screening-prolific","missing":false,"accuracy":1},{"contexts":["blue","green","red"],"outcomes":[1,0,1],"key":37,"choice":0,"rt":269.13500006776303,"outcome":1,"trial":40,"correct":0,"trial_type":"three-arm-trial","trial_index":49,"time_elapsed":514284,"internal_node_id":"0.0-46.0-0.0","task_version":"screening-prolific","missing":false,"accuracy":1},{"contexts":["blue","green","red"],"outcomes":[1,0,0],"key":37,"choice":0,"rt":13.079999946057796,"outcome":1,"trial":41,"correct":0,"trial_type":"three-arm-trial","trial_index":50,"time_elapsed":515522,"internal_node_id":"0.0-47.0-0.0","task_version":"screening-prolific","missing":false,"accuracy":1},{"contexts":["blue","green","red"],"outcomes":[0,0,0],"key":37,"choice":0,"rt":349.50000001117587,"outcome":0,"trial":42,"correct":0,"trial_type":"three-arm-trial","trial_index":51,"time_elapsed":517094,"internal_node_id":"0.0-48.0-0.0","task_version":"screening-prolific","missing":false,"accuracy":1},{"contexts":["blue","green","red"],"outcomes":[0,0,0],"key":38,"choice":1,"rt":114.68500003684312,"outcome":0,"trial":43,"correct":0,"trial_type":"three-arm-trial","trial_index":52,"time_elapsed":518431,"internal_node_id":"0.0-49.0-0.0","task_version":"screening-prolific","missing":false,"accuracy":0},{"contexts":["blue","green","red"],"outcomes":[1,0,0],"key":39,"choice":2,"rt":488.0949999205768,"outcome":0,"trial":44,"correct":0,"trial_type":"three-arm-trial","trial_index":53,"time_elapsed":520142,"internal_node_id":"0.0-50.0-0.0","task_version":"screening-prolific","missing":false,"accuracy":0},{"contexts":["blue","green","red"],"outcomes":[1,1,0],"key":37,"choice":0,"rt":173.01999998744577,"outcome":1,"trial":45,"correct":0,"trial_type":"three-arm-trial","trial_index":54,"time_elapsed":521537,"internal_node_id":"0.0-51.0-0.0","task_version":"screening-prolific","missing":false,"accuracy":1},{"contexts":["blue","green","red"],"outcomes":[0,1,1],"key":37,"choice":0,"rt":525.4050000803545,"outcome":0,"trial":46,"correct":1,"trial_type":"three-arm-trial","trial_index":55,"time_elapsed":523286,"internal_node_id":"0.0-52.0-0.0","task_version":"screening-prolific","missing":false,"accuracy":0},{"contexts":["blue","green","red"],"outcomes":[0,0,0],"key":37,"choice":0,"rt":377.2850000532344,"outcome":0,"trial":47,"correct":1,"trial_type":"three-arm-trial","trial_index":56,"time_elapsed":524886,"internal_node_id":"0.0-53.0-0.0","task_version":"screening-prolific","missing":false,"accuracy":0},{"contexts":["blue","green","red"],"outcomes":[1,1,0],"key":38,"choice":1,"rt":47.559999977238476,"outcome":1,"trial":48,"correct":1,"trial_type":"three-arm-trial","trial_index":57,"time_elapsed":526157,"internal_node_id":"0.0-54.0-0.0","task_version":"screening-prolific","missing":false,"accuracy":1},{"contexts":["blue","green","red"],"outcomes":[0,1,0],"key":38,"choice":1,"rt":139.02999996207654,"outcome":1,"trial":49,"correct":1,"trial_type":"three-arm-trial","trial_index":58,"time_elapsed":527519,"internal_node_id":"0.0-55.0-0.0","task_version":"screening-prolific","missing":false,"accuracy":1},{"contexts":["blue","green","red"],"outcomes":[0,0,0],"key":38,"choice":1,"rt":21.104999934323132,"outcome":0,"trial":50,"correct":1,"trial_type":"three-arm-trial","trial_index":59,"time_elapsed":528762,"internal_node_id":"0.0-56.0-0.0","task_version":"screening-prolific","missing":false,"accuracy":1},{"contexts":["blue","green","red"],"outcomes":[0,1,0],"key":37,"choice":0,"rt":441.2249999586493,"outcome":0,"trial":51,"correct":1,"trial_type":"three-arm-trial","trial_index":60,"time_elapsed":530427,"internal_node_id":"0.0-57.0-0.0","task_version":"screening-prolific","missing":false,"accuracy":0},{"contexts":["blue","green","red"],"outcomes":[0,1,0],"key":39,"choice":2,"rt":331.5850000362843,"outcome":0,"trial":52,"correct":1,"trial_type":"three-arm-trial","trial_index":61,"time_elapsed":531981,"internal_node_id":"0.0-58.0-0.0","task_version":"screening-prolific","missing":false,"accuracy":0},{"contexts":["blue","green","red"],"outcomes":[0,1,0],"key":38,"choice":1,"rt":391.18999999482185,"outcome":1,"trial":53,"correct":1,"trial_type":"three-arm-trial","trial_index":62,"time_elapsed":533596,"internal_node_id":"0.0-59.0-0.0","task_version":"screening-prolific","missing":false,"accuracy":1},{"contexts":["blue","green","red"],"outcomes":[0,1,0],"key":38,"choice":1,"rt":340.5100000090897,"outcome":1,"trial":54,"correct":1,"trial_type":"three-arm-trial","trial_index":63,"time_elapsed":535160,"internal_node_id":"0.0-60.0-0.0","task_version":"screening-prolific","missing":false,"accuracy":1},{"contexts":["blue","green","red"],"outcomes":[1,1,0],"key":38,"choice":1,"rt":37.80499997083098,"outcome":1,"trial":55,"correct":1,"trial_type":"three-arm-trial","trial_index":64,"time_elapsed":536423,"internal_node_id":"0.0-61.0-0.0","task_version":"screening-prolific","missing":false,"accuracy":1},{"contexts":["blue","green","red"],"outcomes":[0,0,0],"key":38,"choice":1,"rt":235.480000032112,"outcome":0,"trial":56,"correct":1,"trial_type":"three-arm-trial","trial_index":65,"time_elapsed":537882,"internal_node_id":"0.0-62.0-0.0","task_version":"screening-prolific","missing":false,"accuracy":1},{"contexts":["blue","green","red"],"outcomes":[1,1,0],"key":37,"choice":0,"rt":63.2200000109151,"outcome":1,"trial":57,"correct":1,"trial_type":"three-arm-trial","trial_index":66,"time_elapsed":539168,"internal_node_id":"0.0-63.0-0.0","task_version":"screening-prolific","missing":false,"accuracy":0},{"contexts":["blue","green","red"],"outcomes":[0,0,0],"key":37,"choice":0,"rt":149.97500006575137,"outcome":0,"trial":58,"correct":1,"trial_type":"three-arm-trial","trial_index":67,"time_elapsed":540541,"internal_node_id":"0.0-64.0-0.0","task_version":"screening-prolific","missing":false,"accuracy":0},{"contexts":["blue","green","red"],"outcomes":[0,1,0],"key":39,"choice":2,"rt":835.8599999919534,"outcome":0,"trial":59,"correct":1,"trial_type":"three-arm-trial","trial_index":68,"time_elapsed":542598,"internal_node_id":"0.0-65.0-0.0","task_version":"screening-prolific","missing":false,"accuracy":0},{"contexts":["blue","green","red"],"outcomes":[0,0,0],"key":38,"choice":1,"rt":258.47999996040016,"outcome":0,"trial":60,"correct":1,"trial_type":"three-arm-trial","trial_index":69,"time_elapsed":544080,"internal_node_id":"0.0-66.0-0.0","task_version":"screening-prolific","missing":false,"accuracy":1},{"contexts":["blue","green","red"],"outcomes":[1,0,1],"key":37,"choice":0,"rt":331.13499998580664,"outcome":1,"trial":61,"correct":2,"trial_type":"three-arm-trial","trial_index":70,"time_elapsed":545635,"internal_node_id":"0.0-67.0-0.0","task_version":"screening-prolific","missing":false,"accuracy":0},{"contexts":["blue","green","red"],"outcomes":[0,0,1],"key":37,"choice":0,"rt":1053.8100000703707,"outcome":0,"trial":62,"correct":2,"trial_type":"three-arm-trial","trial_index":71,"time_elapsed":547915,"internal_node_id":"0.0-68.0-0.0","task_version":"screening-prolific","missing":false,"accuracy":0},{"contexts":["blue","green","red"],"outcomes":[1,0,1],"key":38,"choice":1,"rt":217.02000009827316,"outcome":0,"trial":63,"correct":2,"trial_type":"three-arm-trial","trial_index":72,"time_elapsed":549355,"internal_node_id":"0.0-69.0-0.0","task_version":"screening-prolific","missing":false,"accuracy":0},{"contexts":["blue","green","red"],"outcomes":[0,0,1],"key":37,"choice":0,"rt":328.11499992385507,"outcome":0,"trial":64,"correct":2,"trial_type":"three-arm-trial","trial_index":73,"time_elapsed":550910,"internal_node_id":"0.0-70.0-0.0","task_version":"screening-prolific","missing":false,"accuracy":0},{"contexts":["blue","green","red"],"outcomes":[0,0,1],"key":38,"choice":1,"rt":458.82499997969717,"outcome":0,"trial":65,"correct":2,"trial_type":"three-arm-trial","trial_index":74,"time_elapsed":552593,"internal_node_id":"0.0-71.0-0.0","task_version":"screening-prolific","missing":false,"accuracy":0},{"contexts":["blue","green","red"],"outcomes":[0,0,1],"key":39,"choice":2,"rt":231.96000000461936,"outcome":1,"trial":66,"correct":2,"trial_type":"three-arm-trial","trial_index":75,"time_elapsed":554047,"internal_node_id":"0.0-72.0-0.0","task_version":"screening-prolific","missing":false,"accuracy":1},{"contexts":["blue","green","red"],"outcomes":[0,0,1],"key":39,"choice":2,"rt":20.03999997396022,"outcome":1,"trial":67,"correct":2,"trial_type":"three-arm-trial","trial_index":76,"time_elapsed":555289,"internal_node_id":"0.0-73.0-0.0","task_version":"screening-prolific","missing":false,"accuracy":1},{"contexts":["blue","green","red"],"outcomes":[1,0,1],"key":39,"choice":2,"rt":304.6299999114126,"outcome":1,"trial":68,"correct":2,"trial_type":"three-arm-trial","trial_index":77,"time_elapsed":556817,"internal_node_id":"0.0-74.0-0.0","task_version":"screening-prolific","missing":false,"accuracy":1},{"contexts":["blue","green","red"],"outcomes":[0,0,1],"key":39,"choice":2,"rt":410.2750000311062,"outcome":1,"trial":69,"correct":2,"trial_type":"three-arm-trial","trial_index":78,"time_elapsed":558455,"internal_node_id":"0.0-75.0-0.0","task_version":"screening-prolific","missing":false,"accuracy":1},{"contexts":["blue","green","red"],"outcomes":[1,0,1],"key":39,"choice":2,"rt":358.6350000696257,"outcome":1,"trial":70,"correct":2,"trial_type":"three-arm-trial","trial_index":79,"time_elapsed":560036,"internal_node_id":"0.0-76.0-0.0","task_version":"screening-prolific","missing":false,"accuracy":1},{"contexts":["blue","green","red"],"outcomes":[0,1,1],"key":39,"choice":2,"rt":54.84999995678663,"outcome":1,"trial":71,"correct":2,"trial_type":"three-arm-trial","trial_index":80,"time_elapsed":561316,"internal_node_id":"0.0-77.0-0.0","task_version":"screening-prolific","missing":false,"accuracy":1},{"contexts":["blue","green","red"],"outcomes":[0,0,1],"key":39,"choice":2,"rt":42.37999999895692,"outcome":1,"trial":72,"correct":2,"trial_type":"three-arm-trial","trial_index":81,"time_elapsed":562582,"internal_node_id":"0.0-78.0-0.0","task_version":"screening-prolific","missing":false,"accuracy":1},{"contexts":["blue","green","red"],"outcomes":[1,0,1],"key":39,"choice":2,"rt":702.6649999897927,"outcome":1,"trial":73,"correct":2,"trial_type":"three-arm-trial","trial_index":82,"time_elapsed":564509,"internal_node_id":"0.0-79.0-0.0","task_version":"screening-prolific","missing":false,"accuracy":1},{"contexts":["blue","green","red"],"outcomes":[0,0,1],"key":39,"choice":2,"rt":154.05999997165054,"outcome":1,"trial":74,"correct":2,"trial_type":"three-arm-trial","trial_index":83,"time_elapsed":565888,"internal_node_id":"0.0-80.0-0.0","task_version":"screening-prolific","missing":false,"accuracy":1},{"contexts":["blue","green","red"],"outcomes":[0,0,1],"key":39,"choice":2,"rt":163.86500000953674,"outcome":1,"trial":75,"correct":2,"trial_type":"three-arm-trial","trial_index":84,"time_elapsed":567277,"internal_node_id":"0.0-81.0-0.0","task_version":"screening-prolific","missing":false,"accuracy":1},{"contexts":["blue","green","red"],"outcomes":[1,0,1],"key":39,"choice":2,"rt":36.51999996509403,"outcome":1,"trial":76,"correct":0,"trial_type":"three-arm-trial","trial_index":85,"time_elapsed":568537,"internal_node_id":"0.0-82.0-0.0","task_version":"screening-prolific","missing":false,"accuracy":0},{"contexts":["blue","green","red"],"outcomes":[1,0,0],"key":39,"choice":2,"rt":164.4399999640882,"outcome":0,"trial":77,"correct":0,"trial_type":"three-arm-trial","trial_index":86,"time_elapsed":569926,"internal_node_id":"0.0-83.0-0.0","task_version":"screening-prolific","missing":false,"accuracy":0},{"contexts":["blue","green","red"],"outcomes":[0,0,0],"key":37,"choice":0,"rt":441.1750000435859,"outcome":0,"trial":78,"correct":0,"trial_type":"three-arm-trial","trial_index":87,"time_elapsed":571594,"internal_node_id":"0.0-84.0-0.0","task_version":"screening-prolific","missing":false,"accuracy":1},{"contexts":["blue","green","red"],"outcomes":[1,0,0],"key":39,"choice":2,"rt":468.2499999180436,"outcome":0,"trial":79,"correct":0,"trial_type":"three-arm-trial","trial_index":88,"time_elapsed":573298,"internal_node_id":"0.0-85.0-0.0","task_version":"screening-prolific","missing":false,"accuracy":0},{"contexts":["blue","green","red"],"outcomes":[1,0,1],"key":38,"choice":1,"rt":358.93500002566725,"outcome":0,"trial":80,"correct":0,"trial_type":"three-arm-trial","trial_index":89,"time_elapsed":574880,"internal_node_id":"0.0-86.0-0.0","task_version":"screening-prolific","missing":false,"accuracy":0},{"contexts":["blue","green","red"],"outcomes":[1,0,0],"key":37,"choice":0,"rt":670.1500000199303,"outcome":1,"trial":81,"correct":0,"trial_type":"three-arm-trial","trial_index":90,"time_elapsed":576773,"internal_node_id":"0.0-87.0-0.0","task_version":"screening-prolific","missing":false,"accuracy":1},{"contexts":["blue","green","red"],"outcomes":[1,1,0],"key":37,"choice":0,"rt":765.8799999626353,"outcome":1,"trial":82,"correct":0,"trial_type":"three-arm-trial","trial_index":91,"time_elapsed":578762,"internal_node_id":"0.0-88.0-0.0","task_version":"screening-prolific","missing":false,"accuracy":1},{"contexts":["blue","green","red"],"outcomes":[1,0,0],"key":37,"choice":0,"rt":571.2100000819191,"outcome":1,"trial":83,"correct":0,"trial_type":"three-arm-trial","trial_index":92,"time_elapsed":580555,"internal_node_id":"0.0-89.0-0.0","task_version":"screening-prolific","missing":false,"accuracy":1},{"contexts":["blue","green","red"],"outcomes":[0,0,0],"key":37,"choice":0,"rt":344.9549999786541,"outcome":0,"trial":84,"correct":0,"trial_type":"three-arm-trial","trial_index":93,"time_elapsed":582123,"internal_node_id":"0.0-90.0-0.0","task_version":"screening-prolific","missing":false,"accuracy":1},{"contexts":["blue","green","red"],"outcomes":[1,0,0],"key":39,"choice":2,"rt":194.95500007178634,"outcome":0,"trial":85,"correct":0,"trial_type":"three-arm-trial","trial_index":94,"time_elapsed":583542,"internal_node_id":"0.0-91.0-0.0","task_version":"screening-prolific","missing":false,"accuracy":0},{"contexts":["blue","green","red"],"outcomes":[1,1,0],"key":38,"choice":1,"rt":706.1900000553578,"outcome":1,"trial":86,"correct":0,"trial_type":"three-arm-trial","trial_index":95,"time_elapsed":585472,"internal_node_id":"0.0-92.0-0.0","task_version":"screening-prolific","missing":false,"accuracy":0},{"contexts":["blue","green","red"],"outcomes":[0,0,0],"key":38,"choice":1,"rt":37.58500004187226,"outcome":0,"trial":87,"correct":0,"trial_type":"three-arm-trial","trial_index":96,"time_elapsed":586731,"internal_node_id":"0.0-93.0-0.0","task_version":"screening-prolific","missing":false,"accuracy":0},{"contexts":["blue","green","red"],"outcomes":[1,0,1],"key":37,"choice":0,"rt":433.8899999856949,"outcome":1,"trial":88,"correct":0,"trial_type":"three-arm-trial","trial_index":97,"time_elapsed":588388,"internal_node_id":"0.0-94.0-0.0","task_version":"screening-prolific","missing":false,"accuracy":1},{"contexts":["blue","green","red"],"outcomes":[0,1,0],"key":37,"choice":0,"rt":437.2000000439584,"outcome":0,"trial":89,"correct":0,"trial_type":"three-arm-trial","trial_index":98,"time_elapsed":590047,"internal_node_id":"0.0-95.0-0.0","task_version":"screening-prolific","missing":false,"accuracy":1},{"contexts":["blue","green","red"],"outcomes":[1,1,0],"key":37,"choice":0,"rt":626.0400000028312,"outcome":1,"trial":90,"correct":0,"trial_type":"three-arm-trial","trial_index":99,"time_elapsed":591897,"internal_node_id":"0.0-96.0-0.0","task_version":"screening-prolific","missing":false,"accuracy":1},{"rt":21936.639999970794,"responses":{"age":"39","gender-categorical":"Female","gender-free-response":"","ethnicity":"Not Hispanic or Latino","race":["Asian","White"],"language":"Yes","fluency":"Very well","mturk":"No","mturk-this-study":"No"},"survey":"demographics","trial_type":"survey-demo","trial_index":100,"time_elapsed":613857,"internal_node_id":"0.0-97.0","task_version":"screening-prolific","interactions":"[]"}]