[{"responses":{"Q05":"0","Q04":"1","Q08":"0","Q06":"0","Q07":"1","Q01":"1","Q03":"2","Q02":"0"},"rt":42796,"survey":"gad7","trial_type":"survey-template","trial_index":0,"time_elapsed":42811,"internal_node_id":"0.0-0.0","task_version":"screening-prolific"},{"responses":{"Q01":"3","Q02":"3","Q03":"2"},"rt":11313,"survey":"pswq","trial_type":"survey-template","trial_index":1,"time_elapsed":54130,"internal_node_id":"0.0-1.0","task_version":"screening-prolific"},{"responses":{"Q06":"0","Q03":"1","Q01":"0","Q11":"1","Q05":"0","Q04":"0","Q10":"0","Q09":"1","Q15":"0","Q08":"0","Q12":"1","Q13":"0","Q07":"0","Q14":"0","Q02":"1"},"rt":120506,"survey":"7up7down","trial_type":"survey-template","trial_index":2,"time_elapsed":174643,"internal_node_id":"0.0-2.0","task_version":"screening-prolific"},{"responses":{"Q13":"2","Q01":"3","Q12":"1","Q03":"2","Q04":"3","Q10":"3","Q14":"2","Q15":"0","Q05":"3","Q09":"3","Q06":"1","Q08":"1","Q11":"2","Q02":"2","Q07":"2"},"rt":62888,"survey":"shaps","trial_type":"survey-template","trial_index":3,"time_elapsed":237539,"internal_node_id":"0.0-3.0","task_version":"screening-prolific"},{"responses":{"Q06":"3","Q13":"3","Q02":"1","Q12":"1","Q07":"3","Q03":"1","Q05":"3","Q09":"1","Q08":"1","Q11":"1","Q10":"1","Q01":"2","Q04":"1"},"rt":72063,"survey":"bisbas","trial_type":"survey-template","trial_index":4,"time_elapsed":309608,"internal_node_id":"0.0-4.0","task_version":"screening-prolific"},{"view_history":"[{\"page_index\":0,\"viewing_time\":4329},{\"page_index\":1,\"viewing_time\":9313},{\"page_index\":2,\"viewing_time\":13767},{\"page_index\":3,\"viewing_time\":5864},{\"page_index\":4,\"viewing_time\":5288},{\"page_index\":5,\"viewing_time\":5136},{\"page_index\":6,\"viewing_time\":3456},{\"page_index\":7,\"viewing_time\":5120}]","rt":52273,"trial_type":"instructions","trial_index":5,"time_elapsed":361884,"internal_node_id":"0.0-5.0-0.0","task_version":"screening-prolific"},{"responses":["True","True","False","False","True"],"num_errors":0,"rt":13749,"trial_type":"three-arm-comprehension","trial_index":6,"time_elapsed":375639,"internal_node_id":"0.0-5.0-1.0","task_version":"screening-prolific"},{"view_history":"[{\"page_index\":0,\"viewing_time\":2911}]","rt":2911,"trial_type":"instructions","trial_index":7,"time_elapsed":378556,"internal_node_id":"0.0-6.0","task_version":"screening-prolific"},{"contexts":["green","blue","red"],"outcomes":[0,1,0],"key":38,"choice":1,"rt":3835,"outcome":1,"trial":1,"correct":1,"trial_type":"three-arm-trial","trial_index":8,"time_elapsed":383605,"internal_node_id":"0.0-7.0-0.0","task_version":"screening-prolific","missing":false,"accuracy":1},{"contexts":["green","blue","red"],"outcomes":[0,0,0],"key":38,"choice":1,"rt":5136,"outcome":0,"trial":2,"correct":1,"trial_type":"three-arm-trial","trial_index":9,"time_elapsed":389962,"internal_node_id":"0.0-8.0-0.0","task_version":"screening-prolific","missing":false,"accuracy":1},{"contexts":["green","blue","red"],"outcomes":[1,1,1],"key":38,"choice":1,"rt":2780,"outcome":1,"trial":3,"correct":1,"trial_type":"three-arm-trial","trial_index":10,"time_elapsed":393952,"internal_node_id":"0.0-9.0-0.0","task_version":"screening-prolific","missing":false,"accuracy":1},{"contexts":["green","blue","red"],"outcomes":[0,0,0],"key":38,"choice":1,"rt":4924,"outcome":0,"trial":4,"correct":1,"trial_type":"three-arm-trial","trial_index":11,"time_elapsed":400081,"internal_node_id":"0.0-10.0-0.0","task_version":"screening-prolific","missing":false,"accuracy":1},{"contexts":["green","blue","red"],"outcomes":[1,1,0],"key":39,"choice":2,"rt":2366,"outcome":0,"trial":5,"correct":1,"trial_type":"three-arm-trial","trial_index":12,"time_elapsed":403661,"internal_node_id":"0.0-11.0-0.0","task_version":"screening-prolific","missing":false,"accuracy":0},{"contexts":["green","blue","red"],"outcomes":[0,1,1],"key":38,"choice":1,"rt":714,"outcome":1,"trial":6,"correct":1,"trial_type":"three-arm-trial","trial_index":13,"time_elapsed":405580,"internal_node_id":"0.0-12.0-0.0","task_version":"screening-prolific","missing":false,"accuracy":1},{"contexts":["green","blue","red"],"outcomes":[0,1,0],"key":38,"choice":1,"rt":2425,"outcome":1,"trial":7,"correct":1,"trial_type":"three-arm-trial","trial_index":14,"time_elapsed":409211,"internal_node_id":"0.0-13.0-0.0","task_version":"screening-prolific","missing":false,"accuracy":1},{"contexts":["green","blue","red"],"outcomes":[0,1,1],"key":38,"choice":1,"rt":4212,"outcome":1,"trial":8,"correct":1,"trial_type":"three-arm-trial","trial_index":15,"time_elapsed":414628,"internal_node_id":"0.0-14.0-0.0","task_version":"screening-prolific","missing":false,"accuracy":1},{"contexts":["green","blue","red"],"outcomes":[0,1,0],"key":38,"choice":1,"rt":1074,"outcome":1,"trial":9,"correct":1,"trial_type":"three-arm-trial","trial_index":16,"time_elapsed":416921,"internal_node_id":"0.0-15.0-0.0","task_version":"screening-prolific","missing":false,"accuracy":1},{"contexts":["green","blue","red"],"outcomes":[1,1,0],"key":38,"choice":1,"rt":550,"outcome":1,"trial":10,"correct":1,"trial_type":"three-arm-trial","trial_index":17,"time_elapsed":418694,"internal_node_id":"0.0-16.0-0.0","task_version":"screening-prolific","missing":false,"accuracy":1},{"contexts":["green","blue","red"],"outcomes":[0,1,0],"key":38,"choice":1,"rt":617,"outcome":1,"trial":11,"correct":1,"trial_type":"three-arm-trial","trial_index":18,"time_elapsed":420518,"internal_node_id":"0.0-17.0-0.0","task_version":"screening-prolific","missing":false,"accuracy":1},{"contexts":["green","blue","red"],"outcomes":[0,1,0],"key":38,"choice":1,"rt":488,"outcome":1,"trial":12,"correct":1,"trial_type":"three-arm-trial","trial_index":19,"time_elapsed":422222,"internal_node_id":"0.0-18.0-0.0","task_version":"screening-prolific","missing":false,"accuracy":1},{"contexts":["green","blue","red"],"outcomes":[0,1,0],"key":38,"choice":1,"rt":590,"outcome":1,"trial":13,"correct":1,"trial_type":"three-arm-trial","trial_index":20,"time_elapsed":424022,"internal_node_id":"0.0-19.0-0.0","task_version":"screening-prolific","missing":false,"accuracy":1},{"contexts":["green","blue","red"],"outcomes":[1,1,0],"key":38,"choice":1,"rt":431,"outcome":1,"trial":14,"correct":1,"trial_type":"three-arm-trial","trial_index":21,"time_elapsed":425663,"internal_node_id":"0.0-20.0-0.0","task_version":"screening-prolific","missing":false,"accuracy":1},{"contexts":["green","blue","red"],"outcomes":[1,1,1],"key":38,"choice":1,"rt":1190,"outcome":1,"trial":15,"correct":1,"trial_type":"three-arm-trial","trial_index":22,"time_elapsed":428080,"internal_node_id":"0.0-21.0-0.0","task_version":"screening-prolific","missing":false,"accuracy":1},{"contexts":["green","blue","red"],"outcomes":[1,0,0],"key":38,"choice":1,"rt":4092,"outcome":0,"trial":16,"correct":0,"trial_type":"three-arm-trial","trial_index":23,"time_elapsed":433380,"internal_node_id":"0.0-22.0-0.0","task_version":"screening-prolific","missing":false,"accuracy":0},{"contexts":["green","blue","red"],"outcomes":[1,0,0],"key":38,"choice":1,"rt":6285,"outcome":0,"trial":17,"correct":0,"trial_type":"three-arm-trial","trial_index":24,"time_elapsed":440870,"internal_node_id":"0.0-23.0-0.0","task_version":"screening-prolific","missing":false,"accuracy":0},{"contexts":["green","blue","red"],"outcomes":[1,0,0],"key":38,"choice":1,"rt":650,"outcome":0,"trial":18,"correct":0,"trial_type":"three-arm-trial","trial_index":25,"time_elapsed":442745,"internal_node_id":"0.0-24.0-0.0","task_version":"screening-prolific","missing":false,"accuracy":0},{"contexts":["green","blue","red"],"outcomes":[1,1,0],"key":39,"choice":2,"rt":1173,"outcome":0,"trial":19,"correct":0,"trial_type":"three-arm-trial","trial_index":26,"time_elapsed":445134,"internal_node_id":"0.0-25.0-0.0","task_version":"screening-prolific","missing":false,"accuracy":0},{"contexts":["green","blue","red"],"outcomes":[1,1,0],"key":38,"choice":1,"rt":583,"outcome":1,"trial":20,"correct":0,"trial_type":"three-arm-trial","trial_index":27,"time_elapsed":446922,"internal_node_id":"0.0-26.0-0.0","task_version":"screening-prolific","missing":false,"accuracy":0},{"contexts":["green","blue","red"],"outcomes":[1,0,0],"key":39,"choice":2,"rt":842,"outcome":0,"trial":21,"correct":0,"trial_type":"three-arm-trial","trial_index":28,"time_elapsed":448966,"internal_node_id":"0.0-27.0-0.0","task_version":"screening-prolific","missing":false,"accuracy":0},{"contexts":["green","blue","red"],"outcomes":[0,1,0],"key":38,"choice":1,"rt":470,"outcome":1,"trial":22,"correct":0,"trial_type":"three-arm-trial","trial_index":29,"time_elapsed":450640,"internal_node_id":"0.0-28.0-0.0","task_version":"screening-prolific","missing":false,"accuracy":0},{"contexts":["green","blue","red"],"outcomes":[1,0,0],"key":38,"choice":1,"rt":1317,"outcome":0,"trial":23,"correct":0,"trial_type":"three-arm-trial","trial_index":30,"time_elapsed":453163,"internal_node_id":"0.0-29.0-0.0","task_version":"screening-prolific","missing":false,"accuracy":0},{"contexts":["green","blue","red"],"outcomes":[1,0,0],"key":39,"choice":2,"rt":107,"outcome":0,"trial":24,"correct":0,"trial_type":"three-arm-trial","trial_index":31,"time_elapsed":454479,"internal_node_id":"0.0-30.0-0.0","task_version":"screening-prolific","missing":false,"accuracy":0},{"contexts":["green","blue","red"],"outcomes":[1,0,1],"key":38,"choice":1,"rt":460,"outcome":0,"trial":25,"correct":0,"trial_type":"three-arm-trial","trial_index":32,"time_elapsed":456160,"internal_node_id":"0.0-31.0-0.0","task_version":"screening-prolific","missing":false,"accuracy":0},{"contexts":["green","blue","red"],"outcomes":[1,1,0],"key":39,"choice":2,"rt":253,"outcome":0,"trial":26,"correct":0,"trial_type":"three-arm-trial","trial_index":33,"time_elapsed":457630,"internal_node_id":"0.0-32.0-0.0","task_version":"screening-prolific","missing":false,"accuracy":0},{"contexts":["green","blue","red"],"outcomes":[1,0,0],"key":37,"choice":0,"rt":439,"outcome":1,"trial":27,"correct":0,"trial_type":"three-arm-trial","trial_index":34,"time_elapsed":459279,"internal_node_id":"0.0-33.0-0.0","task_version":"screening-prolific","missing":false,"accuracy":1},{"contexts":["green","blue","red"],"outcomes":[1,0,0],"key":37,"choice":0,"rt":453,"outcome":1,"trial":28,"correct":0,"trial_type":"three-arm-trial","trial_index":35,"time_elapsed":460953,"internal_node_id":"0.0-34.0-0.0","task_version":"screening-prolific","missing":false,"accuracy":1},{"contexts":["green","blue","red"],"outcomes":[1,1,0],"key":37,"choice":0,"rt":718,"outcome":1,"trial":29,"correct":0,"trial_type":"three-arm-trial","trial_index":36,"time_elapsed":462893,"internal_node_id":"0.0-35.0-0.0","task_version":"screening-prolific","missing":false,"accuracy":1},{"contexts":["green","blue","red"],"outcomes":[1,0,0],"key":37,"choice":0,"rt":696,"outcome":1,"trial":30,"correct":0,"trial_type":"three-arm-trial","trial_index":37,"time_elapsed":464801,"internal_node_id":"0.0-36.0-0.0","task_version":"screening-prolific","missing":false,"accuracy":1},{"contexts":["green","blue","red"],"outcomes":[0,1,0],"key":37,"choice":0,"rt":437,"outcome":0,"trial":31,"correct":1,"trial_type":"three-arm-trial","trial_index":38,"time_elapsed":466444,"internal_node_id":"0.0-37.0-0.0","task_version":"screening-prolific","missing":false,"accuracy":0},{"contexts":["green","blue","red"],"outcomes":[0,0,1],"key":37,"choice":0,"rt":625,"outcome":0,"trial":32,"correct":1,"trial_type":"three-arm-trial","trial_index":39,"time_elapsed":468287,"internal_node_id":"0.0-38.0-0.0","task_version":"screening-prolific","missing":false,"accuracy":0},{"contexts":["green","blue","red"],"outcomes":[0,1,0],"key":38,"choice":1,"rt":226,"outcome":1,"trial":33,"correct":1,"trial_type":"three-arm-trial","trial_index":40,"time_elapsed":469722,"internal_node_id":"0.0-39.0-0.0","task_version":"screening-prolific","missing":false,"accuracy":1},{"contexts":["green","blue","red"],"outcomes":[0,0,0],"key":38,"choice":1,"rt":446,"outcome":0,"trial":34,"correct":1,"trial_type":"three-arm-trial","trial_index":41,"time_elapsed":471380,"internal_node_id":"0.0-40.0-0.0","task_version":"screening-prolific","missing":false,"accuracy":1},{"contexts":["green","blue","red"],"outcomes":[0,1,0],"key":39,"choice":2,"rt":185,"outcome":0,"trial":35,"correct":1,"trial_type":"three-arm-trial","trial_index":42,"time_elapsed":472782,"internal_node_id":"0.0-41.0-0.0","task_version":"screening-prolific","missing":false,"accuracy":0},{"contexts":["green","blue","red"],"outcomes":[0,1,0],"key":38,"choice":1,"rt":568,"outcome":1,"trial":36,"correct":1,"trial_type":"three-arm-trial","trial_index":43,"time_elapsed":474571,"internal_node_id":"0.0-42.0-0.0","task_version":"screening-prolific","missing":false,"accuracy":1},{"contexts":["green","blue","red"],"outcomes":[0,1,0],"key":37,"choice":0,"rt":335,"outcome":0,"trial":37,"correct":1,"trial_type":"three-arm-trial","trial_index":44,"time_elapsed":476123,"internal_node_id":"0.0-43.0-0.0","task_version":"screening-prolific","missing":false,"accuracy":0},{"contexts":["green","blue","red"],"outcomes":[1,1,1],"key":38,"choice":1,"rt":323,"outcome":1,"trial":38,"correct":1,"trial_type":"three-arm-trial","trial_index":45,"time_elapsed":477668,"internal_node_id":"0.0-44.0-0.0","task_version":"screening-prolific","missing":false,"accuracy":1},{"contexts":["green","blue","red"],"outcomes":[1,1,1],"key":37,"choice":0,"rt":417,"outcome":1,"trial":39,"correct":1,"trial_type":"three-arm-trial","trial_index":46,"time_elapsed":479294,"internal_node_id":"0.0-45.0-0.0","task_version":"screening-prolific","missing":false,"accuracy":0},{"contexts":["green","blue","red"],"outcomes":[0,0,0],"key":38,"choice":1,"rt":375,"outcome":0,"trial":40,"correct":1,"trial_type":"three-arm-trial","trial_index":47,"time_elapsed":480879,"internal_node_id":"0.0-46.0-0.0","task_version":"screening-prolific","missing":false,"accuracy":1},{"contexts":["green","blue","red"],"outcomes":[1,1,1],"key":37,"choice":0,"rt":438,"outcome":1,"trial":41,"correct":1,"trial_type":"three-arm-trial","trial_index":48,"time_elapsed":482535,"internal_node_id":"0.0-47.0-0.0","task_version":"screening-prolific","missing":false,"accuracy":0},{"contexts":["green","blue","red"],"outcomes":[0,1,0],"key":38,"choice":1,"rt":502,"outcome":1,"trial":42,"correct":1,"trial_type":"three-arm-trial","trial_index":49,"time_elapsed":484239,"internal_node_id":"0.0-48.0-0.0","task_version":"screening-prolific","missing":false,"accuracy":1},{"contexts":["green","blue","red"],"outcomes":[0,1,0],"key":37,"choice":0,"rt":557,"outcome":0,"trial":43,"correct":1,"trial_type":"three-arm-trial","trial_index":50,"time_elapsed":486011,"internal_node_id":"0.0-49.0-0.0","task_version":"screening-prolific","missing":false,"accuracy":0},{"contexts":["green","blue","red"],"outcomes":[0,1,0],"key":39,"choice":2,"rt":418,"outcome":0,"trial":44,"correct":1,"trial_type":"three-arm-trial","trial_index":51,"time_elapsed":487651,"internal_node_id":"0.0-50.0-0.0","task_version":"screening-prolific","missing":false,"accuracy":0},{"contexts":["green","blue","red"],"outcomes":[1,0,0],"key":38,"choice":1,"rt":490,"outcome":0,"trial":45,"correct":1,"trial_type":"three-arm-trial","trial_index":52,"time_elapsed":489360,"internal_node_id":"0.0-51.0-0.0","task_version":"screening-prolific","missing":false,"accuracy":1},{"contexts":["green","blue","red"],"outcomes":[0,0,1],"key":37,"choice":0,"rt":360,"outcome":0,"trial":46,"correct":2,"trial_type":"three-arm-trial","trial_index":53,"time_elapsed":490941,"internal_node_id":"0.0-52.0-0.0","task_version":"screening-prolific","missing":false,"accuracy":0},{"contexts":["green","blue","red"],"outcomes":[0,1,1],"key":39,"choice":2,"rt":32,"outcome":1,"trial":47,"correct":2,"trial_type":"three-arm-trial","trial_index":54,"time_elapsed":492181,"internal_node_id":"0.0-53.0-0.0","task_version":"screening-prolific","missing":false,"accuracy":1},{"contexts":["green","blue","red"],"outcomes":[0,0,1],"key":38,"choice":1,"rt":991,"outcome":0,"trial":48,"correct":2,"trial_type":"three-arm-trial","trial_index":55,"time_elapsed":494389,"internal_node_id":"0.0-54.0-0.0","task_version":"screening-prolific","missing":false,"accuracy":0},{"contexts":["green","blue","red"],"outcomes":[1,0,0],"key":39,"choice":2,"rt":680,"outcome":0,"trial":49,"correct":2,"trial_type":"three-arm-trial","trial_index":56,"time_elapsed":496282,"internal_node_id":"0.0-55.0-0.0","task_version":"screening-prolific","missing":false,"accuracy":1},{"contexts":["green","blue","red"],"outcomes":[1,0,1],"key":38,"choice":1,"rt":219,"outcome":0,"trial":50,"correct":2,"trial_type":"three-arm-trial","trial_index":57,"time_elapsed":497720,"internal_node_id":"0.0-56.0-0.0","task_version":"screening-prolific","missing":false,"accuracy":0},{"contexts":["green","blue","red"],"outcomes":[0,0,1],"key":38,"choice":1,"rt":316,"outcome":0,"trial":51,"correct":2,"trial_type":"three-arm-trial","trial_index":58,"time_elapsed":499241,"internal_node_id":"0.0-57.0-0.0","task_version":"screening-prolific","missing":false,"accuracy":0},{"contexts":["green","blue","red"],"outcomes":[0,0,1],"key":39,"choice":2,"rt":476,"outcome":1,"trial":52,"correct":2,"trial_type":"three-arm-trial","trial_index":59,"time_elapsed":500931,"internal_node_id":"0.0-58.0-0.0","task_version":"screening-prolific","missing":false,"accuracy":1},{"contexts":["green","blue","red"],"outcomes":[0,0,1],"key":39,"choice":2,"rt":537,"outcome":1,"trial":53,"correct":2,"trial_type":"three-arm-trial","trial_index":60,"time_elapsed":502690,"internal_node_id":"0.0-59.0-0.0","task_version":"screening-prolific","missing":false,"accuracy":1},{"contexts":["green","blue","red"],"outcomes":[0,0,1],"key":39,"choice":2,"rt":476,"outcome":1,"trial":54,"correct":2,"trial_type":"three-arm-trial","trial_index":61,"time_elapsed":504379,"internal_node_id":"0.0-60.0-0.0","task_version":"screening-prolific","missing":false,"accuracy":1},{"contexts":["green","blue","red"],"outcomes":[0,0,1],"key":39,"choice":2,"rt":411,"outcome":1,"trial":55,"correct":2,"trial_type":"three-arm-trial","trial_index":62,"time_elapsed":506011,"internal_node_id":"0.0-61.0-0.0","task_version":"screening-prolific","missing":false,"accuracy":1},{"contexts":["green","blue","red"],"outcomes":[0,0,1],"key":39,"choice":2,"rt":403,"outcome":1,"trial":56,"correct":2,"trial_type":"three-arm-trial","trial_index":63,"time_elapsed":507631,"internal_node_id":"0.0-62.0-0.0","task_version":"screening-prolific","missing":false,"accuracy":1},{"contexts":["green","blue","red"],"outcomes":[0,0,1],"key":39,"choice":2,"rt":357,"outcome":1,"trial":57,"correct":2,"trial_type":"three-arm-trial","trial_index":64,"time_elapsed":509210,"internal_node_id":"0.0-63.0-0.0","task_version":"screening-prolific","missing":false,"accuracy":1},{"contexts":["green","blue","red"],"outcomes":[0,1,1],"key":39,"choice":2,"rt":245,"outcome":1,"trial":58,"correct":2,"trial_type":"three-arm-trial","trial_index":65,"time_elapsed":510669,"internal_node_id":"0.0-64.0-0.0","task_version":"screening-prolific","missing":false,"accuracy":1},{"contexts":["green","blue","red"],"outcomes":[0,0,1],"key":39,"choice":2,"rt":362,"outcome":1,"trial":59,"correct":2,"trial_type":"three-arm-trial","trial_index":66,"time_elapsed":512245,"internal_node_id":"0.0-65.0-0.0","task_version":"screening-prolific","missing":false,"accuracy":1},{"contexts":["green","blue","red"],"outcomes":[1,0,1],"key":39,"choice":2,"rt":368,"outcome":1,"trial":60,"correct":2,"trial_type":"three-arm-trial","trial_index":67,"time_elapsed":513822,"internal_node_id":"0.0-66.0-0.0","task_version":"screening-prolific","missing":false,"accuracy":1},{"contexts":["green","blue","red"],"outcomes":[0,1,0],"key":39,"choice":2,"rt":385,"outcome":0,"trial":61,"correct":1,"trial_type":"three-arm-trial","trial_index":68,"time_elapsed":515412,"internal_node_id":"0.0-67.0-0.0","task_version":"screening-prolific","missing":false,"accuracy":0},{"contexts":["green","blue","red"],"outcomes":[0,1,0],"key":38,"choice":1,"rt":1049,"outcome":1,"trial":62,"correct":1,"trial_type":"three-arm-trial","trial_index":69,"time_elapsed":517672,"internal_node_id":"0.0-68.0-0.0","task_version":"screening-prolific","missing":false,"accuracy":1},{"contexts":["green","blue","red"],"outcomes":[0,1,0],"key":38,"choice":1,"rt":366,"outcome":1,"trial":63,"correct":1,"trial_type":"three-arm-trial","trial_index":70,"time_elapsed":519249,"internal_node_id":"0.0-69.0-0.0","task_version":"screening-prolific","missing":false,"accuracy":1},{"contexts":["green","blue","red"],"outcomes":[0,1,0],"key":38,"choice":1,"rt":348,"outcome":1,"trial":64,"correct":1,"trial_type":"three-arm-trial","trial_index":71,"time_elapsed":520812,"internal_node_id":"0.0-70.0-0.0","task_version":"screening-prolific","missing":false,"accuracy":1},{"contexts":["green","blue","red"],"outcomes":[0,1,1],"key":38,"choice":1,"rt":769,"outcome":1,"trial":65,"correct":1,"trial_type":"three-arm-trial","trial_index":72,"time_elapsed":522790,"internal_node_id":"0.0-71.0-0.0","task_version":"screening-prolific","missing":false,"accuracy":1},{"contexts":["green","blue","red"],"outcomes":[1,1,0],"key":38,"choice":1,"rt":382,"outcome":1,"trial":66,"correct":1,"trial_type":"three-arm-trial","trial_index":73,"time_elapsed":524379,"internal_node_id":"0.0-72.0-0.0","task_version":"screening-prolific","missing":false,"accuracy":1},{"contexts":["green","blue","red"],"outcomes":[0,1,0],"key":38,"choice":1,"rt":336,"outcome":1,"trial":67,"correct":1,"trial_type":"three-arm-trial","trial_index":74,"time_elapsed":525919,"internal_node_id":"0.0-73.0-0.0","task_version":"screening-prolific","missing":false,"accuracy":1},{"contexts":["green","blue","red"],"outcomes":[0,1,1],"key":38,"choice":1,"rt":361,"outcome":1,"trial":68,"correct":1,"trial_type":"three-arm-trial","trial_index":75,"time_elapsed":527502,"internal_node_id":"0.0-74.0-0.0","task_version":"screening-prolific","missing":false,"accuracy":1},{"contexts":["green","blue","red"],"outcomes":[0,1,0],"key":38,"choice":1,"rt":341,"outcome":1,"trial":69,"correct":1,"trial_type":"three-arm-trial","trial_index":76,"time_elapsed":529065,"internal_node_id":"0.0-75.0-0.0","task_version":"screening-prolific","missing":false,"accuracy":1},{"contexts":["green","blue","red"],"outcomes":[0,1,0],"key":38,"choice":1,"rt":310,"outcome":1,"trial":70,"correct":1,"trial_type":"three-arm-trial","trial_index":77,"time_elapsed":530590,"internal_node_id":"0.0-76.0-0.0","task_version":"screening-prolific","missing":false,"accuracy":1},{"contexts":["green","blue","red"],"outcomes":[0,1,0],"key":38,"choice":1,"rt":328,"outcome":1,"trial":71,"correct":1,"trial_type":"three-arm-trial","trial_index":78,"time_elapsed":532130,"internal_node_id":"0.0-77.0-0.0","task_version":"screening-prolific","missing":false,"accuracy":1},{"contexts":["green","blue","red"],"outcomes":[0,1,0],"key":38,"choice":1,"rt":326,"outcome":1,"trial":72,"correct":1,"trial_type":"three-arm-trial","trial_index":79,"time_elapsed":533659,"internal_node_id":"0.0-78.0-0.0","task_version":"screening-prolific","missing":false,"accuracy":1},{"contexts":["green","blue","red"],"outcomes":[0,0,0],"key":38,"choice":1,"rt":168,"outcome":0,"trial":73,"correct":1,"trial_type":"three-arm-trial","trial_index":80,"time_elapsed":535049,"internal_node_id":"0.0-79.0-0.0","task_version":"screening-prolific","missing":false,"accuracy":1},{"contexts":["green","blue","red"],"outcomes":[0,0,1],"key":37,"choice":0,"rt":261,"outcome":0,"trial":74,"correct":1,"trial_type":"three-arm-trial","trial_index":81,"time_elapsed":536522,"internal_node_id":"0.0-80.0-0.0","task_version":"screening-prolific","missing":false,"accuracy":0},{"contexts":["green","blue","red"],"outcomes":[0,1,0],"key":39,"choice":2,"rt":167,"outcome":0,"trial":75,"correct":1,"trial_type":"three-arm-trial","trial_index":82,"time_elapsed":537910,"internal_node_id":"0.0-81.0-0.0","task_version":"screening-prolific","missing":false,"accuracy":0},{"contexts":["green","blue","red"],"outcomes":[0,0,1],"key":38,"choice":1,"rt":448,"outcome":0,"trial":76,"correct":0,"trial_type":"three-arm-trial","trial_index":83,"time_elapsed":539562,"internal_node_id":"0.0-82.0-0.0","task_version":"screening-prolific","missing":false,"accuracy":0},{"contexts":["green","blue","red"],"outcomes":[1,0,0],"key":39,"choice":2,"rt":210,"outcome":0,"trial":77,"correct":0,"trial_type":"three-arm-trial","trial_index":84,"time_elapsed":540988,"internal_node_id":"0.0-83.0-0.0","task_version":"screening-prolific","missing":false,"accuracy":0},{"contexts":["green","blue","red"],"outcomes":[1,0,1],"key":39,"choice":2,"rt":152,"outcome":1,"trial":78,"correct":0,"trial_type":"three-arm-trial","trial_index":85,"time_elapsed":542366,"internal_node_id":"0.0-84.0-0.0","task_version":"screening-prolific","missing":false,"accuracy":0},{"contexts":["green","blue","red"],"outcomes":[1,0,0],"key":39,"choice":2,"rt":394,"outcome":0,"trial":79,"correct":0,"trial_type":"three-arm-trial","trial_index":86,"time_elapsed":543980,"internal_node_id":"0.0-85.0-0.0","task_version":"screening-prolific","missing":false,"accuracy":0},{"contexts":["green","blue","red"],"outcomes":[1,0,0],"key":38,"choice":1,"rt":332,"outcome":0,"trial":80,"correct":0,"trial_type":"three-arm-trial","trial_index":87,"time_elapsed":545537,"internal_node_id":"0.0-86.0-0.0","task_version":"screening-prolific","missing":false,"accuracy":0},{"contexts":["green","blue","red"],"outcomes":[1,0,0],"key":38,"choice":1,"rt":94,"outcome":0,"trial":81,"correct":0,"trial_type":"three-arm-trial","trial_index":88,"time_elapsed":546849,"internal_node_id":"0.0-87.0-0.0","task_version":"screening-prolific","missing":false,"accuracy":0},{"contexts":["green","blue","red"],"outcomes":[1,0,0],"key":37,"choice":0,"rt":178,"outcome":1,"trial":82,"correct":0,"trial_type":"three-arm-trial","trial_index":89,"time_elapsed":548245,"internal_node_id":"0.0-88.0-0.0","task_version":"screening-prolific","missing":false,"accuracy":1},{"contexts":["green","blue","red"],"outcomes":[1,0,0],"key":37,"choice":0,"rt":390,"outcome":1,"trial":83,"correct":0,"trial_type":"three-arm-trial","trial_index":90,"time_elapsed":549839,"internal_node_id":"0.0-89.0-0.0","task_version":"screening-prolific","missing":false,"accuracy":1},{"contexts":["green","blue","red"],"outcomes":[0,0,0],"key":37,"choice":0,"rt":494,"outcome":0,"trial":84,"correct":0,"trial_type":"three-arm-trial","trial_index":91,"time_elapsed":551554,"internal_node_id":"0.0-90.0-0.0","task_version":"screening-prolific","missing":false,"accuracy":1},{"contexts":["green","blue","red"],"outcomes":[1,0,0],"key":39,"choice":2,"rt":419,"outcome":0,"trial":85,"correct":0,"trial_type":"three-arm-trial","trial_index":92,"time_elapsed":553179,"internal_node_id":"0.0-91.0-0.0","task_version":"screening-prolific","missing":false,"accuracy":0},{"contexts":["green","blue","red"],"outcomes":[1,1,0],"key":37,"choice":0,"rt":450,"outcome":1,"trial":86,"correct":0,"trial_type":"three-arm-trial","trial_index":93,"time_elapsed":554839,"internal_node_id":"0.0-92.0-0.0","task_version":"screening-prolific","missing":false,"accuracy":1},{"contexts":["green","blue","red"],"outcomes":[1,0,0],"key":37,"choice":0,"rt":349,"outcome":1,"trial":87,"correct":0,"trial_type":"three-arm-trial","trial_index":94,"time_elapsed":556408,"internal_node_id":"0.0-93.0-0.0","task_version":"screening-prolific","missing":false,"accuracy":1},{"contexts":["green","blue","red"],"outcomes":[0,0,1],"key":37,"choice":0,"rt":652,"outcome":0,"trial":88,"correct":0,"trial_type":"three-arm-trial","trial_index":95,"time_elapsed":558277,"internal_node_id":"0.0-94.0-0.0","task_version":"screening-prolific","missing":false,"accuracy":1},{"contexts":["green","blue","red"],"outcomes":[1,0,1],"key":39,"choice":2,"rt":110,"outcome":1,"trial":89,"correct":0,"trial_type":"three-arm-trial","trial_index":96,"time_elapsed":559605,"internal_node_id":"0.0-95.0-0.0","task_version":"screening-prolific","missing":false,"accuracy":0},{"contexts":["green","blue","red"],"outcomes":[0,0,1],"key":39,"choice":2,"rt":487,"outcome":1,"trial":90,"correct":0,"trial_type":"three-arm-trial","trial_index":97,"time_elapsed":561299,"internal_node_id":"0.0-96.0-0.0","task_version":"screening-prolific","missing":false,"accuracy":0},{"rt":24752,"responses":{"age":"53","gender-categorical":"Female","gender-free-response":"","ethnicity":"Not Hispanic or Latino","race":["White"],"language":"Yes","fluency":"Very well","mturk":"No","mturk-this-study":"No"},"survey":"demographics","trial_type":"survey-demo","trial_index":98,"time_elapsed":586062,"internal_node_id":"0.0-97.0","task_version":"screening-prolific","interactions":"[{\"event\":\"focus\",\"trial\":0,\"time\":0}]"}]