[{"responses":{"Q11":"1","Q02":"2","Q12":"1","Q03":"1","Q09":"1","Q10":"2","Q05":"2","Q01":"2","Q13":"3","Q04":"3","Q07":"3","Q08":"2","Q06":"2"},"rt":139597.33499999857,"survey":"bisbas","trial_type":"survey-template","trial_index":0,"time_elapsed":139824,"internal_node_id":"0.0-0.0","task_version":"screening-prolific"},{"responses":{"Q03":"2","Q01":"2","Q02":"2"},"rt":12812.514999997802,"survey":"pswq","trial_type":"survey-template","trial_index":1,"time_elapsed":152763,"internal_node_id":"0.0-1.0","task_version":"screening-prolific"},{"responses":{"Q11":"1","Q14":"0","Q08":"0","Q09":"1","Q03":"1","Q15":"0","Q01":"0","Q02":"1","Q13":"1","Q04":"0","Q12":"0","Q05":"1","Q07":"1","Q10":"1","Q06":"0"},"rt":181932.5899999967,"survey":"7up7down","trial_type":"survey-template","trial_index":2,"time_elapsed":334756,"internal_node_id":"0.0-2.0","task_version":"screening-prolific"},{"responses":{"Q10":"3","Q05":"2","Q06":"2","Q13":"2","Q11":"1","Q15":"3","Q07":"3","Q08":"2","Q03":"3","Q01":"1","Q12":"2","Q14":"2","Q09":"1","Q02":"2","Q04":"2"},"rt":77844.73500000604,"survey":"shaps","trial_type":"survey-template","trial_index":3,"time_elapsed":412670,"internal_node_id":"0.0-3.0","task_version":"screening-prolific"},{"responses":{"Q07":"0","Q05":"0","Q04":"0","Q08":"0","Q03":"1","Q02":"0","Q01":"0","Q06":"1"},"rt":58126.09499999962,"survey":"gad7","trial_type":"survey-template","trial_index":4,"time_elapsed":470851,"internal_node_id":"0.0-4.0","task_version":"screening-prolific"},{"view_history":"[{\"page_index\":0,\"viewing_time\":8992.849999995087},{\"page_index\":1,\"viewing_time\":9394.054999997024},{\"page_index\":2,\"viewing_time\":24829.460000008112},{\"page_index\":3,\"viewing_time\":6514.439999999013},{\"page_index\":4,\"viewing_time\":6986.3800000021},{\"page_index\":5,\"viewing_time\":6500.414999987697},{\"page_index\":6,\"viewing_time\":9909.505000003264},{\"page_index\":7,\"viewing_time\":16285.644999996293}]","rt":89446.00499999069,"trial_type":"instructions","trial_index":5,"time_elapsed":560322,"internal_node_id":"0.0-5.0-0.0","task_version":"screening-prolific"},{"responses":["True","True","False","False","True"],"num_errors":0,"rt":24514.88000000245,"trial_type":"three-arm-comprehension","trial_index":6,"time_elapsed":584876,"internal_node_id":"0.0-5.0-1.0","task_version":"screening-prolific"},{"view_history":"[{\"page_index\":0,\"viewing_time\":2802.4549999972805}]","rt":2803.714999987278,"trial_type":"instructions","trial_index":7,"time_elapsed":587806,"internal_node_id":"0.0-6.0","task_version":"screening-prolific"},{"contexts":["blue","red","green"],"outcomes":[1,0,0],"key":39,"choice":2,"rt":7892.695000002277,"outcome":0,"trial":1,"correct":0,"trial_type":"three-arm-trial","trial_index":8,"time_elapsed":596914,"internal_node_id":"0.0-7.0-0.0","task_version":"screening-prolific","missing":false,"accuracy":0},{"contexts":["blue","red","green"],"outcomes":[1,1,0],"key":37,"choice":0,"rt":2587.1050000132527,"outcome":1,"trial":2,"correct":0,"trial_type":"three-arm-trial","trial_index":9,"time_elapsed":600741,"internal_node_id":"0.0-8.0-0.0","task_version":"screening-prolific","missing":false,"accuracy":1},{"contexts":["blue","red","green"],"outcomes":[1,0,0],"key":38,"choice":1,"rt":1524.2749999888474,"outcome":0,"trial":3,"correct":0,"trial_type":"three-arm-trial","trial_index":10,"time_elapsed":603494,"internal_node_id":"0.0-9.0-0.0","task_version":"screening-prolific","missing":false,"accuracy":0},{"contexts":["blue","red","green"],"outcomes":[1,0,0],"key":39,"choice":2,"rt":1118.815000008908,"outcome":0,"trial":4,"correct":0,"trial_type":"three-arm-trial","trial_index":11,"time_elapsed":605867,"internal_node_id":"0.0-10.0-0.0","task_version":"screening-prolific","missing":false,"accuracy":0},{"contexts":["blue","red","green"],"outcomes":[1,0,0],"key":39,"choice":2,"rt":1118.9549999980954,"outcome":0,"trial":5,"correct":0,"trial_type":"three-arm-trial","trial_index":12,"time_elapsed":608268,"internal_node_id":"0.0-11.0-0.0","task_version":"screening-prolific","missing":false,"accuracy":0},{"contexts":["blue","red","green"],"outcomes":[0,0,0],"key":37,"choice":0,"rt":840.939999994589,"outcome":0,"trial":6,"correct":0,"trial_type":"three-arm-trial","trial_index":13,"time_elapsed":610357,"internal_node_id":"0.0-12.0-0.0","task_version":"screening-prolific","missing":false,"accuracy":1},{"contexts":["blue","red","green"],"outcomes":[1,0,0],"key":39,"choice":2,"rt":1657.229999997071,"outcome":0,"trial":7,"correct":0,"trial_type":"three-arm-trial","trial_index":14,"time_elapsed":613274,"internal_node_id":"0.0-13.0-0.0","task_version":"screening-prolific","missing":false,"accuracy":0},{"contexts":["blue","red","green"],"outcomes":[1,1,0],"key":38,"choice":1,"rt":457.90999999735504,"outcome":1,"trial":8,"correct":0,"trial_type":"three-arm-trial","trial_index":15,"time_elapsed":614983,"internal_node_id":"0.0-14.0-0.0","task_version":"screening-prolific","missing":false,"accuracy":0},{"contexts":["blue","red","green"],"outcomes":[1,0,0],"key":39,"choice":2,"rt":2834.62999999756,"outcome":0,"trial":9,"correct":0,"trial_type":"three-arm-trial","trial_index":16,"time_elapsed":619089,"internal_node_id":"0.0-15.0-0.0","task_version":"screening-prolific","missing":false,"accuracy":0},{"contexts":["blue","red","green"],"outcomes":[1,0,0],"key":38,"choice":1,"rt":714.7450000047684,"outcome":0,"trial":10,"correct":0,"trial_type":"three-arm-trial","trial_index":17,"time_elapsed":621031,"internal_node_id":"0.0-16.0-0.0","task_version":"screening-prolific","missing":false,"accuracy":0},{"contexts":["blue","red","green"],"outcomes":[1,0,0],"key":39,"choice":2,"rt":834.8399999958929,"outcome":0,"trial":11,"correct":0,"trial_type":"three-arm-trial","trial_index":18,"time_elapsed":623120,"internal_node_id":"0.0-17.0-0.0","task_version":"screening-prolific","missing":false,"accuracy":0},{"contexts":["blue","red","green"],"outcomes":[1,0,1],"key":37,"choice":0,"rt":442.82499999098945,"outcome":1,"trial":12,"correct":0,"trial_type":"three-arm-trial","trial_index":19,"time_elapsed":624791,"internal_node_id":"0.0-18.0-0.0","task_version":"screening-prolific","missing":false,"accuracy":1},{"contexts":["blue","red","green"],"outcomes":[1,0,0],"key":39,"choice":2,"rt":1760.919999986072,"outcome":0,"trial":13,"correct":0,"trial_type":"three-arm-trial","trial_index":20,"time_elapsed":627804,"internal_node_id":"0.0-19.0-0.0","task_version":"screening-prolific","missing":false,"accuracy":0},{"contexts":["blue","red","green"],"outcomes":[1,0,0],"key":38,"choice":1,"rt":581.5449999936391,"outcome":0,"trial":14,"correct":0,"trial_type":"three-arm-trial","trial_index":21,"time_elapsed":629611,"internal_node_id":"0.0-20.0-0.0","task_version":"screening-prolific","missing":false,"accuracy":0},{"contexts":["blue","red","green"],"outcomes":[1,0,0],"key":37,"choice":0,"rt":752.6249999937136,"outcome":1,"trial":15,"correct":0,"trial_type":"three-arm-trial","trial_index":22,"time_elapsed":631597,"internal_node_id":"0.0-21.0-0.0","task_version":"screening-prolific","missing":false,"accuracy":1},{"contexts":["blue","red","green"],"outcomes":[0,0,1],"key":39,"choice":2,"rt":1087.8050000028452,"outcome":1,"trial":16,"correct":2,"trial_type":"three-arm-trial","trial_index":23,"time_elapsed":633925,"internal_node_id":"0.0-22.0-0.0","task_version":"screening-prolific","missing":false,"accuracy":1},{"contexts":["blue","red","green"],"outcomes":[0,0,1],"key":38,"choice":1,"rt":1354.0050000010524,"outcome":0,"trial":17,"correct":2,"trial_type":"three-arm-trial","trial_index":24,"time_elapsed":636526,"internal_node_id":"0.0-23.0-0.0","task_version":"screening-prolific","missing":false,"accuracy":0},{"contexts":["blue","red","green"],"outcomes":[0,1,1],"key":37,"choice":0,"rt":557.9450000077486,"outcome":0,"trial":18,"correct":2,"trial_type":"three-arm-trial","trial_index":25,"time_elapsed":638315,"internal_node_id":"0.0-24.0-0.0","task_version":"screening-prolific","missing":false,"accuracy":0},{"contexts":["blue","red","green"],"outcomes":[0,0,1],"key":39,"choice":2,"rt":394.9750000028871,"outcome":1,"trial":19,"correct":2,"trial_type":"three-arm-trial","trial_index":26,"time_elapsed":639951,"internal_node_id":"0.0-25.0-0.0","task_version":"screening-prolific","missing":false,"accuracy":1},{"contexts":["blue","red","green"],"outcomes":[0,0,1],"key":38,"choice":1,"rt":914.2250000004424,"outcome":0,"trial":20,"correct":2,"trial_type":"three-arm-trial","trial_index":27,"time_elapsed":642114,"internal_node_id":"0.0-26.0-0.0","task_version":"screening-prolific","missing":false,"accuracy":0},{"contexts":["blue","red","green"],"outcomes":[0,0,1],"key":37,"choice":0,"rt":1138.4000000107335,"outcome":0,"trial":21,"correct":2,"trial_type":"three-arm-trial","trial_index":28,"time_elapsed":644513,"internal_node_id":"0.0-27.0-0.0","task_version":"screening-prolific","missing":false,"accuracy":0},{"contexts":["blue","red","green"],"outcomes":[0,0,1],"key":38,"choice":1,"rt":1104.3700000009267,"outcome":0,"trial":22,"correct":2,"trial_type":"three-arm-trial","trial_index":29,"time_elapsed":646865,"internal_node_id":"0.0-28.0-0.0","task_version":"screening-prolific","missing":false,"accuracy":0},{"contexts":["blue","red","green"],"outcomes":[0,0,1],"key":39,"choice":2,"rt":556.2550000031479,"outcome":1,"trial":23,"correct":2,"trial_type":"three-arm-trial","trial_index":30,"time_elapsed":648720,"internal_node_id":"0.0-29.0-0.0","task_version":"screening-prolific","missing":false,"accuracy":1},{"contexts":["blue","red","green"],"outcomes":[0,0,0],"key":37,"choice":0,"rt":938.849999991362,"outcome":0,"trial":24,"correct":2,"trial_type":"three-arm-trial","trial_index":31,"time_elapsed":650907,"internal_node_id":"0.0-30.0-0.0","task_version":"screening-prolific","missing":false,"accuracy":0},{"contexts":["blue","red","green"],"outcomes":[0,0,1],"key":38,"choice":1,"rt":624.9799999932293,"outcome":0,"trial":25,"correct":2,"trial_type":"three-arm-trial","trial_index":32,"time_elapsed":652870,"internal_node_id":"0.0-31.0-0.0","task_version":"screening-prolific","missing":false,"accuracy":0},{"contexts":["blue","red","green"],"outcomes":[0,0,1],"key":39,"choice":2,"rt":427.9050000041025,"outcome":1,"trial":26,"correct":2,"trial_type":"three-arm-trial","trial_index":33,"time_elapsed":654521,"internal_node_id":"0.0-32.0-0.0","task_version":"screening-prolific","missing":false,"accuracy":1},{"contexts":["blue","red","green"],"outcomes":[0,0,1],"key":37,"choice":0,"rt":951.1999999958789,"outcome":0,"trial":27,"correct":2,"trial_type":"three-arm-trial","trial_index":34,"time_elapsed":656711,"internal_node_id":"0.0-33.0-0.0","task_version":"screening-prolific","missing":false,"accuracy":0},{"contexts":["blue","red","green"],"outcomes":[0,0,0],"key":39,"choice":2,"rt":462.55999999993946,"outcome":0,"trial":28,"correct":2,"trial_type":"three-arm-trial","trial_index":35,"time_elapsed":658443,"internal_node_id":"0.0-34.0-0.0","task_version":"screening-prolific","missing":false,"accuracy":1},{"contexts":["blue","red","green"],"outcomes":[1,0,0],"key":38,"choice":1,"rt":340.2350000105798,"outcome":0,"trial":29,"correct":2,"trial_type":"three-arm-trial","trial_index":36,"time_elapsed":660015,"internal_node_id":"0.0-35.0-0.0","task_version":"screening-prolific","missing":false,"accuracy":0},{"contexts":["blue","red","green"],"outcomes":[0,0,1],"key":37,"choice":0,"rt":492.92000000423286,"outcome":0,"trial":30,"correct":2,"trial_type":"three-arm-trial","trial_index":37,"time_elapsed":661735,"internal_node_id":"0.0-36.0-0.0","task_version":"screening-prolific","missing":false,"accuracy":0},{"contexts":["blue","red","green"],"outcomes":[1,0,0],"key":39,"choice":2,"rt":136.23000000370666,"outcome":0,"trial":31,"correct":0,"trial_type":"three-arm-trial","trial_index":38,"time_elapsed":663098,"internal_node_id":"0.0-37.0-0.0","task_version":"screening-prolific","missing":false,"accuracy":0},{"contexts":["blue","red","green"],"outcomes":[1,1,0],"key":38,"choice":1,"rt":360.5450000031851,"outcome":1,"trial":32,"correct":0,"trial_type":"three-arm-trial","trial_index":39,"time_elapsed":664707,"internal_node_id":"0.0-38.0-0.0","task_version":"screening-prolific","missing":false,"accuracy":0},{"contexts":["blue","red","green"],"outcomes":[1,0,0],"key":39,"choice":2,"rt":573.805000007269,"outcome":0,"trial":33,"correct":0,"trial_type":"three-arm-trial","trial_index":40,"time_elapsed":666536,"internal_node_id":"0.0-39.0-0.0","task_version":"screening-prolific","missing":false,"accuracy":0},{"contexts":["blue","red","green"],"outcomes":[1,1,1],"key":37,"choice":0,"rt":213.44500000122935,"outcome":1,"trial":34,"correct":0,"trial_type":"three-arm-trial","trial_index":41,"time_elapsed":668048,"internal_node_id":"0.0-40.0-0.0","task_version":"screening-prolific","missing":false,"accuracy":1},{"contexts":["blue","red","green"],"outcomes":[1,0,1],"key":38,"choice":1,"rt":479.3599999975413,"outcome":0,"trial":35,"correct":0,"trial_type":"three-arm-trial","trial_index":42,"time_elapsed":669771,"internal_node_id":"0.0-41.0-0.0","task_version":"screening-prolific","missing":false,"accuracy":0},{"contexts":["blue","red","green"],"outcomes":[1,0,1],"key":37,"choice":0,"rt":148.82000000216067,"outcome":1,"trial":36,"correct":0,"trial_type":"three-arm-trial","trial_index":43,"time_elapsed":671167,"internal_node_id":"0.0-42.0-0.0","task_version":"screening-prolific","missing":false,"accuracy":1},{"contexts":["blue","red","green"],"outcomes":[1,1,1],"key":39,"choice":2,"rt":281.0100000060629,"outcome":1,"trial":37,"correct":0,"trial_type":"three-arm-trial","trial_index":44,"time_elapsed":672690,"internal_node_id":"0.0-43.0-0.0","task_version":"screening-prolific","missing":false,"accuracy":0},{"contexts":["blue","red","green"],"outcomes":[1,1,0],"key":38,"choice":1,"rt":848.5900000086986,"outcome":1,"trial":38,"correct":0,"trial_type":"three-arm-trial","trial_index":45,"time_elapsed":674785,"internal_node_id":"0.0-44.0-0.0","task_version":"screening-prolific","missing":false,"accuracy":0},{"contexts":["blue","red","green"],"outcomes":[0,1,1],"key":39,"choice":2,"rt":511.0949999943841,"outcome":1,"trial":39,"correct":0,"trial_type":"three-arm-trial","trial_index":46,"time_elapsed":676518,"internal_node_id":"0.0-45.0-0.0","task_version":"screening-prolific","missing":false,"accuracy":0},{"contexts":["blue","red","green"],"outcomes":[0,0,0],"key":37,"choice":0,"rt":354.1350000014063,"outcome":0,"trial":40,"correct":0,"trial_type":"three-arm-trial","trial_index":47,"time_elapsed":678101,"internal_node_id":"0.0-46.0-0.0","task_version":"screening-prolific","missing":false,"accuracy":1},{"contexts":["blue","red","green"],"outcomes":[0,0,0],"key":38,"choice":1,"rt":95.79500000108965,"outcome":0,"trial":41,"correct":0,"trial_type":"three-arm-trial","trial_index":48,"time_elapsed":679460,"internal_node_id":"0.0-47.0-0.0","task_version":"screening-prolific","missing":false,"accuracy":0},{"contexts":["blue","red","green"],"outcomes":[1,1,0],"key":39,"choice":2,"rt":768.804999999702,"outcome":0,"trial":42,"correct":0,"trial_type":"three-arm-trial","trial_index":49,"time_elapsed":681532,"internal_node_id":"0.0-48.0-0.0","task_version":"screening-prolific","missing":false,"accuracy":0},{"contexts":["blue","red","green"],"outcomes":[1,0,1],"key":38,"choice":1,"rt":634.0649999910966,"outcome":0,"trial":43,"correct":0,"trial_type":"three-arm-trial","trial_index":50,"time_elapsed":683454,"internal_node_id":"0.0-49.0-0.0","task_version":"screening-prolific","missing":false,"accuracy":0},{"contexts":["blue","red","green"],"outcomes":[1,0,0],"key":37,"choice":0,"rt":580.4649999918183,"outcome":1,"trial":44,"correct":0,"trial_type":"three-arm-trial","trial_index":51,"time_elapsed":685280,"internal_node_id":"0.0-50.0-0.0","task_version":"screening-prolific","missing":false,"accuracy":1},{"contexts":["blue","red","green"],"outcomes":[1,0,0],"key":39,"choice":2,"rt":688.6999999987893,"outcome":0,"trial":45,"correct":0,"trial_type":"three-arm-trial","trial_index":52,"time_elapsed":687316,"internal_node_id":"0.0-51.0-0.0","task_version":"screening-prolific","missing":false,"accuracy":0},{"contexts":["blue","red","green"],"outcomes":[0,1,0],"key":37,"choice":0,"rt":243.5599999880651,"outcome":0,"trial":46,"correct":1,"trial_type":"three-arm-trial","trial_index":53,"time_elapsed":688806,"internal_node_id":"0.0-52.0-0.0","task_version":"screening-prolific","missing":false,"accuracy":0},{"contexts":["blue","red","green"],"outcomes":[0,0,0],"key":38,"choice":1,"rt":589.9650000064867,"outcome":0,"trial":47,"correct":1,"trial_type":"three-arm-trial","trial_index":54,"time_elapsed":690643,"internal_node_id":"0.0-53.0-0.0","task_version":"screening-prolific","missing":false,"accuracy":1},{"contexts":["blue","red","green"],"outcomes":[0,1,0],"key":37,"choice":0,"rt":464.9500000086846,"outcome":0,"trial":48,"correct":1,"trial_type":"three-arm-trial","trial_index":55,"time_elapsed":692360,"internal_node_id":"0.0-54.0-0.0","task_version":"screening-prolific","missing":false,"accuracy":0},{"contexts":["blue","red","green"],"outcomes":[0,0,0],"key":39,"choice":2,"rt":97.76000000420026,"outcome":0,"trial":49,"correct":1,"trial_type":"three-arm-trial","trial_index":56,"time_elapsed":693716,"internal_node_id":"0.0-55.0-0.0","task_version":"screening-prolific","missing":false,"accuracy":0},{"contexts":["blue","red","green"],"outcomes":[1,0,0],"key":38,"choice":1,"rt":1.2199999910080805,"outcome":0,"trial":50,"correct":1,"trial_type":"three-arm-trial","trial_index":57,"time_elapsed":694969,"internal_node_id":"0.0-56.0-0.0","task_version":"screening-prolific","missing":false,"accuracy":1},{"contexts":["blue","red","green"],"outcomes":[0,1,0],"key":37,"choice":0,"rt":766.7749999964144,"outcome":0,"trial":51,"correct":1,"trial_type":"three-arm-trial","trial_index":58,"time_elapsed":696975,"internal_node_id":"0.0-57.0-0.0","task_version":"screening-prolific","missing":false,"accuracy":0},{"contexts":["blue","red","green"],"outcomes":[0,1,1],"key":39,"choice":2,"rt":515.5850000010105,"outcome":1,"trial":52,"correct":1,"trial_type":"three-arm-trial","trial_index":59,"time_elapsed":698739,"internal_node_id":"0.0-58.0-0.0","task_version":"screening-prolific","missing":false,"accuracy":0},{"contexts":["blue","red","green"],"outcomes":[0,1,0],"key":38,"choice":1,"rt":518.804999999702,"outcome":1,"trial":53,"correct":1,"trial_type":"three-arm-trial","trial_index":60,"time_elapsed":700519,"internal_node_id":"0.0-59.0-0.0","task_version":"screening-prolific","missing":false,"accuracy":1},{"contexts":["blue","red","green"],"outcomes":[0,0,0],"key":37,"choice":0,"rt":273.74000000418164,"outcome":0,"trial":54,"correct":1,"trial_type":"three-arm-trial","trial_index":61,"time_elapsed":702034,"internal_node_id":"0.0-60.0-0.0","task_version":"screening-prolific","missing":false,"accuracy":0},{"contexts":["blue","red","green"],"outcomes":[0,1,1],"key":38,"choice":1,"rt":624.9949999910314,"outcome":1,"trial":55,"correct":1,"trial_type":"three-arm-trial","trial_index":62,"time_elapsed":703895,"internal_node_id":"0.0-61.0-0.0","task_version":"screening-prolific","missing":false,"accuracy":1},{"contexts":["blue","red","green"],"outcomes":[0,1,0],"key":39,"choice":2,"rt":335.59499999682885,"outcome":0,"trial":56,"correct":1,"trial_type":"three-arm-trial","trial_index":63,"time_elapsed":705475,"internal_node_id":"0.0-62.0-0.0","task_version":"screening-prolific","missing":false,"accuracy":0},{"contexts":["blue","red","green"],"outcomes":[0,1,1],"key":38,"choice":1,"rt":433.4799999924144,"outcome":1,"trial":57,"correct":1,"trial_type":"three-arm-trial","trial_index":64,"time_elapsed":707154,"internal_node_id":"0.0-63.0-0.0","task_version":"screening-prolific","missing":false,"accuracy":1},{"contexts":["blue","red","green"],"outcomes":[0,1,1],"key":37,"choice":0,"rt":446.46999999531545,"outcome":0,"trial":58,"correct":1,"trial_type":"three-arm-trial","trial_index":65,"time_elapsed":708838,"internal_node_id":"0.0-64.0-0.0","task_version":"screening-prolific","missing":false,"accuracy":0},{"contexts":["blue","red","green"],"outcomes":[0,1,0],"key":39,"choice":2,"rt":66.13000000652391,"outcome":0,"trial":59,"correct":1,"trial_type":"three-arm-trial","trial_index":66,"time_elapsed":710143,"internal_node_id":"0.0-65.0-0.0","task_version":"screening-prolific","missing":false,"accuracy":0},{"contexts":["blue","red","green"],"outcomes":[0,0,0],"key":37,"choice":0,"rt":499.9450000032084,"outcome":0,"trial":60,"correct":1,"trial_type":"three-arm-trial","trial_index":67,"time_elapsed":711887,"internal_node_id":"0.0-66.0-0.0","task_version":"screening-prolific","missing":false,"accuracy":0},{"contexts":["blue","red","green"],"outcomes":[0,0,1],"key":38,"choice":1,"rt":250.10000000474975,"outcome":0,"trial":61,"correct":2,"trial_type":"three-arm-trial","trial_index":68,"time_elapsed":713378,"internal_node_id":"0.0-67.0-0.0","task_version":"screening-prolific","missing":false,"accuracy":0},{"contexts":["blue","red","green"],"outcomes":[0,1,1],"key":39,"choice":2,"rt":545.7900000037625,"outcome":1,"trial":62,"correct":2,"trial_type":"three-arm-trial","trial_index":69,"time_elapsed":715160,"internal_node_id":"0.0-68.0-0.0","task_version":"screening-prolific","missing":false,"accuracy":1},{"contexts":["blue","red","green"],"outcomes":[1,0,1],"key":37,"choice":0,"rt":511.7150000005495,"outcome":1,"trial":63,"correct":2,"trial_type":"three-arm-trial","trial_index":70,"time_elapsed":716916,"internal_node_id":"0.0-69.0-0.0","task_version":"screening-prolific","missing":false,"accuracy":0},{"contexts":["blue","red","green"],"outcomes":[0,0,1],"key":39,"choice":2,"rt":564.5000000076834,"outcome":1,"trial":64,"correct":2,"trial_type":"three-arm-trial","trial_index":71,"time_elapsed":718722,"internal_node_id":"0.0-70.0-0.0","task_version":"screening-prolific","missing":false,"accuracy":1},{"contexts":["blue","red","green"],"outcomes":[1,0,1],"key":37,"choice":0,"rt":498.0050000012852,"outcome":1,"trial":65,"correct":2,"trial_type":"three-arm-trial","trial_index":72,"time_elapsed":720471,"internal_node_id":"0.0-71.0-0.0","task_version":"screening-prolific","missing":false,"accuracy":0},{"contexts":["blue","red","green"],"outcomes":[0,0,0],"key":39,"choice":2,"rt":436.7599999968661,"outcome":0,"trial":66,"correct":2,"trial_type":"three-arm-trial","trial_index":73,"time_elapsed":722152,"internal_node_id":"0.0-72.0-0.0","task_version":"screening-prolific","missing":false,"accuracy":1},{"contexts":["blue","red","green"],"outcomes":[0,1,1],"key":38,"choice":1,"rt":3.3899999980349094,"outcome":1,"trial":67,"correct":2,"trial_type":"three-arm-trial","trial_index":74,"time_elapsed":723399,"internal_node_id":"0.0-73.0-0.0","task_version":"screening-prolific","missing":false,"accuracy":0},{"contexts":["blue","red","green"],"outcomes":[1,0,1],"key":37,"choice":0,"rt":340.6550000072457,"outcome":1,"trial":68,"correct":2,"trial_type":"three-arm-trial","trial_index":75,"time_elapsed":724991,"internal_node_id":"0.0-74.0-0.0","task_version":"screening-prolific","missing":false,"accuracy":0},{"contexts":["blue","red","green"],"outcomes":[0,1,1],"key":38,"choice":1,"rt":463.55500000936445,"outcome":1,"trial":69,"correct":2,"trial_type":"three-arm-trial","trial_index":76,"time_elapsed":726699,"internal_node_id":"0.0-75.0-0.0","task_version":"screening-prolific","missing":false,"accuracy":0},{"contexts":["blue","red","green"],"outcomes":[0,0,1],"key":37,"choice":0,"rt":314.62000000465196,"outcome":0,"trial":70,"correct":2,"trial_type":"three-arm-trial","trial_index":77,"time_elapsed":728253,"internal_node_id":"0.0-76.0-0.0","task_version":"screening-prolific","missing":false,"accuracy":0},{"contexts":["blue","red","green"],"outcomes":[1,0,1],"key":39,"choice":2,"rt":144.4350000092527,"outcome":1,"trial":71,"correct":2,"trial_type":"three-arm-trial","trial_index":78,"time_elapsed":729638,"internal_node_id":"0.0-77.0-0.0","task_version":"screening-prolific","missing":false,"accuracy":1},{"contexts":["blue","red","green"],"outcomes":[0,0,1],"key":38,"choice":1,"rt":340.97999999357853,"outcome":0,"trial":72,"correct":2,"trial_type":"three-arm-trial","trial_index":79,"time_elapsed":731233,"internal_node_id":"0.0-78.0-0.0","task_version":"screening-prolific","missing":false,"accuracy":0},{"contexts":["blue","red","green"],"outcomes":[0,0,1],"key":39,"choice":2,"rt":135.1400000130525,"outcome":1,"trial":73,"correct":2,"trial_type":"three-arm-trial","trial_index":80,"time_elapsed":732622,"internal_node_id":"0.0-79.0-0.0","task_version":"screening-prolific","missing":false,"accuracy":1},{"contexts":["blue","red","green"],"outcomes":[0,0,0],"key":37,"choice":0,"rt":315.19000000844244,"outcome":0,"trial":74,"correct":2,"trial_type":"three-arm-trial","trial_index":81,"time_elapsed":734183,"internal_node_id":"0.0-80.0-0.0","task_version":"screening-prolific","missing":false,"accuracy":0},{"contexts":["blue","red","green"],"outcomes":[0,1,0],"key":39,"choice":2,"rt":0.7150000019464642,"outcome":0,"trial":75,"correct":2,"trial_type":"three-arm-trial","trial_index":82,"time_elapsed":735425,"internal_node_id":"0.0-81.0-0.0","task_version":"screening-prolific","missing":false,"accuracy":1},{"contexts":["blue","red","green"],"outcomes":[0,1,0],"key":38,"choice":1,"rt":561.4299999870127,"outcome":1,"trial":76,"correct":0,"trial_type":"three-arm-trial","trial_index":83,"time_elapsed":737318,"internal_node_id":"0.0-82.0-0.0","task_version":"screening-prolific","missing":false,"accuracy":0},{"contexts":["blue","red","green"],"outcomes":[1,0,0],"key":37,"choice":0,"rt":370.12000000686385,"outcome":1,"trial":77,"correct":0,"trial_type":"three-arm-trial","trial_index":84,"time_elapsed":738922,"internal_node_id":"0.0-83.0-0.0","task_version":"screening-prolific","missing":false,"accuracy":1},{"contexts":["blue","red","green"],"outcomes":[1,0,1],"key":38,"choice":1,"rt":202.6800000021467,"outcome":0,"trial":78,"correct":0,"trial_type":"three-arm-trial","trial_index":85,"time_elapsed":740389,"internal_node_id":"0.0-84.0-0.0","task_version":"screening-prolific","missing":false,"accuracy":0},{"contexts":["blue","red","green"],"outcomes":[1,1,0],"key":37,"choice":0,"rt":625.3249999863328,"outcome":1,"trial":79,"correct":0,"trial_type":"three-arm-trial","trial_index":86,"time_elapsed":742319,"internal_node_id":"0.0-85.0-0.0","task_version":"screening-prolific","missing":false,"accuracy":1},{"contexts":["blue","red","green"],"outcomes":[0,1,0],"key":39,"choice":2,"rt":437.0400000043446,"outcome":0,"trial":80,"correct":0,"trial_type":"three-arm-trial","trial_index":87,"time_elapsed":744014,"internal_node_id":"0.0-86.0-0.0","task_version":"screening-prolific","missing":false,"accuracy":0},{"contexts":["blue","red","green"],"outcomes":[0,0,0],"key":37,"choice":0,"rt":501.69499999901745,"outcome":0,"trial":81,"correct":0,"trial_type":"three-arm-trial","trial_index":88,"time_elapsed":745760,"internal_node_id":"0.0-87.0-0.0","task_version":"screening-prolific","missing":false,"accuracy":1},{"contexts":["blue","red","green"],"outcomes":[1,1,0],"key":38,"choice":1,"rt":575.8499999938067,"outcome":1,"trial":82,"correct":0,"trial_type":"three-arm-trial","trial_index":89,"time_elapsed":747584,"internal_node_id":"0.0-88.0-0.0","task_version":"screening-prolific","missing":false,"accuracy":0},{"contexts":["blue","red","green"],"outcomes":[1,0,0],"key":39,"choice":2,"rt":716.02000000712,"outcome":0,"trial":83,"correct":0,"trial_type":"three-arm-trial","trial_index":90,"time_elapsed":749538,"internal_node_id":"0.0-89.0-0.0","task_version":"screening-prolific","missing":false,"accuracy":0},{"contexts":["blue","red","green"],"outcomes":[1,0,0],"key":37,"choice":0,"rt":394.45000000705477,"outcome":1,"trial":84,"correct":0,"trial_type":"three-arm-trial","trial_index":91,"time_elapsed":751194,"internal_node_id":"0.0-90.0-0.0","task_version":"screening-prolific","missing":false,"accuracy":1},{"contexts":["blue","red","green"],"outcomes":[1,1,0],"key":38,"choice":1,"rt":394.00499999464955,"outcome":1,"trial":85,"correct":0,"trial_type":"three-arm-trial","trial_index":92,"time_elapsed":752833,"internal_node_id":"0.0-91.0-0.0","task_version":"screening-prolific","missing":false,"accuracy":0},{"contexts":["blue","red","green"],"outcomes":[0,0,0],"key":37,"choice":0,"rt":773.1800000037765,"outcome":0,"trial":86,"correct":0,"trial_type":"three-arm-trial","trial_index":93,"time_elapsed":754860,"internal_node_id":"0.0-92.0-0.0","task_version":"screening-prolific","missing":false,"accuracy":1},{"contexts":["blue","red","green"],"outcomes":[1,0,0],"key":39,"choice":2,"rt":162.6200000027893,"outcome":0,"trial":87,"correct":0,"trial_type":"three-arm-trial","trial_index":94,"time_elapsed":756343,"internal_node_id":"0.0-93.0-0.0","task_version":"screening-prolific","missing":false,"accuracy":0},{"contexts":["blue","red","green"],"outcomes":[1,0,0],"key":37,"choice":0,"rt":733.6649999924703,"outcome":1,"trial":88,"correct":0,"trial_type":"three-arm-trial","trial_index":95,"time_elapsed":758344,"internal_node_id":"0.0-94.0-0.0","task_version":"screening-prolific","missing":false,"accuracy":1},{"contexts":["blue","red","green"],"outcomes":[1,0,0],"key":38,"choice":1,"rt":153.18999999726657,"outcome":0,"trial":89,"correct":0,"trial_type":"three-arm-trial","trial_index":96,"time_elapsed":759790,"internal_node_id":"0.0-95.0-0.0","task_version":"screening-prolific","missing":false,"accuracy":0},{"contexts":["blue","red","green"],"outcomes":[1,0,0],"key":37,"choice":0,"rt":404.3000000092434,"outcome":1,"trial":90,"correct":0,"trial_type":"three-arm-trial","trial_index":97,"time_elapsed":761444,"internal_node_id":"0.0-96.0-0.0","task_version":"screening-prolific","missing":false,"accuracy":1},{"rt":41289.0550000011,"responses":{"age":"28","gender-categorical":"Female","gender-free-response":"","ethnicity":"Not Hispanic or Latino","race":["Asian"],"language":"No","fluency":"Well","mturk":"No","mturk-this-study":"No"},"survey":"demographics","trial_type":"survey-demo","trial_index":98,"time_elapsed":802901,"internal_node_id":"0.0-97.0","task_version":"screening-prolific","interactions":"[{\"event\":\"blur\",\"trial\":0,\"time\":5310},{\"event\":\"focus\",\"trial\":0,\"time\":8241},{\"event\":\"blur\",\"trial\":0,\"time\":39996},{\"event\":\"focus\",\"trial\":0,\"time\":46342},{\"event\":\"blur\",\"trial\":0,\"time\":70101},{\"event\":\"focus\",\"trial\":0,\"time\":75129},{\"event\":\"blur\",\"trial\":0,\"time\":75219},{\"event\":\"focus\",\"trial\":0,\"time\":75715},{\"event\":\"blur\",\"trial\":0,\"time\":81248},{\"event\":\"focus\",\"trial\":0,\"time\":102892},{\"event\":\"blur\",\"trial\":2,\"time\":157365},{\"event\":\"focus\",\"trial\":2,\"time\":160543},{\"event\":\"blur\",\"trial\":3,\"time\":342559},{\"event\":\"focus\",\"trial\":3,\"time\":342987}]"}]