[{"responses":{"Q01":"1","Q03":"1","Q02":"2"},"rt":11410.400000000664,"survey":"pswq","trial_type":"survey-template","trial_index":0,"time_elapsed":11422,"internal_node_id":"0.0-0.0","task_version":"screening-prolific"},{"responses":{"Q05":"2","Q09":"2","Q13":"3","Q10":"3","Q07":"3","Q08":"3","Q04":"3","Q11":"2","Q06":"2","Q15":"3","Q12":"2","Q02":"3","Q01":"2","Q03":"3","Q14":"3"},"rt":57346.89999999682,"survey":"shaps","trial_type":"survey-template","trial_index":1,"time_elapsed":68775,"internal_node_id":"0.0-1.0","task_version":"screening-prolific"},{"responses":{"Q10":"3","Q08":"3","Q13":"3","Q01":"3","Q04":"3","Q09":"3","Q07":"3","Q11":"3","Q05":"3","Q03":"3","Q06":"3","Q02":"3","Q12":"3"},"rt":45393.300000003364,"survey":"bisbas","trial_type":"survey-template","trial_index":2,"time_elapsed":114175,"internal_node_id":"0.0-2.0","task_version":"screening-prolific"},{"responses":{"Q03":"2","Q06":"2","Q05":"2","Q01":"2","Q08":"0","Q07":"2","Q02":"2","Q04":"1"},"rt":28918.20000000007,"survey":"gad7","trial_type":"survey-template","trial_index":3,"time_elapsed":143096,"internal_node_id":"0.0-3.0","task_version":"screening-prolific"},{"responses":{"Q04":"0","Q15":"3","Q03":"2","Q11":"1","Q09":"0","Q05":"0","Q10":"1","Q13":"1","Q14":"0","Q12":"1","Q08":"1","Q01":"1","Q02":"1","Q06":"1","Q07":"2"},"rt":153994.70000000292,"survey":"7up7down","trial_type":"survey-template","trial_index":4,"time_elapsed":297101,"internal_node_id":"0.0-4.0","task_version":"screening-prolific"},{"view_history":"[{\"page_index\":0,\"viewing_time\":4952.100000002247},{\"page_index\":1,\"viewing_time\":4417.200000003504},{\"page_index\":2,\"viewing_time\":6525.299999993877},{\"page_index\":3,\"viewing_time\":4435.800000006566},{\"page_index\":4,\"viewing_time\":2989.9999999979627},{\"page_index\":5,\"viewing_time\":1773.9000000001397},{\"page_index\":6,\"viewing_time\":5984.299999996438},{\"page_index\":7,\"viewing_time\":2120.0000000026193}]","rt":33199.10000000527,"trial_type":"instructions","trial_index":5,"time_elapsed":330303,"internal_node_id":"0.0-5.0-0.0","task_version":"screening-prolific"},{"responses":["True","True","False","False","True"],"num_errors":0,"rt":21818.899999998393,"trial_type":"three-arm-comprehension","trial_index":6,"time_elapsed":352127,"internal_node_id":"0.0-5.0-1.0","task_version":"screening-prolific"},{"view_history":"[{\"page_index\":0,\"viewing_time\":1917.699999998149}]","rt":1917.9999999978463,"trial_type":"instructions","trial_index":7,"time_elapsed":354048,"internal_node_id":"0.0-6.0","task_version":"screening-prolific"},{"contexts":["red","blue","green"],"outcomes":[0,1,0],"key":38,"choice":1,"rt":4182.39999999787,"outcome":1,"trial":1,"correct":1,"trial_type":"three-arm-trial","trial_index":8,"time_elapsed":359434,"internal_node_id":"0.0-7.0-0.0","task_version":"screening-prolific","missing":false,"accuracy":1},{"contexts":["red","blue","green"],"outcomes":[0,1,0],"key":38,"choice":1,"rt":947.2999999998137,"outcome":1,"trial":2,"correct":1,"trial_type":"three-arm-trial","trial_index":9,"time_elapsed":361585,"internal_node_id":"0.0-8.0-0.0","task_version":"screening-prolific","missing":false,"accuracy":1},{"contexts":["red","blue","green"],"outcomes":[0,1,1],"key":38,"choice":1,"rt":2429.49999999837,"outcome":1,"trial":3,"correct":1,"trial_type":"three-arm-trial","trial_index":10,"time_elapsed":365218,"internal_node_id":"0.0-9.0-0.0","task_version":"screening-prolific","missing":false,"accuracy":1},{"contexts":["red","blue","green"],"outcomes":[1,1,1],"key":39,"choice":2,"rt":2381.9000000003143,"outcome":1,"trial":4,"correct":1,"trial_type":"three-arm-trial","trial_index":11,"time_elapsed":368803,"internal_node_id":"0.0-10.0-0.0","task_version":"screening-prolific","missing":false,"accuracy":0},{"contexts":["red","blue","green"],"outcomes":[0,1,0],"key":38,"choice":1,"rt":940.8999999941443,"outcome":1,"trial":5,"correct":1,"trial_type":"three-arm-trial","trial_index":12,"time_elapsed":370948,"internal_node_id":"0.0-11.0-0.0","task_version":"screening-prolific","missing":false,"accuracy":1},{"contexts":["red","blue","green"],"outcomes":[0,1,0],"key":38,"choice":1,"rt":3224.6000000013737,"outcome":1,"trial":6,"correct":1,"trial_type":"three-arm-trial","trial_index":13,"time_elapsed":375376,"internal_node_id":"0.0-12.0-0.0","task_version":"screening-prolific","missing":false,"accuracy":1},{"contexts":["red","blue","green"],"outcomes":[1,1,0],"key":37,"choice":0,"rt":980.4000000003725,"outcome":1,"trial":7,"correct":1,"trial_type":"three-arm-trial","trial_index":14,"time_elapsed":377560,"internal_node_id":"0.0-13.0-0.0","task_version":"screening-prolific","missing":false,"accuracy":0},{"contexts":["red","blue","green"],"outcomes":[0,0,0],"key":38,"choice":1,"rt":3693.5000000012224,"outcome":0,"trial":8,"correct":1,"trial_type":"three-arm-trial","trial_index":15,"time_elapsed":382457,"internal_node_id":"0.0-14.0-0.0","task_version":"screening-prolific","missing":false,"accuracy":1},{"contexts":["red","blue","green"],"outcomes":[0,1,1],"key":39,"choice":2,"rt":1716.5999999997439,"outcome":1,"trial":9,"correct":1,"trial_type":"three-arm-trial","trial_index":16,"time_elapsed":385377,"internal_node_id":"0.0-15.0-0.0","task_version":"screening-prolific","missing":false,"accuracy":0},{"contexts":["red","blue","green"],"outcomes":[0,1,0],"key":38,"choice":1,"rt":989.1999999963446,"outcome":1,"trial":10,"correct":1,"trial_type":"three-arm-trial","trial_index":17,"time_elapsed":387568,"internal_node_id":"0.0-16.0-0.0","task_version":"screening-prolific","missing":false,"accuracy":1},{"contexts":["red","blue","green"],"outcomes":[1,1,0],"key":37,"choice":0,"rt":1004.400000005262,"outcome":1,"trial":11,"correct":1,"trial_type":"three-arm-trial","trial_index":18,"time_elapsed":389778,"internal_node_id":"0.0-17.0-0.0","task_version":"screening-prolific","missing":false,"accuracy":0},{"contexts":["red","blue","green"],"outcomes":[1,1,0],"key":37,"choice":0,"rt":1403.600000005099,"outcome":1,"trial":12,"correct":1,"trial_type":"three-arm-trial","trial_index":19,"time_elapsed":392385,"internal_node_id":"0.0-18.0-0.0","task_version":"screening-prolific","missing":false,"accuracy":0},{"contexts":["red","blue","green"],"outcomes":[0,1,0],"key":38,"choice":1,"rt":884.7999999998137,"outcome":1,"trial":13,"correct":1,"trial_type":"three-arm-trial","trial_index":20,"time_elapsed":394473,"internal_node_id":"0.0-19.0-0.0","task_version":"screening-prolific","missing":false,"accuracy":1},{"contexts":["red","blue","green"],"outcomes":[0,1,0],"key":38,"choice":1,"rt":3086.9999999995343,"outcome":1,"trial":14,"correct":1,"trial_type":"three-arm-trial","trial_index":21,"time_elapsed":398765,"internal_node_id":"0.0-20.0-0.0","task_version":"screening-prolific","missing":false,"accuracy":1},{"contexts":["red","blue","green"],"outcomes":[0,0,0],"key":39,"choice":2,"rt":3699.9999999970896,"outcome":0,"trial":15,"correct":1,"trial_type":"three-arm-trial","trial_index":22,"time_elapsed":403670,"internal_node_id":"0.0-21.0-0.0","task_version":"screening-prolific","missing":false,"accuracy":0},{"contexts":["red","blue","green"],"outcomes":[0,1,1],"key":39,"choice":2,"rt":883.6999999984982,"outcome":1,"trial":16,"correct":2,"trial_type":"three-arm-trial","trial_index":23,"time_elapsed":405757,"internal_node_id":"0.0-22.0-0.0","task_version":"screening-prolific","missing":false,"accuracy":1},{"contexts":["red","blue","green"],"outcomes":[0,0,1],"key":39,"choice":2,"rt":700.7999999987078,"outcome":1,"trial":17,"correct":2,"trial_type":"three-arm-trial","trial_index":24,"time_elapsed":407661,"internal_node_id":"0.0-23.0-0.0","task_version":"screening-prolific","missing":false,"accuracy":1},{"contexts":["red","blue","green"],"outcomes":[0,0,1],"key":39,"choice":2,"rt":822.199999995064,"outcome":1,"trial":18,"correct":2,"trial_type":"three-arm-trial","trial_index":25,"time_elapsed":409688,"internal_node_id":"0.0-24.0-0.0","task_version":"screening-prolific","missing":false,"accuracy":1},{"contexts":["red","blue","green"],"outcomes":[0,0,0],"key":37,"choice":0,"rt":1921.4999999967404,"outcome":0,"trial":19,"correct":2,"trial_type":"three-arm-trial","trial_index":26,"time_elapsed":412813,"internal_node_id":"0.0-25.0-0.0","task_version":"screening-prolific","missing":false,"accuracy":0},{"contexts":["red","blue","green"],"outcomes":[0,1,1],"key":38,"choice":1,"rt":807.3000000003958,"outcome":1,"trial":20,"correct":2,"trial_type":"three-arm-trial","trial_index":27,"time_elapsed":414824,"internal_node_id":"0.0-26.0-0.0","task_version":"screening-prolific","missing":false,"accuracy":0},{"contexts":["red","blue","green"],"outcomes":[0,0,1],"key":39,"choice":2,"rt":699.0000000005239,"outcome":1,"trial":21,"correct":2,"trial_type":"three-arm-trial","trial_index":28,"time_elapsed":416726,"internal_node_id":"0.0-27.0-0.0","task_version":"screening-prolific","missing":false,"accuracy":1},{"contexts":["red","blue","green"],"outcomes":[1,0,1],"key":37,"choice":0,"rt":820.4999999943539,"outcome":1,"trial":22,"correct":2,"trial_type":"three-arm-trial","trial_index":29,"time_elapsed":418750,"internal_node_id":"0.0-28.0-0.0","task_version":"screening-prolific","missing":false,"accuracy":0},{"contexts":["red","blue","green"],"outcomes":[0,0,1],"key":39,"choice":2,"rt":677.1999999982654,"outcome":1,"trial":23,"correct":2,"trial_type":"three-arm-trial","trial_index":30,"time_elapsed":420630,"internal_node_id":"0.0-29.0-0.0","task_version":"screening-prolific","missing":false,"accuracy":1},{"contexts":["red","blue","green"],"outcomes":[0,0,1],"key":39,"choice":2,"rt":2773.700000005192,"outcome":1,"trial":24,"correct":2,"trial_type":"three-arm-trial","trial_index":31,"time_elapsed":424611,"internal_node_id":"0.0-30.0-0.0","task_version":"screening-prolific","missing":false,"accuracy":1},{"contexts":["red","blue","green"],"outcomes":[0,0,0],"key":38,"choice":1,"rt":999.100000000908,"outcome":0,"trial":25,"correct":2,"trial_type":"three-arm-trial","trial_index":32,"time_elapsed":426815,"internal_node_id":"0.0-31.0-0.0","task_version":"screening-prolific","missing":false,"accuracy":0},{"contexts":["red","blue","green"],"outcomes":[0,0,1],"key":39,"choice":2,"rt":836.4000000001397,"outcome":1,"trial":26,"correct":2,"trial_type":"three-arm-trial","trial_index":33,"time_elapsed":428854,"internal_node_id":"0.0-32.0-0.0","task_version":"screening-prolific","missing":false,"accuracy":1},{"contexts":["red","blue","green"],"outcomes":[0,0,1],"key":39,"choice":2,"rt":1212.5000000014552,"outcome":1,"trial":27,"correct":2,"trial_type":"three-arm-trial","trial_index":34,"time_elapsed":431271,"internal_node_id":"0.0-33.0-0.0","task_version":"screening-prolific","missing":false,"accuracy":1},{"contexts":["red","blue","green"],"outcomes":[0,0,1],"key":39,"choice":2,"rt":596.4999999996508,"outcome":1,"trial":28,"correct":2,"trial_type":"three-arm-trial","trial_index":35,"time_elapsed":433071,"internal_node_id":"0.0-34.0-0.0","task_version":"screening-prolific","missing":false,"accuracy":1},{"contexts":["red","blue","green"],"outcomes":[0,0,1],"key":39,"choice":2,"rt":669.6000000010827,"outcome":1,"trial":29,"correct":2,"trial_type":"three-arm-trial","trial_index":36,"time_elapsed":434943,"internal_node_id":"0.0-35.0-0.0","task_version":"screening-prolific","missing":false,"accuracy":1},{"contexts":["red","blue","green"],"outcomes":[0,1,1],"key":38,"choice":1,"rt":810.8999999967637,"outcome":1,"trial":30,"correct":2,"trial_type":"three-arm-trial","trial_index":37,"time_elapsed":436959,"internal_node_id":"0.0-36.0-0.0","task_version":"screening-prolific","missing":false,"accuracy":0},{"contexts":["red","blue","green"],"outcomes":[1,0,0],"key":37,"choice":0,"rt":948.5999999960768,"outcome":1,"trial":31,"correct":0,"trial_type":"three-arm-trial","trial_index":38,"time_elapsed":439111,"internal_node_id":"0.0-37.0-0.0","task_version":"screening-prolific","missing":false,"accuracy":1},{"contexts":["red","blue","green"],"outcomes":[0,0,0],"key":38,"choice":1,"rt":2364.499999996042,"outcome":0,"trial":32,"correct":0,"trial_type":"three-arm-trial","trial_index":39,"time_elapsed":442680,"internal_node_id":"0.0-38.0-0.0","task_version":"screening-prolific","missing":false,"accuracy":0},{"contexts":["red","blue","green"],"outcomes":[0,0,0],"key":39,"choice":2,"rt":9122.899999994843,"outcome":0,"trial":33,"correct":0,"trial_type":"three-arm-trial","trial_index":40,"time_elapsed":453006,"internal_node_id":"0.0-39.0-0.0","task_version":"screening-prolific","missing":false,"accuracy":0},{"contexts":["red","blue","green"],"outcomes":[1,0,0],"key":37,"choice":0,"rt":755.9000000037486,"outcome":1,"trial":34,"correct":0,"trial_type":"three-arm-trial","trial_index":41,"time_elapsed":454965,"internal_node_id":"0.0-40.0-0.0","task_version":"screening-prolific","missing":false,"accuracy":1},{"contexts":["red","blue","green"],"outcomes":[1,0,0],"key":37,"choice":0,"rt":6628.499999998894,"outcome":1,"trial":35,"correct":0,"trial_type":"three-arm-trial","trial_index":42,"time_elapsed":462798,"internal_node_id":"0.0-41.0-0.0","task_version":"screening-prolific","missing":false,"accuracy":1},{"contexts":["red","blue","green"],"outcomes":[1,0,0],"key":37,"choice":0,"rt":643.8000000052853,"outcome":1,"trial":36,"correct":0,"trial_type":"three-arm-trial","trial_index":43,"time_elapsed":464645,"internal_node_id":"0.0-42.0-0.0","task_version":"screening-prolific","missing":false,"accuracy":1},{"contexts":["red","blue","green"],"outcomes":[1,1,1],"key":38,"choice":1,"rt":947.0999999975902,"outcome":1,"trial":37,"correct":0,"trial_type":"three-arm-trial","trial_index":44,"time_elapsed":466798,"internal_node_id":"0.0-43.0-0.0","task_version":"screening-prolific","missing":false,"accuracy":0},{"contexts":["red","blue","green"],"outcomes":[1,0,0],"key":37,"choice":0,"rt":241.9000000008964,"outcome":1,"trial":38,"correct":0,"trial_type":"three-arm-trial","trial_index":45,"time_elapsed":468243,"internal_node_id":"0.0-44.0-0.0","task_version":"screening-prolific","missing":false,"accuracy":1},{"contexts":["red","blue","green"],"outcomes":[0,1,0],"key":38,"choice":1,"rt":703.800000002957,"outcome":1,"trial":39,"correct":0,"trial_type":"three-arm-trial","trial_index":46,"time_elapsed":470156,"internal_node_id":"0.0-45.0-0.0","task_version":"screening-prolific","missing":false,"accuracy":0},{"contexts":["red","blue","green"],"outcomes":[1,0,0],"key":37,"choice":0,"rt":604.8000000009779,"outcome":1,"trial":40,"correct":0,"trial_type":"three-arm-trial","trial_index":47,"time_elapsed":471963,"internal_node_id":"0.0-46.0-0.0","task_version":"screening-prolific","missing":false,"accuracy":1},{"contexts":["red","blue","green"],"outcomes":[0,0,0],"key":38,"choice":1,"rt":1102.5000000008731,"outcome":0,"trial":41,"correct":0,"trial_type":"three-arm-trial","trial_index":48,"time_elapsed":474272,"internal_node_id":"0.0-47.0-0.0","task_version":"screening-prolific","missing":false,"accuracy":0},{"contexts":["red","blue","green"],"outcomes":[1,0,0],"key":37,"choice":0,"rt":497.8999999948428,"outcome":1,"trial":42,"correct":0,"trial_type":"three-arm-trial","trial_index":49,"time_elapsed":475973,"internal_node_id":"0.0-48.0-0.0","task_version":"screening-prolific","missing":false,"accuracy":1},{"contexts":["red","blue","green"],"outcomes":[0,0,0],"key":39,"choice":2,"rt":3197.999999996682,"outcome":0,"trial":43,"correct":0,"trial_type":"three-arm-trial","trial_index":50,"time_elapsed":480374,"internal_node_id":"0.0-49.0-0.0","task_version":"screening-prolific","missing":false,"accuracy":0},{"contexts":["red","blue","green"],"outcomes":[0,1,0],"key":38,"choice":1,"rt":500,"outcome":1,"trial":44,"correct":0,"trial_type":"three-arm-trial","trial_index":51,"time_elapsed":482077,"internal_node_id":"0.0-50.0-0.0","task_version":"screening-prolific","missing":false,"accuracy":0},{"contexts":["red","blue","green"],"outcomes":[1,0,0],"key":37,"choice":0,"rt":565.2999999947497,"outcome":1,"trial":45,"correct":0,"trial_type":"three-arm-trial","trial_index":52,"time_elapsed":483847,"internal_node_id":"0.0-51.0-0.0","task_version":"screening-prolific","missing":false,"accuracy":1},{"contexts":["red","blue","green"],"outcomes":[1,1,0],"key":38,"choice":1,"rt":627.9999999969732,"outcome":1,"trial":46,"correct":1,"trial_type":"three-arm-trial","trial_index":53,"time_elapsed":485678,"internal_node_id":"0.0-52.0-0.0","task_version":"screening-prolific","missing":false,"accuracy":1},{"contexts":["red","blue","green"],"outcomes":[0,1,0],"key":38,"choice":1,"rt":589.0999999974156,"outcome":1,"trial":47,"correct":1,"trial_type":"three-arm-trial","trial_index":54,"time_elapsed":487470,"internal_node_id":"0.0-53.0-0.0","task_version":"screening-prolific","missing":false,"accuracy":1},{"contexts":["red","blue","green"],"outcomes":[0,1,0],"key":38,"choice":1,"rt":470.1999999961117,"outcome":1,"trial":48,"correct":1,"trial_type":"three-arm-trial","trial_index":55,"time_elapsed":489145,"internal_node_id":"0.0-54.0-0.0","task_version":"screening-prolific","missing":false,"accuracy":1},{"contexts":["red","blue","green"],"outcomes":[0,1,1],"key":39,"choice":2,"rt":706.2000000005355,"outcome":1,"trial":49,"correct":1,"trial_type":"three-arm-trial","trial_index":56,"time_elapsed":491054,"internal_node_id":"0.0-55.0-0.0","task_version":"screening-prolific","missing":false,"accuracy":0},{"contexts":["red","blue","green"],"outcomes":[0,0,0],"key":39,"choice":2,"rt":1484.2999999964377,"outcome":0,"trial":50,"correct":1,"trial_type":"three-arm-trial","trial_index":57,"time_elapsed":493743,"internal_node_id":"0.0-56.0-0.0","task_version":"screening-prolific","missing":false,"accuracy":0},{"contexts":["red","blue","green"],"outcomes":[0,0,0],"key":38,"choice":1,"rt":4884.600000004866,"outcome":0,"trial":51,"correct":1,"trial_type":"three-arm-trial","trial_index":58,"time_elapsed":499832,"internal_node_id":"0.0-57.0-0.0","task_version":"screening-prolific","missing":false,"accuracy":1},{"contexts":["red","blue","green"],"outcomes":[0,1,0],"key":38,"choice":1,"rt":643.1000000011409,"outcome":1,"trial":52,"correct":1,"trial_type":"three-arm-trial","trial_index":59,"time_elapsed":501679,"internal_node_id":"0.0-58.0-0.0","task_version":"screening-prolific","missing":false,"accuracy":1},{"contexts":["red","blue","green"],"outcomes":[0,1,1],"key":39,"choice":2,"rt":1285.1000000009662,"outcome":1,"trial":53,"correct":1,"trial_type":"three-arm-trial","trial_index":60,"time_elapsed":504171,"internal_node_id":"0.0-59.0-0.0","task_version":"screening-prolific","missing":false,"accuracy":0},{"contexts":["red","blue","green"],"outcomes":[1,1,0],"key":38,"choice":1,"rt":536.8000000016764,"outcome":1,"trial":54,"correct":1,"trial_type":"three-arm-trial","trial_index":61,"time_elapsed":505912,"internal_node_id":"0.0-60.0-0.0","task_version":"screening-prolific","missing":false,"accuracy":1},{"contexts":["red","blue","green"],"outcomes":[0,0,0],"key":38,"choice":1,"rt":7078.499999995984,"outcome":0,"trial":55,"correct":1,"trial_type":"three-arm-trial","trial_index":62,"time_elapsed":514193,"internal_node_id":"0.0-61.0-0.0","task_version":"screening-prolific","missing":false,"accuracy":1},{"contexts":["red","blue","green"],"outcomes":[0,1,0],"key":38,"choice":1,"rt":557.5000000026193,"outcome":1,"trial":56,"correct":1,"trial_type":"three-arm-trial","trial_index":63,"time_elapsed":515956,"internal_node_id":"0.0-62.0-0.0","task_version":"screening-prolific","missing":false,"accuracy":1},{"contexts":["red","blue","green"],"outcomes":[0,0,0],"key":38,"choice":1,"rt":5237.999999997555,"outcome":0,"trial":57,"correct":1,"trial_type":"three-arm-trial","trial_index":64,"time_elapsed":522398,"internal_node_id":"0.0-63.0-0.0","task_version":"screening-prolific","missing":false,"accuracy":1},{"contexts":["red","blue","green"],"outcomes":[0,1,1],"key":38,"choice":1,"rt":663.8000000020838,"outcome":1,"trial":58,"correct":1,"trial_type":"three-arm-trial","trial_index":65,"time_elapsed":524265,"internal_node_id":"0.0-64.0-0.0","task_version":"screening-prolific","missing":false,"accuracy":1},{"contexts":["red","blue","green"],"outcomes":[0,1,0],"key":38,"choice":1,"rt":680.5999999997439,"outcome":1,"trial":59,"correct":1,"trial_type":"three-arm-trial","trial_index":66,"time_elapsed":526149,"internal_node_id":"0.0-65.0-0.0","task_version":"screening-prolific","missing":false,"accuracy":1},{"contexts":["red","blue","green"],"outcomes":[0,0,0],"key":null,"rt":null,"trial":60,"correct":1,"trial_type":"three-arm-trial","trial_index":67,"time_elapsed":541155,"internal_node_id":"0.0-66.0-0.0","task_version":"screening-prolific","missing":true},{"contexts":["red","blue","green"],"outcomes":[0,0,0],"key":38,"choice":1,"rt":1966.9999999969732,"outcome":0,"trial":60,"correct":1,"trial_type":"three-arm-trial","trial_index":68,"time_elapsed":544325,"internal_node_id":"0.0-66.1-0.1","task_version":"screening-prolific","missing":false,"accuracy":1},{"contexts":["red","blue","green"],"outcomes":[0,1,1],"key":38,"choice":1,"rt":633.8000000031898,"outcome":1,"trial":61,"correct":2,"trial_type":"three-arm-trial","trial_index":69,"time_elapsed":546164,"internal_node_id":"0.0-67.0-0.0","task_version":"screening-prolific","missing":false,"accuracy":0},{"contexts":["red","blue","green"],"outcomes":[0,0,1],"key":39,"choice":2,"rt":1468.6999999976251,"outcome":1,"trial":62,"correct":2,"trial_type":"three-arm-trial","trial_index":70,"time_elapsed":548835,"internal_node_id":"0.0-68.0-0.0","task_version":"screening-prolific","missing":false,"accuracy":1},{"contexts":["red","blue","green"],"outcomes":[0,1,0],"key":38,"choice":1,"rt":508.99999999825377,"outcome":1,"trial":63,"correct":2,"trial_type":"three-arm-trial","trial_index":71,"time_elapsed":550548,"internal_node_id":"0.0-69.0-0.0","task_version":"screening-prolific","missing":false,"accuracy":0},{"contexts":["red","blue","green"],"outcomes":[0,0,1],"key":38,"choice":1,"rt":53.800000001559965,"outcome":0,"trial":64,"correct":2,"trial_type":"three-arm-trial","trial_index":72,"time_elapsed":551805,"internal_node_id":"0.0-70.0-0.0","task_version":"screening-prolific","missing":false,"accuracy":0},{"contexts":["red","blue","green"],"outcomes":[0,0,0],"key":38,"choice":1,"rt":993.2000000043772,"outcome":0,"trial":65,"correct":2,"trial_type":"three-arm-trial","trial_index":73,"time_elapsed":554004,"internal_node_id":"0.0-71.0-0.0","task_version":"screening-prolific","missing":false,"accuracy":0},{"contexts":["red","blue","green"],"outcomes":[0,1,1],"key":38,"choice":1,"rt":684.9000000002561,"outcome":1,"trial":66,"correct":2,"trial_type":"three-arm-trial","trial_index":74,"time_elapsed":555894,"internal_node_id":"0.0-72.0-0.0","task_version":"screening-prolific","missing":false,"accuracy":0},{"contexts":["red","blue","green"],"outcomes":[0,0,1],"key":39,"choice":2,"rt":1826.099999998347,"outcome":1,"trial":67,"correct":2,"trial_type":"three-arm-trial","trial_index":75,"time_elapsed":558924,"internal_node_id":"0.0-73.0-0.0","task_version":"screening-prolific","missing":false,"accuracy":1},{"contexts":["red","blue","green"],"outcomes":[0,0,1],"key":39,"choice":2,"rt":380.7999999988824,"outcome":1,"trial":68,"correct":2,"trial_type":"three-arm-trial","trial_index":76,"time_elapsed":560509,"internal_node_id":"0.0-74.0-0.0","task_version":"screening-prolific","missing":false,"accuracy":1},{"contexts":["red","blue","green"],"outcomes":[0,0,1],"key":39,"choice":2,"rt":1074.9999999969732,"outcome":1,"trial":69,"correct":2,"trial_type":"three-arm-trial","trial_index":77,"time_elapsed":562789,"internal_node_id":"0.0-75.0-0.0","task_version":"screening-prolific","missing":false,"accuracy":1},{"contexts":["red","blue","green"],"outcomes":[0,0,1],"key":39,"choice":2,"rt":468.89999999990687,"outcome":1,"trial":70,"correct":2,"trial_type":"three-arm-trial","trial_index":78,"time_elapsed":564461,"internal_node_id":"0.0-76.0-0.0","task_version":"screening-prolific","missing":false,"accuracy":1},{"contexts":["red","blue","green"],"outcomes":[0,0,1],"key":39,"choice":2,"rt":500.89999999909196,"outcome":1,"trial":71,"correct":2,"trial_type":"three-arm-trial","trial_index":79,"time_elapsed":566166,"internal_node_id":"0.0-77.0-0.0","task_version":"screening-prolific","missing":false,"accuracy":1},{"contexts":["red","blue","green"],"outcomes":[1,0,1],"key":37,"choice":0,"rt":610.5999999998603,"outcome":1,"trial":72,"correct":2,"trial_type":"three-arm-trial","trial_index":80,"time_elapsed":567982,"internal_node_id":"0.0-78.0-0.0","task_version":"screening-prolific","missing":false,"accuracy":0},{"contexts":["red","blue","green"],"outcomes":[1,0,1],"key":37,"choice":0,"rt":902.4999999965075,"outcome":1,"trial":73,"correct":2,"trial_type":"three-arm-trial","trial_index":81,"time_elapsed":570089,"internal_node_id":"0.0-79.0-0.0","task_version":"screening-prolific","missing":false,"accuracy":0},{"contexts":["red","blue","green"],"outcomes":[0,0,1],"key":39,"choice":2,"rt":713.000000003376,"outcome":1,"trial":74,"correct":2,"trial_type":"three-arm-trial","trial_index":82,"time_elapsed":572006,"internal_node_id":"0.0-80.0-0.0","task_version":"screening-prolific","missing":false,"accuracy":1},{"contexts":["red","blue","green"],"outcomes":[0,0,1],"key":39,"choice":2,"rt":395.70000000088476,"outcome":1,"trial":75,"correct":2,"trial_type":"three-arm-trial","trial_index":83,"time_elapsed":573606,"internal_node_id":"0.0-81.0-0.0","task_version":"screening-prolific","missing":false,"accuracy":1},{"contexts":["red","blue","green"],"outcomes":[1,0,0],"key":39,"choice":2,"rt":131.79999999562278,"outcome":0,"trial":76,"correct":0,"trial_type":"three-arm-trial","trial_index":84,"time_elapsed":574944,"internal_node_id":"0.0-82.0-0.0","task_version":"screening-prolific","missing":false,"accuracy":0},{"contexts":["red","blue","green"],"outcomes":[1,1,0],"key":37,"choice":0,"rt":170.40000000270084,"outcome":1,"trial":77,"correct":0,"trial_type":"three-arm-trial","trial_index":85,"time_elapsed":576317,"internal_node_id":"0.0-83.0-0.0","task_version":"screening-prolific","missing":false,"accuracy":1},{"contexts":["red","blue","green"],"outcomes":[1,0,0],"key":37,"choice":0,"rt":31.999999999301508,"outcome":1,"trial":78,"correct":0,"trial_type":"three-arm-trial","trial_index":86,"time_elapsed":577557,"internal_node_id":"0.0-84.0-0.0","task_version":"screening-prolific","missing":false,"accuracy":1},{"contexts":["red","blue","green"],"outcomes":[0,0,0],"key":37,"choice":0,"rt":93.39999999792781,"outcome":0,"trial":79,"correct":0,"trial_type":"three-arm-trial","trial_index":87,"time_elapsed":578853,"internal_node_id":"0.0-85.0-0.0","task_version":"screening-prolific","missing":false,"accuracy":1},{"contexts":["red","blue","green"],"outcomes":[0,0,0],"key":38,"choice":1,"rt":1170.0999999957858,"outcome":0,"trial":80,"correct":0,"trial_type":"three-arm-trial","trial_index":88,"time_elapsed":581228,"internal_node_id":"0.0-86.0-0.0","task_version":"screening-prolific","missing":false,"accuracy":0},{"contexts":["red","blue","green"],"outcomes":[1,0,0],"key":37,"choice":0,"rt":957.2999999944586,"outcome":1,"trial":81,"correct":0,"trial_type":"three-arm-trial","trial_index":89,"time_elapsed":583390,"internal_node_id":"0.0-87.0-0.0","task_version":"screening-prolific","missing":false,"accuracy":1},{"contexts":["red","blue","green"],"outcomes":[1,1,0],"key":38,"choice":1,"rt":748.599999998929,"outcome":1,"trial":82,"correct":0,"trial_type":"three-arm-trial","trial_index":90,"time_elapsed":585343,"internal_node_id":"0.0-88.0-0.0","task_version":"screening-prolific","missing":false,"accuracy":0},{"contexts":["red","blue","green"],"outcomes":[1,1,1],"key":39,"choice":2,"rt":626.300000003539,"outcome":1,"trial":83,"correct":0,"trial_type":"three-arm-trial","trial_index":91,"time_elapsed":587174,"internal_node_id":"0.0-89.0-0.0","task_version":"screening-prolific","missing":false,"accuracy":0},{"contexts":["red","blue","green"],"outcomes":[1,0,0],"key":38,"choice":1,"rt":147.19999999937136,"outcome":0,"trial":84,"correct":0,"trial_type":"three-arm-trial","trial_index":92,"time_elapsed":588527,"internal_node_id":"0.0-90.0-0.0","task_version":"screening-prolific","missing":false,"accuracy":0},{"contexts":["red","blue","green"],"outcomes":[1,0,0],"key":37,"choice":0,"rt":1570.5999999990454,"outcome":1,"trial":85,"correct":0,"trial_type":"three-arm-trial","trial_index":93,"time_elapsed":591301,"internal_node_id":"0.0-91.0-0.0","task_version":"screening-prolific","missing":false,"accuracy":1},{"contexts":["red","blue","green"],"outcomes":[1,1,0],"key":38,"choice":1,"rt":484.599999996135,"outcome":1,"trial":86,"correct":0,"trial_type":"three-arm-trial","trial_index":94,"time_elapsed":592990,"internal_node_id":"0.0-92.0-0.0","task_version":"screening-prolific","missing":false,"accuracy":0},{"contexts":["red","blue","green"],"outcomes":[1,0,0],"key":37,"choice":0,"rt":742.2000000006519,"outcome":1,"trial":87,"correct":0,"trial_type":"three-arm-trial","trial_index":95,"time_elapsed":594936,"internal_node_id":"0.0-93.0-0.0","task_version":"screening-prolific","missing":false,"accuracy":1},{"contexts":["red","blue","green"],"outcomes":[1,1,1],"key":37,"choice":0,"rt":114.90000000048894,"outcome":1,"trial":88,"correct":0,"trial_type":"three-arm-trial","trial_index":96,"time_elapsed":596254,"internal_node_id":"0.0-94.0-0.0","task_version":"screening-prolific","missing":false,"accuracy":1},{"contexts":["red","blue","green"],"outcomes":[1,0,1],"key":38,"choice":1,"rt":79.3000000048196,"outcome":0,"trial":89,"correct":0,"trial_type":"three-arm-trial","trial_index":97,"time_elapsed":597537,"internal_node_id":"0.0-95.0-0.0","task_version":"screening-prolific","missing":false,"accuracy":0},{"contexts":["red","blue","green"],"outcomes":[1,0,0],"key":37,"choice":0,"rt":473.8999999971129,"outcome":1,"trial":90,"correct":0,"trial_type":"three-arm-trial","trial_index":98,"time_elapsed":599214,"internal_node_id":"0.0-96.0-0.0","task_version":"screening-prolific","missing":false,"accuracy":1},{"rt":28658.10000000056,"responses":{"age":"19","gender-categorical":"Male","gender-free-response":"","ethnicity":"Not Hispanic or Latino","race":["White"],"language":"Yes","fluency":"Very well","mturk":"No","mturk-this-study":"No"},"survey":"demographics","trial_type":"survey-demo","trial_index":99,"time_elapsed":627880,"internal_node_id":"0.0-97.0","task_version":"screening-prolific","interactions":"[]"}]