[{"responses":{"Q04":"2","Q01":"3","Q06":"2","Q08":"2","Q03":"2","Q02":"3","Q05":"1","Q07":"2"},"rt":25981.85499990359,"survey":"gad7","trial_type":"survey-template","trial_index":0,"time_elapsed":25996,"internal_node_id":"0.0-0.0","task_version":"screening-mturk"},{"responses":{"Q06":"2","Q03":"3","Q07":"2","Q11":"2","Q04":"2","Q15":"3","Q05":"2","Q08":"2","Q13":"2","Q14":"3","Q12":"2","Q01":"2","Q02":"3","Q10":"2","Q09":"1"},"rt":69167.78000001796,"survey":"7up7down","trial_type":"survey-template","trial_index":1,"time_elapsed":95167,"internal_node_id":"0.0-1.0","task_version":"screening-mturk"},{"responses":{"Q10":"2","Q11":"1","Q05":"2","Q13":"2","Q12":"3","Q03":"2","Q07":"2","Q02":"2","Q09":"3","Q06":"2","Q04":"2","Q01":"2","Q08":"3"},"rt":109636.17500010878,"survey":"bisbas","trial_type":"survey-template","trial_index":2,"time_elapsed":204806,"internal_node_id":"0.0-2.0","task_version":"screening-mturk"},{"responses":{"Q07":"2","Q01":"3","Q13":"2","Q08":"2","Q05":"2","Q09":"3","Q12":"2","Q06":"2","Q03":"2","Q04":"3","Q15":"2","Q14":"2","Q02":"3","Q11":"2","Q10":"2"},"rt":23528.165000025183,"survey":"shaps","trial_type":"survey-template","trial_index":3,"time_elapsed":228338,"internal_node_id":"0.0-3.0","task_version":"screening-mturk"},{"responses":{"Q02":"3","Q01":"2","Q03":"3"},"rt":5000.775000080466,"survey":"pswq","trial_type":"survey-template","trial_index":4,"time_elapsed":233342,"internal_node_id":"0.0-4.0","task_version":"screening-mturk"},{"view_history":"[{\"page_index\":0,\"viewing_time\":14350.899999961257},{\"page_index\":1,\"viewing_time\":44.495000038295984},{\"page_index\":2,\"viewing_time\":2525.5150001030415},{\"page_index\":3,\"viewing_time\":1889.8050000425428},{\"page_index\":4,\"viewing_time\":1200.0049999915063},{\"page_index\":5,\"viewing_time\":29.839999973773956},{\"page_index\":6,\"viewing_time\":910.0299999117851},{\"page_index\":7,\"viewing_time\":919.8650000616908}]","rt":21871.470000129193,"trial_type":"instructions","trial_index":5,"time_elapsed":255215,"internal_node_id":"0.0-5.0-0.0","task_version":"screening-mturk"},{"responses":["True","False","True","True","False"],"num_errors":4,"rt":6577.835000120103,"trial_type":"three-arm-comprehension","trial_index":6,"time_elapsed":261796,"internal_node_id":"0.0-5.0-1.0","task_version":"screening-mturk"},{"view_history":"[{\"page_index\":0,\"viewing_time\":1983.2200000528246},{\"page_index\":1,\"viewing_time\":1050.034999847412},{\"page_index\":2,\"viewing_time\":1140.3149999678135},{\"page_index\":3,\"viewing_time\":819.5299999788404},{\"page_index\":4,\"viewing_time\":913.0050002131611},{\"page_index\":5,\"viewing_time\":877.4599998723716},{\"page_index\":6,\"viewing_time\":744.6399999316782},{\"page_index\":7,\"viewing_time\":850.2900002058595}]","rt":8378.904999932274,"trial_type":"instructions","trial_index":7,"time_elapsed":270179,"internal_node_id":"0.0-5.1-0.1","task_version":"screening-mturk"},{"responses":["True","True","False","False","True"],"num_errors":0,"rt":15602.249999996275,"trial_type":"three-arm-comprehension","trial_index":8,"time_elapsed":285785,"internal_node_id":"0.0-5.1-1.1","task_version":"screening-mturk"},{"view_history":"[{\"page_index\":0,\"viewing_time\":4395.955000072718}]","rt":4396.435000002384,"trial_type":"instructions","trial_index":9,"time_elapsed":290184,"internal_node_id":"0.0-6.0","task_version":"screening-mturk"},{"contexts":["red","blue","green"],"outcomes":[0,0,1],"key":38,"choice":1,"rt":5027.62999990955,"outcome":0,"trial":1,"correct":2,"trial_type":"three-arm-trial","trial_index":10,"time_elapsed":296417,"internal_node_id":"0.0-7.0-0.0","task_version":"screening-mturk","missing":false,"accuracy":0},{"contexts":["red","blue","green"],"outcomes":[0,0,0],"key":39,"choice":2,"rt":135.19499986432493,"outcome":0,"trial":2,"correct":2,"trial_type":"three-arm-trial","trial_index":11,"time_elapsed":297760,"internal_node_id":"0.0-8.0-0.0","task_version":"screening-mturk","missing":false,"accuracy":1},{"contexts":["red","blue","green"],"outcomes":[1,0,1],"key":39,"choice":2,"rt":1538.8799998909235,"outcome":1,"trial":3,"correct":2,"trial_type":"three-arm-trial","trial_index":12,"time_elapsed":300505,"internal_node_id":"0.0-9.0-0.0","task_version":"screening-mturk","missing":false,"accuracy":1},{"contexts":["red","blue","green"],"outcomes":[1,0,0],"key":37,"choice":0,"rt":80.11000021360815,"outcome":1,"trial":4,"correct":2,"trial_type":"three-arm-trial","trial_index":13,"time_elapsed":301790,"internal_node_id":"0.0-10.0-0.0","task_version":"screening-mturk","missing":false,"accuracy":0},{"contexts":["red","blue","green"],"outcomes":[0,0,1],"key":37,"choice":0,"rt":28.71500002220273,"outcome":0,"trial":5,"correct":2,"trial_type":"three-arm-trial","trial_index":14,"time_elapsed":303023,"internal_node_id":"0.0-11.0-0.0","task_version":"screening-mturk","missing":false,"accuracy":0},{"contexts":["red","blue","green"],"outcomes":[0,0,1],"key":38,"choice":1,"rt":179.5200000051409,"outcome":0,"trial":6,"correct":2,"trial_type":"three-arm-trial","trial_index":15,"time_elapsed":304405,"internal_node_id":"0.0-12.0-0.0","task_version":"screening-mturk","missing":false,"accuracy":0},{"contexts":["red","blue","green"],"outcomes":[0,0,1],"key":37,"choice":0,"rt":326.27999992109835,"outcome":0,"trial":7,"correct":2,"trial_type":"three-arm-trial","trial_index":16,"time_elapsed":305936,"internal_node_id":"0.0-13.0-0.0","task_version":"screening-mturk","missing":false,"accuracy":0},{"contexts":["red","blue","green"],"outcomes":[0,0,0],"key":37,"choice":0,"rt":422.8350000921637,"outcome":0,"trial":8,"correct":2,"trial_type":"three-arm-trial","trial_index":17,"time_elapsed":307561,"internal_node_id":"0.0-14.0-0.0","task_version":"screening-mturk","missing":false,"accuracy":0},{"contexts":["red","blue","green"],"outcomes":[0,0,1],"key":38,"choice":1,"rt":346.1200001183897,"outcome":0,"trial":9,"correct":2,"trial_type":"three-arm-trial","trial_index":18,"time_elapsed":309110,"internal_node_id":"0.0-15.0-0.0","task_version":"screening-mturk","missing":false,"accuracy":0},{"contexts":["red","blue","green"],"outcomes":[0,0,1],"key":39,"choice":2,"rt":804.8549999948591,"outcome":1,"trial":10,"correct":2,"trial_type":"three-arm-trial","trial_index":19,"time_elapsed":311119,"internal_node_id":"0.0-16.0-0.0","task_version":"screening-mturk","missing":false,"accuracy":1},{"contexts":["red","blue","green"],"outcomes":[0,1,1],"key":37,"choice":0,"rt":2443.38500010781,"outcome":0,"trial":11,"correct":2,"trial_type":"three-arm-trial","trial_index":20,"time_elapsed":314765,"internal_node_id":"0.0-17.0-0.0","task_version":"screening-mturk","missing":false,"accuracy":0},{"contexts":["red","blue","green"],"outcomes":[0,1,1],"key":38,"choice":1,"rt":273.4449999406934,"outcome":1,"trial":12,"correct":2,"trial_type":"three-arm-trial","trial_index":21,"time_elapsed":316242,"internal_node_id":"0.0-18.0-0.0","task_version":"screening-mturk","missing":false,"accuracy":0},{"contexts":["red","blue","green"],"outcomes":[1,0,1],"key":37,"choice":0,"rt":51.389999920502305,"outcome":1,"trial":13,"correct":2,"trial_type":"three-arm-trial","trial_index":22,"time_elapsed":317497,"internal_node_id":"0.0-19.0-0.0","task_version":"screening-mturk","missing":false,"accuracy":0},{"contexts":["red","blue","green"],"outcomes":[1,0,0],"key":39,"choice":2,"rt":20.915000000968575,"outcome":0,"trial":14,"correct":2,"trial_type":"three-arm-trial","trial_index":23,"time_elapsed":318722,"internal_node_id":"0.0-20.0-0.0","task_version":"screening-mturk","missing":false,"accuracy":1},{"contexts":["red","blue","green"],"outcomes":[0,0,1],"key":38,"choice":1,"rt":17.70500000566244,"outcome":0,"trial":15,"correct":2,"trial_type":"three-arm-trial","trial_index":24,"time_elapsed":319946,"internal_node_id":"0.0-21.0-0.0","task_version":"screening-mturk","missing":false,"accuracy":0},{"contexts":["red","blue","green"],"outcomes":[0,1,0],"key":38,"choice":1,"rt":6.234999978914857,"outcome":1,"trial":16,"correct":1,"trial_type":"three-arm-trial","trial_index":25,"time_elapsed":321156,"internal_node_id":"0.0-22.0-0.0","task_version":"screening-mturk","missing":false,"accuracy":1},{"contexts":["red","blue","green"],"outcomes":[1,1,1],"key":38,"choice":1,"rt":8567.400000058115,"outcome":1,"trial":17,"correct":1,"trial_type":"three-arm-trial","trial_index":26,"time_elapsed":330928,"internal_node_id":"0.0-23.0-0.0","task_version":"screening-mturk","missing":false,"accuracy":1},{"contexts":["red","blue","green"],"outcomes":[0,1,0],"key":38,"choice":1,"rt":34.17999995872378,"outcome":1,"trial":18,"correct":1,"trial_type":"three-arm-trial","trial_index":27,"time_elapsed":332166,"internal_node_id":"0.0-24.0-0.0","task_version":"screening-mturk","missing":false,"accuracy":1},{"contexts":["red","blue","green"],"outcomes":[0,0,0],"key":38,"choice":1,"rt":36.29499999806285,"outcome":0,"trial":19,"correct":1,"trial_type":"three-arm-trial","trial_index":28,"time_elapsed":333406,"internal_node_id":"0.0-25.0-0.0","task_version":"screening-mturk","missing":false,"accuracy":1},{"contexts":["red","blue","green"],"outcomes":[0,1,0],"key":37,"choice":0,"rt":371.16000009700656,"outcome":0,"trial":20,"correct":1,"trial_type":"three-arm-trial","trial_index":29,"time_elapsed":334980,"internal_node_id":"0.0-26.0-0.0","task_version":"screening-mturk","missing":false,"accuracy":0},{"contexts":["red","blue","green"],"outcomes":[0,1,0],"key":37,"choice":0,"rt":594.1650001332164,"outcome":0,"trial":21,"correct":1,"trial_type":"three-arm-trial","trial_index":30,"time_elapsed":336778,"internal_node_id":"0.0-27.0-0.0","task_version":"screening-mturk","missing":false,"accuracy":0},{"contexts":["red","blue","green"],"outcomes":[0,1,0],"key":39,"choice":2,"rt":135.9699999447912,"outcome":0,"trial":22,"correct":1,"trial_type":"three-arm-trial","trial_index":31,"time_elapsed":338118,"internal_node_id":"0.0-28.0-0.0","task_version":"screening-mturk","missing":false,"accuracy":0},{"contexts":["red","blue","green"],"outcomes":[1,1,0],"key":38,"choice":1,"rt":134.444999974221,"outcome":1,"trial":23,"correct":1,"trial_type":"three-arm-trial","trial_index":32,"time_elapsed":339457,"internal_node_id":"0.0-29.0-0.0","task_version":"screening-mturk","missing":false,"accuracy":1},{"contexts":["red","blue","green"],"outcomes":[0,1,0],"key":37,"choice":0,"rt":275.205000070855,"outcome":0,"trial":24,"correct":1,"trial_type":"three-arm-trial","trial_index":33,"time_elapsed":340936,"internal_node_id":"0.0-30.0-0.0","task_version":"screening-mturk","missing":false,"accuracy":0},{"contexts":["red","blue","green"],"outcomes":[0,1,0],"key":39,"choice":2,"rt":11.599999852478504,"outcome":0,"trial":25,"correct":1,"trial_type":"three-arm-trial","trial_index":34,"time_elapsed":342150,"internal_node_id":"0.0-31.0-0.0","task_version":"screening-mturk","missing":false,"accuracy":0},{"contexts":["red","blue","green"],"outcomes":[0,1,1],"key":37,"choice":0,"rt":81.5650001168251,"outcome":0,"trial":26,"correct":1,"trial_type":"three-arm-trial","trial_index":35,"time_elapsed":343440,"internal_node_id":"0.0-32.0-0.0","task_version":"screening-mturk","missing":false,"accuracy":0},{"contexts":["red","blue","green"],"outcomes":[0,1,0],"key":37,"choice":0,"rt":896.1999998427927,"outcome":0,"trial":27,"correct":1,"trial_type":"three-arm-trial","trial_index":36,"time_elapsed":345541,"internal_node_id":"0.0-33.0-0.0","task_version":"screening-mturk","missing":false,"accuracy":0},{"contexts":["red","blue","green"],"outcomes":[1,1,0],"key":37,"choice":0,"rt":1241.2450001575053,"outcome":1,"trial":28,"correct":1,"trial_type":"three-arm-trial","trial_index":37,"time_elapsed":347985,"internal_node_id":"0.0-34.0-0.0","task_version":"screening-mturk","missing":false,"accuracy":0},{"contexts":["red","blue","green"],"outcomes":[0,1,1],"key":39,"choice":2,"rt":547.1049998886883,"outcome":1,"trial":29,"correct":1,"trial_type":"three-arm-trial","trial_index":38,"time_elapsed":349735,"internal_node_id":"0.0-35.0-0.0","task_version":"screening-mturk","missing":false,"accuracy":0},{"contexts":["red","blue","green"],"outcomes":[0,1,1],"key":37,"choice":0,"rt":97.13500016368926,"outcome":0,"trial":30,"correct":1,"trial_type":"three-arm-trial","trial_index":39,"time_elapsed":351035,"internal_node_id":"0.0-36.0-0.0","task_version":"screening-mturk","missing":false,"accuracy":0},{"contexts":["red","blue","green"],"outcomes":[0,0,0],"key":37,"choice":0,"rt":460.09499998763204,"outcome":0,"trial":31,"correct":0,"trial_type":"three-arm-trial","trial_index":40,"time_elapsed":352700,"internal_node_id":"0.0-37.0-0.0","task_version":"screening-mturk","missing":false,"accuracy":1},{"contexts":["red","blue","green"],"outcomes":[0,0,0],"key":39,"choice":2,"rt":31.734999967738986,"outcome":0,"trial":32,"correct":0,"trial_type":"three-arm-trial","trial_index":41,"time_elapsed":353936,"internal_node_id":"0.0-38.0-0.0","task_version":"screening-mturk","missing":false,"accuracy":0},{"contexts":["red","blue","green"],"outcomes":[1,1,0],"key":37,"choice":0,"rt":79.52000014483929,"outcome":1,"trial":33,"correct":0,"trial_type":"three-arm-trial","trial_index":42,"time_elapsed":355218,"internal_node_id":"0.0-39.0-0.0","task_version":"screening-mturk","missing":false,"accuracy":1},{"contexts":["red","blue","green"],"outcomes":[1,0,0],"key":38,"choice":1,"rt":9154.09000008367,"outcome":0,"trial":34,"correct":0,"trial_type":"three-arm-trial","trial_index":43,"time_elapsed":365577,"internal_node_id":"0.0-40.0-0.0","task_version":"screening-mturk","missing":false,"accuracy":0},{"contexts":["red","blue","green"],"outcomes":[1,0,0],"key":37,"choice":0,"rt":66.58500013872981,"outcome":1,"trial":35,"correct":0,"trial_type":"three-arm-trial","trial_index":44,"time_elapsed":366848,"internal_node_id":"0.0-41.0-0.0","task_version":"screening-mturk","missing":false,"accuracy":1},{"contexts":["red","blue","green"],"outcomes":[1,0,0],"key":39,"choice":2,"rt":154.25999998115003,"outcome":0,"trial":36,"correct":0,"trial_type":"three-arm-trial","trial_index":45,"time_elapsed":368206,"internal_node_id":"0.0-42.0-0.0","task_version":"screening-mturk","missing":false,"accuracy":0},{"contexts":["red","blue","green"],"outcomes":[1,0,0],"key":37,"choice":0,"rt":396.5649998281151,"outcome":1,"trial":37,"correct":0,"trial_type":"three-arm-trial","trial_index":46,"time_elapsed":369805,"internal_node_id":"0.0-43.0-0.0","task_version":"screening-mturk","missing":false,"accuracy":1},{"contexts":["red","blue","green"],"outcomes":[1,1,0],"key":37,"choice":0,"rt":2908.124999841675,"outcome":1,"trial":38,"correct":0,"trial_type":"three-arm-trial","trial_index":47,"time_elapsed":373917,"internal_node_id":"0.0-44.0-0.0","task_version":"screening-mturk","missing":false,"accuracy":1},{"contexts":["red","blue","green"],"outcomes":[1,0,1],"key":39,"choice":2,"rt":900.0950001645833,"outcome":1,"trial":39,"correct":0,"trial_type":"three-arm-trial","trial_index":48,"time_elapsed":376022,"internal_node_id":"0.0-45.0-0.0","task_version":"screening-mturk","missing":false,"accuracy":0},{"contexts":["red","blue","green"],"outcomes":[1,0,0],"key":38,"choice":1,"rt":1851.3249999377877,"outcome":0,"trial":40,"correct":0,"trial_type":"three-arm-trial","trial_index":49,"time_elapsed":379077,"internal_node_id":"0.0-46.0-0.0","task_version":"screening-mturk","missing":false,"accuracy":0},{"contexts":["red","blue","green"],"outcomes":[1,0,0],"key":37,"choice":0,"rt":25.630000047385693,"outcome":1,"trial":41,"correct":0,"trial_type":"three-arm-trial","trial_index":50,"time_elapsed":380310,"internal_node_id":"0.0-47.0-0.0","task_version":"screening-mturk","missing":false,"accuracy":1},{"contexts":["red","blue","green"],"outcomes":[1,0,0],"key":37,"choice":0,"rt":1961.25499997288,"outcome":1,"trial":42,"correct":0,"trial_type":"three-arm-trial","trial_index":51,"time_elapsed":383476,"internal_node_id":"0.0-48.0-0.0","task_version":"screening-mturk","missing":false,"accuracy":1},{"contexts":["red","blue","green"],"outcomes":[1,0,0],"key":37,"choice":0,"rt":8402.170000132173,"outcome":1,"trial":43,"correct":0,"trial_type":"three-arm-trial","trial_index":52,"time_elapsed":393081,"internal_node_id":"0.0-49.0-0.0","task_version":"screening-mturk","missing":false,"accuracy":1},{"contexts":["red","blue","green"],"outcomes":[0,0,0],"key":38,"choice":1,"rt":181.79000006057322,"outcome":0,"trial":44,"correct":0,"trial_type":"three-arm-trial","trial_index":53,"time_elapsed":394466,"internal_node_id":"0.0-50.0-0.0","task_version":"screening-mturk","missing":false,"accuracy":0},{"contexts":["red","blue","green"],"outcomes":[1,0,1],"key":37,"choice":0,"rt":45.64999998547137,"outcome":1,"trial":45,"correct":0,"trial_type":"three-arm-trial","trial_index":54,"time_elapsed":395715,"internal_node_id":"0.0-51.0-0.0","task_version":"screening-mturk","missing":false,"accuracy":1},{"contexts":["red","blue","green"],"outcomes":[1,1,1],"key":39,"choice":2,"rt":83.26500002294779,"outcome":1,"trial":46,"correct":2,"trial_type":"three-arm-trial","trial_index":55,"time_elapsed":397004,"internal_node_id":"0.0-52.0-0.0","task_version":"screening-mturk","missing":false,"accuracy":1},{"contexts":["red","blue","green"],"outcomes":[0,1,1],"key":37,"choice":0,"rt":198.21000006049871,"outcome":0,"trial":47,"correct":2,"trial_type":"three-arm-trial","trial_index":56,"time_elapsed":398408,"internal_node_id":"0.0-53.0-0.0","task_version":"screening-mturk","missing":false,"accuracy":0},{"contexts":["red","blue","green"],"outcomes":[0,0,1],"key":37,"choice":0,"rt":3204.6250000130385,"outcome":0,"trial":48,"correct":2,"trial_type":"three-arm-trial","trial_index":57,"time_elapsed":402817,"internal_node_id":"0.0-54.0-0.0","task_version":"screening-mturk","missing":false,"accuracy":0},{"contexts":["red","blue","green"],"outcomes":[0,0,1],"key":37,"choice":0,"rt":0.1050001010298729,"outcome":0,"trial":49,"correct":2,"trial_type":"three-arm-trial","trial_index":58,"time_elapsed":404022,"internal_node_id":"0.0-55.0-0.0","task_version":"screening-mturk","missing":false,"accuracy":0},{"contexts":["red","blue","green"],"outcomes":[1,0,0],"key":38,"choice":1,"rt":355.51999998278916,"outcome":0,"trial":50,"correct":2,"trial_type":"three-arm-trial","trial_index":59,"time_elapsed":405582,"internal_node_id":"0.0-56.0-0.0","task_version":"screening-mturk","missing":false,"accuracy":0},{"contexts":["red","blue","green"],"outcomes":[0,0,1],"key":37,"choice":0,"rt":1719.6499998681247,"outcome":0,"trial":51,"correct":2,"trial_type":"three-arm-trial","trial_index":60,"time_elapsed":408505,"internal_node_id":"0.0-57.0-0.0","task_version":"screening-mturk","missing":false,"accuracy":0},{"contexts":["red","blue","green"],"outcomes":[0,0,1],"key":38,"choice":1,"rt":421.05000000447035,"outcome":0,"trial":52,"correct":2,"trial_type":"three-arm-trial","trial_index":61,"time_elapsed":410130,"internal_node_id":"0.0-58.0-0.0","task_version":"screening-mturk","missing":false,"accuracy":0},{"contexts":["red","blue","green"],"outcomes":[0,0,1],"key":37,"choice":0,"rt":272.3050001077354,"outcome":0,"trial":53,"correct":2,"trial_type":"three-arm-trial","trial_index":62,"time_elapsed":411605,"internal_node_id":"0.0-59.0-0.0","task_version":"screening-mturk","missing":false,"accuracy":0},{"contexts":["red","blue","green"],"outcomes":[1,0,0],"key":39,"choice":2,"rt":587.4650001060218,"outcome":0,"trial":54,"correct":2,"trial_type":"three-arm-trial","trial_index":63,"time_elapsed":413396,"internal_node_id":"0.0-60.0-0.0","task_version":"screening-mturk","missing":false,"accuracy":1},{"contexts":["red","blue","green"],"outcomes":[1,0,1],"key":37,"choice":0,"rt":74.31000005453825,"outcome":1,"trial":55,"correct":2,"trial_type":"three-arm-trial","trial_index":64,"time_elapsed":414675,"internal_node_id":"0.0-61.0-0.0","task_version":"screening-mturk","missing":false,"accuracy":0},{"contexts":["red","blue","green"],"outcomes":[1,0,0],"key":38,"choice":1,"rt":5346.429999917746,"outcome":0,"trial":56,"correct":2,"trial_type":"three-arm-trial","trial_index":65,"time_elapsed":421225,"internal_node_id":"0.0-62.0-0.0","task_version":"screening-mturk","missing":false,"accuracy":0},{"contexts":["red","blue","green"],"outcomes":[1,0,0],"key":38,"choice":1,"rt":1047.5500000175089,"outcome":0,"trial":57,"correct":2,"trial_type":"three-arm-trial","trial_index":66,"time_elapsed":423480,"internal_node_id":"0.0-63.0-0.0","task_version":"screening-mturk","missing":false,"accuracy":0},{"contexts":["red","blue","green"],"outcomes":[1,0,1],"key":38,"choice":1,"rt":82.73999998345971,"outcome":0,"trial":58,"correct":2,"trial_type":"three-arm-trial","trial_index":67,"time_elapsed":424766,"internal_node_id":"0.0-64.0-0.0","task_version":"screening-mturk","missing":false,"accuracy":0},{"contexts":["red","blue","green"],"outcomes":[0,0,0],"key":39,"choice":2,"rt":171.424999833107,"outcome":0,"trial":59,"correct":2,"trial_type":"three-arm-trial","trial_index":68,"time_elapsed":426142,"internal_node_id":"0.0-65.0-0.0","task_version":"screening-mturk","missing":false,"accuracy":1},{"contexts":["red","blue","green"],"outcomes":[1,0,1],"key":37,"choice":0,"rt":183.58499999158084,"outcome":1,"trial":60,"correct":2,"trial_type":"three-arm-trial","trial_index":69,"time_elapsed":427534,"internal_node_id":"0.0-66.0-0.0","task_version":"screening-mturk","missing":false,"accuracy":0},{"contexts":["red","blue","green"],"outcomes":[1,0,0],"key":37,"choice":0,"rt":552.4949999526143,"outcome":1,"trial":61,"correct":0,"trial_type":"three-arm-trial","trial_index":70,"time_elapsed":429290,"internal_node_id":"0.0-67.0-0.0","task_version":"screening-mturk","missing":false,"accuracy":1},{"contexts":["red","blue","green"],"outcomes":[1,0,0],"key":39,"choice":2,"rt":107.32499998994172,"outcome":0,"trial":62,"correct":0,"trial_type":"three-arm-trial","trial_index":71,"time_elapsed":430601,"internal_node_id":"0.0-68.0-0.0","task_version":"screening-mturk","missing":false,"accuracy":0},{"contexts":["red","blue","green"],"outcomes":[1,0,0],"key":37,"choice":0,"rt":181.5450000576675,"outcome":1,"trial":63,"correct":0,"trial_type":"three-arm-trial","trial_index":72,"time_elapsed":431986,"internal_node_id":"0.0-69.0-0.0","task_version":"screening-mturk","missing":false,"accuracy":1},{"contexts":["red","blue","green"],"outcomes":[1,1,0],"key":37,"choice":0,"rt":590.000000083819,"outcome":1,"trial":64,"correct":0,"trial_type":"three-arm-trial","trial_index":73,"time_elapsed":433781,"internal_node_id":"0.0-70.0-0.0","task_version":"screening-mturk","missing":false,"accuracy":1},{"contexts":["red","blue","green"],"outcomes":[0,0,1],"key":37,"choice":0,"rt":171.4800000190735,"outcome":0,"trial":65,"correct":0,"trial_type":"three-arm-trial","trial_index":74,"time_elapsed":435156,"internal_node_id":"0.0-71.0-0.0","task_version":"screening-mturk","missing":false,"accuracy":1},{"contexts":["red","blue","green"],"outcomes":[1,0,0],"key":38,"choice":1,"rt":186.5199999883771,"outcome":0,"trial":66,"correct":0,"trial_type":"three-arm-trial","trial_index":75,"time_elapsed":436546,"internal_node_id":"0.0-72.0-0.0","task_version":"screening-mturk","missing":false,"accuracy":0},{"contexts":["red","blue","green"],"outcomes":[1,0,0],"key":37,"choice":0,"rt":76.76000008359551,"outcome":1,"trial":67,"correct":0,"trial_type":"three-arm-trial","trial_index":76,"time_elapsed":437825,"internal_node_id":"0.0-73.0-0.0","task_version":"screening-mturk","missing":false,"accuracy":1},{"contexts":["red","blue","green"],"outcomes":[1,1,0],"key":39,"choice":2,"rt":352.6900000870228,"outcome":0,"trial":68,"correct":0,"trial_type":"three-arm-trial","trial_index":77,"time_elapsed":439381,"internal_node_id":"0.0-74.0-0.0","task_version":"screening-mturk","missing":false,"accuracy":0},{"contexts":["red","blue","green"],"outcomes":[0,0,0],"key":37,"choice":0,"rt":36.46999993361533,"outcome":0,"trial":69,"correct":0,"trial_type":"three-arm-trial","trial_index":78,"time_elapsed":440623,"internal_node_id":"0.0-75.0-0.0","task_version":"screening-mturk","missing":false,"accuracy":1},{"contexts":["red","blue","green"],"outcomes":[1,0,0],"key":38,"choice":1,"rt":550.0000000465661,"outcome":0,"trial":70,"correct":0,"trial_type":"three-arm-trial","trial_index":79,"time_elapsed":442376,"internal_node_id":"0.0-76.0-0.0","task_version":"screening-mturk","missing":false,"accuracy":0},{"contexts":["red","blue","green"],"outcomes":[1,0,0],"key":39,"choice":2,"rt":735.9249999281019,"outcome":0,"trial":71,"correct":0,"trial_type":"three-arm-trial","trial_index":80,"time_elapsed":444315,"internal_node_id":"0.0-77.0-0.0","task_version":"screening-mturk","missing":false,"accuracy":0},{"contexts":["red","blue","green"],"outcomes":[1,0,1],"key":38,"choice":1,"rt":232.06000006757677,"outcome":0,"trial":72,"correct":0,"trial_type":"three-arm-trial","trial_index":81,"time_elapsed":445751,"internal_node_id":"0.0-78.0-0.0","task_version":"screening-mturk","missing":false,"accuracy":0},{"contexts":["red","blue","green"],"outcomes":[1,0,1],"key":37,"choice":0,"rt":131.7900000140071,"outcome":1,"trial":73,"correct":0,"trial_type":"three-arm-trial","trial_index":82,"time_elapsed":447085,"internal_node_id":"0.0-79.0-0.0","task_version":"screening-mturk","missing":false,"accuracy":1},{"contexts":["red","blue","green"],"outcomes":[1,0,0],"key":39,"choice":2,"rt":1821.3250001426786,"outcome":0,"trial":74,"correct":0,"trial_type":"three-arm-trial","trial_index":83,"time_elapsed":450112,"internal_node_id":"0.0-80.0-0.0","task_version":"screening-mturk","missing":false,"accuracy":0},{"contexts":["red","blue","green"],"outcomes":[0,0,0],"key":37,"choice":0,"rt":200.74500003829598,"outcome":0,"trial":75,"correct":0,"trial_type":"three-arm-trial","trial_index":84,"time_elapsed":451515,"internal_node_id":"0.0-81.0-0.0","task_version":"screening-mturk","missing":false,"accuracy":1},{"contexts":["red","blue","green"],"outcomes":[0,1,0],"key":38,"choice":1,"rt":57.0349998306483,"outcome":1,"trial":76,"correct":1,"trial_type":"three-arm-trial","trial_index":85,"time_elapsed":452776,"internal_node_id":"0.0-82.0-0.0","task_version":"screening-mturk","missing":false,"accuracy":1},{"contexts":["red","blue","green"],"outcomes":[0,0,0],"key":39,"choice":2,"rt":1186.8300000205636,"outcome":0,"trial":77,"correct":1,"trial_type":"three-arm-trial","trial_index":86,"time_elapsed":455166,"internal_node_id":"0.0-83.0-0.0","task_version":"screening-mturk","missing":false,"accuracy":0},{"contexts":["red","blue","green"],"outcomes":[0,1,1],"key":37,"choice":0,"rt":3110.524999909103,"outcome":0,"trial":78,"correct":1,"trial_type":"three-arm-trial","trial_index":87,"time_elapsed":459479,"internal_node_id":"0.0-84.0-0.0","task_version":"screening-mturk","missing":false,"accuracy":0},{"contexts":["red","blue","green"],"outcomes":[1,0,0],"key":37,"choice":0,"rt":5.7200000155717134,"outcome":1,"trial":79,"correct":1,"trial_type":"three-arm-trial","trial_index":88,"time_elapsed":460688,"internal_node_id":"0.0-85.0-0.0","task_version":"screening-mturk","missing":false,"accuracy":0},{"contexts":["red","blue","green"],"outcomes":[0,1,0],"key":38,"choice":1,"rt":34.315000055357814,"outcome":1,"trial":80,"correct":1,"trial_type":"three-arm-trial","trial_index":89,"time_elapsed":461926,"internal_node_id":"0.0-86.0-0.0","task_version":"screening-mturk","missing":false,"accuracy":1},{"contexts":["red","blue","green"],"outcomes":[1,0,0],"key":38,"choice":1,"rt":132.2500000242144,"outcome":0,"trial":81,"correct":1,"trial_type":"three-arm-trial","trial_index":90,"time_elapsed":463262,"internal_node_id":"0.0-87.0-0.0","task_version":"screening-mturk","missing":false,"accuracy":1},{"contexts":["red","blue","green"],"outcomes":[0,1,0],"key":37,"choice":0,"rt":101.82500001974404,"outcome":0,"trial":82,"correct":1,"trial_type":"three-arm-trial","trial_index":91,"time_elapsed":464567,"internal_node_id":"0.0-88.0-0.0","task_version":"screening-mturk","missing":false,"accuracy":0},{"contexts":["red","blue","green"],"outcomes":[0,1,0],"key":39,"choice":2,"rt":4665.329999988899,"outcome":0,"trial":83,"correct":1,"trial_type":"three-arm-trial","trial_index":92,"time_elapsed":470436,"internal_node_id":"0.0-89.0-0.0","task_version":"screening-mturk","missing":false,"accuracy":0},{"contexts":["red","blue","green"],"outcomes":[0,1,0],"key":38,"choice":1,"rt":497.5050000939518,"outcome":1,"trial":84,"correct":1,"trial_type":"three-arm-trial","trial_index":93,"time_elapsed":472136,"internal_node_id":"0.0-90.0-0.0","task_version":"screening-mturk","missing":false,"accuracy":1},{"contexts":["red","blue","green"],"outcomes":[0,1,0],"key":37,"choice":0,"rt":162.05500019714236,"outcome":0,"trial":85,"correct":1,"trial_type":"three-arm-trial","trial_index":94,"time_elapsed":473501,"internal_node_id":"0.0-91.0-0.0","task_version":"screening-mturk","missing":false,"accuracy":0},{"contexts":["red","blue","green"],"outcomes":[0,1,0],"key":39,"choice":2,"rt":17.159999813884497,"outcome":0,"trial":86,"correct":1,"trial_type":"three-arm-trial","trial_index":95,"time_elapsed":474721,"internal_node_id":"0.0-92.0-0.0","task_version":"screening-mturk","missing":false,"accuracy":0},{"contexts":["red","blue","green"],"outcomes":[0,1,1],"key":38,"choice":1,"rt":2572.1299999859184,"outcome":1,"trial":87,"correct":1,"trial_type":"three-arm-trial","trial_index":96,"time_elapsed":478496,"internal_node_id":"0.0-93.0-0.0","task_version":"screening-mturk","missing":false,"accuracy":1},{"contexts":["red","blue","green"],"outcomes":[0,1,0],"key":37,"choice":0,"rt":3925.7449998985976,"outcome":0,"trial":88,"correct":1,"trial_type":"three-arm-trial","trial_index":97,"time_elapsed":483626,"internal_node_id":"0.0-94.0-0.0","task_version":"screening-mturk","missing":false,"accuracy":0},{"contexts":["red","blue","green"],"outcomes":[1,1,0],"key":37,"choice":0,"rt":1206.4099998679012,"outcome":1,"trial":89,"correct":1,"trial_type":"three-arm-trial","trial_index":98,"time_elapsed":486042,"internal_node_id":"0.0-95.0-0.0","task_version":"screening-mturk","missing":false,"accuracy":0},{"contexts":["red","blue","green"],"outcomes":[0,0,1],"key":38,"choice":1,"rt":9.469999931752682,"outcome":0,"trial":90,"correct":1,"trial_type":"three-arm-trial","trial_index":99,"time_elapsed":487255,"internal_node_id":"0.0-96.0-0.0","task_version":"screening-mturk","missing":false,"accuracy":1},{"rt":26843.164999969304,"responses":{"age":"39","gender-categorical":"Male","gender-free-response":"","ethnicity":"Not Hispanic or Latino","race":["White"],"language":"Yes","fluency":"Very well","prolific":"Yes","prolific-this-study":"Yes"},"survey":"demographics","trial_type":"survey-demo","trial_index":100,"time_elapsed":514103,"internal_node_id":"0.0-97.0","task_version":"screening-mturk","interactions":"[]"}]