[{"responses":{"Q06":"2","Q05":"3","Q03":"2","Q01":"3","Q02":"2","Q04":"3","Q08":"2","Q07":"3"},"rt":30747.469999827445,"survey":"gad7","trial_type":"survey-template","trial_index":0,"time_elapsed":30761,"internal_node_id":"0.0-0.0","task_version":"screening-mturk"},{"responses":{"Q02":"3","Q01":"4","Q03":"3"},"rt":12313.930000178516,"survey":"pswq","trial_type":"survey-template","trial_index":1,"time_elapsed":43078,"internal_node_id":"0.0-1.0","task_version":"screening-mturk"},{"responses":{"Q04":"2","Q05":"3","Q12":"2","Q02":"3","Q03":"2","Q13":"3","Q15":"2","Q09":"3","Q10":"2","Q11":"3","Q08":"2","Q14":"3","Q01":"2","Q07":"3","Q06":"2"},"rt":25837.410000152886,"survey":"7up7down","trial_type":"survey-template","trial_index":2,"time_elapsed":68921,"internal_node_id":"0.0-2.0","task_version":"screening-mturk"},{"responses":{"Q14":"2","Q07":"3","Q10":"2","Q05":"3","Q12":"2","Q11":"3","Q02":"2","Q01":"3","Q04":"2","Q06":"3","Q08":"2","Q15":"3","Q13":"2","Q03":"3","Q09":"2"},"rt":26271.345000248402,"survey":"shaps","trial_type":"survey-template","trial_index":3,"time_elapsed":95196,"internal_node_id":"0.0-3.0","task_version":"screening-mturk"},{"responses":{"Q11":"2","Q02":"3","Q01":"2","Q10":"3","Q03":"2","Q06":"3","Q04":"2","Q09":"2","Q05":"3","Q07":"2","Q12":"3","Q08":"2","Q13":"3"},"rt":27039.43999996409,"survey":"bisbas","trial_type":"survey-template","trial_index":4,"time_elapsed":122241,"internal_node_id":"0.0-4.0","task_version":"screening-mturk"},{"view_history":"[{\"page_index\":0,\"viewing_time\":11744.649999774992},{\"page_index\":1,\"viewing_time\":39629.53500030562},{\"page_index\":2,\"viewing_time\":19429.92000002414},{\"page_index\":3,\"viewing_time\":18179.674999788404},{\"page_index\":4,\"viewing_time\":14450.269999913871},{\"page_index\":5,\"viewing_time\":13179.105000104755},{\"page_index\":6,\"viewing_time\":6459.970000199974},{\"page_index\":7,\"viewing_time\":8149.869999848306}]","rt":131223.9749999717,"trial_type":"instructions","trial_index":5,"time_elapsed":253468,"internal_node_id":"0.0-5.0-0.0","task_version":"screening-mturk"},{"responses":["True","True","True","False","True"],"num_errors":1,"rt":50102.25500026718,"trial_type":"three-arm-comprehension","trial_index":6,"time_elapsed":303574,"internal_node_id":"0.0-5.0-1.0","task_version":"screening-mturk"},{"view_history":"[{\"page_index\":0,\"viewing_time\":6758.99999961257},{\"page_index\":1,\"viewing_time\":4090.1850000955164},{\"page_index\":2,\"viewing_time\":2419.759999960661},{\"page_index\":3,\"viewing_time\":2980.0900002010167},{\"page_index\":4,\"viewing_time\":2240.0699998252094},{\"page_index\":5,\"viewing_time\":1369.7750000283122},{\"page_index\":6,\"viewing_time\":1860.0750002078712},{\"page_index\":7,\"viewing_time\":1959.9750000052154}]","rt":23679.439999628812,"trial_type":"instructions","trial_index":7,"time_elapsed":327258,"internal_node_id":"0.0-5.1-0.1","task_version":"screening-mturk"},{"responses":["True","False","True","False","True"],"num_errors":2,"rt":9166.040000040084,"trial_type":"three-arm-comprehension","trial_index":8,"time_elapsed":336427,"internal_node_id":"0.0-5.1-1.1","task_version":"screening-mturk"},{"view_history":"[{\"page_index\":0,\"viewing_time\":19488.3550000377},{\"page_index\":1,\"viewing_time\":12368.695000186563},{\"page_index\":2,\"viewing_time\":8599.76499993354},{\"page_index\":3,\"viewing_time\":9739.864999894053},{\"page_index\":4,\"viewing_time\":24179.759999737144},{\"page_index\":5,\"viewing_time\":9449.945000000298},{\"page_index\":6,\"viewing_time\":10669.765000231564},{\"page_index\":7,\"viewing_time\":6829.9400000832975}]","rt":101326.59499999136,"trial_type":"instructions","trial_index":9,"time_elapsed":437758,"internal_node_id":"0.0-5.2-0.2","task_version":"screening-mturk"},{"responses":["True","True","False","True","False"],"num_errors":2,"rt":94927.19000019133,"trial_type":"three-arm-comprehension","trial_index":10,"time_elapsed":532688,"internal_node_id":"0.0-5.2-1.2","task_version":"screening-mturk"},{"view_history":"[{\"page_index\":0,\"viewing_time\":2596.2650002911687},{\"page_index\":1,\"viewing_time\":2239.0950000844896},{\"page_index\":2,\"viewing_time\":560.1449999958277},{\"page_index\":3,\"viewing_time\":749.899999704212},{\"page_index\":4,\"viewing_time\":950.1100000925362},{\"page_index\":5,\"viewing_time\":1021.3649999350309},{\"page_index\":6,\"viewing_time\":808.2400001585484},{\"page_index\":7,\"viewing_time\":860.0099999457598}]","rt":9785.585000179708,"trial_type":"instructions","trial_index":11,"time_elapsed":542477,"internal_node_id":"0.0-5.3-0.3","task_version":"screening-mturk"},{"responses":["True","True","False","False","False"],"num_errors":1,"rt":23958.31000013277,"trial_type":"three-arm-comprehension","trial_index":12,"time_elapsed":566438,"internal_node_id":"0.0-5.3-1.3","task_version":"screening-mturk"},{"view_history":"[{\"page_index\":0,\"viewing_time\":1945.8249998278916},{\"page_index\":1,\"viewing_time\":879.9800002016127},{\"page_index\":2,\"viewing_time\":909.9949998781085},{\"page_index\":3,\"viewing_time\":619.8450000956655},{\"page_index\":4,\"viewing_time\":189.97999979183078},{\"page_index\":5,\"viewing_time\":909.7400000318885},{\"page_index\":6,\"viewing_time\":900.4750000312924},{\"page_index\":7,\"viewing_time\":855.7799998670816}]","rt":7212.069999892265,"trial_type":"instructions","trial_index":13,"time_elapsed":573653,"internal_node_id":"0.0-5.4-0.4","task_version":"screening-mturk"},{"responses":["True","True","False","False","True"],"num_errors":0,"rt":87191.28999998793,"trial_type":"three-arm-comprehension","trial_index":14,"time_elapsed":660849,"internal_node_id":"0.0-5.4-1.4","task_version":"screening-mturk"},{"view_history":"[{\"page_index\":0,\"viewing_time\":4605.130000039935}]","rt":4605.570000130683,"trial_type":"instructions","trial_index":15,"time_elapsed":665457,"internal_node_id":"0.0-6.0","task_version":"screening-mturk"},{"contexts":["blue","red","green"],"outcomes":[0,0,1],"key":38,"choice":1,"rt":3357.4699996970594,"outcome":0,"trial":1,"correct":2,"trial_type":"three-arm-trial","trial_index":16,"time_elapsed":670019,"internal_node_id":"0.0-7.0-0.0","task_version":"screening-mturk","missing":false,"accuracy":0},{"contexts":["blue","red","green"],"outcomes":[0,1,1],"key":39,"choice":2,"rt":406.2999999150634,"outcome":1,"trial":2,"correct":2,"trial_type":"three-arm-trial","trial_index":17,"time_elapsed":671628,"internal_node_id":"0.0-8.0-0.0","task_version":"screening-mturk","missing":false,"accuracy":1},{"contexts":["blue","red","green"],"outcomes":[0,0,1],"key":37,"choice":0,"rt":797.8399996645749,"outcome":0,"trial":3,"correct":2,"trial_type":"three-arm-trial","trial_index":18,"time_elapsed":673629,"internal_node_id":"0.0-9.0-0.0","task_version":"screening-mturk","missing":false,"accuracy":0},{"contexts":["blue","red","green"],"outcomes":[0,0,1],"key":38,"choice":1,"rt":616.6149997152388,"outcome":0,"trial":4,"correct":2,"trial_type":"three-arm-trial","trial_index":19,"time_elapsed":675448,"internal_node_id":"0.0-10.0-0.0","task_version":"screening-mturk","missing":false,"accuracy":0},{"contexts":["blue","red","green"],"outcomes":[0,0,1],"key":39,"choice":2,"rt":1704.8300001770258,"outcome":1,"trial":5,"correct":2,"trial_type":"three-arm-trial","trial_index":20,"time_elapsed":678356,"internal_node_id":"0.0-11.0-0.0","task_version":"screening-mturk","missing":false,"accuracy":1},{"contexts":["blue","red","green"],"outcomes":[0,1,1],"key":39,"choice":2,"rt":979.2550001293421,"outcome":1,"trial":6,"correct":2,"trial_type":"three-arm-trial","trial_index":21,"time_elapsed":680538,"internal_node_id":"0.0-12.0-0.0","task_version":"screening-mturk","missing":false,"accuracy":1},{"contexts":["blue","red","green"],"outcomes":[0,1,1],"key":39,"choice":2,"rt":1097.534999717027,"outcome":1,"trial":7,"correct":2,"trial_type":"three-arm-trial","trial_index":22,"time_elapsed":682837,"internal_node_id":"0.0-13.0-0.0","task_version":"screening-mturk","missing":false,"accuracy":1},{"contexts":["blue","red","green"],"outcomes":[0,1,0],"key":39,"choice":2,"rt":922.3750000819564,"outcome":0,"trial":8,"correct":2,"trial_type":"three-arm-trial","trial_index":23,"time_elapsed":684965,"internal_node_id":"0.0-14.0-0.0","task_version":"screening-mturk","missing":false,"accuracy":1},{"contexts":["blue","red","green"],"outcomes":[1,0,0],"key":39,"choice":2,"rt":1159.6850003115833,"outcome":0,"trial":9,"correct":2,"trial_type":"three-arm-trial","trial_index":24,"time_elapsed":687328,"internal_node_id":"0.0-15.0-0.0","task_version":"screening-mturk","missing":false,"accuracy":1},{"contexts":["blue","red","green"],"outcomes":[0,0,0],"key":38,"choice":1,"rt":436.64499977603555,"outcome":0,"trial":10,"correct":2,"trial_type":"three-arm-trial","trial_index":25,"time_elapsed":688967,"internal_node_id":"0.0-16.0-0.0","task_version":"screening-mturk","missing":false,"accuracy":0},{"contexts":["blue","red","green"],"outcomes":[0,1,1],"key":37,"choice":0,"rt":259.45999985560775,"outcome":0,"trial":11,"correct":2,"trial_type":"three-arm-trial","trial_index":26,"time_elapsed":690429,"internal_node_id":"0.0-17.0-0.0","task_version":"screening-mturk","missing":false,"accuracy":0},{"contexts":["blue","red","green"],"outcomes":[0,0,1],"key":38,"choice":1,"rt":644.7300002910197,"outcome":0,"trial":12,"correct":2,"trial_type":"three-arm-trial","trial_index":27,"time_elapsed":692277,"internal_node_id":"0.0-18.0-0.0","task_version":"screening-mturk","missing":false,"accuracy":0},{"contexts":["blue","red","green"],"outcomes":[1,0,1],"key":39,"choice":2,"rt":303.96000016480684,"outcome":1,"trial":13,"correct":2,"trial_type":"three-arm-trial","trial_index":28,"time_elapsed":693784,"internal_node_id":"0.0-19.0-0.0","task_version":"screening-mturk","missing":false,"accuracy":1},{"contexts":["blue","red","green"],"outcomes":[0,0,0],"key":39,"choice":2,"rt":645.0249999761581,"outcome":0,"trial":14,"correct":2,"trial_type":"three-arm-trial","trial_index":29,"time_elapsed":695632,"internal_node_id":"0.0-20.0-0.0","task_version":"screening-mturk","missing":false,"accuracy":1},{"contexts":["blue","red","green"],"outcomes":[1,0,1],"key":38,"choice":1,"rt":977.5249999947846,"outcome":0,"trial":15,"correct":2,"trial_type":"three-arm-trial","trial_index":30,"time_elapsed":697813,"internal_node_id":"0.0-21.0-0.0","task_version":"screening-mturk","missing":false,"accuracy":0},{"contexts":["blue","red","green"],"outcomes":[0,1,0],"key":37,"choice":0,"rt":535.3749999776483,"outcome":0,"trial":16,"correct":1,"trial_type":"three-arm-trial","trial_index":31,"time_elapsed":699551,"internal_node_id":"0.0-22.0-0.0","task_version":"screening-mturk","missing":false,"accuracy":0},{"contexts":["blue","red","green"],"outcomes":[1,0,0],"key":39,"choice":2,"rt":903.5700000822544,"outcome":0,"trial":17,"correct":1,"trial_type":"three-arm-trial","trial_index":32,"time_elapsed":701657,"internal_node_id":"0.0-23.0-0.0","task_version":"screening-mturk","missing":false,"accuracy":0},{"contexts":["blue","red","green"],"outcomes":[0,0,1],"key":39,"choice":2,"rt":1067.449999973178,"outcome":1,"trial":18,"correct":1,"trial_type":"three-arm-trial","trial_index":33,"time_elapsed":703927,"internal_node_id":"0.0-24.0-0.0","task_version":"screening-mturk","missing":false,"accuracy":0},{"contexts":["blue","red","green"],"outcomes":[0,1,0],"key":39,"choice":2,"rt":1097.9200000874698,"outcome":0,"trial":19,"correct":1,"trial_type":"three-arm-trial","trial_index":34,"time_elapsed":706227,"internal_node_id":"0.0-25.0-0.0","task_version":"screening-mturk","missing":false,"accuracy":0},{"contexts":["blue","red","green"],"outcomes":[0,1,1],"key":39,"choice":2,"rt":1707.4999995529652,"outcome":1,"trial":20,"correct":1,"trial_type":"three-arm-trial","trial_index":35,"time_elapsed":709144,"internal_node_id":"0.0-26.0-0.0","task_version":"screening-mturk","missing":false,"accuracy":0},{"contexts":["blue","red","green"],"outcomes":[0,0,1],"key":37,"choice":0,"rt":2713.9449999667704,"outcome":0,"trial":21,"correct":1,"trial_type":"three-arm-trial","trial_index":36,"time_elapsed":713060,"internal_node_id":"0.0-27.0-0.0","task_version":"screening-mturk","missing":false,"accuracy":0},{"contexts":["blue","red","green"],"outcomes":[0,1,0],"key":39,"choice":2,"rt":558.2349998876452,"outcome":0,"trial":22,"correct":1,"trial_type":"three-arm-trial","trial_index":37,"time_elapsed":714822,"internal_node_id":"0.0-28.0-0.0","task_version":"screening-mturk","missing":false,"accuracy":0},{"contexts":["blue","red","green"],"outcomes":[0,1,0],"key":39,"choice":2,"rt":763.0549999885261,"outcome":0,"trial":23,"correct":1,"trial_type":"three-arm-trial","trial_index":38,"time_elapsed":716788,"internal_node_id":"0.0-29.0-0.0","task_version":"screening-mturk","missing":false,"accuracy":0},{"contexts":["blue","red","green"],"outcomes":[0,0,0],"key":38,"choice":1,"rt":444.5199999026954,"outcome":0,"trial":24,"correct":1,"trial_type":"three-arm-trial","trial_index":39,"time_elapsed":718437,"internal_node_id":"0.0-30.0-0.0","task_version":"screening-mturk","missing":false,"accuracy":1},{"contexts":["blue","red","green"],"outcomes":[0,1,0],"key":37,"choice":0,"rt":797.420000191778,"outcome":0,"trial":25,"correct":1,"trial_type":"three-arm-trial","trial_index":40,"time_elapsed":720437,"internal_node_id":"0.0-31.0-0.0","task_version":"screening-mturk","missing":false,"accuracy":0},{"contexts":["blue","red","green"],"outcomes":[0,1,0],"key":39,"choice":2,"rt":787.694999948144,"outcome":0,"trial":26,"correct":1,"trial_type":"three-arm-trial","trial_index":41,"time_elapsed":722436,"internal_node_id":"0.0-32.0-0.0","task_version":"screening-mturk","missing":false,"accuracy":0},{"contexts":["blue","red","green"],"outcomes":[0,1,0],"key":38,"choice":1,"rt":758.5549997165799,"outcome":1,"trial":27,"correct":1,"trial_type":"three-arm-trial","trial_index":42,"time_elapsed":724397,"internal_node_id":"0.0-33.0-0.0","task_version":"screening-mturk","missing":false,"accuracy":1},{"contexts":["blue","red","green"],"outcomes":[0,1,0],"key":37,"choice":0,"rt":1077.5949996896088,"outcome":0,"trial":28,"correct":1,"trial_type":"three-arm-trial","trial_index":43,"time_elapsed":726680,"internal_node_id":"0.0-34.0-0.0","task_version":"screening-mturk","missing":false,"accuracy":0},{"contexts":["blue","red","green"],"outcomes":[1,1,0],"key":37,"choice":0,"rt":994.8950000107288,"outcome":1,"trial":29,"correct":1,"trial_type":"three-arm-trial","trial_index":44,"time_elapsed":728877,"internal_node_id":"0.0-35.0-0.0","task_version":"screening-mturk","missing":false,"accuracy":0},{"contexts":["blue","red","green"],"outcomes":[0,1,0],"key":39,"choice":2,"rt":907.3250000365078,"outcome":0,"trial":30,"correct":1,"trial_type":"three-arm-trial","trial_index":45,"time_elapsed":731002,"internal_node_id":"0.0-36.0-0.0","task_version":"screening-mturk","missing":false,"accuracy":0},{"contexts":["blue","red","green"],"outcomes":[0,0,1],"key":38,"choice":1,"rt":1050.139999948442,"outcome":0,"trial":31,"correct":2,"trial_type":"three-arm-trial","trial_index":46,"time_elapsed":733256,"internal_node_id":"0.0-37.0-0.0","task_version":"screening-mturk","missing":false,"accuracy":0},{"contexts":["blue","red","green"],"outcomes":[0,0,1],"key":37,"choice":0,"rt":728.3349996432662,"outcome":0,"trial":32,"correct":2,"trial_type":"three-arm-trial","trial_index":47,"time_elapsed":735187,"internal_node_id":"0.0-38.0-0.0","task_version":"screening-mturk","missing":false,"accuracy":0},{"contexts":["blue","red","green"],"outcomes":[1,0,1],"key":39,"choice":2,"rt":567.6049999892712,"outcome":1,"trial":33,"correct":2,"trial_type":"three-arm-trial","trial_index":48,"time_elapsed":736957,"internal_node_id":"0.0-39.0-0.0","task_version":"screening-mturk","missing":false,"accuracy":1},{"contexts":["blue","red","green"],"outcomes":[0,0,1],"key":39,"choice":2,"rt":2787.7400000579655,"outcome":1,"trial":34,"correct":2,"trial_type":"three-arm-trial","trial_index":49,"time_elapsed":740947,"internal_node_id":"0.0-40.0-0.0","task_version":"screening-mturk","missing":false,"accuracy":1},{"contexts":["blue","red","green"],"outcomes":[0,0,1],"key":39,"choice":2,"rt":6917.4849996343255,"outcome":1,"trial":35,"correct":2,"trial_type":"three-arm-trial","trial_index":50,"time_elapsed":749067,"internal_node_id":"0.0-41.0-0.0","task_version":"screening-mturk","missing":false,"accuracy":1},{"contexts":["blue","red","green"],"outcomes":[1,0,1],"key":39,"choice":2,"rt":1997.5650003179908,"outcome":1,"trial":36,"correct":2,"trial_type":"three-arm-trial","trial_index":51,"time_elapsed":752267,"internal_node_id":"0.0-42.0-0.0","task_version":"screening-mturk","missing":false,"accuracy":1},{"contexts":["blue","red","green"],"outcomes":[0,0,1],"key":38,"choice":1,"rt":601.4450001530349,"outcome":0,"trial":37,"correct":2,"trial_type":"three-arm-trial","trial_index":52,"time_elapsed":754071,"internal_node_id":"0.0-43.0-0.0","task_version":"screening-mturk","missing":false,"accuracy":0},{"contexts":["blue","red","green"],"outcomes":[0,1,0],"key":39,"choice":2,"rt":573.4999999403954,"outcome":0,"trial":38,"correct":2,"trial_type":"three-arm-trial","trial_index":53,"time_elapsed":755847,"internal_node_id":"0.0-44.0-0.0","task_version":"screening-mturk","missing":false,"accuracy":1},{"contexts":["blue","red","green"],"outcomes":[0,1,1],"key":38,"choice":1,"rt":727.4299999698997,"outcome":1,"trial":39,"correct":2,"trial_type":"three-arm-trial","trial_index":54,"time_elapsed":757777,"internal_node_id":"0.0-45.0-0.0","task_version":"screening-mturk","missing":false,"accuracy":0},{"contexts":["blue","red","green"],"outcomes":[0,0,1],"key":37,"choice":0,"rt":597.5100002251565,"outcome":0,"trial":40,"correct":2,"trial_type":"three-arm-trial","trial_index":55,"time_elapsed":759577,"internal_node_id":"0.0-46.0-0.0","task_version":"screening-mturk","missing":false,"accuracy":0},{"contexts":["blue","red","green"],"outcomes":[1,0,1],"key":37,"choice":0,"rt":806.5800000913441,"outcome":1,"trial":41,"correct":2,"trial_type":"three-arm-trial","trial_index":56,"time_elapsed":761586,"internal_node_id":"0.0-47.0-0.0","task_version":"screening-mturk","missing":false,"accuracy":0},{"contexts":["blue","red","green"],"outcomes":[1,0,1],"key":38,"choice":1,"rt":797.5950003601611,"outcome":0,"trial":42,"correct":2,"trial_type":"three-arm-trial","trial_index":57,"time_elapsed":763586,"internal_node_id":"0.0-48.0-0.0","task_version":"screening-mturk","missing":false,"accuracy":0},{"contexts":["blue","red","green"],"outcomes":[0,1,1],"key":38,"choice":1,"rt":747.7650004439056,"outcome":1,"trial":43,"correct":2,"trial_type":"three-arm-trial","trial_index":58,"time_elapsed":765537,"internal_node_id":"0.0-49.0-0.0","task_version":"screening-mturk","missing":false,"accuracy":0},{"contexts":["blue","red","green"],"outcomes":[0,0,0],"key":39,"choice":2,"rt":652.10000006482,"outcome":0,"trial":44,"correct":2,"trial_type":"three-arm-trial","trial_index":59,"time_elapsed":767399,"internal_node_id":"0.0-50.0-0.0","task_version":"screening-mturk","missing":false,"accuracy":1},{"contexts":["blue","red","green"],"outcomes":[0,1,0],"key":39,"choice":2,"rt":645.0699996203184,"outcome":0,"trial":45,"correct":2,"trial_type":"three-arm-trial","trial_index":60,"time_elapsed":769248,"internal_node_id":"0.0-51.0-0.0","task_version":"screening-mturk","missing":false,"accuracy":1},{"contexts":["blue","red","green"],"outcomes":[0,1,1],"key":39,"choice":2,"rt":757.6299998909235,"outcome":1,"trial":46,"correct":1,"trial_type":"three-arm-trial","trial_index":61,"time_elapsed":771212,"internal_node_id":"0.0-52.0-0.0","task_version":"screening-mturk","missing":false,"accuracy":0},{"contexts":["blue","red","green"],"outcomes":[0,1,0],"key":38,"choice":1,"rt":2003.9749997667968,"outcome":1,"trial":47,"correct":1,"trial_type":"three-arm-trial","trial_index":62,"time_elapsed":774418,"internal_node_id":"0.0-53.0-0.0","task_version":"screening-mturk","missing":false,"accuracy":1},{"contexts":["blue","red","green"],"outcomes":[0,1,0],"key":37,"choice":0,"rt":800.9899999015033,"outcome":0,"trial":48,"correct":1,"trial_type":"three-arm-trial","trial_index":63,"time_elapsed":776423,"internal_node_id":"0.0-54.0-0.0","task_version":"screening-mturk","missing":false,"accuracy":0},{"contexts":["blue","red","green"],"outcomes":[0,1,1],"key":37,"choice":0,"rt":412.58500004187226,"outcome":0,"trial":49,"correct":1,"trial_type":"three-arm-trial","trial_index":64,"time_elapsed":778038,"internal_node_id":"0.0-55.0-0.0","task_version":"screening-mturk","missing":false,"accuracy":0},{"contexts":["blue","red","green"],"outcomes":[0,0,1],"key":38,"choice":1,"rt":584.3199999071658,"outcome":0,"trial":50,"correct":1,"trial_type":"three-arm-trial","trial_index":65,"time_elapsed":779825,"internal_node_id":"0.0-56.0-0.0","task_version":"screening-mturk","missing":false,"accuracy":1},{"contexts":["blue","red","green"],"outcomes":[0,1,0],"key":37,"choice":0,"rt":440.52999978885055,"outcome":0,"trial":51,"correct":1,"trial_type":"three-arm-trial","trial_index":66,"time_elapsed":781468,"internal_node_id":"0.0-57.0-0.0","task_version":"screening-mturk","missing":false,"accuracy":0},{"contexts":["blue","red","green"],"outcomes":[0,1,0],"key":39,"choice":2,"rt":347.58999990299344,"outcome":0,"trial":52,"correct":1,"trial_type":"three-arm-trial","trial_index":67,"time_elapsed":783025,"internal_node_id":"0.0-58.0-0.0","task_version":"screening-mturk","missing":false,"accuracy":0},{"contexts":["blue","red","green"],"outcomes":[0,1,0],"key":38,"choice":1,"rt":730.5499999783933,"outcome":1,"trial":53,"correct":1,"trial_type":"three-arm-trial","trial_index":68,"time_elapsed":784962,"internal_node_id":"0.0-59.0-0.0","task_version":"screening-mturk","missing":false,"accuracy":1},{"contexts":["blue","red","green"],"outcomes":[1,0,0],"key":37,"choice":0,"rt":6743.419999722391,"outcome":1,"trial":54,"correct":1,"trial_type":"three-arm-trial","trial_index":69,"time_elapsed":792907,"internal_node_id":"0.0-60.0-0.0","task_version":"screening-mturk","missing":false,"accuracy":0},{"contexts":["blue","red","green"],"outcomes":[0,1,0],"key":37,"choice":0,"rt":4917.55500016734,"outcome":0,"trial":55,"correct":1,"trial_type":"three-arm-trial","trial_index":70,"time_elapsed":799027,"internal_node_id":"0.0-61.0-0.0","task_version":"screening-mturk","missing":false,"accuracy":0},{"contexts":["blue","red","green"],"outcomes":[0,1,0],"key":39,"choice":2,"rt":631.5800002776086,"outcome":0,"trial":56,"correct":1,"trial_type":"three-arm-trial","trial_index":71,"time_elapsed":800861,"internal_node_id":"0.0-62.0-0.0","task_version":"screening-mturk","missing":false,"accuracy":0},{"contexts":["blue","red","green"],"outcomes":[0,1,0],"key":38,"choice":1,"rt":907.0250000804663,"outcome":1,"trial":57,"correct":1,"trial_type":"three-arm-trial","trial_index":72,"time_elapsed":802972,"internal_node_id":"0.0-63.0-0.0","task_version":"screening-mturk","missing":false,"accuracy":1},{"contexts":["blue","red","green"],"outcomes":[0,1,0],"key":37,"choice":0,"rt":793.8399999402463,"outcome":0,"trial":58,"correct":1,"trial_type":"three-arm-trial","trial_index":73,"time_elapsed":804970,"internal_node_id":"0.0-64.0-0.0","task_version":"screening-mturk","missing":false,"accuracy":0},{"contexts":["blue","red","green"],"outcomes":[0,0,0],"key":39,"choice":2,"rt":314.5449999719858,"outcome":0,"trial":59,"correct":1,"trial_type":"three-arm-trial","trial_index":74,"time_elapsed":806487,"internal_node_id":"0.0-65.0-0.0","task_version":"screening-mturk","missing":false,"accuracy":0},{"contexts":["blue","red","green"],"outcomes":[0,0,0],"key":38,"choice":1,"rt":767.6249998621643,"outcome":0,"trial":60,"correct":1,"trial_type":"three-arm-trial","trial_index":75,"time_elapsed":808457,"internal_node_id":"0.0-66.0-0.0","task_version":"screening-mturk","missing":false,"accuracy":1},{"contexts":["blue","red","green"],"outcomes":[1,0,0],"key":39,"choice":2,"rt":1655.2650001831353,"outcome":0,"trial":61,"correct":0,"trial_type":"three-arm-trial","trial_index":76,"time_elapsed":811321,"internal_node_id":"0.0-67.0-0.0","task_version":"screening-mturk","missing":false,"accuracy":0},{"contexts":["blue","red","green"],"outcomes":[1,0,0],"key":37,"choice":0,"rt":543.6399998143315,"outcome":1,"trial":62,"correct":0,"trial_type":"three-arm-trial","trial_index":77,"time_elapsed":813067,"internal_node_id":"0.0-68.0-0.0","task_version":"screening-mturk","missing":false,"accuracy":1},{"contexts":["blue","red","green"],"outcomes":[1,0,0],"key":38,"choice":1,"rt":1210.519999731332,"outcome":0,"trial":63,"correct":0,"trial_type":"three-arm-trial","trial_index":78,"time_elapsed":815480,"internal_node_id":"0.0-69.0-0.0","task_version":"screening-mturk","missing":false,"accuracy":0},{"contexts":["blue","red","green"],"outcomes":[1,0,1],"key":38,"choice":1,"rt":1420.1600002124906,"outcome":0,"trial":64,"correct":0,"trial_type":"three-arm-trial","trial_index":79,"time_elapsed":818104,"internal_node_id":"0.0-70.0-0.0","task_version":"screening-mturk","missing":false,"accuracy":0},{"contexts":["blue","red","green"],"outcomes":[1,0,0],"key":37,"choice":0,"rt":1650.6950003094971,"outcome":1,"trial":65,"correct":0,"trial_type":"three-arm-trial","trial_index":80,"time_elapsed":820961,"internal_node_id":"0.0-71.0-0.0","task_version":"screening-mturk","missing":false,"accuracy":1},{"contexts":["blue","red","green"],"outcomes":[1,0,1],"key":39,"choice":2,"rt":723.535000346601,"outcome":1,"trial":66,"correct":0,"trial_type":"three-arm-trial","trial_index":81,"time_elapsed":822887,"internal_node_id":"0.0-72.0-0.0","task_version":"screening-mturk","missing":false,"accuracy":0},{"contexts":["blue","red","green"],"outcomes":[0,0,1],"key":37,"choice":0,"rt":817.5349999219179,"outcome":0,"trial":67,"correct":0,"trial_type":"three-arm-trial","trial_index":82,"time_elapsed":824907,"internal_node_id":"0.0-73.0-0.0","task_version":"screening-mturk","missing":false,"accuracy":1},{"contexts":["blue","red","green"],"outcomes":[1,0,0],"key":38,"choice":1,"rt":2078.490000218153,"outcome":0,"trial":68,"correct":0,"trial_type":"three-arm-trial","trial_index":83,"time_elapsed":828192,"internal_node_id":"0.0-74.0-0.0","task_version":"screening-mturk","missing":false,"accuracy":0},{"contexts":["blue","red","green"],"outcomes":[1,1,0],"key":39,"choice":2,"rt":2632.3699997738004,"outcome":0,"trial":69,"correct":0,"trial_type":"three-arm-trial","trial_index":84,"time_elapsed":832027,"internal_node_id":"0.0-75.0-0.0","task_version":"screening-mturk","missing":false,"accuracy":0},{"contexts":["blue","red","green"],"outcomes":[1,0,0],"key":38,"choice":1,"rt":2435.564999934286,"outcome":0,"trial":70,"correct":0,"trial_type":"three-arm-trial","trial_index":85,"time_elapsed":835665,"internal_node_id":"0.0-76.0-0.0","task_version":"screening-mturk","missing":false,"accuracy":0},{"contexts":["blue","red","green"],"outcomes":[1,0,0],"key":37,"choice":0,"rt":1019.5499998517334,"outcome":1,"trial":71,"correct":0,"trial_type":"three-arm-trial","trial_index":86,"time_elapsed":837888,"internal_node_id":"0.0-77.0-0.0","task_version":"screening-mturk","missing":false,"accuracy":1},{"contexts":["blue","red","green"],"outcomes":[1,1,0],"key":39,"choice":2,"rt":2399.715000297874,"outcome":0,"trial":72,"correct":0,"trial_type":"three-arm-trial","trial_index":87,"time_elapsed":841492,"internal_node_id":"0.0-78.0-0.0","task_version":"screening-mturk","missing":false,"accuracy":0},{"contexts":["blue","red","green"],"outcomes":[1,0,0],"key":38,"choice":1,"rt":501.3399999588728,"outcome":0,"trial":73,"correct":0,"trial_type":"three-arm-trial","trial_index":88,"time_elapsed":843198,"internal_node_id":"0.0-79.0-0.0","task_version":"screening-mturk","missing":false,"accuracy":0},{"contexts":["blue","red","green"],"outcomes":[1,0,1],"key":37,"choice":0,"rt":609.9299998022616,"outcome":1,"trial":74,"correct":0,"trial_type":"three-arm-trial","trial_index":89,"time_elapsed":845018,"internal_node_id":"0.0-80.0-0.0","task_version":"screening-mturk","missing":false,"accuracy":1},{"contexts":["blue","red","green"],"outcomes":[1,0,0],"key":39,"choice":2,"rt":656.7600001581013,"outcome":0,"trial":75,"correct":0,"trial_type":"three-arm-trial","trial_index":90,"time_elapsed":846880,"internal_node_id":"0.0-81.0-0.0","task_version":"screening-mturk","missing":false,"accuracy":0},{"contexts":["blue","red","green"],"outcomes":[0,0,1],"key":39,"choice":2,"rt":685.6500003486872,"outcome":1,"trial":76,"correct":2,"trial_type":"three-arm-trial","trial_index":91,"time_elapsed":848768,"internal_node_id":"0.0-82.0-0.0","task_version":"screening-mturk","missing":false,"accuracy":1},{"contexts":["blue","red","green"],"outcomes":[0,0,0],"key":39,"choice":2,"rt":1156.7899999208748,"outcome":0,"trial":77,"correct":2,"trial_type":"three-arm-trial","trial_index":92,"time_elapsed":851128,"internal_node_id":"0.0-83.0-0.0","task_version":"screening-mturk","missing":false,"accuracy":1},{"contexts":["blue","red","green"],"outcomes":[0,0,1],"key":37,"choice":0,"rt":606.544999871403,"outcome":0,"trial":78,"correct":2,"trial_type":"three-arm-trial","trial_index":93,"time_elapsed":852938,"internal_node_id":"0.0-84.0-0.0","task_version":"screening-mturk","missing":false,"accuracy":0},{"contexts":["blue","red","green"],"outcomes":[0,1,1],"key":38,"choice":1,"rt":1986.3100000657141,"outcome":1,"trial":79,"correct":2,"trial_type":"three-arm-trial","trial_index":94,"time_elapsed":856127,"internal_node_id":"0.0-85.0-0.0","task_version":"screening-mturk","missing":false,"accuracy":0},{"contexts":["blue","red","green"],"outcomes":[0,0,1],"key":37,"choice":0,"rt":1067.9450002498925,"outcome":0,"trial":80,"correct":2,"trial_type":"three-arm-trial","trial_index":95,"time_elapsed":858398,"internal_node_id":"0.0-86.0-0.0","task_version":"screening-mturk","missing":false,"accuracy":0},{"contexts":["blue","red","green"],"outcomes":[0,0,1],"key":38,"choice":1,"rt":588.4599997662008,"outcome":0,"trial":81,"correct":2,"trial_type":"three-arm-trial","trial_index":96,"time_elapsed":860191,"internal_node_id":"0.0-87.0-0.0","task_version":"screening-mturk","missing":false,"accuracy":0},{"contexts":["blue","red","green"],"outcomes":[0,0,0],"key":39,"choice":2,"rt":303.98999992758036,"outcome":0,"trial":82,"correct":2,"trial_type":"three-arm-trial","trial_index":97,"time_elapsed":861697,"internal_node_id":"0.0-88.0-0.0","task_version":"screening-mturk","missing":false,"accuracy":1},{"contexts":["blue","red","green"],"outcomes":[0,0,1],"key":39,"choice":2,"rt":586.5449998527765,"outcome":1,"trial":83,"correct":2,"trial_type":"three-arm-trial","trial_index":98,"time_elapsed":863495,"internal_node_id":"0.0-89.0-0.0","task_version":"screening-mturk","missing":false,"accuracy":1},{"contexts":["blue","red","green"],"outcomes":[0,0,1],"key":38,"choice":1,"rt":1409.3800000846386,"outcome":0,"trial":84,"correct":2,"trial_type":"three-arm-trial","trial_index":99,"time_elapsed":866112,"internal_node_id":"0.0-90.0-0.0","task_version":"screening-mturk","missing":false,"accuracy":0},{"contexts":["blue","red","green"],"outcomes":[1,0,1],"key":37,"choice":0,"rt":322.3899998702109,"outcome":1,"trial":85,"correct":2,"trial_type":"three-arm-trial","trial_index":100,"time_elapsed":867636,"internal_node_id":"0.0-91.0-0.0","task_version":"screening-mturk","missing":false,"accuracy":0},{"contexts":["blue","red","green"],"outcomes":[0,1,1],"key":39,"choice":2,"rt":937.7850000746548,"outcome":1,"trial":86,"correct":2,"trial_type":"three-arm-trial","trial_index":101,"time_elapsed":869776,"internal_node_id":"0.0-92.0-0.0","task_version":"screening-mturk","missing":false,"accuracy":1},{"contexts":["blue","red","green"],"outcomes":[0,0,1],"key":38,"choice":1,"rt":2567.4950000829995,"outcome":0,"trial":87,"correct":2,"trial_type":"three-arm-trial","trial_index":102,"time_elapsed":873550,"internal_node_id":"0.0-93.0-0.0","task_version":"screening-mturk","missing":false,"accuracy":0},{"contexts":["blue","red","green"],"outcomes":[0,0,1],"key":37,"choice":0,"rt":3213.660000357777,"outcome":0,"trial":88,"correct":2,"trial_type":"three-arm-trial","trial_index":103,"time_elapsed":877966,"internal_node_id":"0.0-94.0-0.0","task_version":"screening-mturk","missing":false,"accuracy":0},{"contexts":["blue","red","green"],"outcomes":[0,0,0],"key":39,"choice":2,"rt":2307.7150001190603,"outcome":0,"trial":89,"correct":2,"trial_type":"three-arm-trial","trial_index":104,"time_elapsed":881476,"internal_node_id":"0.0-95.0-0.0","task_version":"screening-mturk","missing":false,"accuracy":1},{"contexts":["blue","red","green"],"outcomes":[0,1,1],"key":38,"choice":1,"rt":627.7499999850988,"outcome":1,"trial":90,"correct":2,"trial_type":"three-arm-trial","trial_index":105,"time_elapsed":883306,"internal_node_id":"0.0-96.0-0.0","task_version":"screening-mturk","missing":false,"accuracy":0},{"rt":115466.44000010565,"responses":{"age":"33","gender-categorical":"Male","gender-free-response":"","ethnicity":"Hispanic or Latino","race":["Black or African American"],"language":"Yes","fluency":"Very well","prolific":"Yes","prolific-this-study":"No"},"survey":"demographics","trial_type":"survey-demo","trial_index":106,"time_elapsed":998783,"internal_node_id":"0.0-97.0","task_version":"screening-mturk","interactions":"[]"}]