[{"responses":{"Q04":"1","Q03":"2","Q02":"1","Q06":"2","Q11":"3","Q15":"2","Q09":"2","Q08":"1","Q10":"3","Q07":"2","Q12":"2","Q05":"3","Q13":"2","Q01":"1","Q14":"1"},"rt":47741.369999945164,"survey":"7up7down","trial_type":"survey-template","trial_index":0,"time_elapsed":47762,"internal_node_id":"0.0-0.0","task_version":"screening-mturk"},{"responses":{"Q06":"2","Q13":"1","Q04":"3","Q07":"2","Q02":"1","Q01":"2","Q09":"2","Q05":"3","Q11":"2","Q12":"2","Q03":"1","Q08":"1","Q10":"0"},"rt":35959.50499991886,"survey":"bisbas","trial_type":"survey-template","trial_index":1,"time_elapsed":83725,"internal_node_id":"0.0-1.0","task_version":"screening-mturk"},{"responses":{"Q02":"3","Q01":"2","Q03":"4"},"rt":14249.854999827221,"survey":"pswq","trial_type":"survey-template","trial_index":2,"time_elapsed":97983,"internal_node_id":"0.0-2.0","task_version":"screening-mturk"},{"responses":{"Q01":"3","Q04":"2","Q03":"1","Q07":"1","Q05":"2","Q06":"2","Q02":"1","Q08":"2"},"rt":19042.589999968186,"survey":"gad7","trial_type":"survey-template","trial_index":3,"time_elapsed":117029,"internal_node_id":"0.0-3.0","task_version":"screening-mturk"},{"responses":{"Q09":"1","Q14":"2","Q01":"3","Q10":"2","Q06":"3","Q15":"2","Q04":"2","Q02":"3","Q12":"2","Q11":"1","Q07":"2","Q13":"1","Q05":"0","Q03":"1","Q08":"2"},"rt":44726.509999949485,"survey":"shaps","trial_type":"survey-template","trial_index":4,"time_elapsed":161765,"internal_node_id":"0.0-4.0","task_version":"screening-mturk"},{"view_history":"[{\"page_index\":0,\"viewing_time\":4569.565000012517},{\"page_index\":1,\"viewing_time\":7373.9000000059605},{\"page_index\":2,\"viewing_time\":4131.719999946654},{\"page_index\":3,\"viewing_time\":3877.4149999953806},{\"page_index\":4,\"viewing_time\":1920.4900001641363},{\"page_index\":5,\"viewing_time\":1299.5749998372048},{\"page_index\":6,\"viewing_time\":1559.9800001364201},{\"page_index\":7,\"viewing_time\":1379.8149998765439}]","rt":26113.67500014603,"trial_type":"instructions","trial_index":5,"time_elapsed":187880,"internal_node_id":"0.0-5.0-0.0","task_version":"screening-mturk"},{"responses":["False","False","True","False","True"],"num_errors":3,"rt":69732.88000002503,"trial_type":"three-arm-comprehension","trial_index":6,"time_elapsed":257620,"internal_node_id":"0.0-5.0-1.0","task_version":"screening-mturk"},{"view_history":"[{\"page_index\":0,\"viewing_time\":3965.580000076443},{\"page_index\":1,\"viewing_time\":929.7150000929832},{\"page_index\":2,\"viewing_time\":589.8199998773634},{\"page_index\":3,\"viewing_time\":686.005000025034},{\"page_index\":4,\"viewing_time\":1643.804999999702},{\"page_index\":5,\"viewing_time\":950.1300000119954},{\"page_index\":6,\"viewing_time\":830.0149999558926},{\"page_index\":7,\"viewing_time\":850.1450000330806}]","rt":10445.625000167638,"trial_type":"instructions","trial_index":7,"time_elapsed":268068,"internal_node_id":"0.0-5.1-0.1","task_version":"screening-mturk"},{"responses":["False","True","False","False","True"],"num_errors":1,"rt":17957.31999981217,"trial_type":"three-arm-comprehension","trial_index":8,"time_elapsed":286033,"internal_node_id":"0.0-5.1-1.1","task_version":"screening-mturk"},{"view_history":"[{\"page_index\":0,\"viewing_time\":2055.940000107512},{\"page_index\":1,\"viewing_time\":390.02500008791685},{\"page_index\":2,\"viewing_time\":249.92499989457428},{\"page_index\":3,\"viewing_time\":269.9200001079589},{\"page_index\":4,\"viewing_time\":300.12999987229705},{\"page_index\":5,\"viewing_time\":1439.8650000803173},{\"page_index\":6,\"viewing_time\":249.83999994583428},{\"page_index\":7,\"viewing_time\":688.1949999369681}]","rt":5644.200000213459,"trial_type":"instructions","trial_index":9,"time_elapsed":291679,"internal_node_id":"0.0-5.2-0.2","task_version":"screening-mturk"},{"responses":["True","False","True","True","False"],"num_errors":4,"rt":11009.915000060573,"trial_type":"three-arm-comprehension","trial_index":10,"time_elapsed":302691,"internal_node_id":"0.0-5.2-1.2","task_version":"screening-mturk"},{"view_history":"[{\"page_index\":0,\"viewing_time\":2736.284999875352},{\"page_index\":1,\"viewing_time\":509.4550000503659},{\"page_index\":2,\"viewing_time\":299.57500007003546},{\"page_index\":3,\"viewing_time\":309.96999982744455},{\"page_index\":4,\"viewing_time\":380.04499999806285},{\"page_index\":5,\"viewing_time\":1366.2650000769645},{\"page_index\":6,\"viewing_time\":300.2800000831485},{\"page_index\":7,\"viewing_time\":783.3199999295175}]","rt":6685.4649998713285,"trial_type":"instructions","trial_index":11,"time_elapsed":309380,"internal_node_id":"0.0-5.3-0.3","task_version":"screening-mturk"},{"responses":["True","True","False","True","False"],"num_errors":2,"rt":13777.73500001058,"trial_type":"three-arm-comprehension","trial_index":12,"time_elapsed":323160,"internal_node_id":"0.0-5.3-1.3","task_version":"screening-mturk"},{"view_history":"[{\"page_index\":0,\"viewing_time\":3046.199999982491},{\"page_index\":1,\"viewing_time\":260.08499995805323},{\"page_index\":2,\"viewing_time\":249.86000009812415},{\"page_index\":3,\"viewing_time\":239.850000012666},{\"page_index\":4,\"viewing_time\":240.3799998573959},{\"page_index\":5,\"viewing_time\":239.72000018693507},{\"page_index\":6,\"viewing_time\":1350.014999974519},{\"page_index\":7,\"viewing_time\":1039.6349998191}]","rt":6666.035000002012,"trial_type":"instructions","trial_index":13,"time_elapsed":329828,"internal_node_id":"0.0-5.4-0.4","task_version":"screening-mturk"},{"responses":["True","True","False","False","True"],"num_errors":0,"rt":11168.210000032559,"trial_type":"three-arm-comprehension","trial_index":14,"time_elapsed":341002,"internal_node_id":"0.0-5.4-1.4","task_version":"screening-mturk"},{"view_history":"[{\"page_index\":0,\"viewing_time\":2706.044999882579}]","rt":2706.359999952838,"trial_type":"instructions","trial_index":15,"time_elapsed":343711,"internal_node_id":"0.0-6.0","task_version":"screening-mturk"},{"contexts":["green","blue","red"],"outcomes":[0,0,0],"key":null,"rt":null,"trial":1,"correct":2,"trial_type":"three-arm-trial","trial_index":16,"time_elapsed":358716,"internal_node_id":"0.0-7.0-0.0","task_version":"screening-mturk","missing":true},{"contexts":["green","blue","red"],"outcomes":[0,0,0],"key":null,"rt":null,"trial":1,"correct":2,"trial_type":"three-arm-trial","trial_index":17,"time_elapsed":373720,"internal_node_id":"0.0-7.1-0.1","task_version":"screening-mturk","missing":true},{"contexts":["green","blue","red"],"outcomes":[0,0,0],"key":null,"rt":null,"trial":1,"correct":2,"trial_type":"three-arm-trial","trial_index":18,"time_elapsed":388723,"internal_node_id":"0.0-7.2-0.2","task_version":"screening-mturk","missing":true},{"contexts":["green","blue","red"],"outcomes":[0,0,0],"key":null,"rt":null,"trial":1,"correct":2,"trial_type":"three-arm-trial","trial_index":19,"time_elapsed":403732,"internal_node_id":"0.0-7.3-0.3","task_version":"screening-mturk","missing":true},{"contexts":["green","blue","red"],"outcomes":[0,0,0],"key":null,"rt":null,"trial":1,"correct":2,"trial_type":"three-arm-trial","trial_index":20,"time_elapsed":418736,"internal_node_id":"0.0-7.4-0.4","task_version":"screening-mturk","missing":true},{"contexts":["green","blue","red"],"outcomes":[0,0,0],"key":null,"rt":null,"trial":1,"correct":2,"trial_type":"three-arm-trial","trial_index":21,"time_elapsed":433743,"internal_node_id":"0.0-7.5-0.5","task_version":"screening-mturk","missing":true,"interactions":"[]"}]