[{"responses":{"Q01":"3","Q03":"4","Q02":"3"},"rt":6500,"survey":"pswq","trial_type":"survey-template","trial_index":0,"time_elapsed":6545,"internal_node_id":"0.0-0.0","task_version":"screening-mturk"},{"responses":{"Q08":"2","Q01":"3","Q05":"2","Q03":"1","Q07":"2","Q06":"3","Q04":"3","Q02":"2"},"rt":13118.000000000393,"survey":"gad7","trial_type":"survey-template","trial_index":1,"time_elapsed":19676,"internal_node_id":"0.0-1.0","task_version":"screening-mturk"},{"responses":{"Q11":"2","Q05":"1","Q04":"0","Q01":"2","Q02":"2","Q13":"3","Q14":"2","Q12":"1","Q08":"0","Q15":"2","Q10":"1","Q03":"3","Q09":"2","Q07":"1","Q06":"3"},"rt":21302.999999999884,"survey":"7up7down","trial_type":"survey-template","trial_index":2,"time_elapsed":40994,"internal_node_id":"0.0-2.0","task_version":"screening-mturk"},{"responses":{"Q14":"2","Q03":"1","Q11":"3","Q08":"2","Q12":"2","Q02":"3","Q05":"2","Q13":"3","Q04":"2","Q07":"0","Q06":"1","Q09":"3","Q15":"2","Q10":"2","Q01":"3"},"rt":22542.999999999665,"survey":"shaps","trial_type":"survey-template","trial_index":3,"time_elapsed":63552,"internal_node_id":"0.0-3.0","task_version":"screening-mturk"},{"responses":{"Q09":"2","Q02":"2","Q07":"3","Q11":"1","Q08":"1","Q10":"3","Q12":"3","Q06":"2","Q13":"0","Q04":"1","Q05":"0","Q01":"3","Q03":"2"},"rt":12971.999999999767,"survey":"bisbas","trial_type":"survey-template","trial_index":4,"time_elapsed":76542,"internal_node_id":"0.0-4.0","task_version":"screening-mturk"},{"view_history":"[{\"page_index\":0,\"viewing_time\":2373.0000000004948},{\"page_index\":1,\"viewing_time\":2161.000000000058},{\"page_index\":2,\"viewing_time\":3137.9999999999272},{\"page_index\":3,\"viewing_time\":2498.9999999997963},{\"page_index\":4,\"viewing_time\":1524.9999999996362},{\"page_index\":5,\"viewing_time\":5895.000000000437},{\"page_index\":6,\"viewing_time\":1944.999999999709},{\"page_index\":7,\"viewing_time\":776.0000000007567}]","rt":20314.000000000306,"trial_type":"instructions","trial_index":5,"time_elapsed":96860,"internal_node_id":"0.0-5.0-0.0","task_version":"screening-mturk"},{"responses":["True","True","False","True","True"],"num_errors":1,"rt":10362.000000000087,"trial_type":"three-arm-comprehension","trial_index":6,"time_elapsed":107232,"internal_node_id":"0.0-5.0-1.0","task_version":"screening-mturk"},{"view_history":"[{\"page_index\":0,\"viewing_time\":1189.9999999995925},{\"page_index\":1,\"viewing_time\":1118.0000000004075},{\"page_index\":2,\"viewing_time\":856.9999999999709},{\"page_index\":3,\"viewing_time\":1895.9999999997235},{\"page_index\":4,\"viewing_time\":680.000000000291},{\"page_index\":5,\"viewing_time\":632.9999999998108},{\"page_index\":6,\"viewing_time\":751.0000000002037},{\"page_index\":7,\"viewing_time\":559.9999999995052}]","rt":7686.999999999913,"trial_type":"instructions","trial_index":7,"time_elapsed":114932,"internal_node_id":"0.0-5.1-0.1","task_version":"screening-mturk"},{"responses":["True","False","True","False","True"],"num_errors":2,"rt":11610.999999999884,"trial_type":"three-arm-comprehension","trial_index":8,"time_elapsed":126553,"internal_node_id":"0.0-5.1-1.1","task_version":"screening-mturk"},{"view_history":"[{\"page_index\":0,\"viewing_time\":2677.9999999998836},{\"page_index\":1,\"viewing_time\":6728.000000000058},{\"page_index\":2,\"viewing_time\":728.0000000000582},{\"page_index\":3,\"viewing_time\":512.0000000006403},{\"page_index\":4,\"viewing_time\":599.999999999447},{\"page_index\":5,\"viewing_time\":538.0000000004657},{\"page_index\":6,\"viewing_time\":326.0000000000291},{\"page_index\":7,\"viewing_time\":239.99999999976717}]","rt":12351.000000000582,"trial_type":"instructions","trial_index":9,"time_elapsed":138915,"internal_node_id":"0.0-5.2-0.2","task_version":"screening-mturk"},{"responses":["True","True","False","False","True"],"num_errors":0,"rt":6542.99999999968,"trial_type":"three-arm-comprehension","trial_index":10,"time_elapsed":145467,"internal_node_id":"0.0-5.2-1.2","task_version":"screening-mturk"},{"view_history":"[{\"page_index\":0,\"viewing_time\":5484.99999999968}]","rt":5485.999999999884,"trial_type":"instructions","trial_index":11,"time_elapsed":150963,"internal_node_id":"0.0-6.0","task_version":"screening-mturk"},{"contexts":["green","red","blue"],"outcomes":[1,1,1],"key":null,"rt":null,"trial":1,"correct":0,"trial_type":"three-arm-trial","trial_index":12,"time_elapsed":165975,"internal_node_id":"0.0-7.0-0.0","task_version":"screening-mturk","missing":true},{"contexts":["green","red","blue"],"outcomes":[1,1,1],"key":39,"choice":2,"rt":1647.9999999992142,"outcome":1,"trial":1,"correct":0,"trial_type":"three-arm-trial","trial_index":13,"time_elapsed":168828,"internal_node_id":"0.0-7.1-0.1","task_version":"screening-mturk","missing":false,"accuracy":0},{"contexts":["green","red","blue"],"outcomes":[0,0,0],"key":39,"choice":2,"rt":533.9999999996508,"outcome":0,"trial":2,"correct":0,"trial_type":"three-arm-trial","trial_index":14,"time_elapsed":170571,"internal_node_id":"0.0-8.0-0.0","task_version":"screening-mturk","missing":false,"accuracy":0},{"contexts":["green","red","blue"],"outcomes":[1,1,0],"key":37,"choice":0,"rt":82.99999999965075,"outcome":1,"trial":3,"correct":0,"trial_type":"three-arm-trial","trial_index":15,"time_elapsed":171859,"internal_node_id":"0.0-9.0-0.0","task_version":"screening-mturk","missing":false,"accuracy":1},{"contexts":["green","red","blue"],"outcomes":[1,0,0],"key":37,"choice":0,"rt":425.99999999947613,"outcome":1,"trial":4,"correct":0,"trial_type":"three-arm-trial","trial_index":16,"time_elapsed":173489,"internal_node_id":"0.0-10.0-0.0","task_version":"screening-mturk","missing":false,"accuracy":1},{"contexts":["green","red","blue"],"outcomes":[1,0,0],"key":39,"choice":2,"rt":60.000000000407454,"outcome":0,"trial":5,"correct":0,"trial_type":"three-arm-trial","trial_index":17,"time_elapsed":174755,"internal_node_id":"0.0-11.0-0.0","task_version":"screening-mturk","missing":false,"accuracy":0},{"contexts":["green","red","blue"],"outcomes":[1,0,0],"key":37,"choice":0,"rt":382.9999999998254,"outcome":1,"trial":6,"correct":0,"trial_type":"three-arm-trial","trial_index":18,"time_elapsed":176401,"internal_node_id":"0.0-12.0-0.0","task_version":"screening-mturk","missing":false,"accuracy":1},{"contexts":["green","red","blue"],"outcomes":[1,0,0],"key":37,"choice":0,"rt":554.0000000000873,"outcome":1,"trial":7,"correct":0,"trial_type":"three-arm-trial","trial_index":19,"time_elapsed":178162,"internal_node_id":"0.0-13.0-0.0","task_version":"screening-mturk","missing":false,"accuracy":1},{"contexts":["green","red","blue"],"outcomes":[1,1,0],"key":37,"choice":0,"rt":389.9999999994179,"outcome":1,"trial":8,"correct":0,"trial_type":"three-arm-trial","trial_index":20,"time_elapsed":179758,"internal_node_id":"0.0-14.0-0.0","task_version":"screening-mturk","missing":false,"accuracy":1},{"contexts":["green","red","blue"],"outcomes":[1,0,0],"key":38,"choice":1,"rt":747.000000000291,"outcome":0,"trial":9,"correct":0,"trial_type":"three-arm-trial","trial_index":21,"time_elapsed":181710,"internal_node_id":"0.0-15.0-0.0","task_version":"screening-mturk","missing":false,"accuracy":0},{"contexts":["green","red","blue"],"outcomes":[1,0,0],"key":37,"choice":0,"rt":460.0000000000291,"outcome":1,"trial":10,"correct":0,"trial_type":"three-arm-trial","trial_index":22,"time_elapsed":183377,"internal_node_id":"0.0-16.0-0.0","task_version":"screening-mturk","missing":false,"accuracy":1},{"contexts":["green","red","blue"],"outcomes":[1,1,0],"key":37,"choice":0,"rt":396.0000000006403,"outcome":1,"trial":11,"correct":0,"trial_type":"three-arm-trial","trial_index":23,"time_elapsed":184982,"internal_node_id":"0.0-17.0-0.0","task_version":"screening-mturk","missing":false,"accuracy":1},{"contexts":["green","red","blue"],"outcomes":[1,0,0],"key":37,"choice":0,"rt":7.999999999825377,"outcome":1,"trial":12,"correct":0,"trial_type":"three-arm-trial","trial_index":24,"time_elapsed":186197,"internal_node_id":"0.0-18.0-0.0","task_version":"screening-mturk","missing":false,"accuracy":1},{"contexts":["green","red","blue"],"outcomes":[1,0,0],"key":37,"choice":0,"rt":559.0000000002037,"outcome":1,"trial":13,"correct":0,"trial_type":"three-arm-trial","trial_index":25,"time_elapsed":187964,"internal_node_id":"0.0-19.0-0.0","task_version":"screening-mturk","missing":false,"accuracy":1},{"contexts":["green","red","blue"],"outcomes":[1,1,0],"key":37,"choice":0,"rt":395.99999999973807,"outcome":1,"trial":14,"correct":0,"trial_type":"three-arm-trial","trial_index":26,"time_elapsed":189566,"internal_node_id":"0.0-20.0-0.0","task_version":"screening-mturk","missing":false,"accuracy":1},{"contexts":["green","red","blue"],"outcomes":[1,1,0],"key":37,"choice":0,"rt":404.00000000043656,"outcome":1,"trial":15,"correct":0,"trial_type":"three-arm-trial","trial_index":27,"time_elapsed":191176,"internal_node_id":"0.0-21.0-0.0","task_version":"screening-mturk","missing":false,"accuracy":1},{"contexts":["green","red","blue"],"outcomes":[0,1,1],"key":37,"choice":0,"rt":377.99999999970896,"outcome":0,"trial":16,"correct":2,"trial_type":"three-arm-trial","trial_index":28,"time_elapsed":192761,"internal_node_id":"0.0-22.0-0.0","task_version":"screening-mturk","missing":false,"accuracy":0},{"contexts":["green","red","blue"],"outcomes":[1,0,1],"key":39,"choice":2,"rt":336.00000000026193,"outcome":1,"trial":17,"correct":2,"trial_type":"three-arm-trial","trial_index":29,"time_elapsed":194309,"internal_node_id":"0.0-23.0-0.0","task_version":"screening-mturk","missing":false,"accuracy":1},{"contexts":["green","red","blue"],"outcomes":[0,0,1],"key":39,"choice":2,"rt":47.99999999976717,"outcome":1,"trial":18,"correct":2,"trial_type":"three-arm-trial","trial_index":30,"time_elapsed":195564,"internal_node_id":"0.0-24.0-0.0","task_version":"screening-mturk","missing":false,"accuracy":1},{"contexts":["green","red","blue"],"outcomes":[1,0,0],"key":39,"choice":2,"rt":692,"outcome":0,"trial":19,"correct":2,"trial_type":"three-arm-trial","trial_index":31,"time_elapsed":197461,"internal_node_id":"0.0-25.0-0.0","task_version":"screening-mturk","missing":false,"accuracy":1},{"contexts":["green","red","blue"],"outcomes":[0,1,1],"key":38,"choice":1,"rt":192,"outcome":1,"trial":20,"correct":2,"trial_type":"three-arm-trial","trial_index":32,"time_elapsed":198858,"internal_node_id":"0.0-26.0-0.0","task_version":"screening-mturk","missing":false,"accuracy":0},{"contexts":["green","red","blue"],"outcomes":[0,0,1],"key":38,"choice":1,"rt":104.99999999959255,"outcome":0,"trial":21,"correct":2,"trial_type":"three-arm-trial","trial_index":33,"time_elapsed":200174,"internal_node_id":"0.0-27.0-0.0","task_version":"screening-mturk","missing":false,"accuracy":0},{"contexts":["green","red","blue"],"outcomes":[0,1,1],"key":37,"choice":0,"rt":46.99999999956344,"outcome":0,"trial":22,"correct":2,"trial_type":"three-arm-trial","trial_index":34,"time_elapsed":201435,"internal_node_id":"0.0-28.0-0.0","task_version":"screening-mturk","missing":false,"accuracy":0},{"contexts":["green","red","blue"],"outcomes":[0,1,1],"key":39,"choice":2,"rt":693.0000000002037,"outcome":1,"trial":23,"correct":2,"trial_type":"three-arm-trial","trial_index":35,"time_elapsed":203334,"internal_node_id":"0.0-29.0-0.0","task_version":"screening-mturk","missing":false,"accuracy":1},{"contexts":["green","red","blue"],"outcomes":[0,0,1],"key":39,"choice":2,"rt":1006.0000000003201,"outcome":1,"trial":24,"correct":2,"trial_type":"three-arm-trial","trial_index":36,"time_elapsed":205546,"internal_node_id":"0.0-30.0-0.0","task_version":"screening-mturk","missing":false,"accuracy":1},{"contexts":["green","red","blue"],"outcomes":[1,0,0],"key":39,"choice":2,"rt":389.0000000001164,"outcome":0,"trial":25,"correct":2,"trial_type":"three-arm-trial","trial_index":37,"time_elapsed":207143,"internal_node_id":"0.0-31.0-0.0","task_version":"screening-mturk","missing":false,"accuracy":1},{"contexts":["green","red","blue"],"outcomes":[1,0,0],"key":38,"choice":1,"rt":2454.999999999942,"outcome":0,"trial":26,"correct":2,"trial_type":"three-arm-trial","trial_index":38,"time_elapsed":210805,"internal_node_id":"0.0-32.0-0.0","task_version":"screening-mturk","missing":false,"accuracy":0},{"contexts":["green","red","blue"],"outcomes":[0,0,1],"key":37,"choice":0,"rt":2.9999999997089617,"outcome":0,"trial":27,"correct":2,"trial_type":"three-arm-trial","trial_index":39,"time_elapsed":212015,"internal_node_id":"0.0-33.0-0.0","task_version":"screening-mturk","missing":false,"accuracy":0},{"contexts":["green","red","blue"],"outcomes":[0,0,1],"key":37,"choice":0,"rt":903.9999999995343,"outcome":0,"trial":28,"correct":2,"trial_type":"three-arm-trial","trial_index":40,"time_elapsed":214126,"internal_node_id":"0.0-34.0-0.0","task_version":"screening-mturk","missing":false,"accuracy":0},{"contexts":["green","red","blue"],"outcomes":[1,0,1],"key":37,"choice":0,"rt":283.99999999965075,"outcome":1,"trial":29,"correct":2,"trial_type":"three-arm-trial","trial_index":41,"time_elapsed":215617,"internal_node_id":"0.0-35.0-0.0","task_version":"screening-mturk","missing":false,"accuracy":0},{"contexts":["green","red","blue"],"outcomes":[0,0,1],"key":37,"choice":0,"rt":183.9999999992724,"outcome":0,"trial":30,"correct":2,"trial_type":"three-arm-trial","trial_index":42,"time_elapsed":217011,"internal_node_id":"0.0-36.0-0.0","task_version":"screening-mturk","missing":false,"accuracy":0},{"contexts":["green","red","blue"],"outcomes":[0,0,1],"key":38,"choice":1,"rt":101.99999999985448,"outcome":0,"trial":31,"correct":0,"trial_type":"three-arm-trial","trial_index":43,"time_elapsed":218330,"internal_node_id":"0.0-37.0-0.0","task_version":"screening-mturk","missing":false,"accuracy":0},{"contexts":["green","red","blue"],"outcomes":[1,0,0],"key":38,"choice":1,"rt":648.0000000001164,"outcome":0,"trial":32,"correct":0,"trial_type":"three-arm-trial","trial_index":44,"time_elapsed":220185,"internal_node_id":"0.0-38.0-0.0","task_version":"screening-mturk","missing":false,"accuracy":0},{"contexts":["green","red","blue"],"outcomes":[1,0,1],"key":38,"choice":1,"rt":4132.999999999796,"outcome":0,"trial":33,"correct":0,"trial_type":"three-arm-trial","trial_index":45,"time_elapsed":225529,"internal_node_id":"0.0-39.0-0.0","task_version":"screening-mturk","missing":false,"accuracy":0},{"contexts":["green","red","blue"],"outcomes":[1,1,1],"key":39,"choice":2,"rt":527.0000000000291,"outcome":1,"trial":34,"correct":0,"trial_type":"three-arm-trial","trial_index":46,"time_elapsed":227268,"internal_node_id":"0.0-40.0-0.0","task_version":"screening-mturk","missing":false,"accuracy":0},{"contexts":["green","red","blue"],"outcomes":[1,0,0],"key":39,"choice":2,"rt":1055.9999999995925,"outcome":0,"trial":35,"correct":0,"trial_type":"three-arm-trial","trial_index":47,"time_elapsed":229535,"internal_node_id":"0.0-41.0-0.0","task_version":"screening-mturk","missing":false,"accuracy":0},{"contexts":["green","red","blue"],"outcomes":[1,0,1],"key":39,"choice":2,"rt":564.000000000291,"outcome":1,"trial":36,"correct":0,"trial_type":"three-arm-trial","trial_index":48,"time_elapsed":231306,"internal_node_id":"0.0-42.0-0.0","task_version":"screening-mturk","missing":false,"accuracy":0},{"contexts":["green","red","blue"],"outcomes":[1,0,0],"key":39,"choice":2,"rt":502.99999999970896,"outcome":0,"trial":37,"correct":0,"trial_type":"three-arm-trial","trial_index":49,"time_elapsed":233020,"internal_node_id":"0.0-43.0-0.0","task_version":"screening-mturk","missing":false,"accuracy":0},{"contexts":["green","red","blue"],"outcomes":[1,0,0],"key":37,"choice":0,"rt":384.0000000000291,"outcome":1,"trial":38,"correct":0,"trial_type":"three-arm-trial","trial_index":50,"time_elapsed":234610,"internal_node_id":"0.0-44.0-0.0","task_version":"screening-mturk","missing":false,"accuracy":1},{"contexts":["green","red","blue"],"outcomes":[1,0,0],"key":37,"choice":0,"rt":328.00000000043656,"outcome":1,"trial":39,"correct":0,"trial_type":"three-arm-trial","trial_index":51,"time_elapsed":236144,"internal_node_id":"0.0-45.0-0.0","task_version":"screening-mturk","missing":false,"accuracy":1},{"contexts":["green","red","blue"],"outcomes":[1,1,0],"key":37,"choice":0,"rt":341.99999999965075,"outcome":1,"trial":40,"correct":0,"trial_type":"three-arm-trial","trial_index":52,"time_elapsed":237690,"internal_node_id":"0.0-46.0-0.0","task_version":"screening-mturk","missing":false,"accuracy":1},{"contexts":["green","red","blue"],"outcomes":[0,0,1],"key":37,"choice":0,"rt":353.9999999993597,"outcome":0,"trial":41,"correct":0,"trial_type":"three-arm-trial","trial_index":53,"time_elapsed":239250,"internal_node_id":"0.0-47.0-0.0","task_version":"screening-mturk","missing":false,"accuracy":1},{"contexts":["green","red","blue"],"outcomes":[1,0,0],"key":38,"choice":1,"rt":484.99999999967986,"outcome":0,"trial":42,"correct":0,"trial_type":"three-arm-trial","trial_index":54,"time_elapsed":240941,"internal_node_id":"0.0-48.0-0.0","task_version":"screening-mturk","missing":false,"accuracy":0},{"contexts":["green","red","blue"],"outcomes":[1,1,0],"key":38,"choice":1,"rt":319.00000000040745,"outcome":1,"trial":43,"correct":0,"trial_type":"three-arm-trial","trial_index":55,"time_elapsed":242476,"internal_node_id":"0.0-49.0-0.0","task_version":"screening-mturk","missing":false,"accuracy":0},{"contexts":["green","red","blue"],"outcomes":[1,0,0],"key":38,"choice":1,"rt":305.99999999956344,"outcome":0,"trial":44,"correct":0,"trial_type":"three-arm-trial","trial_index":56,"time_elapsed":243989,"internal_node_id":"0.0-50.0-0.0","task_version":"screening-mturk","missing":false,"accuracy":0},{"contexts":["green","red","blue"],"outcomes":[1,0,0],"key":39,"choice":2,"rt":198.00000000032014,"outcome":0,"trial":45,"correct":0,"trial_type":"three-arm-trial","trial_index":57,"time_elapsed":245404,"internal_node_id":"0.0-51.0-0.0","task_version":"screening-mturk","missing":false,"accuracy":0},{"contexts":["green","red","blue"],"outcomes":[0,0,1],"key":39,"choice":2,"rt":313.0000000000873,"outcome":1,"trial":46,"correct":2,"trial_type":"three-arm-trial","trial_index":58,"time_elapsed":246925,"internal_node_id":"0.0-52.0-0.0","task_version":"screening-mturk","missing":false,"accuracy":1},{"contexts":["green","red","blue"],"outcomes":[0,0,1],"key":39,"choice":2,"rt":376.99999999947613,"outcome":1,"trial":47,"correct":2,"trial_type":"three-arm-trial","trial_index":59,"time_elapsed":248510,"internal_node_id":"0.0-53.0-0.0","task_version":"screening-mturk","missing":false,"accuracy":1},{"contexts":["green","red","blue"],"outcomes":[1,0,1],"key":39,"choice":2,"rt":408.00000000040745,"outcome":1,"trial":48,"correct":2,"trial_type":"three-arm-trial","trial_index":60,"time_elapsed":250124,"internal_node_id":"0.0-54.0-0.0","task_version":"screening-mturk","missing":false,"accuracy":1},{"contexts":["green","red","blue"],"outcomes":[0,0,1],"key":39,"choice":2,"rt":360.0000000005821,"outcome":1,"trial":49,"correct":2,"trial_type":"three-arm-trial","trial_index":61,"time_elapsed":251691,"internal_node_id":"0.0-55.0-0.0","task_version":"screening-mturk","missing":false,"accuracy":1},{"contexts":["green","red","blue"],"outcomes":[0,0,1],"key":39,"choice":2,"rt":384,"outcome":1,"trial":50,"correct":2,"trial_type":"three-arm-trial","trial_index":62,"time_elapsed":253282,"internal_node_id":"0.0-56.0-0.0","task_version":"screening-mturk","missing":false,"accuracy":1},{"contexts":["green","red","blue"],"outcomes":[0,0,1],"key":39,"choice":2,"rt":381.00000000034925,"outcome":1,"trial":51,"correct":2,"trial_type":"three-arm-trial","trial_index":63,"time_elapsed":254869,"internal_node_id":"0.0-57.0-0.0","task_version":"screening-mturk","missing":false,"accuracy":1},{"contexts":["green","red","blue"],"outcomes":[0,0,1],"key":39,"choice":2,"rt":335.0000000000582,"outcome":1,"trial":52,"correct":2,"trial_type":"three-arm-trial","trial_index":64,"time_elapsed":256447,"internal_node_id":"0.0-58.0-0.0","task_version":"screening-mturk","missing":false,"accuracy":1},{"contexts":["green","red","blue"],"outcomes":[0,1,1],"key":39,"choice":2,"rt":586.9999999995343,"outcome":1,"trial":53,"correct":2,"trial_type":"three-arm-trial","trial_index":65,"time_elapsed":258242,"internal_node_id":"0.0-59.0-0.0","task_version":"screening-mturk","missing":false,"accuracy":1},{"contexts":["green","red","blue"],"outcomes":[0,0,0],"key":39,"choice":2,"rt":421.99999999959255,"outcome":0,"trial":54,"correct":2,"trial_type":"three-arm-trial","trial_index":66,"time_elapsed":259870,"internal_node_id":"0.0-60.0-0.0","task_version":"screening-mturk","missing":false,"accuracy":1},{"contexts":["green","red","blue"],"outcomes":[0,0,1],"key":37,"choice":0,"rt":588.9999999999418,"outcome":0,"trial":55,"correct":2,"trial_type":"three-arm-trial","trial_index":67,"time_elapsed":261667,"internal_node_id":"0.0-61.0-0.0","task_version":"screening-mturk","missing":false,"accuracy":0},{"contexts":["green","red","blue"],"outcomes":[1,0,1],"key":37,"choice":0,"rt":52.000000000640284,"outcome":1,"trial":56,"correct":2,"trial_type":"three-arm-trial","trial_index":68,"time_elapsed":262924,"internal_node_id":"0.0-62.0-0.0","task_version":"screening-mturk","missing":false,"accuracy":0},{"contexts":["green","red","blue"],"outcomes":[0,0,1],"key":37,"choice":0,"rt":400.0000000005821,"outcome":0,"trial":57,"correct":2,"trial_type":"three-arm-trial","trial_index":69,"time_elapsed":264533,"internal_node_id":"0.0-63.0-0.0","task_version":"screening-mturk","missing":false,"accuracy":0},{"contexts":["green","red","blue"],"outcomes":[0,0,1],"key":38,"choice":1,"rt":567,"outcome":0,"trial":58,"correct":2,"trial_type":"three-arm-trial","trial_index":70,"time_elapsed":266308,"internal_node_id":"0.0-64.0-0.0","task_version":"screening-mturk","missing":false,"accuracy":0},{"contexts":["green","red","blue"],"outcomes":[0,0,1],"key":38,"choice":1,"rt":847.9999999999418,"outcome":0,"trial":59,"correct":2,"trial_type":"three-arm-trial","trial_index":71,"time_elapsed":268361,"internal_node_id":"0.0-65.0-0.0","task_version":"screening-mturk","missing":false,"accuracy":0},{"contexts":["green","red","blue"],"outcomes":[0,0,1],"key":39,"choice":2,"rt":534.9999999998836,"outcome":1,"trial":60,"correct":2,"trial_type":"three-arm-trial","trial_index":72,"time_elapsed":270105,"internal_node_id":"0.0-66.0-0.0","task_version":"screening-mturk","missing":false,"accuracy":1},{"contexts":["green","red","blue"],"outcomes":[1,0,0],"key":39,"choice":2,"rt":387.9999999999418,"outcome":0,"trial":61,"correct":0,"trial_type":"three-arm-trial","trial_index":73,"time_elapsed":271707,"internal_node_id":"0.0-67.0-0.0","task_version":"screening-mturk","missing":false,"accuracy":0},{"contexts":["green","red","blue"],"outcomes":[0,0,0],"key":39,"choice":2,"rt":485.9999999998836,"outcome":0,"trial":62,"correct":0,"trial_type":"three-arm-trial","trial_index":74,"time_elapsed":273398,"internal_node_id":"0.0-68.0-0.0","task_version":"screening-mturk","missing":false,"accuracy":0},{"contexts":["green","red","blue"],"outcomes":[1,0,0],"key":37,"choice":0,"rt":560.0000000004075,"outcome":1,"trial":63,"correct":0,"trial_type":"three-arm-trial","trial_index":75,"time_elapsed":275168,"internal_node_id":"0.0-69.0-0.0","task_version":"screening-mturk","missing":false,"accuracy":1},{"contexts":["green","red","blue"],"outcomes":[1,0,0],"key":37,"choice":0,"rt":533.0000000003492,"outcome":1,"trial":64,"correct":0,"trial_type":"three-arm-trial","trial_index":76,"time_elapsed":276907,"internal_node_id":"0.0-70.0-0.0","task_version":"screening-mturk","missing":false,"accuracy":1},{"contexts":["green","red","blue"],"outcomes":[1,0,0],"key":37,"choice":0,"rt":387.9999999998836,"outcome":1,"trial":65,"correct":0,"trial_type":"three-arm-trial","trial_index":77,"time_elapsed":278503,"internal_node_id":"0.0-71.0-0.0","task_version":"screening-mturk","missing":false,"accuracy":1},{"contexts":["green","red","blue"],"outcomes":[1,0,0],"key":37,"choice":0,"rt":365.9999999999418,"outcome":1,"trial":66,"correct":0,"trial_type":"three-arm-trial","trial_index":78,"time_elapsed":280077,"internal_node_id":"0.0-72.0-0.0","task_version":"screening-mturk","missing":false,"accuracy":1},{"contexts":["green","red","blue"],"outcomes":[1,0,0],"key":37,"choice":0,"rt":747.9999999995925,"outcome":1,"trial":67,"correct":0,"trial_type":"three-arm-trial","trial_index":79,"time_elapsed":282056,"internal_node_id":"0.0-73.0-0.0","task_version":"screening-mturk","missing":false,"accuracy":1},{"contexts":["green","red","blue"],"outcomes":[0,0,1],"key":37,"choice":0,"rt":314.00000000029104,"outcome":0,"trial":68,"correct":0,"trial_type":"three-arm-trial","trial_index":80,"time_elapsed":283579,"internal_node_id":"0.0-74.0-0.0","task_version":"screening-mturk","missing":false,"accuracy":1},{"contexts":["green","red","blue"],"outcomes":[1,0,1],"key":39,"choice":2,"rt":460.0000000000582,"outcome":1,"trial":69,"correct":0,"trial_type":"three-arm-trial","trial_index":81,"time_elapsed":285252,"internal_node_id":"0.0-75.0-0.0","task_version":"screening-mturk","missing":false,"accuracy":0},{"contexts":["green","red","blue"],"outcomes":[1,0,0],"key":39,"choice":2,"rt":217.00000000058208,"outcome":0,"trial":70,"correct":0,"trial_type":"three-arm-trial","trial_index":82,"time_elapsed":286674,"internal_node_id":"0.0-76.0-0.0","task_version":"screening-mturk","missing":false,"accuracy":0},{"contexts":["green","red","blue"],"outcomes":[0,0,0],"key":39,"choice":2,"rt":324.9999999998254,"outcome":0,"trial":71,"correct":0,"trial_type":"three-arm-trial","trial_index":83,"time_elapsed":288204,"internal_node_id":"0.0-77.0-0.0","task_version":"screening-mturk","missing":false,"accuracy":0},{"contexts":["green","red","blue"],"outcomes":[0,0,0],"key":39,"choice":2,"rt":319.00000000040745,"outcome":0,"trial":72,"correct":0,"trial_type":"three-arm-trial","trial_index":84,"time_elapsed":289730,"internal_node_id":"0.0-78.0-0.0","task_version":"screening-mturk","missing":false,"accuracy":0},{"contexts":["green","red","blue"],"outcomes":[1,0,0],"key":39,"choice":2,"rt":220.00000000023283,"outcome":0,"trial":73,"correct":0,"trial_type":"three-arm-trial","trial_index":85,"time_elapsed":291158,"internal_node_id":"0.0-79.0-0.0","task_version":"screening-mturk","missing":false,"accuracy":0},{"contexts":["green","red","blue"],"outcomes":[1,1,0],"key":38,"choice":1,"rt":338.9999999999418,"outcome":1,"trial":74,"correct":0,"trial_type":"three-arm-trial","trial_index":86,"time_elapsed":292704,"internal_node_id":"0.0-80.0-0.0","task_version":"screening-mturk","missing":false,"accuracy":0},{"contexts":["green","red","blue"],"outcomes":[0,0,0],"key":38,"choice":1,"rt":347.9999999999418,"outcome":0,"trial":75,"correct":0,"trial_type":"three-arm-trial","trial_index":87,"time_elapsed":294261,"internal_node_id":"0.0-81.0-0.0","task_version":"screening-mturk","missing":false,"accuracy":0},{"contexts":["green","red","blue"],"outcomes":[0,1,0],"key":37,"choice":0,"rt":453.99999999976717,"outcome":0,"trial":76,"correct":1,"trial_type":"three-arm-trial","trial_index":88,"time_elapsed":295942,"internal_node_id":"0.0-82.0-0.0","task_version":"screening-mturk","missing":false,"accuracy":0},{"contexts":["green","red","blue"],"outcomes":[0,1,0],"key":37,"choice":0,"rt":372.00000000034925,"outcome":0,"trial":77,"correct":1,"trial_type":"three-arm-trial","trial_index":89,"time_elapsed":297520,"internal_node_id":"0.0-83.0-0.0","task_version":"screening-mturk","missing":false,"accuracy":0},{"contexts":["green","red","blue"],"outcomes":[0,0,0],"key":39,"choice":2,"rt":398.0000000001164,"outcome":0,"trial":78,"correct":1,"trial_type":"three-arm-trial","trial_index":90,"time_elapsed":299132,"internal_node_id":"0.0-84.0-0.0","task_version":"screening-mturk","missing":false,"accuracy":0},{"contexts":["green","red","blue"],"outcomes":[0,1,0],"key":38,"choice":1,"rt":590.0000000001746,"outcome":1,"trial":79,"correct":1,"trial_type":"three-arm-trial","trial_index":91,"time_elapsed":300928,"internal_node_id":"0.0-85.0-0.0","task_version":"screening-mturk","missing":false,"accuracy":1},{"contexts":["green","red","blue"],"outcomes":[1,1,0],"key":38,"choice":1,"rt":323.99999999959255,"outcome":1,"trial":80,"correct":1,"trial_type":"three-arm-trial","trial_index":92,"time_elapsed":302459,"internal_node_id":"0.0-86.0-0.0","task_version":"screening-mturk","missing":false,"accuracy":1},{"contexts":["green","red","blue"],"outcomes":[0,1,0],"key":38,"choice":1,"rt":220.00000000029104,"outcome":1,"trial":81,"correct":1,"trial_type":"three-arm-trial","trial_index":93,"time_elapsed":303884,"internal_node_id":"0.0-87.0-0.0","task_version":"screening-mturk","missing":false,"accuracy":1},{"contexts":["green","red","blue"],"outcomes":[0,1,1],"key":38,"choice":1,"rt":313.0000000001164,"outcome":1,"trial":82,"correct":1,"trial_type":"three-arm-trial","trial_index":94,"time_elapsed":305403,"internal_node_id":"0.0-88.0-0.0","task_version":"screening-mturk","missing":false,"accuracy":1},{"contexts":["green","red","blue"],"outcomes":[0,1,0],"key":38,"choice":1,"rt":73.99999999959255,"outcome":1,"trial":83,"correct":1,"trial_type":"three-arm-trial","trial_index":95,"time_elapsed":306686,"internal_node_id":"0.0-89.0-0.0","task_version":"screening-mturk","missing":false,"accuracy":1},{"contexts":["green","red","blue"],"outcomes":[0,0,0],"key":38,"choice":1,"rt":30.999999999941792,"outcome":0,"trial":84,"correct":1,"trial_type":"three-arm-trial","trial_index":96,"time_elapsed":307922,"internal_node_id":"0.0-90.0-0.0","task_version":"screening-mturk","missing":false,"accuracy":1},{"contexts":["green","red","blue"],"outcomes":[0,0,1],"key":37,"choice":0,"rt":1012.9999999998836,"outcome":0,"trial":85,"correct":1,"trial_type":"three-arm-trial","trial_index":97,"time_elapsed":310149,"internal_node_id":"0.0-91.0-0.0","task_version":"screening-mturk","missing":false,"accuracy":0},{"contexts":["green","red","blue"],"outcomes":[0,1,0],"key":37,"choice":0,"rt":69.00000000040745,"outcome":0,"trial":86,"correct":1,"trial_type":"three-arm-trial","trial_index":98,"time_elapsed":311423,"internal_node_id":"0.0-92.0-0.0","task_version":"screening-mturk","missing":false,"accuracy":0},{"contexts":["green","red","blue"],"outcomes":[0,1,0],"key":37,"choice":0,"rt":474.0000000001746,"outcome":0,"trial":87,"correct":1,"trial_type":"three-arm-trial","trial_index":99,"time_elapsed":313104,"internal_node_id":"0.0-93.0-0.0","task_version":"screening-mturk","missing":false,"accuracy":0},{"contexts":["green","red","blue"],"outcomes":[1,1,0],"key":38,"choice":1,"rt":323.99999999965075,"outcome":1,"trial":88,"correct":1,"trial_type":"three-arm-trial","trial_index":100,"time_elapsed":314636,"internal_node_id":"0.0-94.0-0.0","task_version":"screening-mturk","missing":false,"accuracy":1},{"contexts":["green","red","blue"],"outcomes":[0,1,0],"key":38,"choice":1,"rt":235.99999999982538,"outcome":1,"trial":89,"correct":1,"trial_type":"three-arm-trial","trial_index":101,"time_elapsed":316078,"internal_node_id":"0.0-95.0-0.0","task_version":"screening-mturk","missing":false,"accuracy":1},{"contexts":["green","red","blue"],"outcomes":[0,0,0],"key":38,"choice":1,"rt":216.99999999965075,"outcome":0,"trial":90,"correct":1,"trial_type":"three-arm-trial","trial_index":102,"time_elapsed":317500,"internal_node_id":"0.0-96.0-0.0","task_version":"screening-mturk","missing":false,"accuracy":1},{"rt":21763.999999999243,"responses":{"age":"28","gender-categorical":"Male","gender-free-response":"","ethnicity":"Not Hispanic or Latino","race":["White"],"language":"Yes","fluency":"Very well","prolific":"Yes","prolific-this-study":"Yes"},"survey":"demographics","trial_type":"survey-demo","trial_index":103,"time_elapsed":339280,"internal_node_id":"0.0-97.0","task_version":"screening-mturk","interactions":"[{\"event\":\"focus\",\"trial\":0,\"time\":0},{\"event\":\"blur\",\"trial\":0,\"time\":0},{\"event\":\"focus\",\"trial\":0,\"time\":0},{\"event\":\"blur\",\"trial\":0,\"time\":0},{\"event\":\"focus\",\"trial\":0,\"time\":0},{\"event\":\"blur\",\"trial\":9,\"time\":132980},{\"event\":\"focus\",\"trial\":9,\"time\":134597},{\"event\":\"blur\",\"trial\":44,\"time\":219560},{\"event\":\"focus\",\"trial\":45,\"time\":222888}]"}]