[{"responses":{"Q15":"2","Q10":"3","Q07":"3","Q01":"3","Q05":"3","Q09":"3","Q14":"1","Q02":"2","Q11":"2","Q04":"0","Q06":"2","Q03":"2","Q13":"2","Q08":"2","Q12":"2"},"rt":65719.90499994718,"survey":"shaps","trial_type":"survey-template","trial_index":0,"time_elapsed":65748,"internal_node_id":"0.0-0.0","task_version":"screening-mturk"},{"responses":{"Q02":"4","Q03":"4","Q01":"4"},"rt":8322.355000069365,"survey":"pswq","trial_type":"survey-template","trial_index":1,"time_elapsed":74074,"internal_node_id":"0.0-1.0","task_version":"screening-mturk"},{"responses":{"Q03":"3","Q06":"0","Q01":"3","Q05":"0","Q07":"0","Q04":"0","Q08":"0","Q02":"2"},"rt":23490.879999939352,"survey":"gad7","trial_type":"survey-template","trial_index":2,"time_elapsed":97570,"internal_node_id":"0.0-2.0","task_version":"screening-mturk"},{"responses":{"Q08":"0","Q13":"0","Q04":"0","Q02":"2","Q06":"0","Q01":"0","Q12":"2","Q09":"3","Q14":"2","Q05":"2","Q10":"2","Q15":"0","Q11":"2","Q07":"1","Q03":"0"},"rt":83292.30500000995,"survey":"7up7down","trial_type":"survey-template","trial_index":3,"time_elapsed":180870,"internal_node_id":"0.0-3.0","task_version":"screening-mturk"},{"responses":{"Q05":"0","Q13":"3","Q10":"0","Q07":"2","Q06":"2","Q03":"2","Q08":"1","Q09":"0","Q12":"0","Q11":"0","Q01":"3","Q02":"3","Q04":"3"},"rt":58922.710000071675,"survey":"bisbas","trial_type":"survey-template","trial_index":4,"time_elapsed":239799,"internal_node_id":"0.0-4.0","task_version":"screening-mturk"},{"view_history":"[{\"page_index\":0,\"viewing_time\":7498.775000101887},{\"page_index\":1,\"viewing_time\":12895.610000006855},{\"page_index\":2,\"viewing_time\":11871.944999904372},{\"page_index\":3,\"viewing_time\":8663.900000043213},{\"page_index\":4,\"viewing_time\":8504.8999999417},{\"page_index\":5,\"viewing_time\":4918.08500001207},{\"page_index\":6,\"viewing_time\":7993.164999992587},{\"page_index\":7,\"viewing_time\":5679.400000022724}]","rt":68027.16000005603,"trial_type":"instructions","trial_index":5,"time_elapsed":307830,"internal_node_id":"0.0-5.0-0.0","task_version":"screening-mturk"},{"responses":["True","True","False","False","True"],"num_errors":0,"rt":20211.95499994792,"trial_type":"three-arm-comprehension","trial_index":6,"time_elapsed":328048,"internal_node_id":"0.0-5.0-1.0","task_version":"screening-mturk"},{"view_history":"[{\"page_index\":0,\"viewing_time\":2569.450000068173}]","rt":2569.9200000381097,"trial_type":"instructions","trial_index":7,"time_elapsed":330622,"internal_node_id":"0.0-6.0","task_version":"screening-mturk"},{"contexts":["red","green","blue"],"outcomes":[1,0,1],"key":null,"rt":null,"trial":1,"correct":0,"trial_type":"three-arm-trial","trial_index":8,"time_elapsed":345634,"internal_node_id":"0.0-7.0-0.0","task_version":"screening-mturk","missing":true},{"contexts":["red","green","blue"],"outcomes":[1,0,1],"key":null,"rt":null,"trial":1,"correct":0,"trial_type":"three-arm-trial","trial_index":9,"time_elapsed":360642,"internal_node_id":"0.0-7.1-0.1","task_version":"screening-mturk","missing":true},{"contexts":["red","green","blue"],"outcomes":[1,0,1],"key":null,"rt":null,"trial":1,"correct":0,"trial_type":"three-arm-trial","trial_index":10,"time_elapsed":375648,"internal_node_id":"0.0-7.2-0.2","task_version":"screening-mturk","missing":true},{"contexts":["red","green","blue"],"outcomes":[1,0,1],"key":39,"choice":2,"rt":2977.8550000628456,"outcome":1,"trial":1,"correct":0,"trial_type":"three-arm-trial","trial_index":11,"time_elapsed":379832,"internal_node_id":"0.0-7.3-0.3","task_version":"screening-mturk","missing":false,"accuracy":0},{"contexts":["red","green","blue"],"outcomes":[1,0,0],"key":39,"choice":2,"rt":2583.3449999336153,"outcome":0,"trial":2,"correct":0,"trial_type":"three-arm-trial","trial_index":12,"time_elapsed":383619,"internal_node_id":"0.0-8.0-0.0","task_version":"screening-mturk","missing":false,"accuracy":0},{"contexts":["red","green","blue"],"outcomes":[1,0,0],"key":37,"choice":0,"rt":917.8049999754876,"outcome":1,"trial":3,"correct":0,"trial_type":"three-arm-trial","trial_index":13,"time_elapsed":385742,"internal_node_id":"0.0-9.0-0.0","task_version":"screening-mturk","missing":false,"accuracy":1},{"contexts":["red","green","blue"],"outcomes":[1,0,0],"key":37,"choice":0,"rt":707.5600000098348,"outcome":1,"trial":4,"correct":0,"trial_type":"three-arm-trial","trial_index":14,"time_elapsed":387652,"internal_node_id":"0.0-10.0-0.0","task_version":"screening-mturk","missing":false,"accuracy":1},{"contexts":["red","green","blue"],"outcomes":[1,0,1],"key":37,"choice":0,"rt":522.2000000067055,"outcome":1,"trial":5,"correct":0,"trial_type":"three-arm-trial","trial_index":15,"time_elapsed":389378,"internal_node_id":"0.0-11.0-0.0","task_version":"screening-mturk","missing":false,"accuracy":1},{"contexts":["red","green","blue"],"outcomes":[1,0,0],"key":37,"choice":0,"rt":583.6549999658018,"outcome":1,"trial":6,"correct":0,"trial_type":"three-arm-trial","trial_index":16,"time_elapsed":391165,"internal_node_id":"0.0-12.0-0.0","task_version":"screening-mturk","missing":false,"accuracy":1},{"contexts":["red","green","blue"],"outcomes":[0,0,0],"key":37,"choice":0,"rt":1030.7999999495223,"outcome":0,"trial":7,"correct":0,"trial_type":"three-arm-trial","trial_index":17,"time_elapsed":393401,"internal_node_id":"0.0-13.0-0.0","task_version":"screening-mturk","missing":false,"accuracy":1},{"contexts":["red","green","blue"],"outcomes":[0,0,0],"key":38,"choice":1,"rt":687.9600000102073,"outcome":0,"trial":8,"correct":0,"trial_type":"three-arm-trial","trial_index":18,"time_elapsed":395292,"internal_node_id":"0.0-14.0-0.0","task_version":"screening-mturk","missing":false,"accuracy":0},{"contexts":["red","green","blue"],"outcomes":[1,0,0],"key":39,"choice":2,"rt":369.0949999727309,"outcome":0,"trial":9,"correct":0,"trial_type":"three-arm-trial","trial_index":19,"time_elapsed":396865,"internal_node_id":"0.0-15.0-0.0","task_version":"screening-mturk","missing":false,"accuracy":0},{"contexts":["red","green","blue"],"outcomes":[1,0,0],"key":37,"choice":0,"rt":225.6500000366941,"outcome":1,"trial":10,"correct":0,"trial_type":"three-arm-trial","trial_index":20,"time_elapsed":398296,"internal_node_id":"0.0-16.0-0.0","task_version":"screening-mturk","missing":false,"accuracy":1},{"contexts":["red","green","blue"],"outcomes":[1,0,1],"key":37,"choice":0,"rt":412.55999996792525,"outcome":1,"trial":11,"correct":0,"trial_type":"three-arm-trial","trial_index":21,"time_elapsed":399912,"internal_node_id":"0.0-17.0-0.0","task_version":"screening-mturk","missing":false,"accuracy":1},{"contexts":["red","green","blue"],"outcomes":[1,1,0],"key":37,"choice":0,"rt":400.35000001080334,"outcome":1,"trial":12,"correct":0,"trial_type":"three-arm-trial","trial_index":22,"time_elapsed":401515,"internal_node_id":"0.0-18.0-0.0","task_version":"screening-mturk","missing":false,"accuracy":1},{"contexts":["red","green","blue"],"outcomes":[1,0,0],"key":37,"choice":0,"rt":576.729999971576,"outcome":1,"trial":13,"correct":0,"trial_type":"three-arm-trial","trial_index":23,"time_elapsed":403296,"internal_node_id":"0.0-19.0-0.0","task_version":"screening-mturk","missing":false,"accuracy":1},{"contexts":["red","green","blue"],"outcomes":[0,0,0],"key":37,"choice":0,"rt":448.9300000714138,"outcome":0,"trial":14,"correct":0,"trial_type":"three-arm-trial","trial_index":24,"time_elapsed":404950,"internal_node_id":"0.0-20.0-0.0","task_version":"screening-mturk","missing":false,"accuracy":1},{"contexts":["red","green","blue"],"outcomes":[1,0,0],"key":37,"choice":0,"rt":376.4649999793619,"outcome":1,"trial":15,"correct":0,"trial_type":"three-arm-trial","trial_index":25,"time_elapsed":406530,"internal_node_id":"0.0-21.0-0.0","task_version":"screening-mturk","missing":false,"accuracy":1},{"contexts":["red","green","blue"],"outcomes":[0,1,0],"key":37,"choice":0,"rt":393.2649999624118,"outcome":0,"trial":16,"correct":1,"trial_type":"three-arm-trial","trial_index":26,"time_elapsed":408127,"internal_node_id":"0.0-22.0-0.0","task_version":"screening-mturk","missing":false,"accuracy":0},{"contexts":["red","green","blue"],"outcomes":[0,1,0],"key":37,"choice":0,"rt":442.46499997098,"outcome":0,"trial":17,"correct":1,"trial_type":"three-arm-trial","trial_index":27,"time_elapsed":409773,"internal_node_id":"0.0-23.0-0.0","task_version":"screening-mturk","missing":false,"accuracy":0},{"contexts":["red","green","blue"],"outcomes":[0,1,0],"key":39,"choice":2,"rt":734.4649999868125,"outcome":0,"trial":18,"correct":1,"trial_type":"three-arm-trial","trial_index":28,"time_elapsed":411711,"internal_node_id":"0.0-24.0-0.0","task_version":"screening-mturk","missing":false,"accuracy":0},{"contexts":["red","green","blue"],"outcomes":[0,1,0],"key":39,"choice":2,"rt":267.7750000730157,"outcome":0,"trial":19,"correct":1,"trial_type":"three-arm-trial","trial_index":29,"time_elapsed":413184,"internal_node_id":"0.0-25.0-0.0","task_version":"screening-mturk","missing":false,"accuracy":0},{"contexts":["red","green","blue"],"outcomes":[0,1,0],"key":38,"choice":1,"rt":65.18999999389052,"outcome":1,"trial":20,"correct":1,"trial_type":"three-arm-trial","trial_index":30,"time_elapsed":414454,"internal_node_id":"0.0-26.0-0.0","task_version":"screening-mturk","missing":false,"accuracy":1},{"contexts":["red","green","blue"],"outcomes":[0,0,0],"key":38,"choice":1,"rt":438.37500002700835,"outcome":0,"trial":21,"correct":1,"trial_type":"three-arm-trial","trial_index":31,"time_elapsed":416096,"internal_node_id":"0.0-27.0-0.0","task_version":"screening-mturk","missing":false,"accuracy":1},{"contexts":["red","green","blue"],"outcomes":[0,1,0],"key":38,"choice":1,"rt":316.26500003039837,"outcome":1,"trial":22,"correct":1,"trial_type":"three-arm-trial","trial_index":32,"time_elapsed":417617,"internal_node_id":"0.0-28.0-0.0","task_version":"screening-mturk","missing":false,"accuracy":1},{"contexts":["red","green","blue"],"outcomes":[0,1,0],"key":37,"choice":0,"rt":2241.8900000629947,"outcome":0,"trial":23,"correct":1,"trial_type":"three-arm-trial","trial_index":33,"time_elapsed":421063,"internal_node_id":"0.0-29.0-0.0","task_version":"screening-mturk","missing":false,"accuracy":0},{"contexts":["red","green","blue"],"outcomes":[0,1,0],"key":37,"choice":0,"rt":483.2099999766797,"outcome":0,"trial":24,"correct":1,"trial_type":"three-arm-trial","trial_index":34,"time_elapsed":422749,"internal_node_id":"0.0-30.0-0.0","task_version":"screening-mturk","missing":false,"accuracy":0},{"contexts":["red","green","blue"],"outcomes":[0,0,0],"key":38,"choice":1,"rt":253.00000002607703,"outcome":0,"trial":25,"correct":1,"trial_type":"three-arm-trial","trial_index":35,"time_elapsed":424207,"internal_node_id":"0.0-31.0-0.0","task_version":"screening-mturk","missing":false,"accuracy":1},{"contexts":["red","green","blue"],"outcomes":[0,1,0],"key":38,"choice":1,"rt":400.72500007227063,"outcome":1,"trial":26,"correct":1,"trial_type":"three-arm-trial","trial_index":36,"time_elapsed":425812,"internal_node_id":"0.0-32.0-0.0","task_version":"screening-mturk","missing":false,"accuracy":1},{"contexts":["red","green","blue"],"outcomes":[0,1,0],"key":38,"choice":1,"rt":369.5750000188127,"outcome":1,"trial":27,"correct":1,"trial_type":"three-arm-trial","trial_index":37,"time_elapsed":427387,"internal_node_id":"0.0-33.0-0.0","task_version":"screening-mturk","missing":false,"accuracy":1},{"contexts":["red","green","blue"],"outcomes":[1,1,0],"key":38,"choice":1,"rt":371.68999994173646,"outcome":1,"trial":28,"correct":1,"trial_type":"three-arm-trial","trial_index":38,"time_elapsed":428965,"internal_node_id":"0.0-34.0-0.0","task_version":"screening-mturk","missing":false,"accuracy":1},{"contexts":["red","green","blue"],"outcomes":[0,1,0],"key":38,"choice":1,"rt":397.09500002209097,"outcome":1,"trial":29,"correct":1,"trial_type":"three-arm-trial","trial_index":39,"time_elapsed":430567,"internal_node_id":"0.0-35.0-0.0","task_version":"screening-mturk","missing":false,"accuracy":1},{"contexts":["red","green","blue"],"outcomes":[1,1,0],"key":38,"choice":1,"rt":453.14500003587455,"outcome":1,"trial":30,"correct":1,"trial_type":"three-arm-trial","trial_index":40,"time_elapsed":432225,"internal_node_id":"0.0-36.0-0.0","task_version":"screening-mturk","missing":false,"accuracy":1},{"contexts":["red","green","blue"],"outcomes":[1,0,1],"key":38,"choice":1,"rt":494.9349999660626,"outcome":0,"trial":31,"correct":2,"trial_type":"three-arm-trial","trial_index":41,"time_elapsed":433925,"internal_node_id":"0.0-37.0-0.0","task_version":"screening-mturk","missing":false,"accuracy":0},{"contexts":["red","green","blue"],"outcomes":[1,0,1],"key":38,"choice":1,"rt":441.02999998722225,"outcome":0,"trial":32,"correct":2,"trial_type":"three-arm-trial","trial_index":42,"time_elapsed":435572,"internal_node_id":"0.0-38.0-0.0","task_version":"screening-mturk","missing":false,"accuracy":0},{"contexts":["red","green","blue"],"outcomes":[1,0,1],"key":39,"choice":2,"rt":141.25500002410263,"outcome":1,"trial":33,"correct":2,"trial_type":"three-arm-trial","trial_index":43,"time_elapsed":436919,"internal_node_id":"0.0-39.0-0.0","task_version":"screening-mturk","missing":false,"accuracy":1},{"contexts":["red","green","blue"],"outcomes":[0,0,1],"key":39,"choice":2,"rt":350.5750000476837,"outcome":1,"trial":34,"correct":2,"trial_type":"three-arm-trial","trial_index":44,"time_elapsed":438474,"internal_node_id":"0.0-40.0-0.0","task_version":"screening-mturk","missing":false,"accuracy":1},{"contexts":["red","green","blue"],"outcomes":[1,0,1],"key":39,"choice":2,"rt":424.3449999485165,"outcome":1,"trial":35,"correct":2,"trial_type":"three-arm-trial","trial_index":45,"time_elapsed":440105,"internal_node_id":"0.0-41.0-0.0","task_version":"screening-mturk","missing":false,"accuracy":1},{"contexts":["red","green","blue"],"outcomes":[0,0,1],"key":39,"choice":2,"rt":456.41999994404614,"outcome":1,"trial":36,"correct":2,"trial_type":"three-arm-trial","trial_index":46,"time_elapsed":441765,"internal_node_id":"0.0-42.0-0.0","task_version":"screening-mturk","missing":false,"accuracy":1},{"contexts":["red","green","blue"],"outcomes":[0,0,1],"key":39,"choice":2,"rt":557.0099999895319,"outcome":1,"trial":37,"correct":2,"trial_type":"three-arm-trial","trial_index":47,"time_elapsed":443525,"internal_node_id":"0.0-43.0-0.0","task_version":"screening-mturk","missing":false,"accuracy":1},{"contexts":["red","green","blue"],"outcomes":[1,0,0],"key":39,"choice":2,"rt":654.660000000149,"outcome":0,"trial":38,"correct":2,"trial_type":"three-arm-trial","trial_index":48,"time_elapsed":445382,"internal_node_id":"0.0-44.0-0.0","task_version":"screening-mturk","missing":false,"accuracy":1},{"contexts":["red","green","blue"],"outcomes":[0,0,0],"key":39,"choice":2,"rt":781.9899999303743,"outcome":0,"trial":39,"correct":2,"trial_type":"three-arm-trial","trial_index":49,"time_elapsed":447367,"internal_node_id":"0.0-45.0-0.0","task_version":"screening-mturk","missing":false,"accuracy":1},{"contexts":["red","green","blue"],"outcomes":[1,0,1],"key":37,"choice":0,"rt":405.655000009574,"outcome":1,"trial":40,"correct":2,"trial_type":"three-arm-trial","trial_index":50,"time_elapsed":448976,"internal_node_id":"0.0-46.0-0.0","task_version":"screening-mturk","missing":false,"accuracy":0},{"contexts":["red","green","blue"],"outcomes":[0,0,0],"key":37,"choice":0,"rt":384.1349999420345,"outcome":0,"trial":41,"correct":2,"trial_type":"three-arm-trial","trial_index":51,"time_elapsed":450564,"internal_node_id":"0.0-47.0-0.0","task_version":"screening-mturk","missing":false,"accuracy":0},{"contexts":["red","green","blue"],"outcomes":[0,0,1],"key":37,"choice":0,"rt":399.42000003065914,"outcome":0,"trial":42,"correct":2,"trial_type":"three-arm-trial","trial_index":52,"time_elapsed":452167,"internal_node_id":"0.0-48.0-0.0","task_version":"screening-mturk","missing":false,"accuracy":0},{"contexts":["red","green","blue"],"outcomes":[0,0,1],"key":38,"choice":1,"rt":445.3949999297038,"outcome":0,"trial":43,"correct":2,"trial_type":"three-arm-trial","trial_index":53,"time_elapsed":453817,"internal_node_id":"0.0-49.0-0.0","task_version":"screening-mturk","missing":false,"accuracy":0},{"contexts":["red","green","blue"],"outcomes":[0,0,0],"key":38,"choice":1,"rt":380.074999993667,"outcome":0,"trial":44,"correct":2,"trial_type":"three-arm-trial","trial_index":54,"time_elapsed":455401,"internal_node_id":"0.0-50.0-0.0","task_version":"screening-mturk","missing":false,"accuracy":0},{"contexts":["red","green","blue"],"outcomes":[0,1,1],"key":37,"choice":0,"rt":345.5599999288097,"outcome":0,"trial":45,"correct":2,"trial_type":"three-arm-trial","trial_index":55,"time_elapsed":456949,"internal_node_id":"0.0-51.0-0.0","task_version":"screening-mturk","missing":false,"accuracy":0},{"contexts":["red","green","blue"],"outcomes":[1,0,0],"key":39,"choice":2,"rt":373.0900000082329,"outcome":0,"trial":46,"correct":0,"trial_type":"three-arm-trial","trial_index":56,"time_elapsed":458526,"internal_node_id":"0.0-52.0-0.0","task_version":"screening-mturk","missing":false,"accuracy":0},{"contexts":["red","green","blue"],"outcomes":[0,0,0],"key":37,"choice":0,"rt":366.234999964945,"outcome":0,"trial":47,"correct":0,"trial_type":"three-arm-trial","trial_index":57,"time_elapsed":460097,"internal_node_id":"0.0-53.0-0.0","task_version":"screening-mturk","missing":false,"accuracy":1},{"contexts":["red","green","blue"],"outcomes":[1,1,0],"key":38,"choice":1,"rt":222.040000022389,"outcome":1,"trial":48,"correct":0,"trial_type":"three-arm-trial","trial_index":58,"time_elapsed":461525,"internal_node_id":"0.0-54.0-0.0","task_version":"screening-mturk","missing":false,"accuracy":0},{"contexts":["red","green","blue"],"outcomes":[1,1,0],"key":38,"choice":1,"rt":392.409999971278,"outcome":1,"trial":49,"correct":0,"trial_type":"three-arm-trial","trial_index":59,"time_elapsed":463124,"internal_node_id":"0.0-55.0-0.0","task_version":"screening-mturk","missing":false,"accuracy":0},{"contexts":["red","green","blue"],"outcomes":[1,0,0],"key":38,"choice":1,"rt":356.77499999292195,"outcome":0,"trial":50,"correct":0,"trial_type":"three-arm-trial","trial_index":60,"time_elapsed":464685,"internal_node_id":"0.0-56.0-0.0","task_version":"screening-mturk","missing":false,"accuracy":0},{"contexts":["red","green","blue"],"outcomes":[1,0,0],"key":39,"choice":2,"rt":358.7200000183657,"outcome":0,"trial":51,"correct":0,"trial_type":"three-arm-trial","trial_index":61,"time_elapsed":466247,"internal_node_id":"0.0-57.0-0.0","task_version":"screening-mturk","missing":false,"accuracy":0},{"contexts":["red","green","blue"],"outcomes":[0,0,0],"key":37,"choice":0,"rt":352.004999993369,"outcome":0,"trial":52,"correct":0,"trial_type":"three-arm-trial","trial_index":62,"time_elapsed":467804,"internal_node_id":"0.0-58.0-0.0","task_version":"screening-mturk","missing":false,"accuracy":1},{"contexts":["red","green","blue"],"outcomes":[1,0,0],"key":37,"choice":0,"rt":361.3350000232458,"outcome":1,"trial":53,"correct":0,"trial_type":"three-arm-trial","trial_index":63,"time_elapsed":469369,"internal_node_id":"0.0-59.0-0.0","task_version":"screening-mturk","missing":false,"accuracy":1},{"contexts":["red","green","blue"],"outcomes":[1,0,0],"key":37,"choice":0,"rt":352.19499992672354,"outcome":1,"trial":54,"correct":0,"trial_type":"three-arm-trial","trial_index":64,"time_elapsed":470926,"internal_node_id":"0.0-60.0-0.0","task_version":"screening-mturk","missing":false,"accuracy":1},{"contexts":["red","green","blue"],"outcomes":[1,0,0],"key":37,"choice":0,"rt":375.50500000361353,"outcome":1,"trial":55,"correct":0,"trial_type":"three-arm-trial","trial_index":65,"time_elapsed":472507,"internal_node_id":"0.0-61.0-0.0","task_version":"screening-mturk","missing":false,"accuracy":1},{"contexts":["red","green","blue"],"outcomes":[1,0,1],"key":37,"choice":0,"rt":1207.010000012815,"outcome":1,"trial":56,"correct":0,"trial_type":"three-arm-trial","trial_index":66,"time_elapsed":474917,"internal_node_id":"0.0-62.0-0.0","task_version":"screening-mturk","missing":false,"accuracy":1},{"contexts":["red","green","blue"],"outcomes":[0,1,0],"key":37,"choice":0,"rt":890.5299999751151,"outcome":0,"trial":57,"correct":0,"trial_type":"three-arm-trial","trial_index":67,"time_elapsed":477010,"internal_node_id":"0.0-63.0-0.0","task_version":"screening-mturk","missing":false,"accuracy":1},{"contexts":["red","green","blue"],"outcomes":[1,0,0],"key":37,"choice":0,"rt":392.6750000100583,"outcome":1,"trial":58,"correct":0,"trial_type":"three-arm-trial","trial_index":68,"time_elapsed":478608,"internal_node_id":"0.0-64.0-0.0","task_version":"screening-mturk","missing":false,"accuracy":1},{"contexts":["red","green","blue"],"outcomes":[1,0,0],"key":37,"choice":0,"rt":440.7300000311807,"outcome":1,"trial":59,"correct":0,"trial_type":"three-arm-trial","trial_index":69,"time_elapsed":480255,"internal_node_id":"0.0-65.0-0.0","task_version":"screening-mturk","missing":false,"accuracy":1},{"contexts":["red","green","blue"],"outcomes":[1,0,0],"key":37,"choice":0,"rt":365.08000001776963,"outcome":1,"trial":60,"correct":0,"trial_type":"three-arm-trial","trial_index":70,"time_elapsed":481823,"internal_node_id":"0.0-66.0-0.0","task_version":"screening-mturk","missing":false,"accuracy":1},{"contexts":["red","green","blue"],"outcomes":[0,0,1],"key":37,"choice":0,"rt":444.9449999956414,"outcome":0,"trial":61,"correct":2,"trial_type":"three-arm-trial","trial_index":71,"time_elapsed":483473,"internal_node_id":"0.0-67.0-0.0","task_version":"screening-mturk","missing":false,"accuracy":0},{"contexts":["red","green","blue"],"outcomes":[0,0,1],"key":37,"choice":0,"rt":1487.9999998956919,"outcome":0,"trial":62,"correct":2,"trial_type":"three-arm-trial","trial_index":72,"time_elapsed":486165,"internal_node_id":"0.0-68.0-0.0","task_version":"screening-mturk","missing":false,"accuracy":0},{"contexts":["red","green","blue"],"outcomes":[1,0,1],"key":38,"choice":1,"rt":266.07499993406236,"outcome":0,"trial":63,"correct":2,"trial_type":"three-arm-trial","trial_index":73,"time_elapsed":487635,"internal_node_id":"0.0-69.0-0.0","task_version":"screening-mturk","missing":false,"accuracy":0},{"contexts":["red","green","blue"],"outcomes":[0,1,1],"key":38,"choice":1,"rt":334.00500006973743,"outcome":1,"trial":64,"correct":2,"trial_type":"three-arm-trial","trial_index":74,"time_elapsed":489173,"internal_node_id":"0.0-70.0-0.0","task_version":"screening-mturk","missing":false,"accuracy":0},{"contexts":["red","green","blue"],"outcomes":[0,0,0],"key":38,"choice":1,"rt":331.19499997701496,"outcome":0,"trial":65,"correct":2,"trial_type":"three-arm-trial","trial_index":75,"time_elapsed":490710,"internal_node_id":"0.0-71.0-0.0","task_version":"screening-mturk","missing":false,"accuracy":0},{"contexts":["red","green","blue"],"outcomes":[0,0,1],"key":38,"choice":1,"rt":321.31999998819083,"outcome":0,"trial":66,"correct":2,"trial_type":"three-arm-trial","trial_index":76,"time_elapsed":492234,"internal_node_id":"0.0-72.0-0.0","task_version":"screening-mturk","missing":false,"accuracy":0},{"contexts":["red","green","blue"],"outcomes":[1,1,1],"key":39,"choice":2,"rt":176.54500005301088,"outcome":1,"trial":67,"correct":2,"trial_type":"three-arm-trial","trial_index":77,"time_elapsed":493614,"internal_node_id":"0.0-73.0-0.0","task_version":"screening-mturk","missing":false,"accuracy":1},{"contexts":["red","green","blue"],"outcomes":[0,0,1],"key":39,"choice":2,"rt":557.2549999924377,"outcome":1,"trial":68,"correct":2,"trial_type":"three-arm-trial","trial_index":78,"time_elapsed":495376,"internal_node_id":"0.0-74.0-0.0","task_version":"screening-mturk","missing":false,"accuracy":1},{"contexts":["red","green","blue"],"outcomes":[0,1,1],"key":39,"choice":2,"rt":396.50000003166497,"outcome":1,"trial":69,"correct":2,"trial_type":"three-arm-trial","trial_index":79,"time_elapsed":496975,"internal_node_id":"0.0-75.0-0.0","task_version":"screening-mturk","missing":false,"accuracy":1},{"contexts":["red","green","blue"],"outcomes":[0,0,1],"key":39,"choice":2,"rt":508.7850000709295,"outcome":1,"trial":70,"correct":2,"trial_type":"three-arm-trial","trial_index":80,"time_elapsed":498687,"internal_node_id":"0.0-76.0-0.0","task_version":"screening-mturk","missing":false,"accuracy":1},{"contexts":["red","green","blue"],"outcomes":[0,0,0],"key":39,"choice":2,"rt":1093.1799999671057,"outcome":0,"trial":71,"correct":2,"trial_type":"three-arm-trial","trial_index":81,"time_elapsed":500984,"internal_node_id":"0.0-77.0-0.0","task_version":"screening-mturk","missing":false,"accuracy":1},{"contexts":["red","green","blue"],"outcomes":[0,1,1],"key":39,"choice":2,"rt":416.5150000480935,"outcome":1,"trial":72,"correct":2,"trial_type":"three-arm-trial","trial_index":82,"time_elapsed":502604,"internal_node_id":"0.0-78.0-0.0","task_version":"screening-mturk","missing":false,"accuracy":1},{"contexts":["red","green","blue"],"outcomes":[0,0,1],"key":39,"choice":2,"rt":433.614999987185,"outcome":1,"trial":73,"correct":2,"trial_type":"three-arm-trial","trial_index":83,"time_elapsed":504241,"internal_node_id":"0.0-79.0-0.0","task_version":"screening-mturk","missing":false,"accuracy":1},{"contexts":["red","green","blue"],"outcomes":[0,0,1],"key":39,"choice":2,"rt":391.76000002771616,"outcome":1,"trial":74,"correct":2,"trial_type":"three-arm-trial","trial_index":84,"time_elapsed":505836,"internal_node_id":"0.0-80.0-0.0","task_version":"screening-mturk","missing":false,"accuracy":1},{"contexts":["red","green","blue"],"outcomes":[0,1,1],"key":39,"choice":2,"rt":501.49499997496605,"outcome":1,"trial":75,"correct":2,"trial_type":"three-arm-trial","trial_index":85,"time_elapsed":507540,"internal_node_id":"0.0-81.0-0.0","task_version":"screening-mturk","missing":false,"accuracy":1},{"contexts":["red","green","blue"],"outcomes":[1,0,1],"key":39,"choice":2,"rt":534.7550000296906,"outcome":1,"trial":76,"correct":0,"trial_type":"three-arm-trial","trial_index":86,"time_elapsed":509279,"internal_node_id":"0.0-82.0-0.0","task_version":"screening-mturk","missing":false,"accuracy":0},{"contexts":["red","green","blue"],"outcomes":[1,0,0],"key":39,"choice":2,"rt":1092.1799999196082,"outcome":0,"trial":77,"correct":0,"trial_type":"three-arm-trial","trial_index":87,"time_elapsed":511575,"internal_node_id":"0.0-83.0-0.0","task_version":"screening-mturk","missing":false,"accuracy":0},{"contexts":["red","green","blue"],"outcomes":[1,0,0],"key":39,"choice":2,"rt":430.3999999538064,"outcome":0,"trial":78,"correct":0,"trial_type":"three-arm-trial","trial_index":88,"time_elapsed":513212,"internal_node_id":"0.0-84.0-0.0","task_version":"screening-mturk","missing":false,"accuracy":0},{"contexts":["red","green","blue"],"outcomes":[1,0,0],"key":37,"choice":0,"rt":402.9449999798089,"outcome":1,"trial":79,"correct":0,"trial_type":"three-arm-trial","trial_index":89,"time_elapsed":514822,"internal_node_id":"0.0-85.0-0.0","task_version":"screening-mturk","missing":false,"accuracy":1},{"contexts":["red","green","blue"],"outcomes":[0,0,0],"key":37,"choice":0,"rt":367.1200000680983,"outcome":0,"trial":80,"correct":0,"trial_type":"three-arm-trial","trial_index":90,"time_elapsed":516393,"internal_node_id":"0.0-86.0-0.0","task_version":"screening-mturk","missing":false,"accuracy":1},{"contexts":["red","green","blue"],"outcomes":[1,0,0],"key":37,"choice":0,"rt":348.39499997906387,"outcome":1,"trial":81,"correct":0,"trial_type":"three-arm-trial","trial_index":91,"time_elapsed":517947,"internal_node_id":"0.0-87.0-0.0","task_version":"screening-mturk","missing":false,"accuracy":1},{"contexts":["red","green","blue"],"outcomes":[1,0,1],"key":37,"choice":0,"rt":390.78999997582287,"outcome":1,"trial":82,"correct":0,"trial_type":"three-arm-trial","trial_index":92,"time_elapsed":519541,"internal_node_id":"0.0-88.0-0.0","task_version":"screening-mturk","missing":false,"accuracy":1},{"contexts":["red","green","blue"],"outcomes":[1,0,0],"key":37,"choice":0,"rt":429.2949999216944,"outcome":1,"trial":83,"correct":0,"trial_type":"three-arm-trial","trial_index":93,"time_elapsed":521174,"internal_node_id":"0.0-89.0-0.0","task_version":"screening-mturk","missing":false,"accuracy":1},{"contexts":["red","green","blue"],"outcomes":[1,1,0],"key":37,"choice":0,"rt":431.62499996833503,"outcome":1,"trial":84,"correct":0,"trial_type":"three-arm-trial","trial_index":94,"time_elapsed":522812,"internal_node_id":"0.0-90.0-0.0","task_version":"screening-mturk","missing":false,"accuracy":1},{"contexts":["red","green","blue"],"outcomes":[1,0,0],"key":37,"choice":0,"rt":460.6250000651926,"outcome":1,"trial":85,"correct":0,"trial_type":"three-arm-trial","trial_index":95,"time_elapsed":524478,"internal_node_id":"0.0-91.0-0.0","task_version":"screening-mturk","missing":false,"accuracy":1},{"contexts":["red","green","blue"],"outcomes":[0,0,0],"key":37,"choice":0,"rt":478.2050000503659,"outcome":0,"trial":86,"correct":0,"trial_type":"three-arm-trial","trial_index":96,"time_elapsed":526162,"internal_node_id":"0.0-92.0-0.0","task_version":"screening-mturk","missing":false,"accuracy":1},{"contexts":["red","green","blue"],"outcomes":[1,0,0],"key":37,"choice":0,"rt":368.9350000349805,"outcome":1,"trial":87,"correct":0,"trial_type":"three-arm-trial","trial_index":97,"time_elapsed":527735,"internal_node_id":"0.0-93.0-0.0","task_version":"screening-mturk","missing":false,"accuracy":1},{"contexts":["red","green","blue"],"outcomes":[0,0,1],"key":37,"choice":0,"rt":449.20000003185123,"outcome":0,"trial":88,"correct":0,"trial_type":"three-arm-trial","trial_index":98,"time_elapsed":529389,"internal_node_id":"0.0-94.0-0.0","task_version":"screening-mturk","missing":false,"accuracy":1},{"contexts":["red","green","blue"],"outcomes":[1,0,0],"key":38,"choice":1,"rt":512.5700000207871,"outcome":0,"trial":89,"correct":0,"trial_type":"three-arm-trial","trial_index":99,"time_elapsed":531104,"internal_node_id":"0.0-95.0-0.0","task_version":"screening-mturk","missing":false,"accuracy":0},{"contexts":["red","green","blue"],"outcomes":[0,0,0],"key":38,"choice":1,"rt":456.5350000048056,"outcome":0,"trial":90,"correct":0,"trial_type":"three-arm-trial","trial_index":100,"time_elapsed":532764,"internal_node_id":"0.0-96.0-0.0","task_version":"screening-mturk","missing":false,"accuracy":0},{"rt":34327.78499997221,"responses":{"age":"62","gender-categorical":"Female","gender-free-response":"","ethnicity":"Not Hispanic or Latino","race":["White"],"language":"Yes","fluency":"Very well","prolific":"No","prolific-this-study":"No"},"survey":"demographics","trial_type":"survey-demo","trial_index":101,"time_elapsed":567101,"internal_node_id":"0.0-97.0","task_version":"screening-mturk","interactions":"[{\"event\":\"blur\",\"trial\":0,\"time\":6814},{\"event\":\"focus\",\"trial\":0,\"time\":12599},{\"event\":\"blur\",\"trial\":10,\"time\":367893},{\"event\":\"focus\",\"trial\":10,\"time\":373492},{\"event\":\"blur\",\"trial\":101,\"time\":548863},{\"event\":\"focus\",\"trial\":101,\"time\":560175}]"}]