[{"responses":{"Q03":"3","Q02":"2","Q01":"2"},"rt":18715.56499999133,"survey":"pswq","trial_type":"survey-template","trial_index":0,"time_elapsed":18782,"internal_node_id":"0.0-0.0","task_version":"screening-mturk"},{"responses":{"Q04":"2","Q07":"3","Q08":"1","Q02":"2","Q03":"2","Q01":"3","Q05":"1","Q06":"2"},"rt":17846.94000001764,"survey":"gad7","trial_type":"survey-template","trial_index":1,"time_elapsed":36645,"internal_node_id":"0.0-1.0","task_version":"screening-mturk"},{"responses":{"Q04":"2","Q07":"1","Q03":"3","Q13":"2","Q08":"2","Q09":"3","Q01":"2","Q02":"1","Q12":"1","Q11":"2","Q06":"2","Q15":"1","Q10":"2","Q05":"2","Q14":"3"},"rt":45586.40500000911,"survey":"shaps","trial_type":"survey-template","trial_index":2,"time_elapsed":82251,"internal_node_id":"0.0-2.0","task_version":"screening-mturk"},{"responses":{"Q05":"2","Q11":"1","Q12":"2","Q10":"3","Q03":"1","Q04":"2","Q08":"0","Q13":"2","Q14":"2","Q09":"1","Q15":"2","Q06":"2","Q02":"1","Q07":"3","Q01":"2"},"rt":37026.03999999701,"survey":"7up7down","trial_type":"survey-template","trial_index":3,"time_elapsed":119292,"internal_node_id":"0.0-3.0","task_version":"screening-mturk"},{"responses":{"Q08":"1","Q12":"2","Q07":"2","Q03":"1","Q01":"2","Q05":"3","Q02":"2","Q04":"2","Q09":"1","Q13":"2","Q10":"3","Q06":"2","Q11":"1"},"rt":32502.424999984214,"survey":"bisbas","trial_type":"survey-template","trial_index":4,"time_elapsed":151813,"internal_node_id":"0.0-4.0","task_version":"screening-mturk"},{"view_history":"[{\"page_index\":0,\"viewing_time\":8400.905000016792},{\"page_index\":1,\"viewing_time\":20350.719999987632},{\"page_index\":2,\"viewing_time\":16795.825000008335},{\"page_index\":3,\"viewing_time\":6267.759999987902},{\"page_index\":4,\"viewing_time\":3529.195000010077},{\"page_index\":5,\"viewing_time\":1136.770000011893},{\"page_index\":6,\"viewing_time\":1702.2299999953248},{\"page_index\":7,\"viewing_time\":5184.999999997672}]","rt":63372.32500000391,"trial_type":"instructions","trial_index":5,"time_elapsed":215190,"internal_node_id":"0.0-5.0-0.0","task_version":"screening-mturk"},{"responses":["True","False","True","True","False"],"num_errors":4,"rt":16070.955000002868,"trial_type":"three-arm-comprehension","trial_index":6,"time_elapsed":231272,"internal_node_id":"0.0-5.0-1.0","task_version":"screening-mturk"},{"view_history":"[{\"page_index\":0,\"viewing_time\":2513.635000010254},{\"page_index\":1,\"viewing_time\":1537.8049999999348},{\"page_index\":2,\"viewing_time\":3793.8450000074226},{\"page_index\":3,\"viewing_time\":2479.525000002468},{\"page_index\":4,\"viewing_time\":901.4150000002701},{\"page_index\":5,\"viewing_time\":631.3249999948312},{\"page_index\":6,\"viewing_time\":936.0849999939092},{\"page_index\":7,\"viewing_time\":1151.8250000081025}]","rt":13946.395000006305,"trial_type":"instructions","trial_index":7,"time_elapsed":245233,"internal_node_id":"0.0-5.1-0.1","task_version":"screening-mturk"},{"responses":["True","True","True","False","True"],"num_errors":1,"rt":25355.930000019725,"trial_type":"three-arm-comprehension","trial_index":8,"time_elapsed":270598,"internal_node_id":"0.0-5.1-1.1","task_version":"screening-mturk"},{"view_history":"[{\"page_index\":0,\"viewing_time\":2205.054999998538},{\"page_index\":1,\"viewing_time\":648.1849999981932},{\"page_index\":2,\"viewing_time\":879.6049999946263},{\"page_index\":3,\"viewing_time\":6168.5900000156835},{\"page_index\":4,\"viewing_time\":11607.524999999441},{\"page_index\":5,\"viewing_time\":7226.414999982808},{\"page_index\":6,\"viewing_time\":6054.555000009714},{\"page_index\":7,\"viewing_time\":2178.2550000061747}]","rt":36969.47999999975,"trial_type":"instructions","trial_index":9,"time_elapsed":307583,"internal_node_id":"0.0-5.2-0.2","task_version":"screening-mturk"},{"responses":["False","True","True","True","True"],"num_errors":3,"rt":17139.259999996284,"trial_type":"three-arm-comprehension","trial_index":10,"time_elapsed":324733,"internal_node_id":"0.0-5.2-1.2","task_version":"screening-mturk"},{"view_history":"[{\"page_index\":0,\"viewing_time\":4621.600000013132},{\"page_index\":1,\"viewing_time\":7176.905000000261},{\"page_index\":2,\"viewing_time\":13796.67999999947},{\"page_index\":3,\"viewing_time\":4930.17000000691},{\"page_index\":4,\"viewing_time\":10103.899999987334},{\"page_index\":5,\"viewing_time\":3256.3699999882374},{\"page_index\":6,\"viewing_time\":10712.710000021616},{\"page_index\":7,\"viewing_time\":14927.119999978459}]","rt":69526.62000001874,"trial_type":"instructions","trial_index":11,"time_elapsed":394274,"internal_node_id":"0.0-5.3-0.3","task_version":"screening-mturk"},{"responses":["True","True","True","False","True"],"num_errors":1,"rt":19813.50499999826,"trial_type":"three-arm-comprehension","trial_index":12,"time_elapsed":414101,"internal_node_id":"0.0-5.3-1.3","task_version":"screening-mturk"},{"view_history":"[{\"page_index\":0,\"viewing_time\":1432.5150000222493},{\"page_index\":1,\"viewing_time\":425.1149999909103},{\"page_index\":2,\"viewing_time\":265.09999998961575},{\"page_index\":3,\"viewing_time\":222.22500000498258},{\"page_index\":4,\"viewing_time\":233.21500001475215},{\"page_index\":5,\"viewing_time\":207.19999997527339},{\"page_index\":6,\"viewing_time\":223.6200000043027},{\"page_index\":7,\"viewing_time\":192.42500001564622}]","rt":3202.565000014147,"trial_type":"instructions","trial_index":13,"time_elapsed":417315,"internal_node_id":"0.0-5.4-0.4","task_version":"screening-mturk"},{"responses":["True","True","True","True","True"],"num_errors":2,"rt":9898.480000003474,"trial_type":"three-arm-comprehension","trial_index":14,"time_elapsed":427224,"internal_node_id":"0.0-5.4-1.4","task_version":"screening-mturk"},{"view_history":"[{\"page_index\":0,\"viewing_time\":1966.775000008056},{\"page_index\":1,\"viewing_time\":229.5999999914784},{\"page_index\":2,\"viewing_time\":192.0549999922514},{\"page_index\":3,\"viewing_time\":184.3900000094436},{\"page_index\":4,\"viewing_time\":232.05500000040047},{\"page_index\":5,\"viewing_time\":264.41499998327345},{\"page_index\":6,\"viewing_time\":200.11000000522472},{\"page_index\":7,\"viewing_time\":327.3899999912828}]","rt":3598.005000007106,"trial_type":"instructions","trial_index":15,"time_elapsed":430834,"internal_node_id":"0.0-5.5-0.5","task_version":"screening-mturk"},{"responses":["False","True","False","True","False"],"num_errors":3,"rt":8842.9049999977,"trial_type":"three-arm-comprehension","trial_index":16,"time_elapsed":439689,"internal_node_id":"0.0-5.5-1.5","task_version":"screening-mturk"},{"view_history":"[{\"page_index\":0,\"viewing_time\":1829.939999995986},{\"page_index\":1,\"viewing_time\":414.134999999078},{\"page_index\":2,\"viewing_time\":183.74500001664273},{\"page_index\":3,\"viewing_time\":352.22000000067055},{\"page_index\":4,\"viewing_time\":423.7450000073295},{\"page_index\":5,\"viewing_time\":208.09000000008382},{\"page_index\":6,\"viewing_time\":248.74999999883585},{\"page_index\":7,\"viewing_time\":688.8949999993201}]","rt":4351.265000004787,"trial_type":"instructions","trial_index":17,"time_elapsed":444053,"internal_node_id":"0.0-5.6-0.6","task_version":"screening-mturk"},{"responses":["True","True","False","True","True"],"num_errors":1,"rt":10600.514999998268,"trial_type":"three-arm-comprehension","trial_index":18,"time_elapsed":454663,"internal_node_id":"0.0-5.6-1.6","task_version":"screening-mturk"},{"view_history":"[{\"page_index\":0,\"viewing_time\":9786.01000001072},{\"page_index\":1,\"viewing_time\":1393.3749999850988},{\"page_index\":0,\"viewing_time\":8998.855000012554},{\"page_index\":1,\"viewing_time\":18123.48499998916},{\"page_index\":2,\"viewing_time\":8925.259999989066},{\"page_index\":3,\"viewing_time\":13545.340000011493},{\"page_index\":4,\"viewing_time\":37999.030000006314},{\"page_index\":5,\"viewing_time\":3534.350000001723},{\"page_index\":6,\"viewing_time\":13600.994999986142},{\"page_index\":5,\"viewing_time\":383.7500000081491},{\"page_index\":4,\"viewing_time\":183.9050000126008},{\"page_index\":3,\"viewing_time\":167.85499997786246},{\"page_index\":2,\"viewing_time\":488.62000001827255},{\"page_index\":1,\"viewing_time\":342.7099999971688},{\"page_index\":0,\"viewing_time\":8054.409999982454},{\"page_index\":1,\"viewing_time\":45136.89500000328},{\"page_index\":2,\"viewing_time\":17336.465000000317},{\"page_index\":3,\"viewing_time\":14238.435000006575},{\"page_index\":2,\"viewing_time\":1015.5399999930523},{\"page_index\":3,\"viewing_time\":664.8600000189617},{\"page_index\":4,\"viewing_time\":17616.814999986673},{\"page_index\":5,\"viewing_time\":12303.769999998622},{\"page_index\":6,\"viewing_time\":10704.320000018924},{\"page_index\":7,\"viewing_time\":2367.7199999801815}]","rt":246913.9650000143,"trial_type":"instructions","trial_index":19,"time_elapsed":701588,"internal_node_id":"0.0-5.7-0.7","task_version":"screening-mturk"},{"responses":["True","True","True","False","False"],"num_errors":2,"rt":27866.640000022016,"trial_type":"three-arm-comprehension","trial_index":20,"time_elapsed":729464,"internal_node_id":"0.0-5.7-1.7","task_version":"screening-mturk"},{"view_history":"[{\"page_index\":0,\"viewing_time\":1839.1499999852385},{\"page_index\":1,\"viewing_time\":663.6599999910686},{\"page_index\":2,\"viewing_time\":559.6250000235159},{\"page_index\":3,\"viewing_time\":825.0149999803398},{\"page_index\":4,\"viewing_time\":791.0450000199489},{\"page_index\":5,\"viewing_time\":720.4899999778718},{\"page_index\":6,\"viewing_time\":1823.545000021113},{\"page_index\":5,\"viewing_time\":1728.3649999881163},{\"page_index\":6,\"viewing_time\":624.2450000136159},{\"page_index\":7,\"viewing_time\":1023.8499999977648}]","rt":10600.32999998657,"trial_type":"instructions","trial_index":21,"time_elapsed":740075,"internal_node_id":"0.0-5.8-0.8","task_version":"screening-mturk"},{"responses":["True","True","True","False","True"],"num_errors":1,"rt":13466.010000003735,"trial_type":"three-arm-comprehension","trial_index":22,"time_elapsed":753549,"internal_node_id":"0.0-5.8-1.8","task_version":"screening-mturk"},{"view_history":"[{\"page_index\":0,\"viewing_time\":1782.005000015488},{\"page_index\":1,\"viewing_time\":463.96500000264496},{\"page_index\":2,\"viewing_time\":448.24499997776},{\"page_index\":3,\"viewing_time\":705.855000007432},{\"page_index\":4,\"viewing_time\":176.07000001589768},{\"page_index\":5,\"viewing_time\":175.72499997913837},{\"page_index\":6,\"viewing_time\":208.24999999604188},{\"page_index\":7,\"viewing_time\":184.02500002412125}]","rt":4145.120000001043,"trial_type":"instructions","trial_index":23,"time_elapsed":757708,"internal_node_id":"0.0-5.9-0.9","task_version":"screening-mturk"},{"responses":["True","False","True","False","False"],"num_errors":3,"rt":15601.020000001881,"trial_type":"three-arm-comprehension","trial_index":24,"time_elapsed":773318,"internal_node_id":"0.0-5.9-1.9","task_version":"screening-mturk"},{"view_history":"[{\"page_index\":0,\"viewing_time\":1706.1649999814108},{\"page_index\":1,\"viewing_time\":255.34500001231208},{\"page_index\":2,\"viewing_time\":175.98999998881482},{\"page_index\":3,\"viewing_time\":200.0150000094436},{\"page_index\":4,\"viewing_time\":512.2799999953713},{\"page_index\":5,\"viewing_time\":343.974999996135},{\"page_index\":6,\"viewing_time\":407.8350000199862},{\"page_index\":7,\"viewing_time\":471.73999997903593}]","rt":4074.3749999965075,"trial_type":"instructions","trial_index":25,"time_elapsed":777403,"internal_node_id":"0.0-5.10-0.10","task_version":"screening-mturk"},{"responses":["True","True","True","True","False"],"num_errors":3,"rt":12643.000000010943,"trial_type":"three-arm-comprehension","trial_index":26,"time_elapsed":790054,"internal_node_id":"0.0-5.10-1.10","task_version":"screening-mturk"},{"view_history":"[{\"page_index\":0,\"viewing_time\":1313.2999999797903},{\"page_index\":1,\"viewing_time\":248.26500000199303},{\"page_index\":2,\"viewing_time\":167.47500002384186},{\"page_index\":3,\"viewing_time\":160.24499997729436},{\"page_index\":4,\"viewing_time\":200.13500002096407},{\"page_index\":5,\"viewing_time\":224.36500000185333},{\"page_index\":6,\"viewing_time\":440.8549999934621},{\"page_index\":7,\"viewing_time\":399.39000000595115}]","rt":3154.884999996284,"trial_type":"instructions","trial_index":27,"time_elapsed":793220,"internal_node_id":"0.0-5.11-0.11","task_version":"screening-mturk"},{"responses":["True","True","False","False","False"],"num_errors":1,"rt":7546.189999993658,"trial_type":"three-arm-comprehension","trial_index":28,"time_elapsed":800774,"internal_node_id":"0.0-5.11-1.11","task_version":"screening-mturk"},{"view_history":"[{\"page_index\":0,\"viewing_time\":1617.4249999749009},{\"page_index\":1,\"viewing_time\":242.74500002502464},{\"page_index\":2,\"viewing_time\":181.66000000201166},{\"page_index\":3,\"viewing_time\":183.8549999811221},{\"page_index\":4,\"viewing_time\":183.80500000785105},{\"page_index\":5,\"viewing_time\":1791.735000006156},{\"page_index\":4,\"viewing_time\":1535.665000003064},{\"page_index\":5,\"viewing_time\":656.4249999937601},{\"page_index\":6,\"viewing_time\":1232.9800000006799},{\"page_index\":7,\"viewing_time\":1844.9749999854248}]","rt":9472.274999978254,"trial_type":"instructions","trial_index":29,"time_elapsed":810260,"internal_node_id":"0.0-5.12-0.12","task_version":"screening-mturk"},{"responses":["True","True","False","False","False"],"num_errors":1,"rt":104644.4199999969,"trial_type":"three-arm-comprehension","trial_index":30,"time_elapsed":914910,"internal_node_id":"0.0-5.12-1.12","task_version":"screening-mturk"},{"view_history":"[{\"page_index\":0,\"viewing_time\":1431.574999995064},{\"page_index\":1,\"viewing_time\":288.77499999362044},{\"page_index\":2,\"viewing_time\":287.71500001312234},{\"page_index\":3,\"viewing_time\":272.13500000652857},{\"page_index\":4,\"viewing_time\":400.0899999809917},{\"page_index\":5,\"viewing_time\":743.0750000057742},{\"page_index\":6,\"viewing_time\":880.5500000016764},{\"page_index\":7,\"viewing_time\":1479.6600000117905}]","rt":5785.169999988284,"trial_type":"instructions","trial_index":31,"time_elapsed":920706,"internal_node_id":"0.0-5.13-0.13","task_version":"screening-mturk"},{"responses":["False","True","False","False","False"],"num_errors":2,"rt":19092.345000011846,"trial_type":"three-arm-comprehension","trial_index":32,"time_elapsed":939815,"internal_node_id":"0.0-5.13-1.13","task_version":"screening-mturk"},{"view_history":"[{\"page_index\":0,\"viewing_time\":1568.894999974873},{\"page_index\":1,\"viewing_time\":199.7150000242982},{\"page_index\":2,\"viewing_time\":159.86499999416992},{\"page_index\":3,\"viewing_time\":144.56499999505468},{\"page_index\":4,\"viewing_time\":127.60499998694286},{\"page_index\":5,\"viewing_time\":183.84500002139248},{\"page_index\":6,\"viewing_time\":184.7399999969639},{\"page_index\":7,\"viewing_time\":176.16499998257495}]","rt":2746.3949999946635,"trial_type":"instructions","trial_index":33,"time_elapsed":942572,"internal_node_id":"0.0-5.14-0.14","task_version":"screening-mturk"},{"responses":["True","True","False","False","True"],"num_errors":0,"rt":7680.954999988899,"trial_type":"three-arm-comprehension","trial_index":34,"time_elapsed":950265,"internal_node_id":"0.0-5.14-1.14","task_version":"screening-mturk"},{"view_history":"[{\"page_index\":0,\"viewing_time\":11708.075000002282}]","rt":11709.210000000894,"trial_type":"instructions","trial_index":35,"time_elapsed":961995,"internal_node_id":"0.0-6.0","task_version":"screening-mturk"},{"contexts":["blue","red","green"],"outcomes":[0,0,1],"key":38,"choice":1,"rt":6458.090000000084,"outcome":0,"trial":1,"correct":2,"trial_type":"three-arm-trial","trial_index":36,"time_elapsed":969667,"internal_node_id":"0.0-7.0-0.0","task_version":"screening-mturk","missing":false,"accuracy":0},{"contexts":["blue","red","green"],"outcomes":[1,0,1],"key":37,"choice":0,"rt":657.8499999886844,"outcome":1,"trial":2,"correct":2,"trial_type":"three-arm-trial","trial_index":37,"time_elapsed":971535,"internal_node_id":"0.0-8.0-0.0","task_version":"screening-mturk","missing":false,"accuracy":0},{"contexts":["blue","red","green"],"outcomes":[1,0,1],"key":37,"choice":0,"rt":1032.6349999813829,"outcome":1,"trial":3,"correct":2,"trial_type":"three-arm-trial","trial_index":38,"time_elapsed":973780,"internal_node_id":"0.0-9.0-0.0","task_version":"screening-mturk","missing":false,"accuracy":0},{"contexts":["blue","red","green"],"outcomes":[1,0,1],"key":39,"choice":2,"rt":885.710000002291,"outcome":1,"trial":4,"correct":2,"trial_type":"three-arm-trial","trial_index":39,"time_elapsed":975874,"internal_node_id":"0.0-10.0-0.0","task_version":"screening-mturk","missing":false,"accuracy":1},{"contexts":["blue","red","green"],"outcomes":[0,0,1],"key":38,"choice":1,"rt":1177.1700000099372,"outcome":0,"trial":5,"correct":2,"trial_type":"three-arm-trial","trial_index":40,"time_elapsed":978263,"internal_node_id":"0.0-11.0-0.0","task_version":"screening-mturk","missing":false,"accuracy":0},{"contexts":["blue","red","green"],"outcomes":[0,0,1],"key":37,"choice":0,"rt":768.6399999947753,"outcome":0,"trial":6,"correct":2,"trial_type":"three-arm-trial","trial_index":41,"time_elapsed":980249,"internal_node_id":"0.0-12.0-0.0","task_version":"screening-mturk","missing":false,"accuracy":0},{"contexts":["blue","red","green"],"outcomes":[1,0,1],"key":39,"choice":2,"rt":581.0650000057649,"outcome":1,"trial":7,"correct":2,"trial_type":"three-arm-trial","trial_index":42,"time_elapsed":982066,"internal_node_id":"0.0-13.0-0.0","task_version":"screening-mturk","missing":false,"accuracy":1},{"contexts":["blue","red","green"],"outcomes":[1,0,1],"key":39,"choice":2,"rt":561.5499999839813,"outcome":1,"trial":8,"correct":2,"trial_type":"three-arm-trial","trial_index":43,"time_elapsed":983861,"internal_node_id":"0.0-14.0-0.0","task_version":"screening-mturk","missing":false,"accuracy":1},{"contexts":["blue","red","green"],"outcomes":[1,0,1],"key":39,"choice":2,"rt":474.23999998136424,"outcome":1,"trial":9,"correct":2,"trial_type":"three-arm-trial","trial_index":44,"time_elapsed":985548,"internal_node_id":"0.0-15.0-0.0","task_version":"screening-mturk","missing":false,"accuracy":1},{"contexts":["blue","red","green"],"outcomes":[0,1,1],"key":38,"choice":1,"rt":632.6200000185054,"outcome":1,"trial":10,"correct":2,"trial_type":"three-arm-trial","trial_index":45,"time_elapsed":987391,"internal_node_id":"0.0-16.0-0.0","task_version":"screening-mturk","missing":false,"accuracy":0},{"contexts":["blue","red","green"],"outcomes":[0,0,1],"key":38,"choice":1,"rt":497.26500001270324,"outcome":0,"trial":11,"correct":2,"trial_type":"three-arm-trial","trial_index":46,"time_elapsed":989099,"internal_node_id":"0.0-17.0-0.0","task_version":"screening-mturk","missing":false,"accuracy":0},{"contexts":["blue","red","green"],"outcomes":[0,0,1],"key":39,"choice":2,"rt":657.0250000222586,"outcome":1,"trial":12,"correct":2,"trial_type":"three-arm-trial","trial_index":47,"time_elapsed":990976,"internal_node_id":"0.0-18.0-0.0","task_version":"screening-mturk","missing":false,"accuracy":1},{"contexts":["blue","red","green"],"outcomes":[0,0,1],"key":39,"choice":2,"rt":514.3800000078045,"outcome":1,"trial":13,"correct":2,"trial_type":"three-arm-trial","trial_index":48,"time_elapsed":992721,"internal_node_id":"0.0-19.0-0.0","task_version":"screening-mturk","missing":false,"accuracy":1},{"contexts":["blue","red","green"],"outcomes":[0,1,1],"key":39,"choice":2,"rt":553.0349999899045,"outcome":1,"trial":14,"correct":2,"trial_type":"three-arm-trial","trial_index":49,"time_elapsed":994489,"internal_node_id":"0.0-20.0-0.0","task_version":"screening-mturk","missing":false,"accuracy":1},{"contexts":["blue","red","green"],"outcomes":[0,0,0],"key":39,"choice":2,"rt":338.8250000134576,"outcome":0,"trial":15,"correct":2,"trial_type":"three-arm-trial","trial_index":50,"time_elapsed":996040,"internal_node_id":"0.0-21.0-0.0","task_version":"screening-mturk","missing":false,"accuracy":1},{"contexts":["blue","red","green"],"outcomes":[1,0,1],"key":37,"choice":0,"rt":508.06500000180677,"outcome":1,"trial":16,"correct":0,"trial_type":"three-arm-trial","trial_index":51,"time_elapsed":997759,"internal_node_id":"0.0-22.0-0.0","task_version":"screening-mturk","missing":false,"accuracy":1},{"contexts":["blue","red","green"],"outcomes":[1,0,0],"key":37,"choice":0,"rt":714.1849999898113,"outcome":1,"trial":17,"correct":0,"trial_type":"three-arm-trial","trial_index":52,"time_elapsed":999681,"internal_node_id":"0.0-23.0-0.0","task_version":"screening-mturk","missing":false,"accuracy":1},{"contexts":["blue","red","green"],"outcomes":[1,0,1],"key":39,"choice":2,"rt":426.76999999093823,"outcome":1,"trial":18,"correct":0,"trial_type":"three-arm-trial","trial_index":53,"time_elapsed":1001318,"internal_node_id":"0.0-24.0-0.0","task_version":"screening-mturk","missing":false,"accuracy":0},{"contexts":["blue","red","green"],"outcomes":[1,0,0],"key":39,"choice":2,"rt":611.6349999792874,"outcome":0,"trial":19,"correct":0,"trial_type":"three-arm-trial","trial_index":54,"time_elapsed":1003136,"internal_node_id":"0.0-25.0-0.0","task_version":"screening-mturk","missing":false,"accuracy":0},{"contexts":["blue","red","green"],"outcomes":[1,0,0],"key":37,"choice":0,"rt":748.7350000010338,"outcome":1,"trial":20,"correct":0,"trial_type":"three-arm-trial","trial_index":55,"time_elapsed":1005093,"internal_node_id":"0.0-26.0-0.0","task_version":"screening-mturk","missing":false,"accuracy":1},{"contexts":["blue","red","green"],"outcomes":[1,0,0],"key":39,"choice":2,"rt":236.6549999860581,"outcome":0,"trial":21,"correct":0,"trial_type":"three-arm-trial","trial_index":56,"time_elapsed":1006540,"internal_node_id":"0.0-27.0-0.0","task_version":"screening-mturk","missing":false,"accuracy":0},{"contexts":["blue","red","green"],"outcomes":[1,0,0],"key":37,"choice":0,"rt":450.00000001164153,"outcome":1,"trial":22,"correct":0,"trial_type":"three-arm-trial","trial_index":57,"time_elapsed":1008199,"internal_node_id":"0.0-28.0-0.0","task_version":"screening-mturk","missing":false,"accuracy":1},{"contexts":["blue","red","green"],"outcomes":[0,0,1],"key":37,"choice":0,"rt":454.9000000115484,"outcome":0,"trial":23,"correct":0,"trial_type":"three-arm-trial","trial_index":58,"time_elapsed":1009865,"internal_node_id":"0.0-29.0-0.0","task_version":"screening-mturk","missing":false,"accuracy":1},{"contexts":["blue","red","green"],"outcomes":[1,1,0],"key":38,"choice":1,"rt":891.3450000109151,"outcome":1,"trial":24,"correct":0,"trial_type":"three-arm-trial","trial_index":59,"time_elapsed":1011971,"internal_node_id":"0.0-30.0-0.0","task_version":"screening-mturk","missing":false,"accuracy":0},{"contexts":["blue","red","green"],"outcomes":[0,0,0],"key":38,"choice":1,"rt":397.62999999220483,"outcome":0,"trial":25,"correct":0,"trial_type":"three-arm-trial","trial_index":60,"time_elapsed":1013575,"internal_node_id":"0.0-31.0-0.0","task_version":"screening-mturk","missing":false,"accuracy":0},{"contexts":["blue","red","green"],"outcomes":[1,1,0],"key":37,"choice":0,"rt":724.1799999901559,"outcome":1,"trial":26,"correct":0,"trial_type":"three-arm-trial","trial_index":61,"time_elapsed":1015510,"internal_node_id":"0.0-32.0-0.0","task_version":"screening-mturk","missing":false,"accuracy":1},{"contexts":["blue","red","green"],"outcomes":[1,0,0],"key":39,"choice":2,"rt":362.14499999186955,"outcome":0,"trial":27,"correct":0,"trial_type":"three-arm-trial","trial_index":62,"time_elapsed":1017083,"internal_node_id":"0.0-33.0-0.0","task_version":"screening-mturk","missing":false,"accuracy":0},{"contexts":["blue","red","green"],"outcomes":[1,0,0],"key":38,"choice":1,"rt":487.32499999459833,"outcome":0,"trial":28,"correct":0,"trial_type":"three-arm-trial","trial_index":63,"time_elapsed":1018780,"internal_node_id":"0.0-34.0-0.0","task_version":"screening-mturk","missing":false,"accuracy":0},{"contexts":["blue","red","green"],"outcomes":[1,0,0],"key":39,"choice":2,"rt":435.2950000029523,"outcome":0,"trial":29,"correct":0,"trial_type":"three-arm-trial","trial_index":64,"time_elapsed":1020432,"internal_node_id":"0.0-35.0-0.0","task_version":"screening-mturk","missing":false,"accuracy":0},{"contexts":["blue","red","green"],"outcomes":[1,0,0],"key":37,"choice":0,"rt":1080.9299999964423,"outcome":1,"trial":30,"correct":0,"trial_type":"three-arm-trial","trial_index":65,"time_elapsed":1022722,"internal_node_id":"0.0-36.0-0.0","task_version":"screening-mturk","missing":false,"accuracy":1},{"contexts":["blue","red","green"],"outcomes":[1,1,0],"key":39,"choice":2,"rt":419.64000000734814,"outcome":0,"trial":31,"correct":1,"trial_type":"three-arm-trial","trial_index":66,"time_elapsed":1024355,"internal_node_id":"0.0-37.0-0.0","task_version":"screening-mturk","missing":false,"accuracy":0},{"contexts":["blue","red","green"],"outcomes":[0,1,1],"key":39,"choice":2,"rt":467.0650000043679,"outcome":1,"trial":32,"correct":1,"trial_type":"three-arm-trial","trial_index":67,"time_elapsed":1026031,"internal_node_id":"0.0-38.0-0.0","task_version":"screening-mturk","missing":false,"accuracy":0},{"contexts":["blue","red","green"],"outcomes":[0,1,0],"key":39,"choice":2,"rt":369.51499999850057,"outcome":0,"trial":33,"correct":1,"trial_type":"three-arm-trial","trial_index":68,"time_elapsed":1027614,"internal_node_id":"0.0-39.0-0.0","task_version":"screening-mturk","missing":false,"accuracy":0},{"contexts":["blue","red","green"],"outcomes":[0,1,0],"key":38,"choice":1,"rt":456.0600000259001,"outcome":1,"trial":34,"correct":1,"trial_type":"three-arm-trial","trial_index":69,"time_elapsed":1029288,"internal_node_id":"0.0-40.0-0.0","task_version":"screening-mturk","missing":false,"accuracy":1},{"contexts":["blue","red","green"],"outcomes":[1,1,0],"key":37,"choice":0,"rt":388.54000001447275,"outcome":1,"trial":35,"correct":1,"trial_type":"three-arm-trial","trial_index":70,"time_elapsed":1030890,"internal_node_id":"0.0-41.0-0.0","task_version":"screening-mturk","missing":false,"accuracy":0},{"contexts":["blue","red","green"],"outcomes":[0,1,0],"key":39,"choice":2,"rt":519.2049999895971,"outcome":0,"trial":36,"correct":1,"trial_type":"three-arm-trial","trial_index":71,"time_elapsed":1032623,"internal_node_id":"0.0-42.0-0.0","task_version":"screening-mturk","missing":false,"accuracy":0},{"contexts":["blue","red","green"],"outcomes":[0,1,0],"key":37,"choice":0,"rt":683.6999999941327,"outcome":0,"trial":37,"correct":1,"trial_type":"three-arm-trial","trial_index":72,"time_elapsed":1034524,"internal_node_id":"0.0-43.0-0.0","task_version":"screening-mturk","missing":false,"accuracy":0},{"contexts":["blue","red","green"],"outcomes":[0,1,0],"key":37,"choice":0,"rt":523.6199999926612,"outcome":0,"trial":38,"correct":1,"trial_type":"three-arm-trial","trial_index":73,"time_elapsed":1036266,"internal_node_id":"0.0-44.0-0.0","task_version":"screening-mturk","missing":false,"accuracy":0},{"contexts":["blue","red","green"],"outcomes":[0,1,1],"key":39,"choice":2,"rt":433.2249999861233,"outcome":1,"trial":39,"correct":1,"trial_type":"three-arm-trial","trial_index":74,"time_elapsed":1037917,"internal_node_id":"0.0-45.0-0.0","task_version":"screening-mturk","missing":false,"accuracy":0},{"contexts":["blue","red","green"],"outcomes":[0,1,0],"key":39,"choice":2,"rt":469.57000001566485,"outcome":0,"trial":40,"correct":1,"trial_type":"three-arm-trial","trial_index":75,"time_elapsed":1039600,"internal_node_id":"0.0-46.0-0.0","task_version":"screening-mturk","missing":false,"accuracy":0},{"contexts":["blue","red","green"],"outcomes":[0,1,1],"key":37,"choice":0,"rt":467.6599999947939,"outcome":0,"trial":41,"correct":1,"trial_type":"three-arm-trial","trial_index":76,"time_elapsed":1041295,"internal_node_id":"0.0-47.0-0.0","task_version":"screening-mturk","missing":false,"accuracy":0},{"contexts":["blue","red","green"],"outcomes":[0,1,1],"key":37,"choice":0,"rt":752.89000000339,"outcome":0,"trial":42,"correct":1,"trial_type":"three-arm-trial","trial_index":77,"time_elapsed":1043257,"internal_node_id":"0.0-48.0-0.0","task_version":"screening-mturk","missing":false,"accuracy":0},{"contexts":["blue","red","green"],"outcomes":[0,0,0],"key":38,"choice":1,"rt":627.474999986589,"outcome":0,"trial":43,"correct":1,"trial_type":"three-arm-trial","trial_index":78,"time_elapsed":1045094,"internal_node_id":"0.0-49.0-0.0","task_version":"screening-mturk","missing":false,"accuracy":1},{"contexts":["blue","red","green"],"outcomes":[0,1,1],"key":39,"choice":2,"rt":76.43000001553446,"outcome":1,"trial":44,"correct":1,"trial_type":"three-arm-trial","trial_index":79,"time_elapsed":1046379,"internal_node_id":"0.0-50.0-0.0","task_version":"screening-mturk","missing":false,"accuracy":0},{"contexts":["blue","red","green"],"outcomes":[0,1,0],"key":39,"choice":2,"rt":508.7599999969825,"outcome":0,"trial":45,"correct":1,"trial_type":"three-arm-trial","trial_index":80,"time_elapsed":1048097,"internal_node_id":"0.0-51.0-0.0","task_version":"screening-mturk","missing":false,"accuracy":0},{"contexts":["blue","red","green"],"outcomes":[0,0,1],"key":37,"choice":0,"rt":429.9950000131503,"outcome":0,"trial":46,"correct":2,"trial_type":"three-arm-trial","trial_index":81,"time_elapsed":1049736,"internal_node_id":"0.0-52.0-0.0","task_version":"screening-mturk","missing":false,"accuracy":0},{"contexts":["blue","red","green"],"outcomes":[0,0,0],"key":38,"choice":1,"rt":513.440000009723,"outcome":0,"trial":47,"correct":2,"trial_type":"three-arm-trial","trial_index":82,"time_elapsed":1051457,"internal_node_id":"0.0-53.0-0.0","task_version":"screening-mturk","missing":false,"accuracy":0},{"contexts":["blue","red","green"],"outcomes":[0,0,1],"key":38,"choice":1,"rt":923.464999999851,"outcome":0,"trial":48,"correct":2,"trial_type":"three-arm-trial","trial_index":83,"time_elapsed":1053590,"internal_node_id":"0.0-54.0-0.0","task_version":"screening-mturk","missing":false,"accuracy":0},{"contexts":["blue","red","green"],"outcomes":[0,0,1],"key":39,"choice":2,"rt":371.2799999921117,"outcome":1,"trial":49,"correct":2,"trial_type":"three-arm-trial","trial_index":84,"time_elapsed":1055172,"internal_node_id":"0.0-55.0-0.0","task_version":"screening-mturk","missing":false,"accuracy":1},{"contexts":["blue","red","green"],"outcomes":[1,0,1],"key":39,"choice":2,"rt":572.5749999983236,"outcome":1,"trial":50,"correct":2,"trial_type":"three-arm-trial","trial_index":85,"time_elapsed":1056960,"internal_node_id":"0.0-56.0-0.0","task_version":"screening-mturk","missing":false,"accuracy":1},{"contexts":["blue","red","green"],"outcomes":[0,0,1],"key":39,"choice":2,"rt":543.9450000121724,"outcome":1,"trial":51,"correct":2,"trial_type":"three-arm-trial","trial_index":86,"time_elapsed":1058716,"internal_node_id":"0.0-57.0-0.0","task_version":"screening-mturk","missing":false,"accuracy":1},{"contexts":["blue","red","green"],"outcomes":[0,0,1],"key":39,"choice":2,"rt":466.8299999902956,"outcome":1,"trial":52,"correct":2,"trial_type":"three-arm-trial","trial_index":87,"time_elapsed":1060393,"internal_node_id":"0.0-58.0-0.0","task_version":"screening-mturk","missing":false,"accuracy":1},{"contexts":["blue","red","green"],"outcomes":[0,0,1],"key":39,"choice":2,"rt":1028.9300000004005,"outcome":1,"trial":53,"correct":2,"trial_type":"three-arm-trial","trial_index":88,"time_elapsed":1062637,"internal_node_id":"0.0-59.0-0.0","task_version":"screening-mturk","missing":false,"accuracy":1},{"contexts":["blue","red","green"],"outcomes":[1,0,1],"key":38,"choice":1,"rt":461.03500001481734,"outcome":0,"trial":54,"correct":2,"trial_type":"three-arm-trial","trial_index":89,"time_elapsed":1064309,"internal_node_id":"0.0-60.0-0.0","task_version":"screening-mturk","missing":false,"accuracy":0},{"contexts":["blue","red","green"],"outcomes":[0,0,1],"key":38,"choice":1,"rt":633.8399999949615,"outcome":0,"trial":55,"correct":2,"trial_type":"three-arm-trial","trial_index":90,"time_elapsed":1066153,"internal_node_id":"0.0-61.0-0.0","task_version":"screening-mturk","missing":false,"accuracy":0},{"contexts":["blue","red","green"],"outcomes":[0,1,1],"key":39,"choice":2,"rt":434.37999999150634,"outcome":1,"trial":56,"correct":2,"trial_type":"three-arm-trial","trial_index":91,"time_elapsed":1067800,"internal_node_id":"0.0-62.0-0.0","task_version":"screening-mturk","missing":false,"accuracy":1},{"contexts":["blue","red","green"],"outcomes":[0,0,1],"key":39,"choice":2,"rt":458.2850000006147,"outcome":1,"trial":57,"correct":2,"trial_type":"three-arm-trial","trial_index":92,"time_elapsed":1069466,"internal_node_id":"0.0-63.0-0.0","task_version":"screening-mturk","missing":false,"accuracy":1},{"contexts":["blue","red","green"],"outcomes":[0,0,1],"key":39,"choice":2,"rt":486.220000020694,"outcome":1,"trial":58,"correct":2,"trial_type":"three-arm-trial","trial_index":93,"time_elapsed":1071161,"internal_node_id":"0.0-64.0-0.0","task_version":"screening-mturk","missing":false,"accuracy":1},{"contexts":["blue","red","green"],"outcomes":[0,1,1],"key":39,"choice":2,"rt":476.4300000097137,"outcome":1,"trial":59,"correct":2,"trial_type":"three-arm-trial","trial_index":94,"time_elapsed":1072849,"internal_node_id":"0.0-65.0-0.0","task_version":"screening-mturk","missing":false,"accuracy":1},{"contexts":["blue","red","green"],"outcomes":[0,0,0],"key":39,"choice":2,"rt":420.254999975441,"outcome":0,"trial":60,"correct":2,"trial_type":"three-arm-trial","trial_index":95,"time_elapsed":1074478,"internal_node_id":"0.0-66.0-0.0","task_version":"screening-mturk","missing":false,"accuracy":1},{"contexts":["blue","red","green"],"outcomes":[1,0,0],"key":38,"choice":1,"rt":446.30499999038875,"outcome":0,"trial":61,"correct":0,"trial_type":"three-arm-trial","trial_index":96,"time_elapsed":1076133,"internal_node_id":"0.0-67.0-0.0","task_version":"screening-mturk","missing":false,"accuracy":0},{"contexts":["blue","red","green"],"outcomes":[1,0,0],"key":37,"choice":0,"rt":515.9850000054576,"outcome":1,"trial":62,"correct":0,"trial_type":"three-arm-trial","trial_index":97,"time_elapsed":1077861,"internal_node_id":"0.0-68.0-0.0","task_version":"screening-mturk","missing":false,"accuracy":1},{"contexts":["blue","red","green"],"outcomes":[1,0,0],"key":37,"choice":0,"rt":561.4850000129081,"outcome":1,"trial":63,"correct":0,"trial_type":"three-arm-trial","trial_index":98,"time_elapsed":1079636,"internal_node_id":"0.0-69.0-0.0","task_version":"screening-mturk","missing":false,"accuracy":1},{"contexts":["blue","red","green"],"outcomes":[1,0,0],"key":37,"choice":0,"rt":474.2499999993015,"outcome":1,"trial":64,"correct":0,"trial_type":"three-arm-trial","trial_index":99,"time_elapsed":1081323,"internal_node_id":"0.0-70.0-0.0","task_version":"screening-mturk","missing":false,"accuracy":1},{"contexts":["blue","red","green"],"outcomes":[1,0,0],"key":37,"choice":0,"rt":424.2099999974016,"outcome":1,"trial":65,"correct":0,"trial_type":"three-arm-trial","trial_index":100,"time_elapsed":1082957,"internal_node_id":"0.0-71.0-0.0","task_version":"screening-mturk","missing":false,"accuracy":1},{"contexts":["blue","red","green"],"outcomes":[1,0,0],"key":37,"choice":0,"rt":381.89000001875684,"outcome":1,"trial":66,"correct":0,"trial_type":"three-arm-trial","trial_index":101,"time_elapsed":1084545,"internal_node_id":"0.0-72.0-0.0","task_version":"screening-mturk","missing":false,"accuracy":1},{"contexts":["blue","red","green"],"outcomes":[1,0,0],"key":37,"choice":0,"rt":486.40500000328757,"outcome":1,"trial":67,"correct":0,"trial_type":"three-arm-trial","trial_index":102,"time_elapsed":1086247,"internal_node_id":"0.0-73.0-0.0","task_version":"screening-mturk","missing":false,"accuracy":1},{"contexts":["blue","red","green"],"outcomes":[1,0,0],"key":37,"choice":0,"rt":443.5200000007171,"outcome":1,"trial":68,"correct":0,"trial_type":"three-arm-trial","trial_index":103,"time_elapsed":1087912,"internal_node_id":"0.0-74.0-0.0","task_version":"screening-mturk","missing":false,"accuracy":1},{"contexts":["blue","red","green"],"outcomes":[1,0,0],"key":37,"choice":0,"rt":448.17000001785345,"outcome":1,"trial":69,"correct":0,"trial_type":"three-arm-trial","trial_index":104,"time_elapsed":1089571,"internal_node_id":"0.0-75.0-0.0","task_version":"screening-mturk","missing":false,"accuracy":1},{"contexts":["blue","red","green"],"outcomes":[1,0,0],"key":37,"choice":0,"rt":485.0600000063423,"outcome":1,"trial":70,"correct":0,"trial_type":"three-arm-trial","trial_index":105,"time_elapsed":1091267,"internal_node_id":"0.0-76.0-0.0","task_version":"screening-mturk","missing":false,"accuracy":1},{"contexts":["blue","red","green"],"outcomes":[1,0,0],"key":37,"choice":0,"rt":413.6049999797251,"outcome":1,"trial":71,"correct":0,"trial_type":"three-arm-trial","trial_index":106,"time_elapsed":1092894,"internal_node_id":"0.0-77.0-0.0","task_version":"screening-mturk","missing":false,"accuracy":1},{"contexts":["blue","red","green"],"outcomes":[1,0,0],"key":37,"choice":0,"rt":433.56999999377877,"outcome":1,"trial":72,"correct":0,"trial_type":"three-arm-trial","trial_index":107,"time_elapsed":1094539,"internal_node_id":"0.0-78.0-0.0","task_version":"screening-mturk","missing":false,"accuracy":1},{"contexts":["blue","red","green"],"outcomes":[0,0,0],"key":37,"choice":0,"rt":1106.8099999974947,"outcome":0,"trial":73,"correct":0,"trial_type":"three-arm-trial","trial_index":108,"time_elapsed":1096853,"internal_node_id":"0.0-79.0-0.0","task_version":"screening-mturk","missing":false,"accuracy":1},{"contexts":["blue","red","green"],"outcomes":[0,0,0],"key":39,"choice":2,"rt":610.7450000126846,"outcome":0,"trial":74,"correct":0,"trial_type":"three-arm-trial","trial_index":109,"time_elapsed":1098672,"internal_node_id":"0.0-80.0-0.0","task_version":"screening-mturk","missing":false,"accuracy":0},{"contexts":["blue","red","green"],"outcomes":[1,0,0],"key":38,"choice":1,"rt":506.5900000045076,"outcome":0,"trial":75,"correct":0,"trial_type":"three-arm-trial","trial_index":110,"time_elapsed":1100391,"internal_node_id":"0.0-81.0-0.0","task_version":"screening-mturk","missing":false,"accuracy":0},{"contexts":["blue","red","green"],"outcomes":[0,0,1],"key":39,"choice":2,"rt":449.0100000111852,"outcome":1,"trial":76,"correct":2,"trial_type":"three-arm-trial","trial_index":111,"time_elapsed":1102048,"internal_node_id":"0.0-82.0-0.0","task_version":"screening-mturk","missing":false,"accuracy":1},{"contexts":["blue","red","green"],"outcomes":[0,0,1],"key":39,"choice":2,"rt":443.28499998664483,"outcome":1,"trial":77,"correct":2,"trial_type":"three-arm-trial","trial_index":112,"time_elapsed":1103710,"internal_node_id":"0.0-83.0-0.0","task_version":"screening-mturk","missing":false,"accuracy":1},{"contexts":["blue","red","green"],"outcomes":[0,0,1],"key":39,"choice":2,"rt":452.28500000666827,"outcome":1,"trial":78,"correct":2,"trial_type":"three-arm-trial","trial_index":113,"time_elapsed":1105371,"internal_node_id":"0.0-84.0-0.0","task_version":"screening-mturk","missing":false,"accuracy":1},{"contexts":["blue","red","green"],"outcomes":[0,0,1],"key":39,"choice":2,"rt":419.88500001025386,"outcome":1,"trial":79,"correct":2,"trial_type":"three-arm-trial","trial_index":114,"time_elapsed":1107002,"internal_node_id":"0.0-85.0-0.0","task_version":"screening-mturk","missing":false,"accuracy":1},{"contexts":["blue","red","green"],"outcomes":[0,0,1],"key":39,"choice":2,"rt":750.5050000036135,"outcome":1,"trial":80,"correct":2,"trial_type":"three-arm-trial","trial_index":115,"time_elapsed":1108962,"internal_node_id":"0.0-86.0-0.0","task_version":"screening-mturk","missing":false,"accuracy":1},{"contexts":["blue","red","green"],"outcomes":[0,0,1],"key":39,"choice":2,"rt":565.535000001546,"outcome":1,"trial":81,"correct":2,"trial_type":"three-arm-trial","trial_index":116,"time_elapsed":1110743,"internal_node_id":"0.0-87.0-0.0","task_version":"screening-mturk","missing":false,"accuracy":1},{"contexts":["blue","red","green"],"outcomes":[1,0,1],"key":39,"choice":2,"rt":598.4900000039488,"outcome":1,"trial":82,"correct":2,"trial_type":"three-arm-trial","trial_index":117,"time_elapsed":1112551,"internal_node_id":"0.0-88.0-0.0","task_version":"screening-mturk","missing":false,"accuracy":1},{"contexts":["blue","red","green"],"outcomes":[0,1,1],"key":39,"choice":2,"rt":557.1250000211876,"outcome":1,"trial":83,"correct":2,"trial_type":"three-arm-trial","trial_index":118,"time_elapsed":1114329,"internal_node_id":"0.0-89.0-0.0","task_version":"screening-mturk","missing":false,"accuracy":1},{"contexts":["blue","red","green"],"outcomes":[0,0,1],"key":39,"choice":2,"rt":198.31999999587424,"outcome":1,"trial":84,"correct":2,"trial_type":"three-arm-trial","trial_index":119,"time_elapsed":1115734,"internal_node_id":"0.0-90.0-0.0","task_version":"screening-mturk","missing":false,"accuracy":1},{"contexts":["blue","red","green"],"outcomes":[0,0,1],"key":39,"choice":2,"rt":417.2850000031758,"outcome":1,"trial":85,"correct":2,"trial_type":"three-arm-trial","trial_index":120,"time_elapsed":1117367,"internal_node_id":"0.0-91.0-0.0","task_version":"screening-mturk","missing":false,"accuracy":1},{"contexts":["blue","red","green"],"outcomes":[0,0,0],"key":39,"choice":2,"rt":513.0950000020675,"outcome":0,"trial":86,"correct":2,"trial_type":"three-arm-trial","trial_index":121,"time_elapsed":1119093,"internal_node_id":"0.0-92.0-0.0","task_version":"screening-mturk","missing":false,"accuracy":1},{"contexts":["blue","red","green"],"outcomes":[0,0,1],"key":37,"choice":0,"rt":662.4149999988731,"outcome":0,"trial":87,"correct":2,"trial_type":"three-arm-trial","trial_index":122,"time_elapsed":1120965,"internal_node_id":"0.0-93.0-0.0","task_version":"screening-mturk","missing":false,"accuracy":0},{"contexts":["blue","red","green"],"outcomes":[0,0,1],"key":39,"choice":2,"rt":608.1449999765027,"outcome":1,"trial":88,"correct":2,"trial_type":"three-arm-trial","trial_index":123,"time_elapsed":1122784,"internal_node_id":"0.0-94.0-0.0","task_version":"screening-mturk","missing":false,"accuracy":1},{"contexts":["blue","red","green"],"outcomes":[0,1,1],"key":39,"choice":2,"rt":425.6100000056904,"outcome":1,"trial":89,"correct":2,"trial_type":"three-arm-trial","trial_index":124,"time_elapsed":1124433,"internal_node_id":"0.0-95.0-0.0","task_version":"screening-mturk","missing":false,"accuracy":1},{"contexts":["blue","red","green"],"outcomes":[0,0,1],"key":39,"choice":2,"rt":393.0149999796413,"outcome":1,"trial":90,"correct":2,"trial_type":"three-arm-trial","trial_index":125,"time_elapsed":1126036,"internal_node_id":"0.0-96.0-0.0","task_version":"screening-mturk","missing":false,"accuracy":1},{"rt":64981.71000002185,"responses":{"age":"65","gender-categorical":"Male","gender-free-response":"","ethnicity":"Not Hispanic or Latino","race":["White"],"language":"Yes","fluency":"Very well","prolific":"No","prolific-this-study":"No"},"survey":"demographics","trial_type":"survey-demo","trial_index":126,"time_elapsed":1191050,"internal_node_id":"0.0-97.0","task_version":"screening-mturk","interactions":"[{\"event\":\"blur\",\"trial\":0,\"time\":1419},{\"event\":\"focus\",\"trial\":0,\"time\":2450},{\"event\":\"blur\",\"trial\":2,\"time\":57089},{\"event\":\"focus\",\"trial\":2,\"time\":60067},{\"event\":\"blur\",\"trial\":2,\"time\":65880},{\"event\":\"focus\",\"trial\":2,\"time\":72423},{\"event\":\"blur\",\"trial\":4,\"time\":121483},{\"event\":\"focus\",\"trial\":4,\"time\":123361},{\"event\":\"blur\",\"trial\":4,\"time\":147639},{\"event\":\"focus\",\"trial\":4,\"time\":147993},{\"event\":\"blur\",\"trial\":5,\"time\":164309},{\"event\":\"focus\",\"trial\":5,\"time\":179338},{\"event\":\"blur\",\"trial\":5,\"time\":191415},{\"event\":\"focus\",\"trial\":5,\"time\":195838},{\"event\":\"blur\",\"trial\":19,\"time\":558760},{\"event\":\"focus\",\"trial\":19,\"time\":566653},{\"event\":\"blur\",\"trial\":19,\"time\":605250},{\"event\":\"focus\",\"trial\":19,\"time\":622585},{\"event\":\"blur\",\"trial\":19,\"time\":630020},{\"event\":\"focus\",\"trial\":19,\"time\":631298},{\"event\":\"blur\",\"trial\":19,\"time\":632076},{\"event\":\"focus\",\"trial\":19,\"time\":635589},{\"event\":\"blur\",\"trial\":19,\"time\":652838},{\"event\":\"focus\",\"trial\":19,\"time\":655862},{\"event\":\"blur\",\"trial\":19,\"time\":662533},{\"event\":\"focus\",\"trial\":19,\"time\":665676},{\"event\":\"blur\",\"trial\":19,\"time\":679691},{\"event\":\"focus\",\"trial\":19,\"time\":682759},{\"event\":\"blur\",\"trial\":19,\"time\":692051},{\"event\":\"focus\",\"trial\":19,\"time\":695208},{\"event\":\"blur\",\"trial\":20,\"time\":723421},{\"event\":\"focus\",\"trial\":20,\"time\":728293},{\"event\":\"blur\",\"trial\":30,\"time\":817485},{\"event\":\"focus\",\"trial\":30,\"time\":848045},{\"event\":\"blur\",\"trial\":30,\"time\":859421},{\"event\":\"focus\",\"trial\":30,\"time\":888100},{\"event\":\"blur\",\"trial\":30,\"time\":892819},{\"event\":\"focus\",\"trial\":30,\"time\":906232},{\"event\":\"blur\",\"trial\":126,\"time\":1163815},{\"event\":\"focus\",\"trial\":126,\"time\":1168837}]"}]