[{"responses":{"Q02":"3","Q01":"2","Q03":"1"},"rt":26104,"survey":"pswq","trial_type":"survey-template","trial_index":0,"time_elapsed":26111,"internal_node_id":"0.0-0.0","task_version":"screening-prolific"},{"responses":{"Q04":"0","Q06":"2","Q02":"1","Q01":"2","Q05":"3","Q07":"0","Q03":"0","Q08":"0"},"rt":41721,"survey":"gad7","trial_type":"survey-template","trial_index":1,"time_elapsed":67838,"internal_node_id":"0.0-1.0","task_version":"screening-prolific"},{"responses":{"Q04":"3","Q11":"2","Q06":"2","Q10":"2","Q13":"2","Q07":"2","Q14":"2","Q05":"3","Q08":"2","Q03":"3","Q02":"2","Q09":"3","Q12":"3","Q15":"2","Q01":"2"},"rt":85357,"survey":"shaps","trial_type":"survey-template","trial_index":2,"time_elapsed":153202,"internal_node_id":"0.0-2.0","task_version":"screening-prolific"},{"responses":{"Q04":"3","Q12":"2","Q11":"1","Q10":"2","Q09":"1","Q08":"3","Q13":"3","Q03":"1","Q06":"3","Q01":"2","Q02":"0","Q05":"3","Q07":"3"},"rt":134627,"survey":"bisbas","trial_type":"survey-template","trial_index":3,"time_elapsed":287838,"internal_node_id":"0.0-3.0","task_version":"screening-prolific"},{"responses":{"Q11":"2","Q12":"2","Q06":"1","Q03":"2","Q10":"1","Q04":"1","Q13":"1","Q14":"0","Q07":"2","Q02":"1","Q08":"0","Q05":"1","Q01":"1","Q09":"2","Q15":"0"},"rt":183973,"survey":"7up7down","trial_type":"survey-template","trial_index":4,"time_elapsed":471819,"internal_node_id":"0.0-4.0","task_version":"screening-prolific"},{"view_history":"[{\"page_index\":0,\"viewing_time\":10437},{\"page_index\":1,\"viewing_time\":27380},{\"page_index\":2,\"viewing_time\":16699},{\"page_index\":3,\"viewing_time\":10113},{\"page_index\":4,\"viewing_time\":9591},{\"page_index\":5,\"viewing_time\":6537},{\"page_index\":6,\"viewing_time\":4999},{\"page_index\":7,\"viewing_time\":6578}]","rt":92334,"trial_type":"instructions","trial_index":5,"time_elapsed":564157,"internal_node_id":"0.0-5.0-0.0","task_version":"screening-prolific"},{"responses":["True","True","False","False","True"],"num_errors":0,"rt":44455,"trial_type":"three-arm-comprehension","trial_index":6,"time_elapsed":608620,"internal_node_id":"0.0-5.0-1.0","task_version":"screening-prolific"},{"view_history":"[{\"page_index\":0,\"viewing_time\":2707}]","rt":2707,"trial_type":"instructions","trial_index":7,"time_elapsed":611332,"internal_node_id":"0.0-6.0","task_version":"screening-prolific"},{"contexts":["red","blue","green"],"outcomes":[0,0,0],"key":38,"choice":1,"rt":5115,"outcome":0,"trial":1,"correct":2,"trial_type":"three-arm-trial","trial_index":8,"time_elapsed":617655,"internal_node_id":"0.0-7.0-0.0","task_version":"screening-prolific","missing":false,"accuracy":0},{"contexts":["red","blue","green"],"outcomes":[0,0,1],"key":37,"choice":0,"rt":2490,"outcome":0,"trial":2,"correct":2,"trial_type":"three-arm-trial","trial_index":9,"time_elapsed":621350,"internal_node_id":"0.0-8.0-0.0","task_version":"screening-prolific","missing":false,"accuracy":0},{"contexts":["red","blue","green"],"outcomes":[0,0,1],"key":39,"choice":2,"rt":571,"outcome":1,"trial":3,"correct":2,"trial_type":"three-arm-trial","trial_index":10,"time_elapsed":623127,"internal_node_id":"0.0-9.0-0.0","task_version":"screening-prolific","missing":false,"accuracy":1},{"contexts":["red","blue","green"],"outcomes":[0,0,1],"key":39,"choice":2,"rt":717,"outcome":1,"trial":4,"correct":2,"trial_type":"three-arm-trial","trial_index":11,"time_elapsed":625048,"internal_node_id":"0.0-10.0-0.0","task_version":"screening-prolific","missing":false,"accuracy":1},{"contexts":["red","blue","green"],"outcomes":[1,0,1],"key":38,"choice":1,"rt":915,"outcome":0,"trial":5,"correct":2,"trial_type":"three-arm-trial","trial_index":12,"time_elapsed":627167,"internal_node_id":"0.0-11.0-0.0","task_version":"screening-prolific","missing":false,"accuracy":0},{"contexts":["red","blue","green"],"outcomes":[0,0,1],"key":37,"choice":0,"rt":1412,"outcome":0,"trial":6,"correct":2,"trial_type":"three-arm-trial","trial_index":13,"time_elapsed":629783,"internal_node_id":"0.0-12.0-0.0","task_version":"screening-prolific","missing":false,"accuracy":0},{"contexts":["red","blue","green"],"outcomes":[1,0,1],"key":39,"choice":2,"rt":890,"outcome":1,"trial":7,"correct":2,"trial_type":"three-arm-trial","trial_index":14,"time_elapsed":631882,"internal_node_id":"0.0-13.0-0.0","task_version":"screening-prolific","missing":false,"accuracy":1},{"contexts":["red","blue","green"],"outcomes":[0,0,1],"key":39,"choice":2,"rt":554,"outcome":1,"trial":8,"correct":2,"trial_type":"three-arm-trial","trial_index":15,"time_elapsed":633640,"internal_node_id":"0.0-14.0-0.0","task_version":"screening-prolific","missing":false,"accuracy":1},{"contexts":["red","blue","green"],"outcomes":[0,0,1],"key":39,"choice":2,"rt":403,"outcome":1,"trial":9,"correct":2,"trial_type":"three-arm-trial","trial_index":16,"time_elapsed":635246,"internal_node_id":"0.0-15.0-0.0","task_version":"screening-prolific","missing":false,"accuracy":1},{"contexts":["red","blue","green"],"outcomes":[0,1,0],"key":39,"choice":2,"rt":421,"outcome":0,"trial":10,"correct":2,"trial_type":"three-arm-trial","trial_index":17,"time_elapsed":636872,"internal_node_id":"0.0-16.0-0.0","task_version":"screening-prolific","missing":false,"accuracy":1},{"contexts":["red","blue","green"],"outcomes":[0,0,1],"key":38,"choice":1,"rt":472,"outcome":0,"trial":11,"correct":2,"trial_type":"three-arm-trial","trial_index":18,"time_elapsed":638550,"internal_node_id":"0.0-17.0-0.0","task_version":"screening-prolific","missing":false,"accuracy":0},{"contexts":["red","blue","green"],"outcomes":[0,1,1],"key":37,"choice":0,"rt":343,"outcome":0,"trial":12,"correct":2,"trial_type":"three-arm-trial","trial_index":19,"time_elapsed":640099,"internal_node_id":"0.0-18.0-0.0","task_version":"screening-prolific","missing":false,"accuracy":0},{"contexts":["red","blue","green"],"outcomes":[0,0,0],"key":39,"choice":2,"rt":488,"outcome":0,"trial":13,"correct":2,"trial_type":"three-arm-trial","trial_index":20,"time_elapsed":641793,"internal_node_id":"0.0-19.0-0.0","task_version":"screening-prolific","missing":false,"accuracy":1},{"contexts":["red","blue","green"],"outcomes":[1,0,1],"key":39,"choice":2,"rt":417,"outcome":1,"trial":14,"correct":2,"trial_type":"three-arm-trial","trial_index":21,"time_elapsed":643415,"internal_node_id":"0.0-20.0-0.0","task_version":"screening-prolific","missing":false,"accuracy":1},{"contexts":["red","blue","green"],"outcomes":[1,0,1],"key":39,"choice":2,"rt":1140,"outcome":1,"trial":15,"correct":2,"trial_type":"three-arm-trial","trial_index":22,"time_elapsed":645760,"internal_node_id":"0.0-21.0-0.0","task_version":"screening-prolific","missing":false,"accuracy":1},{"contexts":["red","blue","green"],"outcomes":[1,0,0],"key":39,"choice":2,"rt":489,"outcome":0,"trial":16,"correct":0,"trial_type":"three-arm-trial","trial_index":23,"time_elapsed":647455,"internal_node_id":"0.0-22.0-0.0","task_version":"screening-prolific","missing":false,"accuracy":0},{"contexts":["red","blue","green"],"outcomes":[1,0,0],"key":38,"choice":1,"rt":452,"outcome":0,"trial":17,"correct":0,"trial_type":"three-arm-trial","trial_index":24,"time_elapsed":649112,"internal_node_id":"0.0-23.0-0.0","task_version":"screening-prolific","missing":false,"accuracy":0},{"contexts":["red","blue","green"],"outcomes":[1,1,0],"key":38,"choice":1,"rt":330,"outcome":1,"trial":18,"correct":0,"trial_type":"three-arm-trial","trial_index":25,"time_elapsed":650647,"internal_node_id":"0.0-24.0-0.0","task_version":"screening-prolific","missing":false,"accuracy":0},{"contexts":["red","blue","green"],"outcomes":[1,0,1],"key":38,"choice":1,"rt":443,"outcome":0,"trial":19,"correct":0,"trial_type":"three-arm-trial","trial_index":26,"time_elapsed":652295,"internal_node_id":"0.0-25.0-0.0","task_version":"screening-prolific","missing":false,"accuracy":0},{"contexts":["red","blue","green"],"outcomes":[1,1,1],"key":37,"choice":0,"rt":381,"outcome":1,"trial":20,"correct":0,"trial_type":"three-arm-trial","trial_index":27,"time_elapsed":653883,"internal_node_id":"0.0-26.0-0.0","task_version":"screening-prolific","missing":false,"accuracy":1},{"contexts":["red","blue","green"],"outcomes":[1,1,0],"key":39,"choice":2,"rt":496,"outcome":0,"trial":21,"correct":0,"trial_type":"three-arm-trial","trial_index":28,"time_elapsed":655583,"internal_node_id":"0.0-27.0-0.0","task_version":"screening-prolific","missing":false,"accuracy":0},{"contexts":["red","blue","green"],"outcomes":[1,0,0],"key":39,"choice":2,"rt":524,"outcome":0,"trial":22,"correct":0,"trial_type":"three-arm-trial","trial_index":29,"time_elapsed":657311,"internal_node_id":"0.0-28.0-0.0","task_version":"screening-prolific","missing":false,"accuracy":0},{"contexts":["red","blue","green"],"outcomes":[1,0,0],"key":38,"choice":1,"rt":372,"outcome":0,"trial":23,"correct":0,"trial_type":"three-arm-trial","trial_index":30,"time_elapsed":658886,"internal_node_id":"0.0-29.0-0.0","task_version":"screening-prolific","missing":false,"accuracy":0},{"contexts":["red","blue","green"],"outcomes":[0,1,0],"key":38,"choice":1,"rt":268,"outcome":1,"trial":24,"correct":0,"trial_type":"three-arm-trial","trial_index":31,"time_elapsed":660359,"internal_node_id":"0.0-30.0-0.0","task_version":"screening-prolific","missing":false,"accuracy":0},{"contexts":["red","blue","green"],"outcomes":[1,0,1],"key":37,"choice":0,"rt":370,"outcome":1,"trial":25,"correct":0,"trial_type":"three-arm-trial","trial_index":32,"time_elapsed":661936,"internal_node_id":"0.0-31.0-0.0","task_version":"screening-prolific","missing":false,"accuracy":1},{"contexts":["red","blue","green"],"outcomes":[1,0,0],"key":39,"choice":2,"rt":1195,"outcome":0,"trial":26,"correct":0,"trial_type":"three-arm-trial","trial_index":33,"time_elapsed":664335,"internal_node_id":"0.0-32.0-0.0","task_version":"screening-prolific","missing":false,"accuracy":0},{"contexts":["red","blue","green"],"outcomes":[1,0,0],"key":39,"choice":2,"rt":411,"outcome":0,"trial":27,"correct":0,"trial_type":"three-arm-trial","trial_index":34,"time_elapsed":665951,"internal_node_id":"0.0-33.0-0.0","task_version":"screening-prolific","missing":false,"accuracy":0},{"contexts":["red","blue","green"],"outcomes":[1,1,0],"key":38,"choice":1,"rt":707,"outcome":1,"trial":28,"correct":0,"trial_type":"three-arm-trial","trial_index":35,"time_elapsed":667863,"internal_node_id":"0.0-34.0-0.0","task_version":"screening-prolific","missing":false,"accuracy":0},{"contexts":["red","blue","green"],"outcomes":[1,0,0],"key":37,"choice":0,"rt":542,"outcome":1,"trial":29,"correct":0,"trial_type":"three-arm-trial","trial_index":36,"time_elapsed":669609,"internal_node_id":"0.0-35.0-0.0","task_version":"screening-prolific","missing":false,"accuracy":1},{"contexts":["red","blue","green"],"outcomes":[1,0,0],"key":38,"choice":1,"rt":1162,"outcome":0,"trial":30,"correct":0,"trial_type":"three-arm-trial","trial_index":37,"time_elapsed":671976,"internal_node_id":"0.0-36.0-0.0","task_version":"screening-prolific","missing":false,"accuracy":0},{"contexts":["red","blue","green"],"outcomes":[0,1,1],"key":37,"choice":0,"rt":227,"outcome":0,"trial":31,"correct":1,"trial_type":"three-arm-trial","trial_index":38,"time_elapsed":673408,"internal_node_id":"0.0-37.0-0.0","task_version":"screening-prolific","missing":false,"accuracy":0},{"contexts":["red","blue","green"],"outcomes":[1,0,0],"key":39,"choice":2,"rt":317,"outcome":0,"trial":32,"correct":1,"trial_type":"three-arm-trial","trial_index":39,"time_elapsed":674928,"internal_node_id":"0.0-38.0-0.0","task_version":"screening-prolific","missing":false,"accuracy":0},{"contexts":["red","blue","green"],"outcomes":[1,0,0],"key":39,"choice":2,"rt":307,"outcome":0,"trial":33,"correct":1,"trial_type":"three-arm-trial","trial_index":40,"time_elapsed":676439,"internal_node_id":"0.0-39.0-0.0","task_version":"screening-prolific","missing":false,"accuracy":0},{"contexts":["red","blue","green"],"outcomes":[1,1,0],"key":39,"choice":2,"rt":269,"outcome":0,"trial":34,"correct":1,"trial_type":"three-arm-trial","trial_index":41,"time_elapsed":677912,"internal_node_id":"0.0-40.0-0.0","task_version":"screening-prolific","missing":false,"accuracy":0},{"contexts":["red","blue","green"],"outcomes":[0,1,0],"key":38,"choice":1,"rt":139,"outcome":1,"trial":35,"correct":1,"trial_type":"three-arm-trial","trial_index":42,"time_elapsed":679256,"internal_node_id":"0.0-41.0-0.0","task_version":"screening-prolific","missing":false,"accuracy":1},{"contexts":["red","blue","green"],"outcomes":[0,1,1],"key":37,"choice":0,"rt":1467,"outcome":0,"trial":36,"correct":1,"trial_type":"three-arm-trial","trial_index":43,"time_elapsed":681927,"internal_node_id":"0.0-42.0-0.0","task_version":"screening-prolific","missing":false,"accuracy":0},{"contexts":["red","blue","green"],"outcomes":[1,1,0],"key":38,"choice":1,"rt":573,"outcome":1,"trial":37,"correct":1,"trial_type":"three-arm-trial","trial_index":44,"time_elapsed":683705,"internal_node_id":"0.0-43.0-0.0","task_version":"screening-prolific","missing":false,"accuracy":1},{"contexts":["red","blue","green"],"outcomes":[1,1,0],"key":38,"choice":1,"rt":411,"outcome":1,"trial":38,"correct":1,"trial_type":"three-arm-trial","trial_index":45,"time_elapsed":685320,"internal_node_id":"0.0-44.0-0.0","task_version":"screening-prolific","missing":false,"accuracy":1},{"contexts":["red","blue","green"],"outcomes":[0,1,0],"key":38,"choice":1,"rt":482,"outcome":1,"trial":39,"correct":1,"trial_type":"three-arm-trial","trial_index":46,"time_elapsed":687007,"internal_node_id":"0.0-45.0-0.0","task_version":"screening-prolific","missing":false,"accuracy":1},{"contexts":["red","blue","green"],"outcomes":[0,1,0],"key":38,"choice":1,"rt":382,"outcome":1,"trial":40,"correct":1,"trial_type":"three-arm-trial","trial_index":47,"time_elapsed":688593,"internal_node_id":"0.0-46.0-0.0","task_version":"screening-prolific","missing":false,"accuracy":1},{"contexts":["red","blue","green"],"outcomes":[0,1,0],"key":38,"choice":1,"rt":507,"outcome":1,"trial":41,"correct":1,"trial_type":"three-arm-trial","trial_index":48,"time_elapsed":690304,"internal_node_id":"0.0-47.0-0.0","task_version":"screening-prolific","missing":false,"accuracy":1},{"contexts":["red","blue","green"],"outcomes":[0,1,1],"key":38,"choice":1,"rt":340,"outcome":1,"trial":42,"correct":1,"trial_type":"three-arm-trial","trial_index":49,"time_elapsed":691849,"internal_node_id":"0.0-48.0-0.0","task_version":"screening-prolific","missing":false,"accuracy":1},{"contexts":["red","blue","green"],"outcomes":[1,1,1],"key":38,"choice":1,"rt":347,"outcome":1,"trial":43,"correct":1,"trial_type":"three-arm-trial","trial_index":50,"time_elapsed":693399,"internal_node_id":"0.0-49.0-0.0","task_version":"screening-prolific","missing":false,"accuracy":1},{"contexts":["red","blue","green"],"outcomes":[0,1,0],"key":38,"choice":1,"rt":389,"outcome":1,"trial":44,"correct":1,"trial_type":"three-arm-trial","trial_index":51,"time_elapsed":694992,"internal_node_id":"0.0-50.0-0.0","task_version":"screening-prolific","missing":false,"accuracy":1},{"contexts":["red","blue","green"],"outcomes":[0,1,0],"key":38,"choice":1,"rt":444,"outcome":1,"trial":45,"correct":1,"trial_type":"three-arm-trial","trial_index":52,"time_elapsed":696640,"internal_node_id":"0.0-51.0-0.0","task_version":"screening-prolific","missing":false,"accuracy":1},{"contexts":["red","blue","green"],"outcomes":[0,1,0],"key":38,"choice":1,"rt":388,"outcome":1,"trial":46,"correct":2,"trial_type":"three-arm-trial","trial_index":53,"time_elapsed":698232,"internal_node_id":"0.0-52.0-0.0","task_version":"screening-prolific","missing":false,"accuracy":0},{"contexts":["red","blue","green"],"outcomes":[0,0,0],"key":38,"choice":1,"rt":421,"outcome":0,"trial":47,"correct":2,"trial_type":"three-arm-trial","trial_index":54,"time_elapsed":699856,"internal_node_id":"0.0-53.0-0.0","task_version":"screening-prolific","missing":false,"accuracy":0},{"contexts":["red","blue","green"],"outcomes":[0,0,1],"key":39,"choice":2,"rt":389,"outcome":1,"trial":48,"correct":2,"trial_type":"three-arm-trial","trial_index":55,"time_elapsed":701449,"internal_node_id":"0.0-54.0-0.0","task_version":"screening-prolific","missing":false,"accuracy":1},{"contexts":["red","blue","green"],"outcomes":[0,0,1],"key":39,"choice":2,"rt":572,"outcome":1,"trial":49,"correct":2,"trial_type":"three-arm-trial","trial_index":56,"time_elapsed":703224,"internal_node_id":"0.0-55.0-0.0","task_version":"screening-prolific","missing":false,"accuracy":1},{"contexts":["red","blue","green"],"outcomes":[0,0,1],"key":39,"choice":2,"rt":349,"outcome":1,"trial":50,"correct":2,"trial_type":"three-arm-trial","trial_index":57,"time_elapsed":704777,"internal_node_id":"0.0-56.0-0.0","task_version":"screening-prolific","missing":false,"accuracy":1},{"contexts":["red","blue","green"],"outcomes":[0,0,1],"key":39,"choice":2,"rt":386,"outcome":1,"trial":51,"correct":2,"trial_type":"three-arm-trial","trial_index":58,"time_elapsed":706368,"internal_node_id":"0.0-57.0-0.0","task_version":"screening-prolific","missing":false,"accuracy":1},{"contexts":["red","blue","green"],"outcomes":[1,0,1],"key":39,"choice":2,"rt":355,"outcome":1,"trial":52,"correct":2,"trial_type":"three-arm-trial","trial_index":59,"time_elapsed":707929,"internal_node_id":"0.0-58.0-0.0","task_version":"screening-prolific","missing":false,"accuracy":1},{"contexts":["red","blue","green"],"outcomes":[1,0,0],"key":39,"choice":2,"rt":425,"outcome":0,"trial":53,"correct":2,"trial_type":"three-arm-trial","trial_index":60,"time_elapsed":709561,"internal_node_id":"0.0-59.0-0.0","task_version":"screening-prolific","missing":false,"accuracy":1},{"contexts":["red","blue","green"],"outcomes":[0,0,1],"key":37,"choice":0,"rt":684,"outcome":0,"trial":54,"correct":2,"trial_type":"three-arm-trial","trial_index":61,"time_elapsed":711448,"internal_node_id":"0.0-60.0-0.0","task_version":"screening-prolific","missing":false,"accuracy":0},{"contexts":["red","blue","green"],"outcomes":[0,0,1],"key":38,"choice":1,"rt":324,"outcome":0,"trial":55,"correct":2,"trial_type":"three-arm-trial","trial_index":62,"time_elapsed":712977,"internal_node_id":"0.0-61.0-0.0","task_version":"screening-prolific","missing":false,"accuracy":0},{"contexts":["red","blue","green"],"outcomes":[0,1,0],"key":37,"choice":0,"rt":625,"outcome":0,"trial":56,"correct":2,"trial_type":"three-arm-trial","trial_index":63,"time_elapsed":714809,"internal_node_id":"0.0-62.0-0.0","task_version":"screening-prolific","missing":false,"accuracy":0},{"contexts":["red","blue","green"],"outcomes":[0,1,1],"key":39,"choice":2,"rt":394,"outcome":1,"trial":57,"correct":2,"trial_type":"three-arm-trial","trial_index":64,"time_elapsed":716410,"internal_node_id":"0.0-63.0-0.0","task_version":"screening-prolific","missing":false,"accuracy":1},{"contexts":["red","blue","green"],"outcomes":[0,0,1],"key":39,"choice":2,"rt":515,"outcome":1,"trial":58,"correct":2,"trial_type":"three-arm-trial","trial_index":65,"time_elapsed":718130,"internal_node_id":"0.0-64.0-0.0","task_version":"screening-prolific","missing":false,"accuracy":1},{"contexts":["red","blue","green"],"outcomes":[1,0,1],"key":39,"choice":2,"rt":3737,"outcome":1,"trial":59,"correct":2,"trial_type":"three-arm-trial","trial_index":66,"time_elapsed":723074,"internal_node_id":"0.0-65.0-0.0","task_version":"screening-prolific","missing":false,"accuracy":1},{"contexts":["red","blue","green"],"outcomes":[0,1,1],"key":39,"choice":2,"rt":371,"outcome":1,"trial":60,"correct":2,"trial_type":"three-arm-trial","trial_index":67,"time_elapsed":724649,"internal_node_id":"0.0-66.0-0.0","task_version":"screening-prolific","missing":false,"accuracy":1},{"contexts":["red","blue","green"],"outcomes":[0,1,0],"key":39,"choice":2,"rt":308,"outcome":0,"trial":61,"correct":1,"trial_type":"three-arm-trial","trial_index":68,"time_elapsed":726161,"internal_node_id":"0.0-67.0-0.0","task_version":"screening-prolific","missing":false,"accuracy":0},{"contexts":["red","blue","green"],"outcomes":[1,1,0],"key":38,"choice":1,"rt":324,"outcome":1,"trial":62,"correct":1,"trial_type":"three-arm-trial","trial_index":69,"time_elapsed":727689,"internal_node_id":"0.0-68.0-0.0","task_version":"screening-prolific","missing":false,"accuracy":1},{"contexts":["red","blue","green"],"outcomes":[0,1,0],"key":38,"choice":1,"rt":332,"outcome":1,"trial":63,"correct":1,"trial_type":"three-arm-trial","trial_index":70,"time_elapsed":729225,"internal_node_id":"0.0-69.0-0.0","task_version":"screening-prolific","missing":false,"accuracy":1},{"contexts":["red","blue","green"],"outcomes":[0,1,0],"key":38,"choice":1,"rt":372,"outcome":1,"trial":64,"correct":1,"trial_type":"three-arm-trial","trial_index":71,"time_elapsed":730801,"internal_node_id":"0.0-70.0-0.0","task_version":"screening-prolific","missing":false,"accuracy":1},{"contexts":["red","blue","green"],"outcomes":[1,1,0],"key":38,"choice":1,"rt":381,"outcome":1,"trial":65,"correct":1,"trial_type":"three-arm-trial","trial_index":72,"time_elapsed":732386,"internal_node_id":"0.0-71.0-0.0","task_version":"screening-prolific","missing":false,"accuracy":1},{"contexts":["red","blue","green"],"outcomes":[1,1,0],"key":38,"choice":1,"rt":404,"outcome":1,"trial":66,"correct":1,"trial_type":"three-arm-trial","trial_index":73,"time_elapsed":733994,"internal_node_id":"0.0-72.0-0.0","task_version":"screening-prolific","missing":false,"accuracy":1},{"contexts":["red","blue","green"],"outcomes":[0,0,0],"key":38,"choice":1,"rt":428,"outcome":0,"trial":67,"correct":1,"trial_type":"three-arm-trial","trial_index":74,"time_elapsed":735626,"internal_node_id":"0.0-73.0-0.0","task_version":"screening-prolific","missing":false,"accuracy":1},{"contexts":["red","blue","green"],"outcomes":[0,1,0],"key":37,"choice":0,"rt":355,"outcome":0,"trial":68,"correct":1,"trial_type":"three-arm-trial","trial_index":75,"time_elapsed":737186,"internal_node_id":"0.0-74.0-0.0","task_version":"screening-prolific","missing":false,"accuracy":0},{"contexts":["red","blue","green"],"outcomes":[0,1,0],"key":39,"choice":2,"rt":466,"outcome":0,"trial":69,"correct":1,"trial_type":"three-arm-trial","trial_index":76,"time_elapsed":738858,"internal_node_id":"0.0-75.0-0.0","task_version":"screening-prolific","missing":false,"accuracy":0},{"contexts":["red","blue","green"],"outcomes":[0,1,0],"key":37,"choice":0,"rt":348,"outcome":0,"trial":70,"correct":1,"trial_type":"three-arm-trial","trial_index":77,"time_elapsed":740410,"internal_node_id":"0.0-76.0-0.0","task_version":"screening-prolific","missing":false,"accuracy":0},{"contexts":["red","blue","green"],"outcomes":[0,1,0],"key":38,"choice":1,"rt":314,"outcome":1,"trial":71,"correct":1,"trial_type":"three-arm-trial","trial_index":78,"time_elapsed":741928,"internal_node_id":"0.0-77.0-0.0","task_version":"screening-prolific","missing":false,"accuracy":1},{"contexts":["red","blue","green"],"outcomes":[0,1,1],"key":38,"choice":1,"rt":302,"outcome":1,"trial":72,"correct":1,"trial_type":"three-arm-trial","trial_index":79,"time_elapsed":743434,"internal_node_id":"0.0-78.0-0.0","task_version":"screening-prolific","missing":false,"accuracy":1},{"contexts":["red","blue","green"],"outcomes":[1,1,1],"key":38,"choice":1,"rt":483,"outcome":1,"trial":73,"correct":1,"trial_type":"three-arm-trial","trial_index":80,"time_elapsed":745121,"internal_node_id":"0.0-79.0-0.0","task_version":"screening-prolific","missing":false,"accuracy":1},{"contexts":["red","blue","green"],"outcomes":[0,1,0],"key":38,"choice":1,"rt":739,"outcome":1,"trial":74,"correct":1,"trial_type":"three-arm-trial","trial_index":81,"time_elapsed":747065,"internal_node_id":"0.0-80.0-0.0","task_version":"screening-prolific","missing":false,"accuracy":1},{"contexts":["red","blue","green"],"outcomes":[0,0,0],"key":38,"choice":1,"rt":2492,"outcome":0,"trial":75,"correct":1,"trial_type":"three-arm-trial","trial_index":82,"time_elapsed":751533,"internal_node_id":"0.0-81.0-0.0","task_version":"screening-prolific","missing":false,"accuracy":1},{"contexts":["red","blue","green"],"outcomes":[0,0,1],"key":38,"choice":1,"rt":1744,"outcome":0,"trial":76,"correct":2,"trial_type":"three-arm-trial","trial_index":83,"time_elapsed":754481,"internal_node_id":"0.0-82.0-0.0","task_version":"screening-prolific","missing":false,"accuracy":0},{"contexts":["red","blue","green"],"outcomes":[0,0,1],"key":37,"choice":0,"rt":309,"outcome":0,"trial":77,"correct":2,"trial_type":"three-arm-trial","trial_index":84,"time_elapsed":755993,"internal_node_id":"0.0-83.0-0.0","task_version":"screening-prolific","missing":false,"accuracy":0},{"contexts":["red","blue","green"],"outcomes":[0,0,0],"key":39,"choice":2,"rt":380,"outcome":0,"trial":78,"correct":2,"trial_type":"three-arm-trial","trial_index":85,"time_elapsed":757577,"internal_node_id":"0.0-84.0-0.0","task_version":"screening-prolific","missing":false,"accuracy":1},{"contexts":["red","blue","green"],"outcomes":[0,0,1],"key":38,"choice":1,"rt":924,"outcome":0,"trial":79,"correct":2,"trial_type":"three-arm-trial","trial_index":86,"time_elapsed":759707,"internal_node_id":"0.0-85.0-0.0","task_version":"screening-prolific","missing":false,"accuracy":0},{"contexts":["red","blue","green"],"outcomes":[1,0,1],"key":37,"choice":0,"rt":593,"outcome":1,"trial":80,"correct":2,"trial_type":"three-arm-trial","trial_index":87,"time_elapsed":761506,"internal_node_id":"0.0-86.0-0.0","task_version":"screening-prolific","missing":false,"accuracy":0},{"contexts":["red","blue","green"],"outcomes":[0,0,1],"key":37,"choice":0,"rt":380,"outcome":0,"trial":81,"correct":2,"trial_type":"three-arm-trial","trial_index":88,"time_elapsed":763091,"internal_node_id":"0.0-87.0-0.0","task_version":"screening-prolific","missing":false,"accuracy":0},{"contexts":["red","blue","green"],"outcomes":[0,0,1],"key":39,"choice":2,"rt":363,"outcome":1,"trial":82,"correct":2,"trial_type":"three-arm-trial","trial_index":89,"time_elapsed":764658,"internal_node_id":"0.0-88.0-0.0","task_version":"screening-prolific","missing":false,"accuracy":1},{"contexts":["red","blue","green"],"outcomes":[1,1,1],"key":39,"choice":2,"rt":346,"outcome":1,"trial":83,"correct":2,"trial_type":"three-arm-trial","trial_index":90,"time_elapsed":766210,"internal_node_id":"0.0-89.0-0.0","task_version":"screening-prolific","missing":false,"accuracy":1},{"contexts":["red","blue","green"],"outcomes":[0,0,1],"key":39,"choice":2,"rt":307,"outcome":1,"trial":84,"correct":2,"trial_type":"three-arm-trial","trial_index":91,"time_elapsed":767722,"internal_node_id":"0.0-90.0-0.0","task_version":"screening-prolific","missing":false,"accuracy":1},{"contexts":["red","blue","green"],"outcomes":[0,0,1],"key":39,"choice":2,"rt":980,"outcome":1,"trial":85,"correct":2,"trial_type":"three-arm-trial","trial_index":92,"time_elapsed":769906,"internal_node_id":"0.0-91.0-0.0","task_version":"screening-prolific","missing":false,"accuracy":1},{"contexts":["red","blue","green"],"outcomes":[0,0,1],"key":39,"choice":2,"rt":290,"outcome":1,"trial":86,"correct":2,"trial_type":"three-arm-trial","trial_index":93,"time_elapsed":771402,"internal_node_id":"0.0-92.0-0.0","task_version":"screening-prolific","missing":false,"accuracy":1},{"contexts":["red","blue","green"],"outcomes":[0,1,1],"key":39,"choice":2,"rt":842,"outcome":1,"trial":87,"correct":2,"trial_type":"three-arm-trial","trial_index":94,"time_elapsed":773451,"internal_node_id":"0.0-93.0-0.0","task_version":"screening-prolific","missing":false,"accuracy":1},{"contexts":["red","blue","green"],"outcomes":[0,0,1],"key":39,"choice":2,"rt":399,"outcome":1,"trial":88,"correct":2,"trial_type":"three-arm-trial","trial_index":95,"time_elapsed":775055,"internal_node_id":"0.0-94.0-0.0","task_version":"screening-prolific","missing":false,"accuracy":1},{"contexts":["red","blue","green"],"outcomes":[0,0,0],"key":39,"choice":2,"rt":533,"outcome":0,"trial":89,"correct":2,"trial_type":"three-arm-trial","trial_index":96,"time_elapsed":776795,"internal_node_id":"0.0-95.0-0.0","task_version":"screening-prolific","missing":false,"accuracy":1},{"contexts":["red","blue","green"],"outcomes":[0,0,0],"key":38,"choice":1,"rt":378,"outcome":0,"trial":90,"correct":2,"trial_type":"three-arm-trial","trial_index":97,"time_elapsed":778378,"internal_node_id":"0.0-96.0-0.0","task_version":"screening-prolific","missing":false,"accuracy":0},{"rt":44249,"responses":{"age":"22","gender-categorical":"Male","gender-free-response":"","ethnicity":"Not Hispanic or Latino","race":["Black or African American"],"language":"No","fluency":"Well","mturk":"No","mturk-this-study":"No"},"survey":"demographics","trial_type":"survey-demo","trial_index":98,"time_elapsed":822636,"internal_node_id":"0.0-97.0","task_version":"screening-prolific","interactions":"[{\"event\":\"focus\",\"trial\":0,\"time\":0},{\"event\":\"blur\",\"trial\":3,\"time\":188969},{\"event\":\"focus\",\"trial\":3,\"time\":207395},{\"event\":\"blur\",\"trial\":3,\"time\":240449},{\"event\":\"focus\",\"trial\":3,\"time\":254998},{\"event\":\"blur\",\"trial\":4,\"time\":311255},{\"event\":\"focus\",\"trial\":4,\"time\":311343},{\"event\":\"blur\",\"trial\":4,\"time\":311431},{\"event\":\"focus\",\"trial\":4,\"time\":311512},{\"event\":\"blur\",\"trial\":4,\"time\":311624},{\"event\":\"focus\",\"trial\":4,\"time\":311696},{\"event\":\"blur\",\"trial\":4,\"time\":311801},{\"event\":\"focus\",\"trial\":4,\"time\":311873},{\"event\":\"blur\",\"trial\":5,\"time\":492534},{\"event\":\"focus\",\"trial\":5,\"time\":493844},{\"event\":\"blur\",\"trial\":66,\"time\":720063},{\"event\":\"focus\",\"trial\":66,\"time\":720702},{\"event\":\"blur\",\"trial\":82,\"time\":747764},{\"event\":\"focus\",\"trial\":82,\"time\":748438},{\"event\":\"blur\",\"trial\":83,\"time\":751707},{\"event\":\"focus\",\"trial\":83,\"time\":752720}]"}]