[{"responses":{"Q02":"3","Q01":"3","Q03":"2"},"rt":7960,"survey":"pswq","trial_type":"survey-template","trial_index":0,"time_elapsed":7971,"internal_node_id":"0.0-0.0","task_version":"screening-prolific"},{"responses":{"Q14":"0","Q11":"1","Q09":"2","Q02":"1","Q06":"0","Q05":"2","Q07":"0","Q04":"0","Q12":"0","Q10":"1","Q13":"0","Q01":"0","Q08":"0","Q03":"0","Q15":"0"},"rt":55752,"survey":"7up7down","trial_type":"survey-template","trial_index":1,"time_elapsed":63733,"internal_node_id":"0.0-1.0","task_version":"screening-prolific"},{"responses":{"Q04":"3","Q08":"2","Q06":"2","Q10":"1","Q03":"3","Q05":"2","Q07":"2","Q12":"0","Q11":"1","Q01":"3","Q02":"3","Q09":"0","Q13":"3"},"rt":48790,"survey":"bisbas","trial_type":"survey-template","trial_index":2,"time_elapsed":112531,"internal_node_id":"0.0-2.0","task_version":"screening-prolific"},{"responses":{"Q04":"1","Q01":"2","Q08":"0","Q07":"1","Q03":"1","Q02":"0","Q05":"0","Q06":"2"},"rt":27516,"survey":"gad7","trial_type":"survey-template","trial_index":3,"time_elapsed":140054,"internal_node_id":"0.0-3.0","task_version":"screening-prolific"},{"responses":{"Q02":"2","Q10":"2","Q03":"2","Q07":"2","Q05":"2","Q01":"2","Q15":"2","Q13":"2","Q14":"2","Q11":"2","Q12":"2","Q09":"2","Q06":"2","Q04":"2","Q08":"2"},"rt":27180,"survey":"shaps","trial_type":"survey-template","trial_index":4,"time_elapsed":167243,"internal_node_id":"0.0-4.0","task_version":"screening-prolific"},{"view_history":"[{\"page_index\":0,\"viewing_time\":2750},{\"page_index\":1,\"viewing_time\":4375},{\"page_index\":2,\"viewing_time\":7419},{\"page_index\":3,\"viewing_time\":2552},{\"page_index\":4,\"viewing_time\":2808},{\"page_index\":5,\"viewing_time\":2065},{\"page_index\":6,\"viewing_time\":3656},{\"page_index\":7,\"viewing_time\":2744}]","rt":28369,"trial_type":"instructions","trial_index":5,"time_elapsed":195618,"internal_node_id":"0.0-5.0-0.0","task_version":"screening-prolific"},{"responses":["True","True","False","False","True"],"num_errors":0,"rt":16298,"trial_type":"three-arm-comprehension","trial_index":6,"time_elapsed":211920,"internal_node_id":"0.0-5.0-1.0","task_version":"screening-prolific"},{"view_history":"[{\"page_index\":0,\"viewing_time\":1335}]","rt":1335,"trial_type":"instructions","trial_index":7,"time_elapsed":213261,"internal_node_id":"0.0-6.0","task_version":"screening-prolific"},{"contexts":["blue","green","red"],"outcomes":[0,0,1],"key":38,"choice":1,"rt":1126,"outcome":0,"trial":1,"correct":2,"trial_type":"three-arm-trial","trial_index":8,"time_elapsed":215592,"internal_node_id":"0.0-7.0-0.0","task_version":"screening-prolific","missing":false,"accuracy":0},{"contexts":["blue","green","red"],"outcomes":[0,0,1],"key":37,"choice":0,"rt":1342,"outcome":0,"trial":2,"correct":2,"trial_type":"three-arm-trial","trial_index":9,"time_elapsed":218158,"internal_node_id":"0.0-8.0-0.0","task_version":"screening-prolific","missing":false,"accuracy":0},{"contexts":["blue","green","red"],"outcomes":[0,0,1],"key":39,"choice":2,"rt":972,"outcome":1,"trial":3,"correct":2,"trial_type":"three-arm-trial","trial_index":10,"time_elapsed":220357,"internal_node_id":"0.0-9.0-0.0","task_version":"screening-prolific","missing":false,"accuracy":1},{"contexts":["blue","green","red"],"outcomes":[0,0,0],"key":39,"choice":2,"rt":1151,"outcome":0,"trial":4,"correct":2,"trial_type":"three-arm-trial","trial_index":11,"time_elapsed":222732,"internal_node_id":"0.0-10.0-0.0","task_version":"screening-prolific","missing":false,"accuracy":1},{"contexts":["blue","green","red"],"outcomes":[0,0,1],"key":39,"choice":2,"rt":1177,"outcome":1,"trial":5,"correct":2,"trial_type":"three-arm-trial","trial_index":12,"time_elapsed":225125,"internal_node_id":"0.0-11.0-0.0","task_version":"screening-prolific","missing":false,"accuracy":1},{"contexts":["blue","green","red"],"outcomes":[0,0,1],"key":39,"choice":2,"rt":1205,"outcome":1,"trial":6,"correct":2,"trial_type":"three-arm-trial","trial_index":13,"time_elapsed":227558,"internal_node_id":"0.0-12.0-0.0","task_version":"screening-prolific","missing":false,"accuracy":1},{"contexts":["blue","green","red"],"outcomes":[0,1,1],"key":39,"choice":2,"rt":1127,"outcome":1,"trial":7,"correct":2,"trial_type":"three-arm-trial","trial_index":14,"time_elapsed":229908,"internal_node_id":"0.0-13.0-0.0","task_version":"screening-prolific","missing":false,"accuracy":1},{"contexts":["blue","green","red"],"outcomes":[0,0,1],"key":39,"choice":2,"rt":1197,"outcome":1,"trial":8,"correct":2,"trial_type":"three-arm-trial","trial_index":15,"time_elapsed":232325,"internal_node_id":"0.0-14.0-0.0","task_version":"screening-prolific","missing":false,"accuracy":1},{"contexts":["blue","green","red"],"outcomes":[1,0,0],"key":39,"choice":2,"rt":1005,"outcome":0,"trial":9,"correct":2,"trial_type":"three-arm-trial","trial_index":16,"time_elapsed":234557,"internal_node_id":"0.0-15.0-0.0","task_version":"screening-prolific","missing":false,"accuracy":1},{"contexts":["blue","green","red"],"outcomes":[0,0,1],"key":39,"choice":2,"rt":1022,"outcome":1,"trial":10,"correct":2,"trial_type":"three-arm-trial","trial_index":17,"time_elapsed":236804,"internal_node_id":"0.0-16.0-0.0","task_version":"screening-prolific","missing":false,"accuracy":1},{"contexts":["blue","green","red"],"outcomes":[0,0,1],"key":39,"choice":2,"rt":1207,"outcome":1,"trial":11,"correct":2,"trial_type":"three-arm-trial","trial_index":18,"time_elapsed":239236,"internal_node_id":"0.0-17.0-0.0","task_version":"screening-prolific","missing":false,"accuracy":1},{"contexts":["blue","green","red"],"outcomes":[0,0,1],"key":39,"choice":2,"rt":1151,"outcome":1,"trial":12,"correct":2,"trial_type":"three-arm-trial","trial_index":19,"time_elapsed":241612,"internal_node_id":"0.0-18.0-0.0","task_version":"screening-prolific","missing":false,"accuracy":1},{"contexts":["blue","green","red"],"outcomes":[0,0,1],"key":39,"choice":2,"rt":951,"outcome":1,"trial":13,"correct":2,"trial_type":"three-arm-trial","trial_index":20,"time_elapsed":243789,"internal_node_id":"0.0-19.0-0.0","task_version":"screening-prolific","missing":false,"accuracy":1},{"contexts":["blue","green","red"],"outcomes":[0,1,1],"key":39,"choice":2,"rt":1024,"outcome":1,"trial":14,"correct":2,"trial_type":"three-arm-trial","trial_index":21,"time_elapsed":246037,"internal_node_id":"0.0-20.0-0.0","task_version":"screening-prolific","missing":false,"accuracy":1},{"contexts":["blue","green","red"],"outcomes":[0,0,1],"key":39,"choice":2,"rt":1015,"outcome":1,"trial":15,"correct":2,"trial_type":"three-arm-trial","trial_index":22,"time_elapsed":248276,"internal_node_id":"0.0-21.0-0.0","task_version":"screening-prolific","missing":false,"accuracy":1},{"contexts":["blue","green","red"],"outcomes":[0,1,0],"key":39,"choice":2,"rt":1030,"outcome":0,"trial":16,"correct":1,"trial_type":"three-arm-trial","trial_index":23,"time_elapsed":250532,"internal_node_id":"0.0-22.0-0.0","task_version":"screening-prolific","missing":false,"accuracy":0},{"contexts":["blue","green","red"],"outcomes":[1,1,0],"key":39,"choice":2,"rt":976,"outcome":0,"trial":17,"correct":1,"trial_type":"three-arm-trial","trial_index":24,"time_elapsed":252733,"internal_node_id":"0.0-23.0-0.0","task_version":"screening-prolific","missing":false,"accuracy":0},{"contexts":["blue","green","red"],"outcomes":[0,0,1],"key":39,"choice":2,"rt":1025,"outcome":1,"trial":18,"correct":1,"trial_type":"three-arm-trial","trial_index":25,"time_elapsed":254980,"internal_node_id":"0.0-24.0-0.0","task_version":"screening-prolific","missing":false,"accuracy":0},{"contexts":["blue","green","red"],"outcomes":[1,1,0],"key":38,"choice":1,"rt":901,"outcome":1,"trial":19,"correct":1,"trial_type":"three-arm-trial","trial_index":26,"time_elapsed":257092,"internal_node_id":"0.0-25.0-0.0","task_version":"screening-prolific","missing":false,"accuracy":1},{"contexts":["blue","green","red"],"outcomes":[1,1,0],"key":38,"choice":1,"rt":1043,"outcome":1,"trial":20,"correct":1,"trial_type":"three-arm-trial","trial_index":27,"time_elapsed":259365,"internal_node_id":"0.0-26.0-0.0","task_version":"screening-prolific","missing":false,"accuracy":1},{"contexts":["blue","green","red"],"outcomes":[0,1,0],"key":38,"choice":1,"rt":1069,"outcome":1,"trial":21,"correct":1,"trial_type":"three-arm-trial","trial_index":28,"time_elapsed":261660,"internal_node_id":"0.0-27.0-0.0","task_version":"screening-prolific","missing":false,"accuracy":1},{"contexts":["blue","green","red"],"outcomes":[1,0,0],"key":38,"choice":1,"rt":1041,"outcome":0,"trial":22,"correct":1,"trial_type":"three-arm-trial","trial_index":29,"time_elapsed":263925,"internal_node_id":"0.0-28.0-0.0","task_version":"screening-prolific","missing":false,"accuracy":1},{"contexts":["blue","green","red"],"outcomes":[0,0,1],"key":38,"choice":1,"rt":985,"outcome":0,"trial":23,"correct":1,"trial_type":"three-arm-trial","trial_index":30,"time_elapsed":266133,"internal_node_id":"0.0-29.0-0.0","task_version":"screening-prolific","missing":false,"accuracy":1},{"contexts":["blue","green","red"],"outcomes":[0,1,0],"key":38,"choice":1,"rt":999,"outcome":1,"trial":24,"correct":1,"trial_type":"three-arm-trial","trial_index":31,"time_elapsed":268356,"internal_node_id":"0.0-30.0-0.0","task_version":"screening-prolific","missing":false,"accuracy":1},{"contexts":["blue","green","red"],"outcomes":[0,1,0],"key":38,"choice":1,"rt":1120,"outcome":1,"trial":25,"correct":1,"trial_type":"three-arm-trial","trial_index":32,"time_elapsed":270694,"internal_node_id":"0.0-31.0-0.0","task_version":"screening-prolific","missing":false,"accuracy":1},{"contexts":["blue","green","red"],"outcomes":[0,1,0],"key":38,"choice":1,"rt":989,"outcome":1,"trial":26,"correct":1,"trial_type":"three-arm-trial","trial_index":33,"time_elapsed":272908,"internal_node_id":"0.0-32.0-0.0","task_version":"screening-prolific","missing":false,"accuracy":1},{"contexts":["blue","green","red"],"outcomes":[0,0,0],"key":38,"choice":1,"rt":971,"outcome":0,"trial":27,"correct":1,"trial_type":"three-arm-trial","trial_index":34,"time_elapsed":275095,"internal_node_id":"0.0-33.0-0.0","task_version":"screening-prolific","missing":false,"accuracy":1},{"contexts":["blue","green","red"],"outcomes":[0,1,1],"key":38,"choice":1,"rt":1147,"outcome":1,"trial":28,"correct":1,"trial_type":"three-arm-trial","trial_index":35,"time_elapsed":277469,"internal_node_id":"0.0-34.0-0.0","task_version":"screening-prolific","missing":false,"accuracy":1},{"contexts":["blue","green","red"],"outcomes":[0,1,0],"key":38,"choice":1,"rt":937,"outcome":1,"trial":29,"correct":1,"trial_type":"three-arm-trial","trial_index":36,"time_elapsed":279630,"internal_node_id":"0.0-35.0-0.0","task_version":"screening-prolific","missing":false,"accuracy":1},{"contexts":["blue","green","red"],"outcomes":[0,0,0],"key":38,"choice":1,"rt":1044,"outcome":0,"trial":30,"correct":1,"trial_type":"three-arm-trial","trial_index":37,"time_elapsed":281898,"internal_node_id":"0.0-36.0-0.0","task_version":"screening-prolific","missing":false,"accuracy":1},{"contexts":["blue","green","red"],"outcomes":[1,0,0],"key":38,"choice":1,"rt":976,"outcome":0,"trial":31,"correct":0,"trial_type":"three-arm-trial","trial_index":38,"time_elapsed":284100,"internal_node_id":"0.0-37.0-0.0","task_version":"screening-prolific","missing":false,"accuracy":0},{"contexts":["blue","green","red"],"outcomes":[1,0,0],"key":38,"choice":1,"rt":1105,"outcome":0,"trial":32,"correct":0,"trial_type":"three-arm-trial","trial_index":39,"time_elapsed":286428,"internal_node_id":"0.0-38.0-0.0","task_version":"screening-prolific","missing":false,"accuracy":0},{"contexts":["blue","green","red"],"outcomes":[1,0,0],"key":39,"choice":2,"rt":1080,"outcome":0,"trial":33,"correct":0,"trial_type":"three-arm-trial","trial_index":40,"time_elapsed":288734,"internal_node_id":"0.0-39.0-0.0","task_version":"screening-prolific","missing":false,"accuracy":0},{"contexts":["blue","green","red"],"outcomes":[1,0,0],"key":37,"choice":0,"rt":946,"outcome":1,"trial":34,"correct":0,"trial_type":"three-arm-trial","trial_index":41,"time_elapsed":290908,"internal_node_id":"0.0-40.0-0.0","task_version":"screening-prolific","missing":false,"accuracy":1},{"contexts":["blue","green","red"],"outcomes":[1,0,1],"key":37,"choice":0,"rt":1003,"outcome":1,"trial":35,"correct":0,"trial_type":"three-arm-trial","trial_index":42,"time_elapsed":293125,"internal_node_id":"0.0-41.0-0.0","task_version":"screening-prolific","missing":false,"accuracy":1},{"contexts":["blue","green","red"],"outcomes":[0,0,0],"key":37,"choice":0,"rt":1047,"outcome":0,"trial":36,"correct":0,"trial_type":"three-arm-trial","trial_index":43,"time_elapsed":295396,"internal_node_id":"0.0-42.0-0.0","task_version":"screening-prolific","missing":false,"accuracy":1},{"contexts":["blue","green","red"],"outcomes":[1,0,0],"key":37,"choice":0,"rt":970,"outcome":1,"trial":37,"correct":0,"trial_type":"three-arm-trial","trial_index":44,"time_elapsed":297581,"internal_node_id":"0.0-43.0-0.0","task_version":"screening-prolific","missing":false,"accuracy":1},{"contexts":["blue","green","red"],"outcomes":[1,1,0],"key":37,"choice":0,"rt":898,"outcome":1,"trial":38,"correct":0,"trial_type":"three-arm-trial","trial_index":45,"time_elapsed":299699,"internal_node_id":"0.0-44.0-0.0","task_version":"screening-prolific","missing":false,"accuracy":1},{"contexts":["blue","green","red"],"outcomes":[0,1,0],"key":37,"choice":0,"rt":1080,"outcome":0,"trial":39,"correct":0,"trial_type":"three-arm-trial","trial_index":46,"time_elapsed":302004,"internal_node_id":"0.0-45.0-0.0","task_version":"screening-prolific","missing":false,"accuracy":1},{"contexts":["blue","green","red"],"outcomes":[1,0,1],"key":37,"choice":0,"rt":1063,"outcome":1,"trial":40,"correct":0,"trial_type":"three-arm-trial","trial_index":47,"time_elapsed":304292,"internal_node_id":"0.0-46.0-0.0","task_version":"screening-prolific","missing":false,"accuracy":1},{"contexts":["blue","green","red"],"outcomes":[1,0,0],"key":37,"choice":0,"rt":968,"outcome":1,"trial":41,"correct":0,"trial_type":"three-arm-trial","trial_index":48,"time_elapsed":306484,"internal_node_id":"0.0-47.0-0.0","task_version":"screening-prolific","missing":false,"accuracy":1},{"contexts":["blue","green","red"],"outcomes":[1,0,0],"key":37,"choice":0,"rt":863,"outcome":1,"trial":42,"correct":0,"trial_type":"three-arm-trial","trial_index":49,"time_elapsed":308573,"internal_node_id":"0.0-48.0-0.0","task_version":"screening-prolific","missing":false,"accuracy":1},{"contexts":["blue","green","red"],"outcomes":[1,1,0],"key":37,"choice":0,"rt":804,"outcome":1,"trial":43,"correct":0,"trial_type":"three-arm-trial","trial_index":50,"time_elapsed":310605,"internal_node_id":"0.0-49.0-0.0","task_version":"screening-prolific","missing":false,"accuracy":1},{"contexts":["blue","green","red"],"outcomes":[0,0,1],"key":37,"choice":0,"rt":939,"outcome":0,"trial":44,"correct":0,"trial_type":"three-arm-trial","trial_index":51,"time_elapsed":312765,"internal_node_id":"0.0-50.0-0.0","task_version":"screening-prolific","missing":false,"accuracy":1},{"contexts":["blue","green","red"],"outcomes":[0,0,0],"key":37,"choice":0,"rt":826,"outcome":0,"trial":45,"correct":0,"trial_type":"three-arm-trial","trial_index":52,"time_elapsed":314812,"internal_node_id":"0.0-51.0-0.0","task_version":"screening-prolific","missing":false,"accuracy":1},{"contexts":["blue","green","red"],"outcomes":[0,1,1],"key":37,"choice":0,"rt":881,"outcome":0,"trial":46,"correct":2,"trial_type":"three-arm-trial","trial_index":53,"time_elapsed":316926,"internal_node_id":"0.0-52.0-0.0","task_version":"screening-prolific","missing":false,"accuracy":0},{"contexts":["blue","green","red"],"outcomes":[0,0,1],"key":38,"choice":1,"rt":911,"outcome":0,"trial":47,"correct":2,"trial_type":"three-arm-trial","trial_index":54,"time_elapsed":319061,"internal_node_id":"0.0-53.0-0.0","task_version":"screening-prolific","missing":false,"accuracy":0},{"contexts":["blue","green","red"],"outcomes":[0,0,1],"key":39,"choice":2,"rt":819,"outcome":1,"trial":48,"correct":2,"trial_type":"three-arm-trial","trial_index":55,"time_elapsed":321101,"internal_node_id":"0.0-54.0-0.0","task_version":"screening-prolific","missing":false,"accuracy":1},{"contexts":["blue","green","red"],"outcomes":[0,0,0],"key":39,"choice":2,"rt":984,"outcome":0,"trial":49,"correct":2,"trial_type":"three-arm-trial","trial_index":56,"time_elapsed":323309,"internal_node_id":"0.0-55.0-0.0","task_version":"screening-prolific","missing":false,"accuracy":1},{"contexts":["blue","green","red"],"outcomes":[0,0,0],"key":39,"choice":2,"rt":789,"outcome":0,"trial":50,"correct":2,"trial_type":"three-arm-trial","trial_index":57,"time_elapsed":325324,"internal_node_id":"0.0-56.0-0.0","task_version":"screening-prolific","missing":false,"accuracy":1},{"contexts":["blue","green","red"],"outcomes":[0,0,1],"key":39,"choice":2,"rt":897,"outcome":1,"trial":51,"correct":2,"trial_type":"three-arm-trial","trial_index":58,"time_elapsed":327445,"internal_node_id":"0.0-57.0-0.0","task_version":"screening-prolific","missing":false,"accuracy":1},{"contexts":["blue","green","red"],"outcomes":[0,1,1],"key":39,"choice":2,"rt":765,"outcome":1,"trial":52,"correct":2,"trial_type":"three-arm-trial","trial_index":59,"time_elapsed":329435,"internal_node_id":"0.0-58.0-0.0","task_version":"screening-prolific","missing":false,"accuracy":1},{"contexts":["blue","green","red"],"outcomes":[0,0,1],"key":39,"choice":2,"rt":769,"outcome":1,"trial":53,"correct":2,"trial_type":"three-arm-trial","trial_index":60,"time_elapsed":331428,"internal_node_id":"0.0-59.0-0.0","task_version":"screening-prolific","missing":false,"accuracy":1},{"contexts":["blue","green","red"],"outcomes":[0,0,1],"key":39,"choice":2,"rt":689,"outcome":1,"trial":54,"correct":2,"trial_type":"three-arm-trial","trial_index":61,"time_elapsed":333326,"internal_node_id":"0.0-60.0-0.0","task_version":"screening-prolific","missing":false,"accuracy":1},{"contexts":["blue","green","red"],"outcomes":[1,0,1],"key":39,"choice":2,"rt":621,"outcome":1,"trial":55,"correct":2,"trial_type":"three-arm-trial","trial_index":62,"time_elapsed":335173,"internal_node_id":"0.0-61.0-0.0","task_version":"screening-prolific","missing":false,"accuracy":1},{"contexts":["blue","green","red"],"outcomes":[1,0,1],"key":39,"choice":2,"rt":716,"outcome":1,"trial":56,"correct":2,"trial_type":"three-arm-trial","trial_index":63,"time_elapsed":337116,"internal_node_id":"0.0-62.0-0.0","task_version":"screening-prolific","missing":false,"accuracy":1},{"contexts":["blue","green","red"],"outcomes":[1,0,1],"key":39,"choice":2,"rt":625,"outcome":1,"trial":57,"correct":2,"trial_type":"three-arm-trial","trial_index":64,"time_elapsed":338965,"internal_node_id":"0.0-63.0-0.0","task_version":"screening-prolific","missing":false,"accuracy":1},{"contexts":["blue","green","red"],"outcomes":[0,0,1],"key":39,"choice":2,"rt":374,"outcome":1,"trial":58,"correct":2,"trial_type":"three-arm-trial","trial_index":65,"time_elapsed":340549,"internal_node_id":"0.0-64.0-0.0","task_version":"screening-prolific","missing":false,"accuracy":1},{"contexts":["blue","green","red"],"outcomes":[0,0,1],"key":39,"choice":2,"rt":303,"outcome":1,"trial":59,"correct":2,"trial_type":"three-arm-trial","trial_index":66,"time_elapsed":342073,"internal_node_id":"0.0-65.0-0.0","task_version":"screening-prolific","missing":false,"accuracy":1},{"contexts":["blue","green","red"],"outcomes":[1,0,1],"key":39,"choice":2,"rt":322,"outcome":1,"trial":60,"correct":2,"trial_type":"three-arm-trial","trial_index":67,"time_elapsed":343621,"internal_node_id":"0.0-66.0-0.0","task_version":"screening-prolific","missing":false,"accuracy":1},{"contexts":["blue","green","red"],"outcomes":[1,0,0],"key":39,"choice":2,"rt":287,"outcome":0,"trial":61,"correct":0,"trial_type":"three-arm-trial","trial_index":68,"time_elapsed":345131,"internal_node_id":"0.0-67.0-0.0","task_version":"screening-prolific","missing":false,"accuracy":0},{"contexts":["blue","green","red"],"outcomes":[1,0,0],"key":39,"choice":2,"rt":306,"outcome":0,"trial":62,"correct":0,"trial_type":"three-arm-trial","trial_index":69,"time_elapsed":346658,"internal_node_id":"0.0-68.0-0.0","task_version":"screening-prolific","missing":false,"accuracy":0},{"contexts":["blue","green","red"],"outcomes":[1,1,0],"key":39,"choice":2,"rt":298,"outcome":0,"trial":63,"correct":0,"trial_type":"three-arm-trial","trial_index":70,"time_elapsed":348178,"internal_node_id":"0.0-69.0-0.0","task_version":"screening-prolific","missing":false,"accuracy":0},{"contexts":["blue","green","red"],"outcomes":[1,1,0],"key":38,"choice":1,"rt":304,"outcome":1,"trial":64,"correct":0,"trial_type":"three-arm-trial","trial_index":71,"time_elapsed":349707,"internal_node_id":"0.0-70.0-0.0","task_version":"screening-prolific","missing":false,"accuracy":0},{"contexts":["blue","green","red"],"outcomes":[1,1,0],"key":38,"choice":1,"rt":321,"outcome":1,"trial":65,"correct":0,"trial_type":"three-arm-trial","trial_index":72,"time_elapsed":351252,"internal_node_id":"0.0-71.0-0.0","task_version":"screening-prolific","missing":false,"accuracy":0},{"contexts":["blue","green","red"],"outcomes":[1,0,0],"key":38,"choice":1,"rt":338,"outcome":0,"trial":66,"correct":0,"trial_type":"three-arm-trial","trial_index":73,"time_elapsed":352811,"internal_node_id":"0.0-72.0-0.0","task_version":"screening-prolific","missing":false,"accuracy":0},{"contexts":["blue","green","red"],"outcomes":[1,0,0],"key":38,"choice":1,"rt":291,"outcome":0,"trial":67,"correct":0,"trial_type":"three-arm-trial","trial_index":74,"time_elapsed":354323,"internal_node_id":"0.0-73.0-0.0","task_version":"screening-prolific","missing":false,"accuracy":0},{"contexts":["blue","green","red"],"outcomes":[1,0,0],"key":37,"choice":0,"rt":336,"outcome":1,"trial":68,"correct":0,"trial_type":"three-arm-trial","trial_index":75,"time_elapsed":355884,"internal_node_id":"0.0-74.0-0.0","task_version":"screening-prolific","missing":false,"accuracy":1},{"contexts":["blue","green","red"],"outcomes":[1,1,1],"key":37,"choice":0,"rt":374,"outcome":1,"trial":69,"correct":0,"trial_type":"three-arm-trial","trial_index":76,"time_elapsed":357484,"internal_node_id":"0.0-75.0-0.0","task_version":"screening-prolific","missing":false,"accuracy":1},{"contexts":["blue","green","red"],"outcomes":[1,1,0],"key":37,"choice":0,"rt":343,"outcome":1,"trial":70,"correct":0,"trial_type":"three-arm-trial","trial_index":77,"time_elapsed":359052,"internal_node_id":"0.0-76.0-0.0","task_version":"screening-prolific","missing":false,"accuracy":1},{"contexts":["blue","green","red"],"outcomes":[1,0,1],"key":37,"choice":0,"rt":336,"outcome":1,"trial":71,"correct":0,"trial_type":"three-arm-trial","trial_index":78,"time_elapsed":360613,"internal_node_id":"0.0-77.0-0.0","task_version":"screening-prolific","missing":false,"accuracy":1},{"contexts":["blue","green","red"],"outcomes":[0,1,0],"key":37,"choice":0,"rt":319,"outcome":0,"trial":72,"correct":0,"trial_type":"three-arm-trial","trial_index":79,"time_elapsed":362156,"internal_node_id":"0.0-78.0-0.0","task_version":"screening-prolific","missing":false,"accuracy":1},{"contexts":["blue","green","red"],"outcomes":[1,0,1],"key":37,"choice":0,"rt":323,"outcome":1,"trial":73,"correct":0,"trial_type":"three-arm-trial","trial_index":80,"time_elapsed":363700,"internal_node_id":"0.0-79.0-0.0","task_version":"screening-prolific","missing":false,"accuracy":1},{"contexts":["blue","green","red"],"outcomes":[1,0,1],"key":37,"choice":0,"rt":346,"outcome":1,"trial":74,"correct":0,"trial_type":"three-arm-trial","trial_index":81,"time_elapsed":365269,"internal_node_id":"0.0-80.0-0.0","task_version":"screening-prolific","missing":false,"accuracy":1},{"contexts":["blue","green","red"],"outcomes":[0,0,0],"key":37,"choice":0,"rt":360,"outcome":0,"trial":75,"correct":0,"trial_type":"three-arm-trial","trial_index":82,"time_elapsed":366853,"internal_node_id":"0.0-81.0-0.0","task_version":"screening-prolific","missing":false,"accuracy":1},{"contexts":["blue","green","red"],"outcomes":[0,1,0],"key":37,"choice":0,"rt":326,"outcome":0,"trial":76,"correct":1,"trial_type":"three-arm-trial","trial_index":83,"time_elapsed":368395,"internal_node_id":"0.0-82.0-0.0","task_version":"screening-prolific","missing":false,"accuracy":0},{"contexts":["blue","green","red"],"outcomes":[0,0,0],"key":37,"choice":0,"rt":362,"outcome":0,"trial":77,"correct":1,"trial_type":"three-arm-trial","trial_index":84,"time_elapsed":369980,"internal_node_id":"0.0-83.0-0.0","task_version":"screening-prolific","missing":false,"accuracy":0},{"contexts":["blue","green","red"],"outcomes":[0,1,0],"key":39,"choice":2,"rt":259,"outcome":0,"trial":78,"correct":1,"trial_type":"three-arm-trial","trial_index":85,"time_elapsed":371460,"internal_node_id":"0.0-84.0-0.0","task_version":"screening-prolific","missing":false,"accuracy":0},{"contexts":["blue","green","red"],"outcomes":[0,1,0],"key":38,"choice":1,"rt":287,"outcome":1,"trial":79,"correct":1,"trial_type":"three-arm-trial","trial_index":86,"time_elapsed":372972,"internal_node_id":"0.0-85.0-0.0","task_version":"screening-prolific","missing":false,"accuracy":1},{"contexts":["blue","green","red"],"outcomes":[1,1,0],"key":38,"choice":1,"rt":342,"outcome":1,"trial":80,"correct":1,"trial_type":"three-arm-trial","trial_index":87,"time_elapsed":374540,"internal_node_id":"0.0-86.0-0.0","task_version":"screening-prolific","missing":false,"accuracy":1},{"contexts":["blue","green","red"],"outcomes":[0,0,0],"key":38,"choice":1,"rt":350,"outcome":0,"trial":81,"correct":1,"trial_type":"three-arm-trial","trial_index":88,"time_elapsed":376114,"internal_node_id":"0.0-87.0-0.0","task_version":"screening-prolific","missing":false,"accuracy":1},{"contexts":["blue","green","red"],"outcomes":[0,1,1],"key":39,"choice":2,"rt":266,"outcome":1,"trial":82,"correct":1,"trial_type":"three-arm-trial","trial_index":89,"time_elapsed":377605,"internal_node_id":"0.0-88.0-0.0","task_version":"screening-prolific","missing":false,"accuracy":0},{"contexts":["blue","green","red"],"outcomes":[0,1,0],"key":39,"choice":2,"rt":423,"outcome":0,"trial":83,"correct":1,"trial_type":"three-arm-trial","trial_index":90,"time_elapsed":379253,"internal_node_id":"0.0-89.0-0.0","task_version":"screening-prolific","missing":false,"accuracy":0},{"contexts":["blue","green","red"],"outcomes":[1,1,0],"key":39,"choice":2,"rt":310,"outcome":0,"trial":84,"correct":1,"trial_type":"three-arm-trial","trial_index":91,"time_elapsed":380788,"internal_node_id":"0.0-90.0-0.0","task_version":"screening-prolific","missing":false,"accuracy":0},{"contexts":["blue","green","red"],"outcomes":[0,0,0],"key":38,"choice":1,"rt":297,"outcome":0,"trial":85,"correct":1,"trial_type":"three-arm-trial","trial_index":92,"time_elapsed":382334,"internal_node_id":"0.0-91.0-0.0","task_version":"screening-prolific","missing":false,"accuracy":1},{"contexts":["blue","green","red"],"outcomes":[0,1,1],"key":37,"choice":0,"rt":274,"outcome":0,"trial":86,"correct":1,"trial_type":"three-arm-trial","trial_index":93,"time_elapsed":383828,"internal_node_id":"0.0-92.0-0.0","task_version":"screening-prolific","missing":false,"accuracy":0},{"contexts":["blue","green","red"],"outcomes":[0,1,0],"key":38,"choice":1,"rt":274,"outcome":1,"trial":87,"correct":1,"trial_type":"three-arm-trial","trial_index":94,"time_elapsed":385325,"internal_node_id":"0.0-93.0-0.0","task_version":"screening-prolific","missing":false,"accuracy":1},{"contexts":["blue","green","red"],"outcomes":[0,1,0],"key":38,"choice":1,"rt":319,"outcome":1,"trial":88,"correct":1,"trial_type":"three-arm-trial","trial_index":95,"time_elapsed":386868,"internal_node_id":"0.0-94.0-0.0","task_version":"screening-prolific","missing":false,"accuracy":1},{"contexts":["blue","green","red"],"outcomes":[0,1,1],"key":38,"choice":1,"rt":350,"outcome":1,"trial":89,"correct":1,"trial_type":"three-arm-trial","trial_index":96,"time_elapsed":388445,"internal_node_id":"0.0-95.0-0.0","task_version":"screening-prolific","missing":false,"accuracy":1},{"contexts":["blue","green","red"],"outcomes":[0,1,0],"key":38,"choice":1,"rt":320,"outcome":1,"trial":90,"correct":1,"trial_type":"three-arm-trial","trial_index":97,"time_elapsed":389988,"internal_node_id":"0.0-96.0-0.0","task_version":"screening-prolific","missing":false,"accuracy":1},{"rt":20096,"responses":{"age":"37","gender-categorical":"Female","gender-free-response":"","ethnicity":"Not Hispanic or Latino","race":["White"],"language":"Yes","fluency":"Very well","mturk":"No","mturk-this-study":"No"},"survey":"demographics","trial_type":"survey-demo","trial_index":98,"time_elapsed":410111,"internal_node_id":"0.0-97.0","task_version":"screening-prolific","interactions":"[{\"event\":\"focus\",\"trial\":0,\"time\":0},{\"event\":\"blur\",\"trial\":2,\"time\":83147},{\"event\":\"focus\",\"trial\":2,\"time\":92342}]"}]