[{"responses":{"Q04":"3","Q02":"3","Q03":"3","Q01":"3","Q05":"3","Q07":"2","Q08":"0","Q06":"2"},"rt":20699,"survey":"gad7","trial_type":"survey-template","trial_index":0,"time_elapsed":20715,"internal_node_id":"0.0-0.0","task_version":"screening-prolific"},{"responses":{"Q01":"4","Q02":"4","Q03":"4"},"rt":7223,"survey":"pswq","trial_type":"survey-template","trial_index":1,"time_elapsed":27952,"internal_node_id":"0.0-1.0","task_version":"screening-prolific"},{"responses":{"Q02":"1","Q05":"3","Q15":"0","Q09":"3","Q10":"3","Q03":"1","Q12":"3","Q14":"3","Q01":"0","Q08":"0","Q06":"0","Q07":"0","Q11":"3","Q13":"0","Q04":"0"},"rt":75082,"survey":"7up7down","trial_type":"survey-template","trial_index":2,"time_elapsed":103049,"internal_node_id":"0.0-2.0","task_version":"screening-prolific"},{"responses":{"Q03":"2","Q09":"2","Q05":"2","Q01":"2","Q02":"2","Q10":"3","Q13":"2","Q12":"3","Q14":"2","Q06":"3","Q15":"3","Q08":"2","Q04":"3","Q11":"3","Q07":"3"},"rt":45301,"survey":"shaps","trial_type":"survey-template","trial_index":3,"time_elapsed":148365,"internal_node_id":"0.0-3.0","task_version":"screening-prolific"},{"responses":{"Q03":"2","Q09":"2","Q06":"2","Q10":"2","Q02":"2","Q11":"2","Q07":"2","Q04":"3","Q13":"2","Q01":"3","Q12":"2","Q05":"2","Q08":"2"},"rt":53182,"survey":"bisbas","trial_type":"survey-template","trial_index":4,"time_elapsed":201560,"internal_node_id":"0.0-4.0","task_version":"screening-prolific"},{"view_history":"[{\"page_index\":0,\"viewing_time\":6356},{\"page_index\":1,\"viewing_time\":6412},{\"page_index\":2,\"viewing_time\":6240},{\"page_index\":3,\"viewing_time\":5502},{\"page_index\":4,\"viewing_time\":6793},{\"page_index\":5,\"viewing_time\":2792},{\"page_index\":6,\"viewing_time\":3189},{\"page_index\":7,\"viewing_time\":4758}]","rt":42042,"trial_type":"instructions","trial_index":5,"time_elapsed":243613,"internal_node_id":"0.0-5.0-0.0","task_version":"screening-prolific"},{"responses":["True","True","True","False","True"],"num_errors":1,"rt":20726,"trial_type":"three-arm-comprehension","trial_index":6,"time_elapsed":264339,"internal_node_id":"0.0-5.0-1.0","task_version":"screening-prolific"},{"view_history":"[{\"page_index\":0,\"viewing_time\":4496},{\"page_index\":1,\"viewing_time\":5962},{\"page_index\":2,\"viewing_time\":7012},{\"page_index\":3,\"viewing_time\":1052},{\"page_index\":4,\"viewing_time\":1356},{\"page_index\":5,\"viewing_time\":833},{\"page_index\":6,\"viewing_time\":2609},{\"page_index\":7,\"viewing_time\":1630}]","rt":24950,"trial_type":"instructions","trial_index":7,"time_elapsed":289303,"internal_node_id":"0.0-5.1-0.1","task_version":"screening-prolific"},{"responses":["True","True","True","False","True"],"num_errors":1,"rt":17816,"trial_type":"three-arm-comprehension","trial_index":8,"time_elapsed":307120,"internal_node_id":"0.0-5.1-1.1","task_version":"screening-prolific"},{"view_history":"[{\"page_index\":0,\"viewing_time\":1371},{\"page_index\":1,\"viewing_time\":507},{\"page_index\":2,\"viewing_time\":842},{\"page_index\":3,\"viewing_time\":1542},{\"page_index\":4,\"viewing_time\":1644},{\"page_index\":5,\"viewing_time\":1027},{\"page_index\":6,\"viewing_time\":850},{\"page_index\":7,\"viewing_time\":587}]","rt":8370,"trial_type":"instructions","trial_index":9,"time_elapsed":315504,"internal_node_id":"0.0-5.2-0.2","task_version":"screening-prolific"},{"responses":["True","True","True","True","True"],"num_errors":2,"rt":8080,"trial_type":"three-arm-comprehension","trial_index":10,"time_elapsed":323585,"internal_node_id":"0.0-5.2-1.2","task_version":"screening-prolific"},{"view_history":"[{\"page_index\":0,\"viewing_time\":1631},{\"page_index\":1,\"viewing_time\":2656},{\"page_index\":2,\"viewing_time\":3771},{\"page_index\":3,\"viewing_time\":4614},{\"page_index\":4,\"viewing_time\":7719},{\"page_index\":5,\"viewing_time\":6067},{\"page_index\":6,\"viewing_time\":1267},{\"page_index\":7,\"viewing_time\":1212}]","rt":28937,"trial_type":"instructions","trial_index":11,"time_elapsed":352536,"internal_node_id":"0.0-5.3-0.3","task_version":"screening-prolific"},{"responses":["True","True","True","False","False"],"num_errors":2,"rt":16430,"trial_type":"three-arm-comprehension","trial_index":12,"time_elapsed":368968,"internal_node_id":"0.0-5.3-1.3","task_version":"screening-prolific"},{"view_history":"[{\"page_index\":0,\"viewing_time\":1196},{\"page_index\":1,\"viewing_time\":498},{\"page_index\":2,\"viewing_time\":538},{\"page_index\":3,\"viewing_time\":415},{\"page_index\":4,\"viewing_time\":434},{\"page_index\":5,\"viewing_time\":449},{\"page_index\":6,\"viewing_time\":489},{\"page_index\":7,\"viewing_time\":490}]","rt":4510,"trial_type":"instructions","trial_index":13,"time_elapsed":373492,"internal_node_id":"0.0-5.4-0.4","task_version":"screening-prolific"},{"responses":["True","False","True","False","True"],"num_errors":2,"rt":29925,"trial_type":"three-arm-comprehension","trial_index":14,"time_elapsed":403418,"internal_node_id":"0.0-5.4-1.4","task_version":"screening-prolific"},{"view_history":"[{\"page_index\":0,\"viewing_time\":4015},{\"page_index\":1,\"viewing_time\":5729},{\"page_index\":2,\"viewing_time\":6691},{\"page_index\":3,\"viewing_time\":7284},{\"page_index\":4,\"viewing_time\":8907},{\"page_index\":5,\"viewing_time\":6214},{\"page_index\":6,\"viewing_time\":1901},{\"page_index\":5,\"viewing_time\":4068},{\"page_index\":6,\"viewing_time\":5423},{\"page_index\":7,\"viewing_time\":4269}]","rt":54501,"trial_type":"instructions","trial_index":15,"time_elapsed":457931,"internal_node_id":"0.0-5.5-0.5","task_version":"screening-prolific"},{"responses":["True","True","False","False","True"],"num_errors":0,"rt":15113,"trial_type":"three-arm-comprehension","trial_index":16,"time_elapsed":473046,"internal_node_id":"0.0-5.5-1.5","task_version":"screening-prolific"},{"view_history":"[{\"page_index\":0,\"viewing_time\":2003}]","rt":2003,"trial_type":"instructions","trial_index":17,"time_elapsed":475062,"internal_node_id":"0.0-6.0","task_version":"screening-prolific"},{"contexts":["green","blue","red"],"outcomes":[0,0,0],"key":37,"choice":0,"rt":2451,"outcome":0,"trial":1,"correct":1,"trial_type":"three-arm-trial","trial_index":18,"time_elapsed":478721,"internal_node_id":"0.0-7.0-0.0","task_version":"screening-prolific","missing":false,"accuracy":0},{"contexts":["green","blue","red"],"outcomes":[0,1,0],"key":39,"choice":2,"rt":93,"outcome":0,"trial":2,"correct":1,"trial_type":"three-arm-trial","trial_index":19,"time_elapsed":480041,"internal_node_id":"0.0-8.0-0.0","task_version":"screening-prolific","missing":false,"accuracy":0},{"contexts":["green","blue","red"],"outcomes":[1,1,1],"key":38,"choice":1,"rt":771,"outcome":1,"trial":3,"correct":1,"trial_type":"three-arm-trial","trial_index":20,"time_elapsed":482041,"internal_node_id":"0.0-9.0-0.0","task_version":"screening-prolific","missing":false,"accuracy":1},{"contexts":["green","blue","red"],"outcomes":[0,0,1],"key":38,"choice":1,"rt":937,"outcome":0,"trial":4,"correct":1,"trial_type":"three-arm-trial","trial_index":21,"time_elapsed":484201,"internal_node_id":"0.0-10.0-0.0","task_version":"screening-prolific","missing":false,"accuracy":1},{"contexts":["green","blue","red"],"outcomes":[0,1,0],"key":37,"choice":0,"rt":562,"outcome":0,"trial":5,"correct":1,"trial_type":"three-arm-trial","trial_index":22,"time_elapsed":485986,"internal_node_id":"0.0-11.0-0.0","task_version":"screening-prolific","missing":false,"accuracy":0},{"contexts":["green","blue","red"],"outcomes":[0,0,0],"key":39,"choice":2,"rt":734,"outcome":0,"trial":6,"correct":1,"trial_type":"three-arm-trial","trial_index":23,"time_elapsed":487942,"internal_node_id":"0.0-12.0-0.0","task_version":"screening-prolific","missing":false,"accuracy":0},{"contexts":["green","blue","red"],"outcomes":[0,1,0],"key":38,"choice":1,"rt":900,"outcome":1,"trial":7,"correct":1,"trial_type":"three-arm-trial","trial_index":24,"time_elapsed":490064,"internal_node_id":"0.0-13.0-0.0","task_version":"screening-prolific","missing":false,"accuracy":1},{"contexts":["green","blue","red"],"outcomes":[0,0,0],"key":37,"choice":0,"rt":1360,"outcome":0,"trial":8,"correct":1,"trial_type":"three-arm-trial","trial_index":25,"time_elapsed":492647,"internal_node_id":"0.0-14.0-0.0","task_version":"screening-prolific","missing":false,"accuracy":0},{"contexts":["green","blue","red"],"outcomes":[0,1,0],"key":38,"choice":1,"rt":492,"outcome":1,"trial":9,"correct":1,"trial_type":"three-arm-trial","trial_index":26,"time_elapsed":494365,"internal_node_id":"0.0-15.0-0.0","task_version":"screening-prolific","missing":false,"accuracy":1},{"contexts":["green","blue","red"],"outcomes":[1,1,0],"key":38,"choice":1,"rt":430,"outcome":1,"trial":10,"correct":1,"trial_type":"three-arm-trial","trial_index":27,"time_elapsed":496019,"internal_node_id":"0.0-16.0-0.0","task_version":"screening-prolific","missing":false,"accuracy":1},{"contexts":["green","blue","red"],"outcomes":[0,1,0],"key":38,"choice":1,"rt":399,"outcome":1,"trial":11,"correct":1,"trial_type":"three-arm-trial","trial_index":28,"time_elapsed":497640,"internal_node_id":"0.0-17.0-0.0","task_version":"screening-prolific","missing":false,"accuracy":1},{"contexts":["green","blue","red"],"outcomes":[0,1,0],"key":38,"choice":1,"rt":452,"outcome":1,"trial":12,"correct":1,"trial_type":"three-arm-trial","trial_index":29,"time_elapsed":499312,"internal_node_id":"0.0-18.0-0.0","task_version":"screening-prolific","missing":false,"accuracy":1},{"contexts":["green","blue","red"],"outcomes":[0,1,1],"key":38,"choice":1,"rt":398,"outcome":1,"trial":13,"correct":1,"trial_type":"three-arm-trial","trial_index":30,"time_elapsed":500934,"internal_node_id":"0.0-19.0-0.0","task_version":"screening-prolific","missing":false,"accuracy":1},{"contexts":["green","blue","red"],"outcomes":[0,0,0],"key":38,"choice":1,"rt":413,"outcome":0,"trial":14,"correct":1,"trial_type":"three-arm-trial","trial_index":31,"time_elapsed":502572,"internal_node_id":"0.0-20.0-0.0","task_version":"screening-prolific","missing":false,"accuracy":1},{"contexts":["green","blue","red"],"outcomes":[1,1,0],"key":39,"choice":2,"rt":217,"outcome":0,"trial":15,"correct":1,"trial_type":"three-arm-trial","trial_index":32,"time_elapsed":504013,"internal_node_id":"0.0-21.0-0.0","task_version":"screening-prolific","missing":false,"accuracy":0},{"contexts":["green","blue","red"],"outcomes":[0,1,1],"key":37,"choice":0,"rt":451,"outcome":0,"trial":16,"correct":2,"trial_type":"three-arm-trial","trial_index":33,"time_elapsed":505685,"internal_node_id":"0.0-22.0-0.0","task_version":"screening-prolific","missing":false,"accuracy":0},{"contexts":["green","blue","red"],"outcomes":[1,1,1],"key":38,"choice":1,"rt":361,"outcome":1,"trial":17,"correct":2,"trial_type":"three-arm-trial","trial_index":34,"time_elapsed":507270,"internal_node_id":"0.0-23.0-0.0","task_version":"screening-prolific","missing":false,"accuracy":0},{"contexts":["green","blue","red"],"outcomes":[0,0,1],"key":38,"choice":1,"rt":350,"outcome":0,"trial":18,"correct":2,"trial_type":"three-arm-trial","trial_index":35,"time_elapsed":508842,"internal_node_id":"0.0-24.0-0.0","task_version":"screening-prolific","missing":false,"accuracy":0},{"contexts":["green","blue","red"],"outcomes":[0,0,1],"key":39,"choice":2,"rt":181,"outcome":1,"trial":19,"correct":2,"trial_type":"three-arm-trial","trial_index":36,"time_elapsed":510247,"internal_node_id":"0.0-25.0-0.0","task_version":"screening-prolific","missing":false,"accuracy":1},{"contexts":["green","blue","red"],"outcomes":[0,0,1],"key":39,"choice":2,"rt":316,"outcome":1,"trial":20,"correct":2,"trial_type":"three-arm-trial","trial_index":37,"time_elapsed":511785,"internal_node_id":"0.0-26.0-0.0","task_version":"screening-prolific","missing":false,"accuracy":1},{"contexts":["green","blue","red"],"outcomes":[0,0,1],"key":39,"choice":2,"rt":333,"outcome":1,"trial":21,"correct":2,"trial_type":"three-arm-trial","trial_index":38,"time_elapsed":513341,"internal_node_id":"0.0-27.0-0.0","task_version":"screening-prolific","missing":false,"accuracy":1},{"contexts":["green","blue","red"],"outcomes":[0,0,0],"key":39,"choice":2,"rt":371,"outcome":0,"trial":22,"correct":2,"trial_type":"three-arm-trial","trial_index":39,"time_elapsed":514932,"internal_node_id":"0.0-28.0-0.0","task_version":"screening-prolific","missing":false,"accuracy":1},{"contexts":["green","blue","red"],"outcomes":[0,1,1],"key":37,"choice":0,"rt":392,"outcome":0,"trial":23,"correct":2,"trial_type":"three-arm-trial","trial_index":40,"time_elapsed":516550,"internal_node_id":"0.0-29.0-0.0","task_version":"screening-prolific","missing":false,"accuracy":0},{"contexts":["green","blue","red"],"outcomes":[0,0,1],"key":38,"choice":1,"rt":137,"outcome":0,"trial":24,"correct":2,"trial_type":"three-arm-trial","trial_index":41,"time_elapsed":517912,"internal_node_id":"0.0-30.0-0.0","task_version":"screening-prolific","missing":false,"accuracy":0},{"contexts":["green","blue","red"],"outcomes":[0,0,1],"key":39,"choice":2,"rt":189,"outcome":1,"trial":25,"correct":2,"trial_type":"three-arm-trial","trial_index":42,"time_elapsed":519326,"internal_node_id":"0.0-31.0-0.0","task_version":"screening-prolific","missing":false,"accuracy":1},{"contexts":["green","blue","red"],"outcomes":[0,0,1],"key":39,"choice":2,"rt":262,"outcome":1,"trial":26,"correct":2,"trial_type":"three-arm-trial","trial_index":43,"time_elapsed":520814,"internal_node_id":"0.0-32.0-0.0","task_version":"screening-prolific","missing":false,"accuracy":1},{"contexts":["green","blue","red"],"outcomes":[0,1,1],"key":39,"choice":2,"rt":369,"outcome":1,"trial":27,"correct":2,"trial_type":"three-arm-trial","trial_index":44,"time_elapsed":522405,"internal_node_id":"0.0-33.0-0.0","task_version":"screening-prolific","missing":false,"accuracy":1},{"contexts":["green","blue","red"],"outcomes":[0,0,1],"key":39,"choice":2,"rt":387,"outcome":1,"trial":28,"correct":2,"trial_type":"three-arm-trial","trial_index":45,"time_elapsed":524017,"internal_node_id":"0.0-34.0-0.0","task_version":"screening-prolific","missing":false,"accuracy":1},{"contexts":["green","blue","red"],"outcomes":[0,0,1],"key":39,"choice":2,"rt":356,"outcome":1,"trial":29,"correct":2,"trial_type":"three-arm-trial","trial_index":46,"time_elapsed":525600,"internal_node_id":"0.0-35.0-0.0","task_version":"screening-prolific","missing":false,"accuracy":1},{"contexts":["green","blue","red"],"outcomes":[1,0,1],"key":39,"choice":2,"rt":262,"outcome":1,"trial":30,"correct":2,"trial_type":"three-arm-trial","trial_index":47,"time_elapsed":527084,"internal_node_id":"0.0-36.0-0.0","task_version":"screening-prolific","missing":false,"accuracy":1},{"contexts":["green","blue","red"],"outcomes":[0,1,0],"key":39,"choice":2,"rt":415,"outcome":0,"trial":31,"correct":1,"trial_type":"three-arm-trial","trial_index":48,"time_elapsed":528723,"internal_node_id":"0.0-37.0-0.0","task_version":"screening-prolific","missing":false,"accuracy":0},{"contexts":["green","blue","red"],"outcomes":[0,1,0],"key":38,"choice":1,"rt":84,"outcome":1,"trial":32,"correct":1,"trial_type":"three-arm-trial","trial_index":49,"time_elapsed":530030,"internal_node_id":"0.0-38.0-0.0","task_version":"screening-prolific","missing":false,"accuracy":1},{"contexts":["green","blue","red"],"outcomes":[0,1,0],"key":38,"choice":1,"rt":234,"outcome":1,"trial":33,"correct":1,"trial_type":"three-arm-trial","trial_index":50,"time_elapsed":531487,"internal_node_id":"0.0-39.0-0.0","task_version":"screening-prolific","missing":false,"accuracy":1},{"contexts":["green","blue","red"],"outcomes":[0,1,0],"key":38,"choice":1,"rt":217,"outcome":1,"trial":34,"correct":1,"trial_type":"three-arm-trial","trial_index":51,"time_elapsed":532928,"internal_node_id":"0.0-40.0-0.0","task_version":"screening-prolific","missing":false,"accuracy":1},{"contexts":["green","blue","red"],"outcomes":[0,1,1],"key":38,"choice":1,"rt":106,"outcome":1,"trial":35,"correct":1,"trial_type":"three-arm-trial","trial_index":52,"time_elapsed":534258,"internal_node_id":"0.0-41.0-0.0","task_version":"screening-prolific","missing":false,"accuracy":1},{"contexts":["green","blue","red"],"outcomes":[0,0,0],"key":38,"choice":1,"rt":116,"outcome":0,"trial":36,"correct":1,"trial_type":"three-arm-trial","trial_index":53,"time_elapsed":535599,"internal_node_id":"0.0-42.0-0.0","task_version":"screening-prolific","missing":false,"accuracy":1},{"contexts":["green","blue","red"],"outcomes":[0,1,0],"key":37,"choice":0,"rt":428,"outcome":0,"trial":37,"correct":1,"trial_type":"three-arm-trial","trial_index":54,"time_elapsed":537251,"internal_node_id":"0.0-43.0-0.0","task_version":"screening-prolific","missing":false,"accuracy":0},{"contexts":["green","blue","red"],"outcomes":[1,1,0],"key":39,"choice":2,"rt":214,"outcome":0,"trial":38,"correct":1,"trial_type":"three-arm-trial","trial_index":55,"time_elapsed":538688,"internal_node_id":"0.0-44.0-0.0","task_version":"screening-prolific","missing":false,"accuracy":0},{"contexts":["green","blue","red"],"outcomes":[0,1,0],"key":38,"choice":1,"rt":289,"outcome":1,"trial":39,"correct":1,"trial_type":"three-arm-trial","trial_index":56,"time_elapsed":540199,"internal_node_id":"0.0-45.0-0.0","task_version":"screening-prolific","missing":false,"accuracy":1},{"contexts":["green","blue","red"],"outcomes":[1,0,0],"key":38,"choice":1,"rt":62,"outcome":0,"trial":40,"correct":1,"trial_type":"three-arm-trial","trial_index":57,"time_elapsed":541486,"internal_node_id":"0.0-46.0-0.0","task_version":"screening-prolific","missing":false,"accuracy":1},{"contexts":["green","blue","red"],"outcomes":[0,1,0],"key":38,"choice":1,"rt":543,"outcome":1,"trial":41,"correct":1,"trial_type":"three-arm-trial","trial_index":58,"time_elapsed":543251,"internal_node_id":"0.0-47.0-0.0","task_version":"screening-prolific","missing":false,"accuracy":1},{"contexts":["green","blue","red"],"outcomes":[0,1,0],"key":38,"choice":1,"rt":117,"outcome":1,"trial":42,"correct":1,"trial_type":"three-arm-trial","trial_index":59,"time_elapsed":544591,"internal_node_id":"0.0-48.0-0.0","task_version":"screening-prolific","missing":false,"accuracy":1},{"contexts":["green","blue","red"],"outcomes":[1,1,1],"key":38,"choice":1,"rt":37,"outcome":1,"trial":43,"correct":1,"trial_type":"three-arm-trial","trial_index":60,"time_elapsed":545853,"internal_node_id":"0.0-49.0-0.0","task_version":"screening-prolific","missing":false,"accuracy":1},{"contexts":["green","blue","red"],"outcomes":[0,0,0],"key":38,"choice":1,"rt":620,"outcome":0,"trial":44,"correct":1,"trial_type":"three-arm-trial","trial_index":61,"time_elapsed":547700,"internal_node_id":"0.0-50.0-0.0","task_version":"screening-prolific","missing":false,"accuracy":1},{"contexts":["green","blue","red"],"outcomes":[0,0,0],"key":39,"choice":2,"rt":96,"outcome":0,"trial":45,"correct":1,"trial_type":"three-arm-trial","trial_index":62,"time_elapsed":549022,"internal_node_id":"0.0-51.0-0.0","task_version":"screening-prolific","missing":false,"accuracy":0},{"contexts":["green","blue","red"],"outcomes":[1,0,0],"key":38,"choice":1,"rt":51,"outcome":0,"trial":46,"correct":0,"trial_type":"three-arm-trial","trial_index":63,"time_elapsed":550297,"internal_node_id":"0.0-52.0-0.0","task_version":"screening-prolific","missing":false,"accuracy":0},{"contexts":["green","blue","red"],"outcomes":[1,0,1],"key":37,"choice":0,"rt":98,"outcome":1,"trial":47,"correct":0,"trial_type":"three-arm-trial","trial_index":64,"time_elapsed":551617,"internal_node_id":"0.0-53.0-0.0","task_version":"screening-prolific","missing":false,"accuracy":1},{"contexts":["green","blue","red"],"outcomes":[0,0,1],"key":37,"choice":0,"rt":145,"outcome":0,"trial":48,"correct":0,"trial_type":"three-arm-trial","trial_index":65,"time_elapsed":552985,"internal_node_id":"0.0-54.0-0.0","task_version":"screening-prolific","missing":false,"accuracy":1},{"contexts":["green","blue","red"],"outcomes":[0,0,0],"key":37,"choice":0,"rt":119,"outcome":0,"trial":49,"correct":0,"trial_type":"three-arm-trial","trial_index":66,"time_elapsed":554326,"internal_node_id":"0.0-55.0-0.0","task_version":"screening-prolific","missing":false,"accuracy":1},{"contexts":["green","blue","red"],"outcomes":[1,0,0],"key":38,"choice":1,"rt":217,"outcome":0,"trial":50,"correct":0,"trial_type":"three-arm-trial","trial_index":67,"time_elapsed":555763,"internal_node_id":"0.0-56.0-0.0","task_version":"screening-prolific","missing":false,"accuracy":0},{"contexts":["green","blue","red"],"outcomes":[1,1,1],"key":39,"choice":2,"rt":389,"outcome":1,"trial":51,"correct":0,"trial_type":"three-arm-trial","trial_index":68,"time_elapsed":557376,"internal_node_id":"0.0-57.0-0.0","task_version":"screening-prolific","missing":false,"accuracy":0},{"contexts":["green","blue","red"],"outcomes":[1,0,0],"key":39,"choice":2,"rt":42,"outcome":0,"trial":52,"correct":0,"trial_type":"three-arm-trial","trial_index":69,"time_elapsed":558644,"internal_node_id":"0.0-58.0-0.0","task_version":"screening-prolific","missing":false,"accuracy":0},{"contexts":["green","blue","red"],"outcomes":[1,0,0],"key":37,"choice":0,"rt":99,"outcome":1,"trial":53,"correct":0,"trial_type":"three-arm-trial","trial_index":70,"time_elapsed":559969,"internal_node_id":"0.0-59.0-0.0","task_version":"screening-prolific","missing":false,"accuracy":1},{"contexts":["green","blue","red"],"outcomes":[1,0,0],"key":37,"choice":0,"rt":35,"outcome":1,"trial":54,"correct":0,"trial_type":"three-arm-trial","trial_index":71,"time_elapsed":561227,"internal_node_id":"0.0-60.0-0.0","task_version":"screening-prolific","missing":false,"accuracy":1},{"contexts":["green","blue","red"],"outcomes":[1,0,0],"key":37,"choice":0,"rt":36,"outcome":1,"trial":55,"correct":0,"trial_type":"three-arm-trial","trial_index":72,"time_elapsed":562487,"internal_node_id":"0.0-61.0-0.0","task_version":"screening-prolific","missing":false,"accuracy":1},{"contexts":["green","blue","red"],"outcomes":[1,1,0],"key":37,"choice":0,"rt":643,"outcome":1,"trial":56,"correct":0,"trial_type":"three-arm-trial","trial_index":73,"time_elapsed":564354,"internal_node_id":"0.0-62.0-0.0","task_version":"screening-prolific","missing":false,"accuracy":1},{"contexts":["green","blue","red"],"outcomes":[1,0,0],"key":37,"choice":0,"rt":183,"outcome":1,"trial":57,"correct":0,"trial_type":"three-arm-trial","trial_index":74,"time_elapsed":565759,"internal_node_id":"0.0-63.0-0.0","task_version":"screening-prolific","missing":false,"accuracy":1},{"contexts":["green","blue","red"],"outcomes":[0,0,0],"key":37,"choice":0,"rt":346,"outcome":0,"trial":58,"correct":0,"trial_type":"three-arm-trial","trial_index":75,"time_elapsed":567331,"internal_node_id":"0.0-64.0-0.0","task_version":"screening-prolific","missing":false,"accuracy":1},{"contexts":["green","blue","red"],"outcomes":[1,0,0],"key":38,"choice":1,"rt":37,"outcome":0,"trial":59,"correct":0,"trial_type":"three-arm-trial","trial_index":76,"time_elapsed":568594,"internal_node_id":"0.0-65.0-0.0","task_version":"screening-prolific","missing":false,"accuracy":0},{"contexts":["green","blue","red"],"outcomes":[0,0,0],"key":39,"choice":2,"rt":423,"outcome":0,"trial":60,"correct":0,"trial_type":"three-arm-trial","trial_index":77,"time_elapsed":570245,"internal_node_id":"0.0-66.0-0.0","task_version":"screening-prolific","missing":false,"accuracy":0},{"contexts":["green","blue","red"],"outcomes":[0,0,1],"key":37,"choice":0,"rt":99,"outcome":0,"trial":61,"correct":2,"trial_type":"three-arm-trial","trial_index":78,"time_elapsed":571569,"internal_node_id":"0.0-67.0-0.0","task_version":"screening-prolific","missing":false,"accuracy":0},{"contexts":["green","blue","red"],"outcomes":[0,1,0],"key":38,"choice":1,"rt":423,"outcome":1,"trial":62,"correct":2,"trial_type":"three-arm-trial","trial_index":79,"time_elapsed":573217,"internal_node_id":"0.0-68.0-0.0","task_version":"screening-prolific","missing":false,"accuracy":0},{"contexts":["green","blue","red"],"outcomes":[0,1,1],"key":38,"choice":1,"rt":36,"outcome":1,"trial":63,"correct":2,"trial_type":"three-arm-trial","trial_index":80,"time_elapsed":574478,"internal_node_id":"0.0-69.0-0.0","task_version":"screening-prolific","missing":false,"accuracy":0},{"contexts":["green","blue","red"],"outcomes":[0,0,1],"key":38,"choice":1,"rt":723,"outcome":0,"trial":64,"correct":2,"trial_type":"three-arm-trial","trial_index":81,"time_elapsed":576423,"internal_node_id":"0.0-70.0-0.0","task_version":"screening-prolific","missing":false,"accuracy":0},{"contexts":["green","blue","red"],"outcomes":[0,0,1],"key":39,"choice":2,"rt":55,"outcome":1,"trial":65,"correct":2,"trial_type":"three-arm-trial","trial_index":82,"time_elapsed":577701,"internal_node_id":"0.0-71.0-0.0","task_version":"screening-prolific","missing":false,"accuracy":1},{"contexts":["green","blue","red"],"outcomes":[0,0,1],"key":39,"choice":2,"rt":35,"outcome":1,"trial":66,"correct":2,"trial_type":"three-arm-trial","trial_index":83,"time_elapsed":578961,"internal_node_id":"0.0-72.0-0.0","task_version":"screening-prolific","missing":false,"accuracy":1},{"contexts":["green","blue","red"],"outcomes":[0,1,1],"key":39,"choice":2,"rt":519,"outcome":1,"trial":67,"correct":2,"trial_type":"three-arm-trial","trial_index":84,"time_elapsed":580709,"internal_node_id":"0.0-73.0-0.0","task_version":"screening-prolific","missing":false,"accuracy":1},{"contexts":["green","blue","red"],"outcomes":[0,0,1],"key":39,"choice":2,"rt":121,"outcome":1,"trial":68,"correct":2,"trial_type":"three-arm-trial","trial_index":85,"time_elapsed":582049,"internal_node_id":"0.0-74.0-0.0","task_version":"screening-prolific","missing":false,"accuracy":1},{"contexts":["green","blue","red"],"outcomes":[1,0,0],"key":39,"choice":2,"rt":425,"outcome":0,"trial":69,"correct":2,"trial_type":"three-arm-trial","trial_index":86,"time_elapsed":583699,"internal_node_id":"0.0-75.0-0.0","task_version":"screening-prolific","missing":false,"accuracy":1},{"contexts":["green","blue","red"],"outcomes":[1,0,1],"key":37,"choice":0,"rt":363,"outcome":1,"trial":70,"correct":2,"trial_type":"three-arm-trial","trial_index":87,"time_elapsed":585286,"internal_node_id":"0.0-76.0-0.0","task_version":"screening-prolific","missing":false,"accuracy":0},{"contexts":["green","blue","red"],"outcomes":[0,0,1],"key":37,"choice":0,"rt":153,"outcome":0,"trial":71,"correct":2,"trial_type":"three-arm-trial","trial_index":88,"time_elapsed":586659,"internal_node_id":"0.0-77.0-0.0","task_version":"screening-prolific","missing":false,"accuracy":0},{"contexts":["green","blue","red"],"outcomes":[0,0,0],"key":38,"choice":1,"rt":69,"outcome":0,"trial":72,"correct":2,"trial_type":"three-arm-trial","trial_index":89,"time_elapsed":587950,"internal_node_id":"0.0-78.0-0.0","task_version":"screening-prolific","missing":false,"accuracy":0},{"contexts":["green","blue","red"],"outcomes":[1,0,1],"key":39,"choice":2,"rt":34,"outcome":1,"trial":73,"correct":2,"trial_type":"three-arm-trial","trial_index":90,"time_elapsed":589206,"internal_node_id":"0.0-79.0-0.0","task_version":"screening-prolific","missing":false,"accuracy":1},{"contexts":["green","blue","red"],"outcomes":[0,0,1],"key":39,"choice":2,"rt":48,"outcome":1,"trial":74,"correct":2,"trial_type":"three-arm-trial","trial_index":91,"time_elapsed":590476,"internal_node_id":"0.0-80.0-0.0","task_version":"screening-prolific","missing":false,"accuracy":1},{"contexts":["green","blue","red"],"outcomes":[0,0,0],"key":39,"choice":2,"rt":32,"outcome":0,"trial":75,"correct":2,"trial_type":"three-arm-trial","trial_index":92,"time_elapsed":591734,"internal_node_id":"0.0-81.0-0.0","task_version":"screening-prolific","missing":false,"accuracy":1},{"contexts":["green","blue","red"],"outcomes":[1,0,0],"key":37,"choice":0,"rt":155,"outcome":1,"trial":76,"correct":0,"trial_type":"three-arm-trial","trial_index":93,"time_elapsed":593114,"internal_node_id":"0.0-82.0-0.0","task_version":"screening-prolific","missing":false,"accuracy":1},{"contexts":["green","blue","red"],"outcomes":[0,0,0],"key":37,"choice":0,"rt":902,"outcome":0,"trial":77,"correct":0,"trial_type":"three-arm-trial","trial_index":94,"time_elapsed":595239,"internal_node_id":"0.0-83.0-0.0","task_version":"screening-prolific","missing":false,"accuracy":1},{"contexts":["green","blue","red"],"outcomes":[1,0,1],"key":38,"choice":1,"rt":362,"outcome":0,"trial":78,"correct":0,"trial_type":"three-arm-trial","trial_index":95,"time_elapsed":596825,"internal_node_id":"0.0-84.0-0.0","task_version":"screening-prolific","missing":false,"accuracy":0},{"contexts":["green","blue","red"],"outcomes":[1,0,0],"key":39,"choice":2,"rt":219,"outcome":0,"trial":79,"correct":0,"trial_type":"three-arm-trial","trial_index":96,"time_elapsed":598268,"internal_node_id":"0.0-85.0-0.0","task_version":"screening-prolific","missing":false,"accuracy":0},{"contexts":["green","blue","red"],"outcomes":[1,0,0],"key":37,"choice":0,"rt":178,"outcome":1,"trial":80,"correct":0,"trial_type":"three-arm-trial","trial_index":97,"time_elapsed":599670,"internal_node_id":"0.0-86.0-0.0","task_version":"screening-prolific","missing":false,"accuracy":1},{"contexts":["green","blue","red"],"outcomes":[0,0,0],"key":37,"choice":0,"rt":351,"outcome":0,"trial":81,"correct":0,"trial_type":"three-arm-trial","trial_index":98,"time_elapsed":601241,"internal_node_id":"0.0-87.0-0.0","task_version":"screening-prolific","missing":false,"accuracy":1},{"contexts":["green","blue","red"],"outcomes":[1,0,0],"key":38,"choice":1,"rt":130,"outcome":0,"trial":82,"correct":0,"trial_type":"three-arm-trial","trial_index":99,"time_elapsed":602595,"internal_node_id":"0.0-88.0-0.0","task_version":"screening-prolific","missing":false,"accuracy":0},{"contexts":["green","blue","red"],"outcomes":[1,0,0],"key":39,"choice":2,"rt":463,"outcome":0,"trial":83,"correct":0,"trial_type":"three-arm-trial","trial_index":100,"time_elapsed":604279,"internal_node_id":"0.0-89.0-0.0","task_version":"screening-prolific","missing":false,"accuracy":0},{"contexts":["green","blue","red"],"outcomes":[1,0,0],"key":37,"choice":0,"rt":220,"outcome":1,"trial":84,"correct":0,"trial_type":"three-arm-trial","trial_index":101,"time_elapsed":605724,"internal_node_id":"0.0-90.0-0.0","task_version":"screening-prolific","missing":false,"accuracy":1},{"contexts":["green","blue","red"],"outcomes":[1,0,0],"key":37,"choice":0,"rt":249,"outcome":1,"trial":85,"correct":0,"trial_type":"three-arm-trial","trial_index":102,"time_elapsed":607195,"internal_node_id":"0.0-91.0-0.0","task_version":"screening-prolific","missing":false,"accuracy":1},{"contexts":["green","blue","red"],"outcomes":[1,0,0],"key":37,"choice":0,"rt":364,"outcome":1,"trial":86,"correct":0,"trial_type":"three-arm-trial","trial_index":103,"time_elapsed":608780,"internal_node_id":"0.0-92.0-0.0","task_version":"screening-prolific","missing":false,"accuracy":1},{"contexts":["green","blue","red"],"outcomes":[1,0,1],"key":37,"choice":0,"rt":182,"outcome":1,"trial":87,"correct":0,"trial_type":"three-arm-trial","trial_index":104,"time_elapsed":610185,"internal_node_id":"0.0-93.0-0.0","task_version":"screening-prolific","missing":false,"accuracy":1},{"contexts":["green","blue","red"],"outcomes":[1,0,0],"key":37,"choice":0,"rt":148,"outcome":1,"trial":88,"correct":0,"trial_type":"three-arm-trial","trial_index":105,"time_elapsed":611558,"internal_node_id":"0.0-94.0-0.0","task_version":"screening-prolific","missing":false,"accuracy":1},{"contexts":["green","blue","red"],"outcomes":[1,0,1],"key":37,"choice":0,"rt":77,"outcome":1,"trial":89,"correct":0,"trial_type":"three-arm-trial","trial_index":106,"time_elapsed":612861,"internal_node_id":"0.0-95.0-0.0","task_version":"screening-prolific","missing":false,"accuracy":1},{"contexts":["green","blue","red"],"outcomes":[0,0,1],"key":37,"choice":0,"rt":37,"outcome":0,"trial":90,"correct":0,"trial_type":"three-arm-trial","trial_index":107,"time_elapsed":614124,"internal_node_id":"0.0-96.0-0.0","task_version":"screening-prolific","missing":false,"accuracy":1},{"rt":19219,"responses":{"age":"24","gender-categorical":"Female","gender-free-response":"","ethnicity":"Not Hispanic or Latino","race":["Asian"],"language":"No","fluency":"Very well","mturk":"No","mturk-this-study":"No"},"survey":"demographics","trial_type":"survey-demo","trial_index":108,"time_elapsed":633371,"internal_node_id":"0.0-97.0","task_version":"screening-prolific","interactions":"[{\"event\":\"focus\",\"trial\":0,\"time\":0}]"}]