[{"responses":{"Q09":"1","Q01":"0","Q07":"1","Q02":"0","Q08":"1","Q12":"1","Q14":"0","Q05":"0","Q06":"0","Q15":"0","Q10":"1","Q04":"0","Q03":"1","Q13":"0","Q11":"1"},"rt":178739.0000000014,"survey":"7up7down","trial_type":"survey-template","trial_index":0,"time_elapsed":178768,"internal_node_id":"0.0-0.0","task_version":"screening-prolific"},{"responses":{"Q15":"3","Q13":"3","Q08":"3","Q09":"3","Q12":"3","Q02":"3","Q11":"3","Q10":"3","Q14":"2","Q03":"3","Q05":"2","Q04":"3","Q01":"3","Q07":"2","Q06":"3"},"rt":105836.99999999953,"survey":"shaps","trial_type":"survey-template","trial_index":1,"time_elapsed":284620,"internal_node_id":"0.0-1.0","task_version":"screening-prolific"},{"responses":{"Q02":"0","Q07":"1","Q05":"0","Q06":"0","Q04":"0","Q01":"2","Q08":"0","Q03":"0"},"rt":71735.00000000058,"survey":"gad7","trial_type":"survey-template","trial_index":2,"time_elapsed":356365,"internal_node_id":"0.0-2.0","task_version":"screening-prolific"},{"responses":{"Q02":"1","Q03":"1","Q01":"1"},"rt":44025.000000001455,"survey":"pswq","trial_type":"survey-template","trial_index":3,"time_elapsed":400397,"internal_node_id":"0.0-3.0","task_version":"screening-prolific"},{"responses":{"Q05":"3","Q13":"3","Q11":"1","Q06":"2","Q02":"2","Q07":"3","Q03":"1","Q12":"0","Q08":"2","Q04":"2","Q01":"1","Q09":"1","Q10":"1"},"rt":129487.00000000099,"survey":"bisbas","trial_type":"survey-template","trial_index":4,"time_elapsed":529896,"internal_node_id":"0.0-4.0","task_version":"screening-prolific"},{"view_history":"[{\"page_index\":0,\"viewing_time\":10743.99999999872},{\"page_index\":1,\"viewing_time\":16920.00000000547},{\"page_index\":2,\"viewing_time\":7165.999999997439},{\"page_index\":3,\"viewing_time\":11129.000000000931},{\"page_index\":4,\"viewing_time\":10466.999999996857},{\"page_index\":5,\"viewing_time\":6896.000000000582},{\"page_index\":6,\"viewing_time\":4264.999999999534},{\"page_index\":7,\"viewing_time\":8930.000000000233}]","rt":76519.00000000023,"trial_type":"instructions","trial_index":5,"time_elapsed":606420,"internal_node_id":"0.0-5.0-0.0","task_version":"screening-prolific"},{"responses":["True","True","False","False","True"],"num_errors":0,"rt":24940.00000000233,"trial_type":"three-arm-comprehension","trial_index":6,"time_elapsed":631370,"internal_node_id":"0.0-5.0-1.0","task_version":"screening-prolific"},{"view_history":"[{\"page_index\":0,\"viewing_time\":3658.000000003143}]","rt":3658.9999999996508,"trial_type":"instructions","trial_index":7,"time_elapsed":635043,"internal_node_id":"0.0-6.0","task_version":"screening-prolific"},{"contexts":["blue","green","red"],"outcomes":[0,1,1],"key":null,"rt":null,"trial":1,"correct":2,"trial_type":"three-arm-trial","trial_index":8,"time_elapsed":650051,"internal_node_id":"0.0-7.0-0.0","task_version":"screening-prolific","missing":true},{"contexts":["blue","green","red"],"outcomes":[0,1,1],"key":38,"choice":1,"rt":9377.999999996973,"outcome":1,"trial":1,"correct":2,"trial_type":"three-arm-trial","trial_index":9,"time_elapsed":660635,"internal_node_id":"0.0-7.1-0.1","task_version":"screening-prolific","missing":false,"accuracy":0},{"contexts":["blue","green","red"],"outcomes":[0,0,1],"key":38,"choice":1,"rt":1105.9999999997672,"outcome":0,"trial":2,"correct":2,"trial_type":"three-arm-trial","trial_index":10,"time_elapsed":662946,"internal_node_id":"0.0-8.0-0.0","task_version":"screening-prolific","missing":false,"accuracy":0},{"contexts":["blue","green","red"],"outcomes":[0,1,1],"key":39,"choice":2,"rt":3807.0000000006985,"outcome":1,"trial":3,"correct":2,"trial_type":"three-arm-trial","trial_index":11,"time_elapsed":667969,"internal_node_id":"0.0-9.0-0.0","task_version":"screening-prolific","missing":false,"accuracy":1},{"contexts":["blue","green","red"],"outcomes":[0,0,1],"key":39,"choice":2,"rt":833.0000000059372,"outcome":1,"trial":4,"correct":2,"trial_type":"three-arm-trial","trial_index":12,"time_elapsed":670005,"internal_node_id":"0.0-10.0-0.0","task_version":"screening-prolific","missing":false,"accuracy":1},{"contexts":["blue","green","red"],"outcomes":[0,0,1],"key":39,"choice":2,"rt":740.0000000051223,"outcome":1,"trial":5,"correct":2,"trial_type":"three-arm-trial","trial_index":13,"time_elapsed":671948,"internal_node_id":"0.0-11.0-0.0","task_version":"screening-prolific","missing":false,"accuracy":1},{"contexts":["blue","green","red"],"outcomes":[0,0,0],"key":39,"choice":2,"rt":737.0000000010477,"outcome":0,"trial":6,"correct":2,"trial_type":"three-arm-trial","trial_index":14,"time_elapsed":673890,"internal_node_id":"0.0-12.0-0.0","task_version":"screening-prolific","missing":false,"accuracy":1},{"contexts":["blue","green","red"],"outcomes":[0,0,1],"key":39,"choice":2,"rt":894.9999999968568,"outcome":1,"trial":7,"correct":2,"trial_type":"three-arm-trial","trial_index":15,"time_elapsed":675996,"internal_node_id":"0.0-13.0-0.0","task_version":"screening-prolific","missing":false,"accuracy":1},{"contexts":["blue","green","red"],"outcomes":[0,0,1],"key":39,"choice":2,"rt":521.999999997206,"outcome":1,"trial":8,"correct":2,"trial_type":"three-arm-trial","trial_index":16,"time_elapsed":677722,"internal_node_id":"0.0-14.0-0.0","task_version":"screening-prolific","missing":false,"accuracy":1},{"contexts":["blue","green","red"],"outcomes":[1,0,0],"key":39,"choice":2,"rt":620.9999999990687,"outcome":0,"trial":9,"correct":2,"trial_type":"three-arm-trial","trial_index":17,"time_elapsed":679546,"internal_node_id":"0.0-15.0-0.0","task_version":"screening-prolific","missing":false,"accuracy":1},{"contexts":["blue","green","red"],"outcomes":[0,0,0],"key":39,"choice":2,"rt":1987.0000000010477,"outcome":0,"trial":10,"correct":2,"trial_type":"three-arm-trial","trial_index":18,"time_elapsed":682738,"internal_node_id":"0.0-16.0-0.0","task_version":"screening-prolific","missing":false,"accuracy":1},{"contexts":["blue","green","red"],"outcomes":[0,0,1],"key":38,"choice":1,"rt":2206.000000005588,"outcome":0,"trial":11,"correct":2,"trial_type":"three-arm-trial","trial_index":19,"time_elapsed":686147,"internal_node_id":"0.0-17.0-0.0","task_version":"screening-prolific","missing":false,"accuracy":0},{"contexts":["blue","green","red"],"outcomes":[0,0,1],"key":38,"choice":1,"rt":2473.000000005355,"outcome":0,"trial":12,"correct":2,"trial_type":"three-arm-trial","trial_index":20,"time_elapsed":689824,"internal_node_id":"0.0-18.0-0.0","task_version":"screening-prolific","missing":false,"accuracy":0},{"contexts":["blue","green","red"],"outcomes":[0,0,1],"key":39,"choice":2,"rt":743.9999999988358,"outcome":1,"trial":13,"correct":2,"trial_type":"three-arm-trial","trial_index":21,"time_elapsed":691773,"internal_node_id":"0.0-19.0-0.0","task_version":"screening-prolific","missing":false,"accuracy":1},{"contexts":["blue","green","red"],"outcomes":[0,0,1],"key":39,"choice":2,"rt":466.9999999969732,"outcome":1,"trial":14,"correct":2,"trial_type":"three-arm-trial","trial_index":22,"time_elapsed":693446,"internal_node_id":"0.0-20.0-0.0","task_version":"screening-prolific","missing":false,"accuracy":1},{"contexts":["blue","green","red"],"outcomes":[0,0,0],"key":39,"choice":2,"rt":4013.0000000062864,"outcome":0,"trial":15,"correct":2,"trial_type":"three-arm-trial","trial_index":23,"time_elapsed":698663,"internal_node_id":"0.0-21.0-0.0","task_version":"screening-prolific","missing":false,"accuracy":1},{"contexts":["blue","green","red"],"outcomes":[1,1,0],"key":39,"choice":2,"rt":404.0000000022119,"outcome":0,"trial":16,"correct":1,"trial_type":"three-arm-trial","trial_index":24,"time_elapsed":700271,"internal_node_id":"0.0-22.0-0.0","task_version":"screening-prolific","missing":false,"accuracy":0},{"contexts":["blue","green","red"],"outcomes":[0,1,0],"key":39,"choice":2,"rt":508.0000000016298,"outcome":0,"trial":17,"correct":1,"trial_type":"three-arm-trial","trial_index":25,"time_elapsed":701982,"internal_node_id":"0.0-23.0-0.0","task_version":"screening-prolific","missing":false,"accuracy":0},{"contexts":["blue","green","red"],"outcomes":[0,1,0],"key":38,"choice":1,"rt":305.00000000023283,"outcome":1,"trial":18,"correct":1,"trial_type":"three-arm-trial","trial_index":26,"time_elapsed":703493,"internal_node_id":"0.0-24.0-0.0","task_version":"screening-prolific","missing":false,"accuracy":1},{"contexts":["blue","green","red"],"outcomes":[0,1,0],"key":38,"choice":1,"rt":492.99999999499414,"outcome":1,"trial":19,"correct":1,"trial_type":"three-arm-trial","trial_index":27,"time_elapsed":705192,"internal_node_id":"0.0-25.0-0.0","task_version":"screening-prolific","missing":false,"accuracy":1},{"contexts":["blue","green","red"],"outcomes":[1,1,0],"key":38,"choice":1,"rt":572.999999996624,"outcome":1,"trial":20,"correct":1,"trial_type":"three-arm-trial","trial_index":28,"time_elapsed":706969,"internal_node_id":"0.0-26.0-0.0","task_version":"screening-prolific","missing":false,"accuracy":1},{"contexts":["blue","green","red"],"outcomes":[0,0,0],"key":38,"choice":1,"rt":696.0000000036089,"outcome":0,"trial":21,"correct":1,"trial_type":"three-arm-trial","trial_index":29,"time_elapsed":708869,"internal_node_id":"0.0-27.0-0.0","task_version":"screening-prolific","missing":false,"accuracy":1},{"contexts":["blue","green","red"],"outcomes":[0,1,0],"key":39,"choice":2,"rt":326.9999999975553,"outcome":0,"trial":22,"correct":1,"trial_type":"three-arm-trial","trial_index":30,"time_elapsed":710399,"internal_node_id":"0.0-28.0-0.0","task_version":"screening-prolific","missing":false,"accuracy":0},{"contexts":["blue","green","red"],"outcomes":[0,0,0],"key":38,"choice":1,"rt":550.9999999994179,"outcome":0,"trial":23,"correct":1,"trial_type":"three-arm-trial","trial_index":31,"time_elapsed":712154,"internal_node_id":"0.0-29.0-0.0","task_version":"screening-prolific","missing":false,"accuracy":1},{"contexts":["blue","green","red"],"outcomes":[1,1,0],"key":39,"choice":2,"rt":241.00000000186265,"outcome":0,"trial":24,"correct":1,"trial_type":"three-arm-trial","trial_index":32,"time_elapsed":713600,"internal_node_id":"0.0-30.0-0.0","task_version":"screening-prolific","missing":false,"accuracy":0},{"contexts":["blue","green","red"],"outcomes":[0,1,1],"key":38,"choice":1,"rt":1804.0000000037253,"outcome":1,"trial":25,"correct":1,"trial_type":"three-arm-trial","trial_index":33,"time_elapsed":716617,"internal_node_id":"0.0-31.0-0.0","task_version":"screening-prolific","missing":false,"accuracy":1},{"contexts":["blue","green","red"],"outcomes":[0,1,0],"key":39,"choice":2,"rt":838.9999999998836,"outcome":0,"trial":26,"correct":1,"trial_type":"three-arm-trial","trial_index":34,"time_elapsed":718660,"internal_node_id":"0.0-32.0-0.0","task_version":"screening-prolific","missing":false,"accuracy":0},{"contexts":["blue","green","red"],"outcomes":[1,0,0],"key":38,"choice":1,"rt":522.0000000045402,"outcome":0,"trial":27,"correct":1,"trial_type":"three-arm-trial","trial_index":35,"time_elapsed":720386,"internal_node_id":"0.0-33.0-0.0","task_version":"screening-prolific","missing":false,"accuracy":1},{"contexts":["blue","green","red"],"outcomes":[1,0,1],"key":39,"choice":2,"rt":316.9999999954598,"outcome":1,"trial":28,"correct":1,"trial_type":"three-arm-trial","trial_index":36,"time_elapsed":721910,"internal_node_id":"0.0-34.0-0.0","task_version":"screening-prolific","missing":false,"accuracy":0},{"contexts":["blue","green","red"],"outcomes":[0,1,1],"key":39,"choice":2,"rt":388.0000000062864,"outcome":1,"trial":29,"correct":1,"trial_type":"three-arm-trial","trial_index":37,"time_elapsed":723502,"internal_node_id":"0.0-35.0-0.0","task_version":"screening-prolific","missing":false,"accuracy":0},{"contexts":["blue","green","red"],"outcomes":[0,1,0],"key":39,"choice":2,"rt":374.00000000349246,"outcome":0,"trial":30,"correct":1,"trial_type":"three-arm-trial","trial_index":38,"time_elapsed":725079,"internal_node_id":"0.0-36.0-0.0","task_version":"screening-prolific","missing":false,"accuracy":0},{"contexts":["blue","green","red"],"outcomes":[0,0,0],"key":39,"choice":2,"rt":347.0000000015134,"outcome":0,"trial":31,"correct":2,"trial_type":"three-arm-trial","trial_index":39,"time_elapsed":726630,"internal_node_id":"0.0-37.0-0.0","task_version":"screening-prolific","missing":false,"accuracy":1},{"contexts":["blue","green","red"],"outcomes":[0,0,1],"key":38,"choice":1,"rt":335.99999999580905,"outcome":0,"trial":32,"correct":2,"trial_type":"three-arm-trial","trial_index":40,"time_elapsed":728169,"internal_node_id":"0.0-38.0-0.0","task_version":"screening-prolific","missing":false,"accuracy":0},{"contexts":["blue","green","red"],"outcomes":[0,0,0],"key":39,"choice":2,"rt":260.999999998603,"outcome":0,"trial":33,"correct":2,"trial_type":"three-arm-trial","trial_index":41,"time_elapsed":729635,"internal_node_id":"0.0-39.0-0.0","task_version":"screening-prolific","missing":false,"accuracy":1},{"contexts":["blue","green","red"],"outcomes":[0,0,1],"key":38,"choice":1,"rt":317.9999999993015,"outcome":0,"trial":34,"correct":2,"trial_type":"three-arm-trial","trial_index":42,"time_elapsed":731157,"internal_node_id":"0.0-40.0-0.0","task_version":"screening-prolific","missing":false,"accuracy":0},{"contexts":["blue","green","red"],"outcomes":[0,0,1],"key":39,"choice":2,"rt":315.0000000023283,"outcome":1,"trial":35,"correct":2,"trial_type":"three-arm-trial","trial_index":43,"time_elapsed":732679,"internal_node_id":"0.0-41.0-0.0","task_version":"screening-prolific","missing":false,"accuracy":1},{"contexts":["blue","green","red"],"outcomes":[0,0,1],"key":39,"choice":2,"rt":319.00000000325963,"outcome":1,"trial":36,"correct":2,"trial_type":"three-arm-trial","trial_index":44,"time_elapsed":734201,"internal_node_id":"0.0-42.0-0.0","task_version":"screening-prolific","missing":false,"accuracy":1},{"contexts":["blue","green","red"],"outcomes":[0,0,1],"key":39,"choice":2,"rt":594.0000000046566,"outcome":1,"trial":37,"correct":2,"trial_type":"three-arm-trial","trial_index":45,"time_elapsed":735998,"internal_node_id":"0.0-43.0-0.0","task_version":"screening-prolific","missing":false,"accuracy":1},{"contexts":["blue","green","red"],"outcomes":[0,1,1],"key":39,"choice":2,"rt":703.9999999979045,"outcome":1,"trial":38,"correct":2,"trial_type":"three-arm-trial","trial_index":46,"time_elapsed":737905,"internal_node_id":"0.0-44.0-0.0","task_version":"screening-prolific","missing":false,"accuracy":1},{"contexts":["blue","green","red"],"outcomes":[0,1,1],"key":39,"choice":2,"rt":567.9999999993015,"outcome":1,"trial":39,"correct":2,"trial_type":"three-arm-trial","trial_index":47,"time_elapsed":739678,"internal_node_id":"0.0-45.0-0.0","task_version":"screening-prolific","missing":false,"accuracy":1},{"contexts":["blue","green","red"],"outcomes":[0,1,1],"key":39,"choice":2,"rt":565.0000000023283,"outcome":1,"trial":40,"correct":2,"trial_type":"three-arm-trial","trial_index":48,"time_elapsed":741447,"internal_node_id":"0.0-46.0-0.0","task_version":"screening-prolific","missing":false,"accuracy":1},{"contexts":["blue","green","red"],"outcomes":[0,0,1],"key":39,"choice":2,"rt":710.0000000062864,"outcome":1,"trial":41,"correct":2,"trial_type":"three-arm-trial","trial_index":49,"time_elapsed":743361,"internal_node_id":"0.0-47.0-0.0","task_version":"screening-prolific","missing":false,"accuracy":1},{"contexts":["blue","green","red"],"outcomes":[0,0,1],"key":39,"choice":2,"rt":613.000000004773,"outcome":1,"trial":42,"correct":2,"trial_type":"three-arm-trial","trial_index":50,"time_elapsed":745186,"internal_node_id":"0.0-48.0-0.0","task_version":"screening-prolific","missing":false,"accuracy":1},{"contexts":["blue","green","red"],"outcomes":[0,0,1],"key":39,"choice":2,"rt":413.00000000046566,"outcome":1,"trial":43,"correct":2,"trial_type":"three-arm-trial","trial_index":51,"time_elapsed":746802,"internal_node_id":"0.0-49.0-0.0","task_version":"screening-prolific","missing":false,"accuracy":1},{"contexts":["blue","green","red"],"outcomes":[0,0,1],"key":39,"choice":2,"rt":412.9999999932479,"outcome":1,"trial":44,"correct":2,"trial_type":"three-arm-trial","trial_index":52,"time_elapsed":748418,"internal_node_id":"0.0-50.0-0.0","task_version":"screening-prolific","missing":false,"accuracy":1},{"contexts":["blue","green","red"],"outcomes":[1,0,1],"key":39,"choice":2,"rt":470.9999999977881,"outcome":1,"trial":45,"correct":2,"trial_type":"three-arm-trial","trial_index":53,"time_elapsed":750094,"internal_node_id":"0.0-51.0-0.0","task_version":"screening-prolific","missing":false,"accuracy":1},{"contexts":["blue","green","red"],"outcomes":[1,0,1],"key":39,"choice":2,"rt":623.9999999961583,"outcome":1,"trial":46,"correct":0,"trial_type":"three-arm-trial","trial_index":54,"time_elapsed":751923,"internal_node_id":"0.0-52.0-0.0","task_version":"screening-prolific","missing":false,"accuracy":0},{"contexts":["blue","green","red"],"outcomes":[0,1,0],"key":39,"choice":2,"rt":838.000000003376,"outcome":0,"trial":47,"correct":0,"trial_type":"three-arm-trial","trial_index":55,"time_elapsed":753965,"internal_node_id":"0.0-53.0-0.0","task_version":"screening-prolific","missing":false,"accuracy":0},{"contexts":["blue","green","red"],"outcomes":[1,0,0],"key":39,"choice":2,"rt":339,"outcome":0,"trial":48,"correct":0,"trial_type":"three-arm-trial","trial_index":56,"time_elapsed":755508,"internal_node_id":"0.0-54.0-0.0","task_version":"screening-prolific","missing":false,"accuracy":0},{"contexts":["blue","green","red"],"outcomes":[1,0,0],"key":38,"choice":1,"rt":529.9999999988358,"outcome":0,"trial":49,"correct":0,"trial_type":"three-arm-trial","trial_index":57,"time_elapsed":757243,"internal_node_id":"0.0-55.0-0.0","task_version":"screening-prolific","missing":false,"accuracy":0},{"contexts":["blue","green","red"],"outcomes":[0,0,0],"key":39,"choice":2,"rt":612.9999999974389,"outcome":0,"trial":50,"correct":0,"trial_type":"three-arm-trial","trial_index":58,"time_elapsed":759061,"internal_node_id":"0.0-56.0-0.0","task_version":"screening-prolific","missing":false,"accuracy":0},{"contexts":["blue","green","red"],"outcomes":[1,0,0],"key":38,"choice":1,"rt":1127.9999999969732,"outcome":0,"trial":51,"correct":0,"trial_type":"three-arm-trial","trial_index":59,"time_elapsed":761393,"internal_node_id":"0.0-57.0-0.0","task_version":"screening-prolific","missing":false,"accuracy":0},{"contexts":["blue","green","red"],"outcomes":[0,0,0],"key":39,"choice":2,"rt":370.9999999991851,"outcome":0,"trial":52,"correct":0,"trial_type":"three-arm-trial","trial_index":60,"time_elapsed":762968,"internal_node_id":"0.0-58.0-0.0","task_version":"screening-prolific","missing":false,"accuracy":0},{"contexts":["blue","green","red"],"outcomes":[0,1,0],"key":38,"choice":1,"rt":135.99999999860302,"outcome":1,"trial":53,"correct":0,"trial_type":"three-arm-trial","trial_index":61,"time_elapsed":764315,"internal_node_id":"0.0-59.0-0.0","task_version":"screening-prolific","missing":false,"accuracy":0},{"contexts":["blue","green","red"],"outcomes":[1,0,0],"key":38,"choice":1,"rt":330.00000000186265,"outcome":0,"trial":54,"correct":0,"trial_type":"three-arm-trial","trial_index":62,"time_elapsed":765849,"internal_node_id":"0.0-60.0-0.0","task_version":"screening-prolific","missing":false,"accuracy":0},{"contexts":["blue","green","red"],"outcomes":[1,0,1],"key":39,"choice":2,"rt":320.9999999962747,"outcome":1,"trial":55,"correct":0,"trial_type":"three-arm-trial","trial_index":63,"time_elapsed":767373,"internal_node_id":"0.0-61.0-0.0","task_version":"screening-prolific","missing":false,"accuracy":0},{"contexts":["blue","green","red"],"outcomes":[0,1,0],"key":39,"choice":2,"rt":403.9999999948777,"outcome":0,"trial":56,"correct":0,"trial_type":"three-arm-trial","trial_index":64,"time_elapsed":768981,"internal_node_id":"0.0-62.0-0.0","task_version":"screening-prolific","missing":false,"accuracy":0},{"contexts":["blue","green","red"],"outcomes":[1,0,0],"key":38,"choice":1,"rt":959.0000000025611,"outcome":0,"trial":57,"correct":0,"trial_type":"three-arm-trial","trial_index":65,"time_elapsed":771145,"internal_node_id":"0.0-63.0-0.0","task_version":"screening-prolific","missing":false,"accuracy":0},{"contexts":["blue","green","red"],"outcomes":[1,1,0],"key":39,"choice":2,"rt":438.9999999984866,"outcome":0,"trial":58,"correct":0,"trial_type":"three-arm-trial","trial_index":66,"time_elapsed":772791,"internal_node_id":"0.0-64.0-0.0","task_version":"screening-prolific","missing":false,"accuracy":0},{"contexts":["blue","green","red"],"outcomes":[1,0,0],"key":38,"choice":1,"rt":328.9999999979045,"outcome":0,"trial":59,"correct":0,"trial_type":"three-arm-trial","trial_index":67,"time_elapsed":774326,"internal_node_id":"0.0-65.0-0.0","task_version":"screening-prolific","missing":false,"accuracy":0},{"contexts":["blue","green","red"],"outcomes":[1,0,0],"key":39,"choice":2,"rt":319.99999999976717,"outcome":0,"trial":60,"correct":0,"trial_type":"three-arm-trial","trial_index":68,"time_elapsed":775850,"internal_node_id":"0.0-66.0-0.0","task_version":"screening-prolific","missing":false,"accuracy":0},{"contexts":["blue","green","red"],"outcomes":[0,0,0],"key":38,"choice":1,"rt":389.9999999993015,"outcome":0,"trial":61,"correct":1,"trial_type":"three-arm-trial","trial_index":69,"time_elapsed":777444,"internal_node_id":"0.0-67.0-0.0","task_version":"screening-prolific","missing":false,"accuracy":1},{"contexts":["blue","green","red"],"outcomes":[0,1,0],"key":39,"choice":2,"rt":476.99999999883585,"outcome":0,"trial":62,"correct":1,"trial_type":"three-arm-trial","trial_index":70,"time_elapsed":779127,"internal_node_id":"0.0-68.0-0.0","task_version":"screening-prolific","missing":false,"accuracy":0},{"contexts":["blue","green","red"],"outcomes":[0,0,1],"key":38,"choice":1,"rt":334.00000000256114,"outcome":0,"trial":63,"correct":1,"trial_type":"three-arm-trial","trial_index":71,"time_elapsed":780664,"internal_node_id":"0.0-69.0-0.0","task_version":"screening-prolific","missing":false,"accuracy":1},{"contexts":["blue","green","red"],"outcomes":[0,1,0],"key":39,"choice":2,"rt":676.9999999960419,"outcome":0,"trial":64,"correct":1,"trial_type":"three-arm-trial","trial_index":72,"time_elapsed":782545,"internal_node_id":"0.0-70.0-0.0","task_version":"screening-prolific","missing":false,"accuracy":0},{"contexts":["blue","green","red"],"outcomes":[0,1,0],"key":38,"choice":1,"rt":1646.0000000006985,"outcome":1,"trial":65,"correct":1,"trial_type":"three-arm-trial","trial_index":73,"time_elapsed":785396,"internal_node_id":"0.0-71.0-0.0","task_version":"screening-prolific","missing":false,"accuracy":1},{"contexts":["blue","green","red"],"outcomes":[0,1,0],"key":38,"choice":1,"rt":355.99999999976717,"outcome":1,"trial":66,"correct":1,"trial_type":"three-arm-trial","trial_index":74,"time_elapsed":786955,"internal_node_id":"0.0-72.0-0.0","task_version":"screening-prolific","missing":false,"accuracy":1},{"contexts":["blue","green","red"],"outcomes":[0,1,0],"key":38,"choice":1,"rt":423.9999999990687,"outcome":1,"trial":67,"correct":1,"trial_type":"three-arm-trial","trial_index":75,"time_elapsed":788583,"internal_node_id":"0.0-73.0-0.0","task_version":"screening-prolific","missing":false,"accuracy":1},{"contexts":["blue","green","red"],"outcomes":[0,1,0],"key":38,"choice":1,"rt":535.0000000034925,"outcome":1,"trial":68,"correct":1,"trial_type":"three-arm-trial","trial_index":76,"time_elapsed":790321,"internal_node_id":"0.0-74.0-0.0","task_version":"screening-prolific","missing":false,"accuracy":1},{"contexts":["blue","green","red"],"outcomes":[0,1,0],"key":38,"choice":1,"rt":678.9999999963911,"outcome":1,"trial":69,"correct":1,"trial_type":"three-arm-trial","trial_index":77,"time_elapsed":792206,"internal_node_id":"0.0-75.0-0.0","task_version":"screening-prolific","missing":false,"accuracy":1},{"contexts":["blue","green","red"],"outcomes":[1,0,0],"key":38,"choice":1,"rt":468.99999999743886,"outcome":0,"trial":70,"correct":1,"trial_type":"three-arm-trial","trial_index":78,"time_elapsed":793879,"internal_node_id":"0.0-76.0-0.0","task_version":"screening-prolific","missing":false,"accuracy":1},{"contexts":["blue","green","red"],"outcomes":[0,1,0],"key":39,"choice":2,"rt":326.0000000009313,"outcome":0,"trial":71,"correct":1,"trial_type":"three-arm-trial","trial_index":79,"time_elapsed":795410,"internal_node_id":"0.0-77.0-0.0","task_version":"screening-prolific","missing":false,"accuracy":0},{"contexts":["blue","green","red"],"outcomes":[0,1,1],"key":38,"choice":1,"rt":216.9999999969732,"outcome":1,"trial":72,"correct":1,"trial_type":"three-arm-trial","trial_index":80,"time_elapsed":796831,"internal_node_id":"0.0-78.0-0.0","task_version":"screening-prolific","missing":false,"accuracy":1},{"contexts":["blue","green","red"],"outcomes":[0,1,0],"key":38,"choice":1,"rt":398.0000000009313,"outcome":1,"trial":73,"correct":1,"trial_type":"three-arm-trial","trial_index":81,"time_elapsed":798433,"internal_node_id":"0.0-79.0-0.0","task_version":"screening-prolific","missing":false,"accuracy":1},{"contexts":["blue","green","red"],"outcomes":[0,1,1],"key":38,"choice":1,"rt":383.0000000016298,"outcome":1,"trial":74,"correct":1,"trial_type":"three-arm-trial","trial_index":82,"time_elapsed":800019,"internal_node_id":"0.0-80.0-0.0","task_version":"screening-prolific","missing":false,"accuracy":1},{"contexts":["blue","green","red"],"outcomes":[1,1,0],"key":38,"choice":1,"rt":394.00000000023283,"outcome":1,"trial":75,"correct":1,"trial_type":"three-arm-trial","trial_index":83,"time_elapsed":801616,"internal_node_id":"0.0-81.0-0.0","task_version":"screening-prolific","missing":false,"accuracy":1},{"contexts":["blue","green","red"],"outcomes":[0,0,0],"key":38,"choice":1,"rt":493.99999999871943,"outcome":0,"trial":76,"correct":0,"trial_type":"three-arm-trial","trial_index":84,"time_elapsed":803313,"internal_node_id":"0.0-82.0-0.0","task_version":"screening-prolific","missing":false,"accuracy":0},{"contexts":["blue","green","red"],"outcomes":[1,1,0],"key":39,"choice":2,"rt":199.99999999720603,"outcome":0,"trial":77,"correct":0,"trial_type":"three-arm-trial","trial_index":85,"time_elapsed":804717,"internal_node_id":"0.0-83.0-0.0","task_version":"screening-prolific","missing":false,"accuracy":0},{"contexts":["blue","green","red"],"outcomes":[0,0,0],"key":38,"choice":1,"rt":530.0000000060536,"outcome":0,"trial":78,"correct":0,"trial_type":"three-arm-trial","trial_index":86,"time_elapsed":806449,"internal_node_id":"0.0-84.0-0.0","task_version":"screening-prolific","missing":false,"accuracy":0},{"contexts":["blue","green","red"],"outcomes":[1,0,0],"key":39,"choice":2,"rt":281.9999999991851,"outcome":0,"trial":79,"correct":0,"trial_type":"three-arm-trial","trial_index":87,"time_elapsed":807939,"internal_node_id":"0.0-85.0-0.0","task_version":"screening-prolific","missing":false,"accuracy":0},{"contexts":["blue","green","red"],"outcomes":[1,0,0],"key":38,"choice":1,"rt":345.9999999977881,"outcome":0,"trial":80,"correct":0,"trial_type":"three-arm-trial","trial_index":88,"time_elapsed":809490,"internal_node_id":"0.0-86.0-0.0","task_version":"screening-prolific","missing":false,"accuracy":0},{"contexts":["blue","green","red"],"outcomes":[0,0,0],"key":39,"choice":2,"rt":330.99999999825377,"outcome":0,"trial":81,"correct":0,"trial_type":"three-arm-trial","trial_index":89,"time_elapsed":811029,"internal_node_id":"0.0-87.0-0.0","task_version":"screening-prolific","missing":false,"accuracy":0},{"contexts":["blue","green","red"],"outcomes":[1,1,0],"key":39,"choice":2,"rt":305.00000000023283,"outcome":0,"trial":82,"correct":0,"trial_type":"three-arm-trial","trial_index":90,"time_elapsed":812538,"internal_node_id":"0.0-88.0-0.0","task_version":"screening-prolific","missing":false,"accuracy":0},{"contexts":["blue","green","red"],"outcomes":[1,0,0],"key":39,"choice":2,"rt":334.00000000256114,"outcome":0,"trial":83,"correct":0,"trial_type":"three-arm-trial","trial_index":91,"time_elapsed":814076,"internal_node_id":"0.0-89.0-0.0","task_version":"screening-prolific","missing":false,"accuracy":0},{"contexts":["blue","green","red"],"outcomes":[0,0,0],"key":38,"choice":1,"rt":673.9999999990687,"outcome":0,"trial":84,"correct":0,"trial_type":"three-arm-trial","trial_index":92,"time_elapsed":815954,"internal_node_id":"0.0-90.0-0.0","task_version":"screening-prolific","missing":false,"accuracy":0},{"contexts":["blue","green","red"],"outcomes":[1,0,0],"key":38,"choice":1,"rt":867.9999999949941,"outcome":0,"trial":85,"correct":0,"trial_type":"three-arm-trial","trial_index":93,"time_elapsed":818027,"internal_node_id":"0.0-91.0-0.0","task_version":"screening-prolific","missing":false,"accuracy":0},{"contexts":["blue","green","red"],"outcomes":[1,1,1],"key":38,"choice":1,"rt":627.0000000004657,"outcome":1,"trial":86,"correct":0,"trial_type":"three-arm-trial","trial_index":94,"time_elapsed":819857,"internal_node_id":"0.0-92.0-0.0","task_version":"screening-prolific","missing":false,"accuracy":0},{"contexts":["blue","green","red"],"outcomes":[1,1,1],"key":38,"choice":1,"rt":571.0000000034925,"outcome":1,"trial":87,"correct":0,"trial_type":"three-arm-trial","trial_index":95,"time_elapsed":821632,"internal_node_id":"0.0-93.0-0.0","task_version":"screening-prolific","missing":false,"accuracy":0},{"contexts":["blue","green","red"],"outcomes":[1,0,0],"key":38,"choice":1,"rt":858.9999999967404,"outcome":0,"trial":88,"correct":0,"trial_type":"three-arm-trial","trial_index":96,"time_elapsed":823694,"internal_node_id":"0.0-94.0-0.0","task_version":"screening-prolific","missing":false,"accuracy":0},{"contexts":["blue","green","red"],"outcomes":[1,0,0],"key":39,"choice":2,"rt":264.99999999953434,"outcome":0,"trial":89,"correct":0,"trial_type":"three-arm-trial","trial_index":97,"time_elapsed":825164,"internal_node_id":"0.0-95.0-0.0","task_version":"screening-prolific","missing":false,"accuracy":0},{"contexts":["blue","green","red"],"outcomes":[1,0,0],"key":38,"choice":1,"rt":338.9999999998836,"outcome":0,"trial":90,"correct":0,"trial_type":"three-arm-trial","trial_index":98,"time_elapsed":826711,"internal_node_id":"0.0-96.0-0.0","task_version":"screening-prolific","missing":false,"accuracy":0},{"rt":50184.000000001164,"responses":{"age":"46","gender-categorical":"Female","gender-free-response":"","ethnicity":"Not Hispanic or Latino","race":["White"],"language":"No","fluency":"Very well","mturk":"No","mturk-this-study":"No"},"survey":"demographics","trial_type":"survey-demo","trial_index":99,"time_elapsed":876921,"internal_node_id":"0.0-97.0","task_version":"screening-prolific","interactions":"[]"}]