[{"responses":{"Q03":"2","Q01":"3","Q02":"3"},"rt":15915.464999998221,"survey":"pswq","trial_type":"survey-template","trial_index":0,"time_elapsed":15934,"internal_node_id":"0.0-0.0","task_version":"screening-prolific"},{"responses":{"Q04":"0","Q08":"0","Q05":"0","Q01":"1","Q06":"2","Q07":"0","Q03":"1","Q02":"2"},"rt":40265.21499999217,"survey":"gad7","trial_type":"survey-template","trial_index":1,"time_elapsed":56205,"internal_node_id":"0.0-1.0","task_version":"screening-prolific"},{"responses":{"Q07":"3","Q09":"3","Q02":"3","Q11":"3","Q03":"3","Q06":"3","Q14":"3","Q15":"3","Q08":"2","Q13":"3","Q01":"1","Q10":"2","Q05":"3","Q04":"3","Q12":"3"},"rt":51060.800000006566,"survey":"shaps","trial_type":"survey-template","trial_index":2,"time_elapsed":107272,"internal_node_id":"0.0-2.0","task_version":"screening-prolific"},{"responses":{"Q11":"2","Q07":"1","Q15":"0","Q08":"2","Q06":"2","Q03":"2","Q02":"1","Q05":"0","Q09":"0","Q13":"0","Q04":"1","Q10":"1","Q12":"0","Q01":"2","Q14":"0"},"rt":115177.80999999377,"survey":"7up7down","trial_type":"survey-template","trial_index":3,"time_elapsed":222457,"internal_node_id":"0.0-3.0","task_version":"screening-prolific"},{"responses":{"Q02":"3","Q08":"2","Q06":"2","Q13":"3","Q10":"2","Q11":"1","Q12":"1","Q09":"1","Q05":"2","Q03":"3","Q07":"3","Q01":"3","Q04":"3"},"rt":69062.13499998557,"survey":"bisbas","trial_type":"survey-template","trial_index":4,"time_elapsed":291527,"internal_node_id":"0.0-4.0","task_version":"screening-prolific"},{"view_history":"[{\"page_index\":0,\"viewing_time\":5596.270000009099},{\"page_index\":1,\"viewing_time\":7710.380000004079},{\"page_index\":2,\"viewing_time\":6642.430000007153},{\"page_index\":3,\"viewing_time\":1269.0049999800976},{\"page_index\":2,\"viewing_time\":8499.139999999898},{\"page_index\":3,\"viewing_time\":10214.18999999878},{\"page_index\":4,\"viewing_time\":7387.2300000221},{\"page_index\":5,\"viewing_time\":3565.0099999911617},{\"page_index\":6,\"viewing_time\":3808.2249999861233},{\"page_index\":7,\"viewing_time\":4934.05999999959}]","rt":59627.20000001718,"trial_type":"instructions","trial_index":5,"time_elapsed":351157,"internal_node_id":"0.0-5.0-0.0","task_version":"screening-prolific"},{"responses":["True","True","False","False","True"],"num_errors":0,"rt":15367.540000006557,"trial_type":"three-arm-comprehension","trial_index":6,"time_elapsed":366531,"internal_node_id":"0.0-5.0-1.0","task_version":"screening-prolific"},{"view_history":"[{\"page_index\":0,\"viewing_time\":2888.0800000042655}]","rt":2888.379999989411,"trial_type":"instructions","trial_index":7,"time_elapsed":369424,"internal_node_id":"0.0-6.0","task_version":"screening-prolific"},{"contexts":["blue","red","green"],"outcomes":[0,0,1],"key":37,"choice":0,"rt":3405.5649999936577,"outcome":0,"trial":1,"correct":2,"trial_type":"three-arm-trial","trial_index":8,"time_elapsed":374034,"internal_node_id":"0.0-7.0-0.0","task_version":"screening-prolific","missing":false,"accuracy":0},{"contexts":["blue","red","green"],"outcomes":[0,0,1],"key":39,"choice":2,"rt":379.13499999558553,"outcome":1,"trial":2,"correct":2,"trial_type":"three-arm-trial","trial_index":9,"time_elapsed":375620,"internal_node_id":"0.0-8.0-0.0","task_version":"screening-prolific","missing":false,"accuracy":1},{"contexts":["blue","red","green"],"outcomes":[0,0,0],"key":39,"choice":2,"rt":855.5599999963306,"outcome":0,"trial":3,"correct":2,"trial_type":"three-arm-trial","trial_index":10,"time_elapsed":377680,"internal_node_id":"0.0-9.0-0.0","task_version":"screening-prolific","missing":false,"accuracy":1},{"contexts":["blue","red","green"],"outcomes":[0,0,1],"key":39,"choice":2,"rt":333.3250000141561,"outcome":1,"trial":4,"correct":2,"trial_type":"three-arm-trial","trial_index":11,"time_elapsed":379216,"internal_node_id":"0.0-10.0-0.0","task_version":"screening-prolific","missing":false,"accuracy":1},{"contexts":["blue","red","green"],"outcomes":[0,0,1],"key":38,"choice":1,"rt":699.4899999990594,"outcome":0,"trial":5,"correct":2,"trial_type":"three-arm-trial","trial_index":12,"time_elapsed":381120,"internal_node_id":"0.0-11.0-0.0","task_version":"screening-prolific","missing":false,"accuracy":0},{"contexts":["blue","red","green"],"outcomes":[0,0,1],"key":37,"choice":0,"rt":353.19000002346,"outcome":0,"trial":6,"correct":2,"trial_type":"three-arm-trial","trial_index":13,"time_elapsed":382676,"internal_node_id":"0.0-12.0-0.0","task_version":"screening-prolific","missing":false,"accuracy":0},{"contexts":["blue","red","green"],"outcomes":[1,0,1],"key":37,"choice":0,"rt":429.77499999688007,"outcome":1,"trial":7,"correct":2,"trial_type":"three-arm-trial","trial_index":14,"time_elapsed":384310,"internal_node_id":"0.0-13.0-0.0","task_version":"screening-prolific","missing":false,"accuracy":0},{"contexts":["blue","red","green"],"outcomes":[0,1,1],"key":37,"choice":0,"rt":1309.7449999768287,"outcome":0,"trial":8,"correct":2,"trial_type":"three-arm-trial","trial_index":15,"time_elapsed":386824,"internal_node_id":"0.0-14.0-0.0","task_version":"screening-prolific","missing":false,"accuracy":0},{"contexts":["blue","red","green"],"outcomes":[1,0,1],"key":38,"choice":1,"rt":303.29000001074746,"outcome":0,"trial":9,"correct":2,"trial_type":"three-arm-trial","trial_index":16,"time_elapsed":388331,"internal_node_id":"0.0-15.0-0.0","task_version":"screening-prolific","missing":false,"accuracy":0},{"contexts":["blue","red","green"],"outcomes":[0,0,1],"key":37,"choice":0,"rt":98.28999999444932,"outcome":0,"trial":10,"correct":2,"trial_type":"three-arm-trial","trial_index":17,"time_elapsed":389634,"internal_node_id":"0.0-16.0-0.0","task_version":"screening-prolific","missing":false,"accuracy":0},{"contexts":["blue","red","green"],"outcomes":[0,0,1],"key":39,"choice":2,"rt":377.04999998095445,"outcome":1,"trial":11,"correct":2,"trial_type":"three-arm-trial","trial_index":18,"time_elapsed":391215,"internal_node_id":"0.0-17.0-0.0","task_version":"screening-prolific","missing":false,"accuracy":1},{"contexts":["blue","red","green"],"outcomes":[0,1,1],"key":37,"choice":0,"rt":353.0249999894295,"outcome":0,"trial":12,"correct":2,"trial_type":"three-arm-trial","trial_index":19,"time_elapsed":392772,"internal_node_id":"0.0-18.0-0.0","task_version":"screening-prolific","missing":false,"accuracy":0},{"contexts":["blue","red","green"],"outcomes":[0,0,1],"key":39,"choice":2,"rt":348.74000001582317,"outcome":1,"trial":13,"correct":2,"trial_type":"three-arm-trial","trial_index":20,"time_elapsed":394325,"internal_node_id":"0.0-19.0-0.0","task_version":"screening-prolific","missing":false,"accuracy":1},{"contexts":["blue","red","green"],"outcomes":[0,0,1],"key":38,"choice":1,"rt":314.61500001023524,"outcome":0,"trial":14,"correct":2,"trial_type":"three-arm-trial","trial_index":21,"time_elapsed":395843,"internal_node_id":"0.0-20.0-0.0","task_version":"screening-prolific","missing":false,"accuracy":0},{"contexts":["blue","red","green"],"outcomes":[0,0,1],"key":39,"choice":2,"rt":648.1300000159536,"outcome":1,"trial":15,"correct":2,"trial_type":"three-arm-trial","trial_index":22,"time_elapsed":397695,"internal_node_id":"0.0-21.0-0.0","task_version":"screening-prolific","missing":false,"accuracy":1},{"contexts":["blue","red","green"],"outcomes":[0,0,0],"key":39,"choice":2,"rt":333.0949999799486,"outcome":0,"trial":16,"correct":1,"trial_type":"three-arm-trial","trial_index":23,"time_elapsed":399231,"internal_node_id":"0.0-22.0-0.0","task_version":"screening-prolific","missing":false,"accuracy":0},{"contexts":["blue","red","green"],"outcomes":[0,1,0],"key":38,"choice":1,"rt":349.1399999766145,"outcome":1,"trial":17,"correct":1,"trial_type":"three-arm-trial","trial_index":24,"time_elapsed":400785,"internal_node_id":"0.0-23.0-0.0","task_version":"screening-prolific","missing":false,"accuracy":1},{"contexts":["blue","red","green"],"outcomes":[1,1,0],"key":39,"choice":2,"rt":729.8400000145193,"outcome":0,"trial":18,"correct":1,"trial_type":"three-arm-trial","trial_index":25,"time_elapsed":402720,"internal_node_id":"0.0-24.0-0.0","task_version":"screening-prolific","missing":false,"accuracy":0},{"contexts":["blue","red","green"],"outcomes":[1,1,0],"key":38,"choice":1,"rt":253.83500001044013,"outcome":1,"trial":19,"correct":1,"trial_type":"three-arm-trial","trial_index":26,"time_elapsed":404177,"internal_node_id":"0.0-25.0-0.0","task_version":"screening-prolific","missing":false,"accuracy":1},{"contexts":["blue","red","green"],"outcomes":[0,1,0],"key":37,"choice":0,"rt":637.8550000081304,"outcome":0,"trial":20,"correct":1,"trial_type":"three-arm-trial","trial_index":27,"time_elapsed":406020,"internal_node_id":"0.0-26.0-0.0","task_version":"screening-prolific","missing":false,"accuracy":0},{"contexts":["blue","red","green"],"outcomes":[0,1,0],"key":38,"choice":1,"rt":240.99500000011176,"outcome":1,"trial":21,"correct":1,"trial_type":"three-arm-trial","trial_index":28,"time_elapsed":407467,"internal_node_id":"0.0-27.0-0.0","task_version":"screening-prolific","missing":false,"accuracy":1},{"contexts":["blue","red","green"],"outcomes":[0,1,0],"key":38,"choice":1,"rt":290.3600000136066,"outcome":1,"trial":22,"correct":1,"trial_type":"three-arm-trial","trial_index":29,"time_elapsed":408962,"internal_node_id":"0.0-28.0-0.0","task_version":"screening-prolific","missing":false,"accuracy":1},{"contexts":["blue","red","green"],"outcomes":[0,1,0],"key":38,"choice":1,"rt":277.0799999998417,"outcome":1,"trial":23,"correct":1,"trial_type":"three-arm-trial","trial_index":30,"time_elapsed":410443,"internal_node_id":"0.0-29.0-0.0","task_version":"screening-prolific","missing":false,"accuracy":1},{"contexts":["blue","red","green"],"outcomes":[0,1,0],"key":38,"choice":1,"rt":279.07000001869164,"outcome":1,"trial":24,"correct":1,"trial_type":"three-arm-trial","trial_index":31,"time_elapsed":411926,"internal_node_id":"0.0-30.0-0.0","task_version":"screening-prolific","missing":false,"accuracy":1},{"contexts":["blue","red","green"],"outcomes":[0,1,1],"key":38,"choice":1,"rt":301.47999999462627,"outcome":1,"trial":25,"correct":1,"trial_type":"three-arm-trial","trial_index":32,"time_elapsed":413432,"internal_node_id":"0.0-31.0-0.0","task_version":"screening-prolific","missing":false,"accuracy":1},{"contexts":["blue","red","green"],"outcomes":[0,1,0],"key":38,"choice":1,"rt":278.66999999969266,"outcome":1,"trial":26,"correct":1,"trial_type":"three-arm-trial","trial_index":33,"time_elapsed":414915,"internal_node_id":"0.0-32.0-0.0","task_version":"screening-prolific","missing":false,"accuracy":1},{"contexts":["blue","red","green"],"outcomes":[0,1,0],"key":38,"choice":1,"rt":291.60999998566695,"outcome":1,"trial":27,"correct":1,"trial_type":"three-arm-trial","trial_index":34,"time_elapsed":416409,"internal_node_id":"0.0-33.0-0.0","task_version":"screening-prolific","missing":false,"accuracy":1},{"contexts":["blue","red","green"],"outcomes":[0,1,0],"key":38,"choice":1,"rt":539.0649999899324,"outcome":1,"trial":28,"correct":1,"trial_type":"three-arm-trial","trial_index":35,"time_elapsed":418154,"internal_node_id":"0.0-34.0-0.0","task_version":"screening-prolific","missing":false,"accuracy":1},{"contexts":["blue","red","green"],"outcomes":[0,1,1],"key":38,"choice":1,"rt":251.3850000104867,"outcome":1,"trial":29,"correct":1,"trial_type":"three-arm-trial","trial_index":36,"time_elapsed":419610,"internal_node_id":"0.0-35.0-0.0","task_version":"screening-prolific","missing":false,"accuracy":1},{"contexts":["blue","red","green"],"outcomes":[0,1,0],"key":38,"choice":1,"rt":300.6149999855552,"outcome":1,"trial":30,"correct":1,"trial_type":"three-arm-trial","trial_index":37,"time_elapsed":421116,"internal_node_id":"0.0-36.0-0.0","task_version":"screening-prolific","missing":false,"accuracy":1},{"contexts":["blue","red","green"],"outcomes":[0,0,1],"key":38,"choice":1,"rt":280.9699999925215,"outcome":0,"trial":31,"correct":2,"trial_type":"three-arm-trial","trial_index":38,"time_elapsed":422600,"internal_node_id":"0.0-37.0-0.0","task_version":"screening-prolific","missing":false,"accuracy":0},{"contexts":["blue","red","green"],"outcomes":[1,0,1],"key":37,"choice":0,"rt":283.3600000012666,"outcome":1,"trial":32,"correct":2,"trial_type":"three-arm-trial","trial_index":39,"time_elapsed":424087,"internal_node_id":"0.0-38.0-0.0","task_version":"screening-prolific","missing":false,"accuracy":0},{"contexts":["blue","red","green"],"outcomes":[0,1,0],"key":37,"choice":0,"rt":284.9749999877531,"outcome":0,"trial":33,"correct":2,"trial_type":"three-arm-trial","trial_index":40,"time_elapsed":425577,"internal_node_id":"0.0-39.0-0.0","task_version":"screening-prolific","missing":false,"accuracy":0},{"contexts":["blue","red","green"],"outcomes":[0,0,1],"key":37,"choice":0,"rt":412.0049999910407,"outcome":0,"trial":34,"correct":2,"trial_type":"three-arm-trial","trial_index":41,"time_elapsed":427193,"internal_node_id":"0.0-40.0-0.0","task_version":"screening-prolific","missing":false,"accuracy":0},{"contexts":["blue","red","green"],"outcomes":[0,0,1],"key":39,"choice":2,"rt":170.74000000138767,"outcome":1,"trial":35,"correct":2,"trial_type":"three-arm-trial","trial_index":42,"time_elapsed":428569,"internal_node_id":"0.0-41.0-0.0","task_version":"screening-prolific","missing":false,"accuracy":1},{"contexts":["blue","red","green"],"outcomes":[1,0,1],"key":37,"choice":0,"rt":274.8149999824818,"outcome":1,"trial":36,"correct":2,"trial_type":"three-arm-trial","trial_index":43,"time_elapsed":430047,"internal_node_id":"0.0-42.0-0.0","task_version":"screening-prolific","missing":false,"accuracy":0},{"contexts":["blue","red","green"],"outcomes":[1,1,1],"key":37,"choice":0,"rt":372.05000000540167,"outcome":1,"trial":37,"correct":2,"trial_type":"three-arm-trial","trial_index":44,"time_elapsed":431623,"internal_node_id":"0.0-43.0-0.0","task_version":"screening-prolific","missing":false,"accuracy":0},{"contexts":["blue","red","green"],"outcomes":[1,1,0],"key":37,"choice":0,"rt":271.71000000089407,"outcome":1,"trial":38,"correct":2,"trial_type":"three-arm-trial","trial_index":45,"time_elapsed":433099,"internal_node_id":"0.0-44.0-0.0","task_version":"screening-prolific","missing":false,"accuracy":0},{"contexts":["blue","red","green"],"outcomes":[0,0,1],"key":37,"choice":0,"rt":331.59999997587875,"outcome":0,"trial":39,"correct":2,"trial_type":"three-arm-trial","trial_index":46,"time_elapsed":434633,"internal_node_id":"0.0-45.0-0.0","task_version":"screening-prolific","missing":false,"accuracy":0},{"contexts":["blue","red","green"],"outcomes":[0,0,1],"key":39,"choice":2,"rt":239.5599999872502,"outcome":1,"trial":40,"correct":2,"trial_type":"three-arm-trial","trial_index":47,"time_elapsed":436078,"internal_node_id":"0.0-46.0-0.0","task_version":"screening-prolific","missing":false,"accuracy":1},{"contexts":["blue","red","green"],"outcomes":[0,0,0],"key":38,"choice":1,"rt":337.70500001264736,"outcome":0,"trial":41,"correct":2,"trial_type":"three-arm-trial","trial_index":48,"time_elapsed":437620,"internal_node_id":"0.0-47.0-0.0","task_version":"screening-prolific","missing":false,"accuracy":0},{"contexts":["blue","red","green"],"outcomes":[1,1,0],"key":39,"choice":2,"rt":290.60500001651235,"outcome":0,"trial":42,"correct":2,"trial_type":"three-arm-trial","trial_index":49,"time_elapsed":439114,"internal_node_id":"0.0-48.0-0.0","task_version":"screening-prolific","missing":false,"accuracy":1},{"contexts":["blue","red","green"],"outcomes":[0,0,0],"key":38,"choice":1,"rt":180.354999989504,"outcome":0,"trial":43,"correct":2,"trial_type":"three-arm-trial","trial_index":50,"time_elapsed":440497,"internal_node_id":"0.0-49.0-0.0","task_version":"screening-prolific","missing":false,"accuracy":0},{"contexts":["blue","red","green"],"outcomes":[0,0,1],"key":37,"choice":0,"rt":393.4000000008382,"outcome":0,"trial":44,"correct":2,"trial_type":"three-arm-trial","trial_index":51,"time_elapsed":442094,"internal_node_id":"0.0-50.0-0.0","task_version":"screening-prolific","missing":false,"accuracy":0},{"contexts":["blue","red","green"],"outcomes":[0,0,1],"key":38,"choice":1,"rt":280.2450000017416,"outcome":0,"trial":45,"correct":2,"trial_type":"three-arm-trial","trial_index":52,"time_elapsed":443578,"internal_node_id":"0.0-51.0-0.0","task_version":"screening-prolific","missing":false,"accuracy":0},{"contexts":["blue","red","green"],"outcomes":[0,1,0],"key":39,"choice":2,"rt":355.2450000133831,"outcome":0,"trial":46,"correct":1,"trial_type":"three-arm-trial","trial_index":53,"time_elapsed":445137,"internal_node_id":"0.0-52.0-0.0","task_version":"screening-prolific","missing":false,"accuracy":0},{"contexts":["blue","red","green"],"outcomes":[0,0,0],"key":39,"choice":2,"rt":477.0050000224728,"outcome":0,"trial":47,"correct":1,"trial_type":"three-arm-trial","trial_index":54,"time_elapsed":446817,"internal_node_id":"0.0-53.0-0.0","task_version":"screening-prolific","missing":false,"accuracy":0},{"contexts":["blue","red","green"],"outcomes":[0,0,1],"key":38,"choice":1,"rt":563.2549999863841,"outcome":0,"trial":48,"correct":1,"trial_type":"three-arm-trial","trial_index":55,"time_elapsed":448585,"internal_node_id":"0.0-54.0-0.0","task_version":"screening-prolific","missing":false,"accuracy":1},{"contexts":["blue","red","green"],"outcomes":[1,1,0],"key":39,"choice":2,"rt":272.59499998763204,"outcome":0,"trial":49,"correct":1,"trial_type":"three-arm-trial","trial_index":56,"time_elapsed":450061,"internal_node_id":"0.0-55.0-0.0","task_version":"screening-prolific","missing":false,"accuracy":0},{"contexts":["blue","red","green"],"outcomes":[0,1,0],"key":38,"choice":1,"rt":245.4849999921862,"outcome":1,"trial":50,"correct":1,"trial_type":"three-arm-trial","trial_index":57,"time_elapsed":451511,"internal_node_id":"0.0-56.0-0.0","task_version":"screening-prolific","missing":false,"accuracy":1},{"contexts":["blue","red","green"],"outcomes":[0,1,0],"key":38,"choice":1,"rt":320.5000000016298,"outcome":1,"trial":51,"correct":1,"trial_type":"three-arm-trial","trial_index":58,"time_elapsed":453037,"internal_node_id":"0.0-57.0-0.0","task_version":"screening-prolific","missing":false,"accuracy":1},{"contexts":["blue","red","green"],"outcomes":[1,0,1],"key":38,"choice":1,"rt":268.66999999037944,"outcome":0,"trial":52,"correct":1,"trial_type":"three-arm-trial","trial_index":59,"time_elapsed":454511,"internal_node_id":"0.0-58.0-0.0","task_version":"screening-prolific","missing":false,"accuracy":1},{"contexts":["blue","red","green"],"outcomes":[0,1,0],"key":37,"choice":0,"rt":352.7999999932945,"outcome":0,"trial":53,"correct":1,"trial_type":"three-arm-trial","trial_index":60,"time_elapsed":456070,"internal_node_id":"0.0-59.0-0.0","task_version":"screening-prolific","missing":false,"accuracy":0},{"contexts":["blue","red","green"],"outcomes":[1,1,0],"key":37,"choice":0,"rt":297.2699999809265,"outcome":1,"trial":54,"correct":1,"trial_type":"three-arm-trial","trial_index":61,"time_elapsed":457570,"internal_node_id":"0.0-60.0-0.0","task_version":"screening-prolific","missing":false,"accuracy":0},{"contexts":["blue","red","green"],"outcomes":[0,1,1],"key":37,"choice":0,"rt":352.2050000028685,"outcome":0,"trial":55,"correct":1,"trial_type":"three-arm-trial","trial_index":62,"time_elapsed":459127,"internal_node_id":"0.0-61.0-0.0","task_version":"screening-prolific","missing":false,"accuracy":0},{"contexts":["blue","red","green"],"outcomes":[0,1,0],"key":39,"choice":2,"rt":314.4550000142772,"outcome":0,"trial":56,"correct":1,"trial_type":"three-arm-trial","trial_index":63,"time_elapsed":460645,"internal_node_id":"0.0-62.0-0.0","task_version":"screening-prolific","missing":false,"accuracy":0},{"contexts":["blue","red","green"],"outcomes":[1,0,0],"key":37,"choice":0,"rt":267.3050000157673,"outcome":1,"trial":57,"correct":1,"trial_type":"three-arm-trial","trial_index":64,"time_elapsed":462116,"internal_node_id":"0.0-63.0-0.0","task_version":"screening-prolific","missing":false,"accuracy":0},{"contexts":["blue","red","green"],"outcomes":[0,0,0],"key":37,"choice":0,"rt":327.63499999418855,"outcome":0,"trial":58,"correct":1,"trial_type":"three-arm-trial","trial_index":65,"time_elapsed":463646,"internal_node_id":"0.0-64.0-0.0","task_version":"screening-prolific","missing":false,"accuracy":0},{"contexts":["blue","red","green"],"outcomes":[0,1,0],"key":39,"choice":2,"rt":334.83499998692423,"outcome":0,"trial":59,"correct":1,"trial_type":"three-arm-trial","trial_index":66,"time_elapsed":465186,"internal_node_id":"0.0-65.0-0.0","task_version":"screening-prolific","missing":false,"accuracy":0},{"contexts":["blue","red","green"],"outcomes":[0,1,0],"key":37,"choice":0,"rt":244.43000002065673,"outcome":0,"trial":60,"correct":1,"trial_type":"three-arm-trial","trial_index":67,"time_elapsed":466634,"internal_node_id":"0.0-66.0-0.0","task_version":"screening-prolific","missing":false,"accuracy":0},{"contexts":["blue","red","green"],"outcomes":[1,0,0],"key":38,"choice":1,"rt":270.07999998750165,"outcome":0,"trial":61,"correct":0,"trial_type":"three-arm-trial","trial_index":68,"time_elapsed":468108,"internal_node_id":"0.0-67.0-0.0","task_version":"screening-prolific","missing":false,"accuracy":0},{"contexts":["blue","red","green"],"outcomes":[1,0,0],"key":37,"choice":0,"rt":266.72999997390434,"outcome":1,"trial":62,"correct":0,"trial_type":"three-arm-trial","trial_index":69,"time_elapsed":469578,"internal_node_id":"0.0-68.0-0.0","task_version":"screening-prolific","missing":false,"accuracy":1},{"contexts":["blue","red","green"],"outcomes":[1,0,0],"key":37,"choice":0,"rt":286.36500000720844,"outcome":1,"trial":63,"correct":0,"trial_type":"three-arm-trial","trial_index":70,"time_elapsed":471069,"internal_node_id":"0.0-69.0-0.0","task_version":"screening-prolific","missing":false,"accuracy":1},{"contexts":["blue","red","green"],"outcomes":[1,1,0],"key":37,"choice":0,"rt":270.85499998065643,"outcome":1,"trial":64,"correct":0,"trial_type":"three-arm-trial","trial_index":71,"time_elapsed":472544,"internal_node_id":"0.0-70.0-0.0","task_version":"screening-prolific","missing":false,"accuracy":1},{"contexts":["blue","red","green"],"outcomes":[1,0,0],"key":37,"choice":0,"rt":282.0600000268314,"outcome":1,"trial":65,"correct":0,"trial_type":"three-arm-trial","trial_index":72,"time_elapsed":474031,"internal_node_id":"0.0-71.0-0.0","task_version":"screening-prolific","missing":false,"accuracy":1},{"contexts":["blue","red","green"],"outcomes":[1,0,1],"key":37,"choice":0,"rt":312.83999999868684,"outcome":1,"trial":66,"correct":0,"trial_type":"three-arm-trial","trial_index":73,"time_elapsed":475547,"internal_node_id":"0.0-72.0-0.0","task_version":"screening-prolific","missing":false,"accuracy":1},{"contexts":["blue","red","green"],"outcomes":[1,0,0],"key":37,"choice":0,"rt":349.94999997434206,"outcome":1,"trial":67,"correct":0,"trial_type":"three-arm-trial","trial_index":74,"time_elapsed":477100,"internal_node_id":"0.0-73.0-0.0","task_version":"screening-prolific","missing":false,"accuracy":1},{"contexts":["blue","red","green"],"outcomes":[1,1,0],"key":37,"choice":0,"rt":332.24000001791865,"outcome":1,"trial":68,"correct":0,"trial_type":"three-arm-trial","trial_index":75,"time_elapsed":478634,"internal_node_id":"0.0-74.0-0.0","task_version":"screening-prolific","missing":false,"accuracy":1},{"contexts":["blue","red","green"],"outcomes":[1,0,0],"key":37,"choice":0,"rt":255.2750000031665,"outcome":1,"trial":69,"correct":0,"trial_type":"three-arm-trial","trial_index":76,"time_elapsed":480094,"internal_node_id":"0.0-75.0-0.0","task_version":"screening-prolific","missing":false,"accuracy":1},{"contexts":["blue","red","green"],"outcomes":[1,1,0],"key":37,"choice":0,"rt":269.9049999937415,"outcome":1,"trial":70,"correct":0,"trial_type":"three-arm-trial","trial_index":77,"time_elapsed":481568,"internal_node_id":"0.0-76.0-0.0","task_version":"screening-prolific","missing":false,"accuracy":1},{"contexts":["blue","red","green"],"outcomes":[0,0,0],"key":37,"choice":0,"rt":265.030000009574,"outcome":0,"trial":71,"correct":0,"trial_type":"three-arm-trial","trial_index":78,"time_elapsed":483038,"internal_node_id":"0.0-77.0-0.0","task_version":"screening-prolific","missing":false,"accuracy":1},{"contexts":["blue","red","green"],"outcomes":[0,0,0],"key":38,"choice":1,"rt":207.03499999945052,"outcome":0,"trial":72,"correct":0,"trial_type":"three-arm-trial","trial_index":79,"time_elapsed":484450,"internal_node_id":"0.0-78.0-0.0","task_version":"screening-prolific","missing":false,"accuracy":0},{"contexts":["blue","red","green"],"outcomes":[1,0,0],"key":37,"choice":0,"rt":272.4199999938719,"outcome":1,"trial":73,"correct":0,"trial_type":"three-arm-trial","trial_index":80,"time_elapsed":485926,"internal_node_id":"0.0-79.0-0.0","task_version":"screening-prolific","missing":false,"accuracy":1},{"contexts":["blue","red","green"],"outcomes":[0,0,0],"key":37,"choice":0,"rt":307.314999983646,"outcome":0,"trial":74,"correct":0,"trial_type":"three-arm-trial","trial_index":81,"time_elapsed":487438,"internal_node_id":"0.0-80.0-0.0","task_version":"screening-prolific","missing":false,"accuracy":1},{"contexts":["blue","red","green"],"outcomes":[0,0,0],"key":39,"choice":2,"rt":318.794999999227,"outcome":0,"trial":75,"correct":0,"trial_type":"three-arm-trial","trial_index":82,"time_elapsed":488960,"internal_node_id":"0.0-81.0-0.0","task_version":"screening-prolific","missing":false,"accuracy":0},{"contexts":["blue","red","green"],"outcomes":[0,0,0],"key":37,"choice":0,"rt":358.7149999802932,"outcome":0,"trial":76,"correct":1,"trial_type":"three-arm-trial","trial_index":83,"time_elapsed":490522,"internal_node_id":"0.0-82.0-0.0","task_version":"screening-prolific","missing":false,"accuracy":0},{"contexts":["blue","red","green"],"outcomes":[0,1,0],"key":39,"choice":2,"rt":255.58499997714534,"outcome":0,"trial":77,"correct":1,"trial_type":"three-arm-trial","trial_index":84,"time_elapsed":491981,"internal_node_id":"0.0-83.0-0.0","task_version":"screening-prolific","missing":false,"accuracy":0},{"contexts":["blue","red","green"],"outcomes":[1,0,1],"key":38,"choice":1,"rt":307.49499998637475,"outcome":0,"trial":78,"correct":1,"trial_type":"three-arm-trial","trial_index":85,"time_elapsed":493493,"internal_node_id":"0.0-84.0-0.0","task_version":"screening-prolific","missing":false,"accuracy":1},{"contexts":["blue","red","green"],"outcomes":[0,1,0],"key":38,"choice":1,"rt":299.18000000179745,"outcome":1,"trial":79,"correct":1,"trial_type":"three-arm-trial","trial_index":86,"time_elapsed":494995,"internal_node_id":"0.0-85.0-0.0","task_version":"screening-prolific","missing":false,"accuracy":1},{"contexts":["blue","red","green"],"outcomes":[0,1,0],"key":38,"choice":1,"rt":216.23499999986961,"outcome":1,"trial":80,"correct":1,"trial_type":"three-arm-trial","trial_index":87,"time_elapsed":496418,"internal_node_id":"0.0-86.0-0.0","task_version":"screening-prolific","missing":false,"accuracy":1},{"contexts":["blue","red","green"],"outcomes":[0,0,1],"key":38,"choice":1,"rt":274.06499997596256,"outcome":0,"trial":81,"correct":1,"trial_type":"three-arm-trial","trial_index":88,"time_elapsed":497897,"internal_node_id":"0.0-87.0-0.0","task_version":"screening-prolific","missing":false,"accuracy":1},{"contexts":["blue","red","green"],"outcomes":[0,1,0],"key":39,"choice":2,"rt":290.94499998609535,"outcome":0,"trial":82,"correct":1,"trial_type":"three-arm-trial","trial_index":89,"time_elapsed":499394,"internal_node_id":"0.0-88.0-0.0","task_version":"screening-prolific","missing":false,"accuracy":0},{"contexts":["blue","red","green"],"outcomes":[0,0,0],"key":38,"choice":1,"rt":208.0699999933131,"outcome":0,"trial":83,"correct":1,"trial_type":"three-arm-trial","trial_index":90,"time_elapsed":500806,"internal_node_id":"0.0-89.0-0.0","task_version":"screening-prolific","missing":false,"accuracy":1},{"contexts":["blue","red","green"],"outcomes":[0,1,1],"key":37,"choice":0,"rt":235.44999997830018,"outcome":0,"trial":84,"correct":1,"trial_type":"three-arm-trial","trial_index":91,"time_elapsed":502245,"internal_node_id":"0.0-90.0-0.0","task_version":"screening-prolific","missing":false,"accuracy":0},{"contexts":["blue","red","green"],"outcomes":[1,0,0],"key":37,"choice":0,"rt":432.989999972051,"outcome":1,"trial":85,"correct":1,"trial_type":"three-arm-trial","trial_index":92,"time_elapsed":503881,"internal_node_id":"0.0-91.0-0.0","task_version":"screening-prolific","missing":false,"accuracy":0},{"contexts":["blue","red","green"],"outcomes":[1,0,0],"key":37,"choice":0,"rt":234.42500000237487,"outcome":1,"trial":86,"correct":1,"trial_type":"three-arm-trial","trial_index":93,"time_elapsed":505321,"internal_node_id":"0.0-92.0-0.0","task_version":"screening-prolific","missing":false,"accuracy":0},{"contexts":["blue","red","green"],"outcomes":[1,1,0],"key":37,"choice":0,"rt":263.4050000051502,"outcome":1,"trial":87,"correct":1,"trial_type":"three-arm-trial","trial_index":94,"time_elapsed":506787,"internal_node_id":"0.0-93.0-0.0","task_version":"screening-prolific","missing":false,"accuracy":0},{"contexts":["blue","red","green"],"outcomes":[0,1,0],"key":37,"choice":0,"rt":269.7549999866169,"outcome":0,"trial":88,"correct":1,"trial_type":"three-arm-trial","trial_index":95,"time_elapsed":508260,"internal_node_id":"0.0-94.0-0.0","task_version":"screening-prolific","missing":false,"accuracy":0},{"contexts":["blue","red","green"],"outcomes":[0,0,0],"key":37,"choice":0,"rt":379.84000000869855,"outcome":0,"trial":89,"correct":1,"trial_type":"three-arm-trial","trial_index":96,"time_elapsed":509843,"internal_node_id":"0.0-95.0-0.0","task_version":"screening-prolific","missing":false,"accuracy":0},{"contexts":["blue","red","green"],"outcomes":[0,1,1],"key":38,"choice":1,"rt":237.98999999416992,"outcome":1,"trial":90,"correct":1,"trial_type":"three-arm-trial","trial_index":97,"time_elapsed":511286,"internal_node_id":"0.0-96.0-0.0","task_version":"screening-prolific","missing":false,"accuracy":1},{"rt":25511.209999996936,"responses":{"age":"32","gender-categorical":"Female","gender-free-response":"","ethnicity":"Not Hispanic or Latino","race":["White"],"language":"Yes","fluency":"Very well","mturk":"No","mturk-this-study":"No"},"survey":"demographics","trial_type":"survey-demo","trial_index":98,"time_elapsed":536803,"internal_node_id":"0.0-97.0","task_version":"screening-prolific","interactions":"[{\"event\":\"blur\",\"trial\":4,\"time\":255056},{\"event\":\"focus\",\"trial\":4,\"time\":269563}]"}]