[{"responses":{"Q07":"1","Q02":"1","Q05":"0","Q01":"1","Q04":"1","Q03":"1","Q06":"0","Q08":"0"},"rt":32184.88499999512,"survey":"gad7","trial_type":"survey-template","trial_index":0,"time_elapsed":32201,"internal_node_id":"0.0-0.0","task_version":"screening-prolific"},{"responses":{"Q11":"2","Q07":"3","Q06":"2","Q09":"1","Q02":"1","Q12":"0","Q05":"2","Q03":"3","Q10":"2","Q01":"3","Q13":"3","Q08":"1","Q04":"3"},"rt":106251.12000000081,"survey":"bisbas","trial_type":"survey-template","trial_index":1,"time_elapsed":138460,"internal_node_id":"0.0-1.0","task_version":"screening-prolific"},{"responses":{"Q01":"0","Q06":"0","Q07":"0","Q10":"2","Q04":"0","Q15":"0","Q12":"2","Q02":"2","Q03":"1","Q08":"1","Q14":"2","Q09":"2","Q05":"2","Q13":"0","Q11":"3"},"rt":135725.3099999798,"survey":"7up7down","trial_type":"survey-template","trial_index":2,"time_elapsed":274201,"internal_node_id":"0.0-2.0","task_version":"screening-prolific"},{"responses":{"Q10":"2","Q03":"1","Q11":"2","Q12":"2","Q02":"2","Q08":"0","Q15":"2","Q13":"2","Q14":"2","Q01":"2","Q07":"2","Q06":"2","Q04":"2","Q05":"2","Q09":"2"},"rt":74749.62499999674,"survey":"shaps","trial_type":"survey-template","trial_index":3,"time_elapsed":348957,"internal_node_id":"0.0-3.0","task_version":"screening-prolific"},{"responses":{"Q01":"3","Q03":"2","Q02":"2"},"rt":17208.76499998849,"survey":"pswq","trial_type":"survey-template","trial_index":4,"time_elapsed":366171,"internal_node_id":"0.0-4.0","task_version":"screening-prolific"},{"view_history":"[{\"page_index\":0,\"viewing_time\":7022.8599999973085},{\"page_index\":1,\"viewing_time\":42452.69000000553},{\"page_index\":2,\"viewing_time\":8198.239999997895},{\"page_index\":3,\"viewing_time\":13882.565000007162},{\"page_index\":4,\"viewing_time\":8772.274999995716},{\"page_index\":5,\"viewing_time\":7700.184999994235},{\"page_index\":6,\"viewing_time\":8058.004999998957},{\"page_index\":7,\"viewing_time\":5363.199999992503}]","rt":101450.6349999865,"trial_type":"instructions","trial_index":5,"time_elapsed":467628,"internal_node_id":"0.0-5.0-0.0","task_version":"screening-prolific"},{"responses":["True","True","True","False","True"],"num_errors":1,"rt":26718.699999997625,"trial_type":"three-arm-comprehension","trial_index":6,"time_elapsed":494354,"internal_node_id":"0.0-5.0-1.0","task_version":"screening-prolific"},{"view_history":"[{\"page_index\":0,\"viewing_time\":6683.965000003809},{\"page_index\":1,\"viewing_time\":4828.065000008792},{\"page_index\":2,\"viewing_time\":8905.824999994365},{\"page_index\":3,\"viewing_time\":4298.44499999308},{\"page_index\":4,\"viewing_time\":13689.700000017183},{\"page_index\":5,\"viewing_time\":14484.92499999702},{\"page_index\":6,\"viewing_time\":6317.890000005718},{\"page_index\":7,\"viewing_time\":2580.2399999811314}]","rt":61789.43500001333,"trial_type":"instructions","trial_index":7,"time_elapsed":556149,"internal_node_id":"0.0-5.1-0.1","task_version":"screening-prolific"},{"responses":["True","True","False","False","True"],"num_errors":0,"rt":19349.71000000951,"trial_type":"three-arm-comprehension","trial_index":8,"time_elapsed":575504,"internal_node_id":"0.0-5.1-1.1","task_version":"screening-prolific"},{"view_history":"[{\"page_index\":0,\"viewing_time\":25356.43000001437}]","rt":25357.215000025462,"trial_type":"instructions","trial_index":9,"time_elapsed":600878,"internal_node_id":"0.0-6.0","task_version":"screening-prolific"},{"contexts":["blue","green","red"],"outcomes":[0,0,1],"key":38,"choice":1,"rt":2346.9699999841396,"outcome":0,"trial":1,"correct":2,"trial_type":"three-arm-trial","trial_index":10,"time_elapsed":604430,"internal_node_id":"0.0-7.0-0.0","task_version":"screening-prolific","missing":false,"accuracy":0},{"contexts":["blue","green","red"],"outcomes":[0,0,1],"key":37,"choice":0,"rt":48.50000000442378,"outcome":0,"trial":2,"correct":2,"trial_type":"three-arm-trial","trial_index":11,"time_elapsed":605687,"internal_node_id":"0.0-8.0-0.0","task_version":"screening-prolific","missing":false,"accuracy":0},{"contexts":["blue","green","red"],"outcomes":[1,0,1],"key":39,"choice":2,"rt":274.8800000117626,"outcome":1,"trial":3,"correct":2,"trial_type":"three-arm-trial","trial_index":12,"time_elapsed":607168,"internal_node_id":"0.0-9.0-0.0","task_version":"screening-prolific","missing":false,"accuracy":1},{"contexts":["blue","green","red"],"outcomes":[0,0,0],"key":38,"choice":1,"rt":2956.4100000134204,"outcome":0,"trial":4,"correct":2,"trial_type":"three-arm-trial","trial_index":13,"time_elapsed":611331,"internal_node_id":"0.0-10.0-0.0","task_version":"screening-prolific","missing":false,"accuracy":0},{"contexts":["blue","green","red"],"outcomes":[0,0,1],"key":39,"choice":2,"rt":398.1599999824539,"outcome":1,"trial":5,"correct":2,"trial_type":"three-arm-trial","trial_index":14,"time_elapsed":612935,"internal_node_id":"0.0-11.0-0.0","task_version":"screening-prolific","missing":false,"accuracy":1},{"contexts":["blue","green","red"],"outcomes":[0,0,0],"key":39,"choice":2,"rt":924.6249999850988,"outcome":0,"trial":6,"correct":2,"trial_type":"three-arm-trial","trial_index":15,"time_elapsed":615066,"internal_node_id":"0.0-12.0-0.0","task_version":"screening-prolific","missing":false,"accuracy":1},{"contexts":["blue","green","red"],"outcomes":[0,1,1],"key":37,"choice":0,"rt":240.1350000000093,"outcome":0,"trial":7,"correct":2,"trial_type":"three-arm-trial","trial_index":16,"time_elapsed":616513,"internal_node_id":"0.0-13.0-0.0","task_version":"screening-prolific","missing":false,"accuracy":0},{"contexts":["blue","green","red"],"outcomes":[0,1,1],"key":38,"choice":1,"rt":250.39500001003034,"outcome":1,"trial":8,"correct":2,"trial_type":"three-arm-trial","trial_index":17,"time_elapsed":617968,"internal_node_id":"0.0-14.0-0.0","task_version":"screening-prolific","missing":false,"accuracy":0},{"contexts":["blue","green","red"],"outcomes":[1,0,1],"key":38,"choice":1,"rt":4530.540000007022,"outcome":0,"trial":9,"correct":2,"trial_type":"three-arm-trial","trial_index":18,"time_elapsed":623705,"internal_node_id":"0.0-15.0-0.0","task_version":"screening-prolific","missing":false,"accuracy":0},{"contexts":["blue","green","red"],"outcomes":[0,0,1],"key":39,"choice":2,"rt":268.53999999002554,"outcome":1,"trial":10,"correct":2,"trial_type":"three-arm-trial","trial_index":19,"time_elapsed":625182,"internal_node_id":"0.0-16.0-0.0","task_version":"screening-prolific","missing":false,"accuracy":1},{"contexts":["blue","green","red"],"outcomes":[0,0,1],"key":39,"choice":2,"rt":284.1599999810569,"outcome":1,"trial":11,"correct":2,"trial_type":"three-arm-trial","trial_index":20,"time_elapsed":626674,"internal_node_id":"0.0-17.0-0.0","task_version":"screening-prolific","missing":false,"accuracy":1},{"contexts":["blue","green","red"],"outcomes":[1,1,1],"key":37,"choice":0,"rt":893.3850000030361,"outcome":1,"trial":12,"correct":2,"trial_type":"three-arm-trial","trial_index":21,"time_elapsed":628774,"internal_node_id":"0.0-18.0-0.0","task_version":"screening-prolific","missing":false,"accuracy":0},{"contexts":["blue","green","red"],"outcomes":[1,1,1],"key":38,"choice":1,"rt":1395.329999999376,"outcome":1,"trial":13,"correct":2,"trial_type":"three-arm-trial","trial_index":22,"time_elapsed":631376,"internal_node_id":"0.0-19.0-0.0","task_version":"screening-prolific","missing":false,"accuracy":0},{"contexts":["blue","green","red"],"outcomes":[1,0,1],"key":38,"choice":1,"rt":852.5450000015553,"outcome":0,"trial":14,"correct":2,"trial_type":"three-arm-trial","trial_index":23,"time_elapsed":633435,"internal_node_id":"0.0-20.0-0.0","task_version":"screening-prolific","missing":false,"accuracy":0},{"contexts":["blue","green","red"],"outcomes":[0,0,1],"key":39,"choice":2,"rt":292.14500001398847,"outcome":1,"trial":15,"correct":2,"trial_type":"three-arm-trial","trial_index":24,"time_elapsed":634932,"internal_node_id":"0.0-21.0-0.0","task_version":"screening-prolific","missing":false,"accuracy":1},{"contexts":["blue","green","red"],"outcomes":[0,0,0],"key":39,"choice":2,"rt":247.60999999125488,"outcome":0,"trial":16,"correct":0,"trial_type":"three-arm-trial","trial_index":25,"time_elapsed":636385,"internal_node_id":"0.0-22.0-0.0","task_version":"screening-prolific","missing":false,"accuracy":0},{"contexts":["blue","green","red"],"outcomes":[0,0,1],"key":37,"choice":0,"rt":245.93999999342486,"outcome":0,"trial":17,"correct":0,"trial_type":"three-arm-trial","trial_index":26,"time_elapsed":637836,"internal_node_id":"0.0-23.0-0.0","task_version":"screening-prolific","missing":false,"accuracy":1},{"contexts":["blue","green","red"],"outcomes":[1,1,1],"key":38,"choice":1,"rt":380.6899999908637,"outcome":1,"trial":18,"correct":0,"trial_type":"three-arm-trial","trial_index":27,"time_elapsed":639423,"internal_node_id":"0.0-24.0-0.0","task_version":"screening-prolific","missing":false,"accuracy":0},{"contexts":["blue","green","red"],"outcomes":[1,0,0],"key":38,"choice":1,"rt":269.51500002178364,"outcome":0,"trial":19,"correct":0,"trial_type":"three-arm-trial","trial_index":28,"time_elapsed":640897,"internal_node_id":"0.0-25.0-0.0","task_version":"screening-prolific","missing":false,"accuracy":0},{"contexts":["blue","green","red"],"outcomes":[1,0,0],"key":39,"choice":2,"rt":764.4600000057835,"outcome":0,"trial":20,"correct":0,"trial_type":"three-arm-trial","trial_index":29,"time_elapsed":642869,"internal_node_id":"0.0-26.0-0.0","task_version":"screening-prolific","missing":false,"accuracy":0},{"contexts":["blue","green","red"],"outcomes":[0,0,1],"key":37,"choice":0,"rt":358.1650000123773,"outcome":0,"trial":21,"correct":0,"trial_type":"three-arm-trial","trial_index":30,"time_elapsed":644434,"internal_node_id":"0.0-27.0-0.0","task_version":"screening-prolific","missing":false,"accuracy":1},{"contexts":["blue","green","red"],"outcomes":[0,0,1],"key":38,"choice":1,"rt":267.5699999963399,"outcome":0,"trial":22,"correct":0,"trial_type":"three-arm-trial","trial_index":31,"time_elapsed":645908,"internal_node_id":"0.0-28.0-0.0","task_version":"screening-prolific","missing":false,"accuracy":0},{"contexts":["blue","green","red"],"outcomes":[1,0,0],"key":39,"choice":2,"rt":358.47500001545995,"outcome":0,"trial":23,"correct":0,"trial_type":"three-arm-trial","trial_index":32,"time_elapsed":647475,"internal_node_id":"0.0-29.0-0.0","task_version":"screening-prolific","missing":false,"accuracy":0},{"contexts":["blue","green","red"],"outcomes":[1,0,0],"key":37,"choice":0,"rt":578.2149999868125,"outcome":1,"trial":24,"correct":0,"trial_type":"three-arm-trial","trial_index":33,"time_elapsed":649259,"internal_node_id":"0.0-30.0-0.0","task_version":"screening-prolific","missing":false,"accuracy":1},{"contexts":["blue","green","red"],"outcomes":[1,0,0],"key":37,"choice":0,"rt":326.9950000103563,"outcome":1,"trial":25,"correct":0,"trial_type":"three-arm-trial","trial_index":34,"time_elapsed":650792,"internal_node_id":"0.0-31.0-0.0","task_version":"screening-prolific","missing":false,"accuracy":1},{"contexts":["blue","green","red"],"outcomes":[1,0,0],"key":38,"choice":1,"rt":290.6200000143144,"outcome":0,"trial":26,"correct":0,"trial_type":"three-arm-trial","trial_index":35,"time_elapsed":652289,"internal_node_id":"0.0-32.0-0.0","task_version":"screening-prolific","missing":false,"accuracy":0},{"contexts":["blue","green","red"],"outcomes":[1,0,1],"key":39,"choice":2,"rt":885.0749999983236,"outcome":1,"trial":27,"correct":0,"trial_type":"three-arm-trial","trial_index":36,"time_elapsed":654383,"internal_node_id":"0.0-33.0-0.0","task_version":"screening-prolific","missing":false,"accuracy":0},{"contexts":["blue","green","red"],"outcomes":[1,0,0],"key":39,"choice":2,"rt":2735.9749999886844,"outcome":0,"trial":28,"correct":0,"trial_type":"three-arm-trial","trial_index":37,"time_elapsed":658325,"internal_node_id":"0.0-34.0-0.0","task_version":"screening-prolific","missing":false,"accuracy":0},{"contexts":["blue","green","red"],"outcomes":[1,0,1],"key":38,"choice":1,"rt":282.11000000010245,"outcome":0,"trial":29,"correct":0,"trial_type":"three-arm-trial","trial_index":38,"time_elapsed":659815,"internal_node_id":"0.0-35.0-0.0","task_version":"screening-prolific","missing":false,"accuracy":0},{"contexts":["blue","green","red"],"outcomes":[1,1,0],"key":37,"choice":0,"rt":663.5949999908917,"outcome":1,"trial":30,"correct":0,"trial_type":"three-arm-trial","trial_index":39,"time_elapsed":661689,"internal_node_id":"0.0-36.0-0.0","task_version":"screening-prolific","missing":false,"accuracy":1},{"contexts":["blue","green","red"],"outcomes":[0,1,1],"key":37,"choice":0,"rt":178.73999997391365,"outcome":0,"trial":31,"correct":1,"trial_type":"three-arm-trial","trial_index":40,"time_elapsed":663074,"internal_node_id":"0.0-37.0-0.0","task_version":"screening-prolific","missing":false,"accuracy":0},{"contexts":["blue","green","red"],"outcomes":[1,1,0],"key":39,"choice":2,"rt":243.3700000110548,"outcome":0,"trial":32,"correct":1,"trial_type":"three-arm-trial","trial_index":41,"time_elapsed":664524,"internal_node_id":"0.0-38.0-0.0","task_version":"screening-prolific","missing":false,"accuracy":0},{"contexts":["blue","green","red"],"outcomes":[1,1,0],"key":38,"choice":1,"rt":199.6649999928195,"outcome":1,"trial":33,"correct":1,"trial_type":"three-arm-trial","trial_index":42,"time_elapsed":665931,"internal_node_id":"0.0-39.0-0.0","task_version":"screening-prolific","missing":false,"accuracy":1},{"contexts":["blue","green","red"],"outcomes":[0,0,0],"key":37,"choice":0,"rt":593.6600000131875,"outcome":0,"trial":34,"correct":1,"trial_type":"three-arm-trial","trial_index":43,"time_elapsed":667731,"internal_node_id":"0.0-40.0-0.0","task_version":"screening-prolific","missing":false,"accuracy":0},{"contexts":["blue","green","red"],"outcomes":[0,1,0],"key":38,"choice":1,"rt":405.624999984866,"outcome":1,"trial":35,"correct":1,"trial_type":"three-arm-trial","trial_index":44,"time_elapsed":669344,"internal_node_id":"0.0-41.0-0.0","task_version":"screening-prolific","missing":false,"accuracy":1},{"contexts":["blue","green","red"],"outcomes":[0,0,0],"key":38,"choice":1,"rt":265.27999999234453,"outcome":0,"trial":36,"correct":1,"trial_type":"three-arm-trial","trial_index":45,"time_elapsed":670818,"internal_node_id":"0.0-42.0-0.0","task_version":"screening-prolific","missing":false,"accuracy":1},{"contexts":["blue","green","red"],"outcomes":[0,1,0],"key":39,"choice":2,"rt":466.7300000146497,"outcome":0,"trial":37,"correct":1,"trial_type":"three-arm-trial","trial_index":46,"time_elapsed":672491,"internal_node_id":"0.0-43.0-0.0","task_version":"screening-prolific","missing":false,"accuracy":0},{"contexts":["blue","green","red"],"outcomes":[1,1,0],"key":37,"choice":0,"rt":218.3599999989383,"outcome":1,"trial":38,"correct":1,"trial_type":"three-arm-trial","trial_index":47,"time_elapsed":673917,"internal_node_id":"0.0-44.0-0.0","task_version":"screening-prolific","missing":false,"accuracy":0},{"contexts":["blue","green","red"],"outcomes":[1,1,0],"key":37,"choice":0,"rt":395.00000001862645,"outcome":1,"trial":39,"correct":1,"trial_type":"three-arm-trial","trial_index":48,"time_elapsed":675518,"internal_node_id":"0.0-45.0-0.0","task_version":"screening-prolific","missing":false,"accuracy":0},{"contexts":["blue","green","red"],"outcomes":[0,1,0],"key":39,"choice":2,"rt":1750.3750000032596,"outcome":0,"trial":40,"correct":1,"trial_type":"three-arm-trial","trial_index":49,"time_elapsed":678475,"internal_node_id":"0.0-46.0-0.0","task_version":"screening-prolific","missing":false,"accuracy":0},{"contexts":["blue","green","red"],"outcomes":[0,1,0],"key":39,"choice":2,"rt":234.2449999996461,"outcome":0,"trial":41,"correct":1,"trial_type":"three-arm-trial","trial_index":50,"time_elapsed":679917,"internal_node_id":"0.0-47.0-0.0","task_version":"screening-prolific","missing":false,"accuracy":0},{"contexts":["blue","green","red"],"outcomes":[0,1,1],"key":38,"choice":1,"rt":240.67500000819564,"outcome":1,"trial":42,"correct":1,"trial_type":"three-arm-trial","trial_index":51,"time_elapsed":681363,"internal_node_id":"0.0-48.0-0.0","task_version":"screening-prolific","missing":false,"accuracy":1},{"contexts":["blue","green","red"],"outcomes":[0,1,0],"key":37,"choice":0,"rt":56.61500000860542,"outcome":0,"trial":43,"correct":1,"trial_type":"three-arm-trial","trial_index":52,"time_elapsed":682626,"internal_node_id":"0.0-49.0-0.0","task_version":"screening-prolific","missing":false,"accuracy":0},{"contexts":["blue","green","red"],"outcomes":[0,1,0],"key":39,"choice":2,"rt":129.1450000135228,"outcome":0,"trial":44,"correct":1,"trial_type":"three-arm-trial","trial_index":53,"time_elapsed":683961,"internal_node_id":"0.0-50.0-0.0","task_version":"screening-prolific","missing":false,"accuracy":0},{"contexts":["blue","green","red"],"outcomes":[0,0,0],"key":38,"choice":1,"rt":540.6649999786168,"outcome":0,"trial":45,"correct":1,"trial_type":"three-arm-trial","trial_index":54,"time_elapsed":685708,"internal_node_id":"0.0-51.0-0.0","task_version":"screening-prolific","missing":false,"accuracy":1},{"contexts":["blue","green","red"],"outcomes":[0,1,1],"key":37,"choice":0,"rt":289.2649999994319,"outcome":0,"trial":46,"correct":0,"trial_type":"three-arm-trial","trial_index":55,"time_elapsed":687204,"internal_node_id":"0.0-52.0-0.0","task_version":"screening-prolific","missing":false,"accuracy":1},{"contexts":["blue","green","red"],"outcomes":[1,0,0],"key":39,"choice":2,"rt":121.86000001383945,"outcome":0,"trial":47,"correct":0,"trial_type":"three-arm-trial","trial_index":56,"time_elapsed":688535,"internal_node_id":"0.0-53.0-0.0","task_version":"screening-prolific","missing":false,"accuracy":0},{"contexts":["blue","green","red"],"outcomes":[1,0,0],"key":38,"choice":1,"rt":182.44999999296851,"outcome":0,"trial":48,"correct":0,"trial_type":"three-arm-trial","trial_index":57,"time_elapsed":689924,"internal_node_id":"0.0-54.0-0.0","task_version":"screening-prolific","missing":false,"accuracy":0},{"contexts":["blue","green","red"],"outcomes":[1,0,0],"key":38,"choice":1,"rt":748.6250000074506,"outcome":0,"trial":49,"correct":0,"trial_type":"three-arm-trial","trial_index":58,"time_elapsed":691879,"internal_node_id":"0.0-55.0-0.0","task_version":"screening-prolific","missing":false,"accuracy":0},{"contexts":["blue","green","red"],"outcomes":[1,0,0],"key":39,"choice":2,"rt":352.2100000118371,"outcome":0,"trial":50,"correct":0,"trial_type":"three-arm-trial","trial_index":59,"time_elapsed":693436,"internal_node_id":"0.0-56.0-0.0","task_version":"screening-prolific","missing":false,"accuracy":0},{"contexts":["blue","green","red"],"outcomes":[1,1,0],"key":37,"choice":0,"rt":273.3599999919534,"outcome":1,"trial":51,"correct":0,"trial_type":"three-arm-trial","trial_index":60,"time_elapsed":694916,"internal_node_id":"0.0-57.0-0.0","task_version":"screening-prolific","missing":false,"accuracy":1},{"contexts":["blue","green","red"],"outcomes":[1,0,0],"key":38,"choice":1,"rt":190.1250000228174,"outcome":0,"trial":52,"correct":0,"trial_type":"three-arm-trial","trial_index":61,"time_elapsed":696313,"internal_node_id":"0.0-58.0-0.0","task_version":"screening-prolific","missing":false,"accuracy":0},{"contexts":["blue","green","red"],"outcomes":[1,0,0],"key":39,"choice":2,"rt":235.12500000651926,"outcome":0,"trial":53,"correct":0,"trial_type":"three-arm-trial","trial_index":62,"time_elapsed":697757,"internal_node_id":"0.0-59.0-0.0","task_version":"screening-prolific","missing":false,"accuracy":0},{"contexts":["blue","green","red"],"outcomes":[1,0,0],"key":37,"choice":0,"rt":629.0199999930337,"outcome":1,"trial":54,"correct":0,"trial_type":"three-arm-trial","trial_index":63,"time_elapsed":699592,"internal_node_id":"0.0-60.0-0.0","task_version":"screening-prolific","missing":false,"accuracy":1},{"contexts":["blue","green","red"],"outcomes":[1,0,0],"key":37,"choice":0,"rt":253.15499998396263,"outcome":1,"trial":55,"correct":0,"trial_type":"three-arm-trial","trial_index":64,"time_elapsed":701052,"internal_node_id":"0.0-61.0-0.0","task_version":"screening-prolific","missing":false,"accuracy":1},{"contexts":["blue","green","red"],"outcomes":[0,0,1],"key":37,"choice":0,"rt":48.015000007580966,"outcome":0,"trial":56,"correct":0,"trial_type":"three-arm-trial","trial_index":65,"time_elapsed":702306,"internal_node_id":"0.0-62.0-0.0","task_version":"screening-prolific","missing":false,"accuracy":1},{"contexts":["blue","green","red"],"outcomes":[1,0,0],"key":38,"choice":1,"rt":338.3750000211876,"outcome":0,"trial":57,"correct":0,"trial_type":"three-arm-trial","trial_index":66,"time_elapsed":703852,"internal_node_id":"0.0-63.0-0.0","task_version":"screening-prolific","missing":false,"accuracy":0},{"contexts":["blue","green","red"],"outcomes":[1,0,0],"key":38,"choice":1,"rt":253.02000000374392,"outcome":0,"trial":58,"correct":0,"trial_type":"three-arm-trial","trial_index":67,"time_elapsed":705312,"internal_node_id":"0.0-64.0-0.0","task_version":"screening-prolific","missing":false,"accuracy":0},{"contexts":["blue","green","red"],"outcomes":[1,0,0],"key":39,"choice":2,"rt":259.15500000701286,"outcome":0,"trial":59,"correct":0,"trial_type":"three-arm-trial","trial_index":68,"time_elapsed":706777,"internal_node_id":"0.0-65.0-0.0","task_version":"screening-prolific","missing":false,"accuracy":0},{"contexts":["blue","green","red"],"outcomes":[1,1,0],"key":37,"choice":0,"rt":317.48999998671934,"outcome":1,"trial":60,"correct":0,"trial_type":"three-arm-trial","trial_index":69,"time_elapsed":708300,"internal_node_id":"0.0-66.0-0.0","task_version":"screening-prolific","missing":false,"accuracy":1},{"contexts":["blue","green","red"],"outcomes":[0,1,0],"key":37,"choice":0,"rt":250.9200000204146,"outcome":0,"trial":61,"correct":1,"trial_type":"three-arm-trial","trial_index":70,"time_elapsed":709758,"internal_node_id":"0.0-67.0-0.0","task_version":"screening-prolific","missing":false,"accuracy":0},{"contexts":["blue","green","red"],"outcomes":[0,0,0],"key":39,"choice":2,"rt":327.17000000411645,"outcome":0,"trial":62,"correct":1,"trial_type":"three-arm-trial","trial_index":71,"time_elapsed":711292,"internal_node_id":"0.0-68.0-0.0","task_version":"screening-prolific","missing":false,"accuracy":0},{"contexts":["blue","green","red"],"outcomes":[0,1,1],"key":38,"choice":1,"rt":236.19500000495464,"outcome":1,"trial":63,"correct":1,"trial_type":"three-arm-trial","trial_index":72,"time_elapsed":712735,"internal_node_id":"0.0-69.0-0.0","task_version":"screening-prolific","missing":false,"accuracy":1},{"contexts":["blue","green","red"],"outcomes":[0,1,1],"key":38,"choice":1,"rt":108.00500001641922,"outcome":1,"trial":64,"correct":1,"trial_type":"three-arm-trial","trial_index":73,"time_elapsed":714050,"internal_node_id":"0.0-70.0-0.0","task_version":"screening-prolific","missing":false,"accuracy":1},{"contexts":["blue","green","red"],"outcomes":[0,1,1],"key":39,"choice":2,"rt":220.87499999906868,"outcome":1,"trial":65,"correct":1,"trial_type":"three-arm-trial","trial_index":74,"time_elapsed":715478,"internal_node_id":"0.0-71.0-0.0","task_version":"screening-prolific","missing":false,"accuracy":0},{"contexts":["blue","green","red"],"outcomes":[1,1,0],"key":37,"choice":0,"rt":246.94500002078712,"outcome":1,"trial":66,"correct":1,"trial_type":"three-arm-trial","trial_index":75,"time_elapsed":716933,"internal_node_id":"0.0-72.0-0.0","task_version":"screening-prolific","missing":false,"accuracy":0},{"contexts":["blue","green","red"],"outcomes":[0,1,0],"key":38,"choice":1,"rt":977.1400000026915,"outcome":1,"trial":67,"correct":1,"trial_type":"three-arm-trial","trial_index":76,"time_elapsed":719117,"internal_node_id":"0.0-73.0-0.0","task_version":"screening-prolific","missing":false,"accuracy":1},{"contexts":["blue","green","red"],"outcomes":[0,0,0],"key":38,"choice":1,"rt":368.7250000075437,"outcome":0,"trial":68,"correct":1,"trial_type":"three-arm-trial","trial_index":77,"time_elapsed":720692,"internal_node_id":"0.0-74.0-0.0","task_version":"screening-prolific","missing":false,"accuracy":1},{"contexts":["blue","green","red"],"outcomes":[0,0,0],"key":39,"choice":2,"rt":186.78999997791834,"outcome":0,"trial":69,"correct":1,"trial_type":"three-arm-trial","trial_index":78,"time_elapsed":722084,"internal_node_id":"0.0-75.0-0.0","task_version":"screening-prolific","missing":false,"accuracy":0},{"contexts":["blue","green","red"],"outcomes":[1,1,0],"key":37,"choice":0,"rt":255.21000000298955,"outcome":1,"trial":70,"correct":1,"trial_type":"three-arm-trial","trial_index":79,"time_elapsed":723548,"internal_node_id":"0.0-76.0-0.0","task_version":"screening-prolific","missing":false,"accuracy":0},{"contexts":["blue","green","red"],"outcomes":[1,1,0],"key":37,"choice":0,"rt":120.77499998849817,"outcome":1,"trial":71,"correct":1,"trial_type":"three-arm-trial","trial_index":80,"time_elapsed":724876,"internal_node_id":"0.0-77.0-0.0","task_version":"screening-prolific","missing":false,"accuracy":0},{"contexts":["blue","green","red"],"outcomes":[0,1,0],"key":37,"choice":0,"rt":34.01499998290092,"outcome":0,"trial":72,"correct":1,"trial_type":"three-arm-trial","trial_index":81,"time_elapsed":726116,"internal_node_id":"0.0-78.0-0.0","task_version":"screening-prolific","missing":false,"accuracy":0},{"contexts":["blue","green","red"],"outcomes":[0,1,0],"key":38,"choice":1,"rt":425.51000000094064,"outcome":1,"trial":73,"correct":1,"trial_type":"three-arm-trial","trial_index":82,"time_elapsed":727748,"internal_node_id":"0.0-79.0-0.0","task_version":"screening-prolific","missing":false,"accuracy":1},{"contexts":["blue","green","red"],"outcomes":[0,1,1],"key":38,"choice":1,"rt":325.0499999849126,"outcome":1,"trial":74,"correct":1,"trial_type":"three-arm-trial","trial_index":83,"time_elapsed":729281,"internal_node_id":"0.0-80.0-0.0","task_version":"screening-prolific","missing":false,"accuracy":1},{"contexts":["blue","green","red"],"outcomes":[1,1,0],"key":38,"choice":1,"rt":323.54499999200925,"outcome":1,"trial":75,"correct":1,"trial_type":"three-arm-trial","trial_index":84,"time_elapsed":730811,"internal_node_id":"0.0-81.0-0.0","task_version":"screening-prolific","missing":false,"accuracy":1},{"contexts":["blue","green","red"],"outcomes":[0,0,1],"key":38,"choice":1,"rt":272.87499999511056,"outcome":0,"trial":76,"correct":2,"trial_type":"three-arm-trial","trial_index":85,"time_elapsed":732291,"internal_node_id":"0.0-82.0-0.0","task_version":"screening-prolific","missing":false,"accuracy":0},{"contexts":["blue","green","red"],"outcomes":[1,1,1],"key":39,"choice":2,"rt":329.51500001945533,"outcome":1,"trial":77,"correct":2,"trial_type":"three-arm-trial","trial_index":86,"time_elapsed":733826,"internal_node_id":"0.0-83.0-0.0","task_version":"screening-prolific","missing":false,"accuracy":1},{"contexts":["blue","green","red"],"outcomes":[1,0,0],"key":39,"choice":2,"rt":262.13499999721535,"outcome":0,"trial":78,"correct":2,"trial_type":"three-arm-trial","trial_index":87,"time_elapsed":735295,"internal_node_id":"0.0-84.0-0.0","task_version":"screening-prolific","missing":false,"accuracy":1},{"contexts":["blue","green","red"],"outcomes":[0,0,1],"key":39,"choice":2,"rt":523.0549999978393,"outcome":1,"trial":79,"correct":2,"trial_type":"three-arm-trial","trial_index":88,"time_elapsed":737024,"internal_node_id":"0.0-85.0-0.0","task_version":"screening-prolific","missing":false,"accuracy":1},{"contexts":["blue","green","red"],"outcomes":[0,0,0],"key":39,"choice":2,"rt":548.4799999976531,"outcome":0,"trial":80,"correct":2,"trial_type":"three-arm-trial","trial_index":89,"time_elapsed":738779,"internal_node_id":"0.0-86.0-0.0","task_version":"screening-prolific","missing":false,"accuracy":1},{"contexts":["blue","green","red"],"outcomes":[0,1,1],"key":37,"choice":0,"rt":325.31500002369285,"outcome":0,"trial":81,"correct":2,"trial_type":"three-arm-trial","trial_index":90,"time_elapsed":740312,"internal_node_id":"0.0-87.0-0.0","task_version":"screening-prolific","missing":false,"accuracy":0},{"contexts":["blue","green","red"],"outcomes":[0,0,0],"key":38,"choice":1,"rt":184.24500001128763,"outcome":0,"trial":82,"correct":2,"trial_type":"three-arm-trial","trial_index":91,"time_elapsed":741704,"internal_node_id":"0.0-88.0-0.0","task_version":"screening-prolific","missing":false,"accuracy":0},{"contexts":["blue","green","red"],"outcomes":[0,0,0],"key":39,"choice":2,"rt":385.02999997581355,"outcome":0,"trial":83,"correct":2,"trial_type":"three-arm-trial","trial_index":92,"time_elapsed":743295,"internal_node_id":"0.0-89.0-0.0","task_version":"screening-prolific","missing":false,"accuracy":1},{"contexts":["blue","green","red"],"outcomes":[0,0,1],"key":38,"choice":1,"rt":221.0800000175368,"outcome":0,"trial":84,"correct":2,"trial_type":"three-arm-trial","trial_index":93,"time_elapsed":744723,"internal_node_id":"0.0-90.0-0.0","task_version":"screening-prolific","missing":false,"accuracy":0},{"contexts":["blue","green","red"],"outcomes":[0,0,1],"key":37,"choice":0,"rt":86.76999999443069,"outcome":0,"trial":85,"correct":2,"trial_type":"three-arm-trial","trial_index":94,"time_elapsed":746017,"internal_node_id":"0.0-91.0-0.0","task_version":"screening-prolific","missing":false,"accuracy":0},{"contexts":["blue","green","red"],"outcomes":[0,1,1],"key":38,"choice":1,"rt":7.8649999923072755,"outcome":1,"trial":86,"correct":2,"trial_type":"three-arm-trial","trial_index":95,"time_elapsed":747230,"internal_node_id":"0.0-92.0-0.0","task_version":"screening-prolific","missing":false,"accuracy":0},{"contexts":["blue","green","red"],"outcomes":[0,0,1],"key":38,"choice":1,"rt":126.82499998481944,"outcome":0,"trial":87,"correct":2,"trial_type":"three-arm-trial","trial_index":96,"time_elapsed":748564,"internal_node_id":"0.0-93.0-0.0","task_version":"screening-prolific","missing":false,"accuracy":0},{"contexts":["blue","green","red"],"outcomes":[0,0,1],"key":39,"choice":2,"rt":19.75999999558553,"outcome":1,"trial":88,"correct":2,"trial_type":"three-arm-trial","trial_index":97,"time_elapsed":749789,"internal_node_id":"0.0-94.0-0.0","task_version":"screening-prolific","missing":false,"accuracy":1},{"contexts":["blue","green","red"],"outcomes":[0,0,1],"key":39,"choice":2,"rt":455.2700000058394,"outcome":1,"trial":89,"correct":2,"trial_type":"three-arm-trial","trial_index":98,"time_elapsed":751449,"internal_node_id":"0.0-95.0-0.0","task_version":"screening-prolific","missing":false,"accuracy":1},{"contexts":["blue","green","red"],"outcomes":[0,0,0],"key":39,"choice":2,"rt":261.7750000208616,"outcome":0,"trial":90,"correct":2,"trial_type":"three-arm-trial","trial_index":99,"time_elapsed":752916,"internal_node_id":"0.0-96.0-0.0","task_version":"screening-prolific","missing":false,"accuracy":1},{"rt":25399.030000000494,"responses":{"age":"28","gender-categorical":"Female","gender-free-response":"","ethnicity":"Not Hispanic or Latino","race":["White"],"language":"Yes","fluency":"Very well","mturk":"No","mturk-this-study":"No"},"survey":"demographics","trial_type":"survey-demo","trial_index":100,"time_elapsed":778325,"internal_node_id":"0.0-97.0","task_version":"screening-prolific","interactions":"[{\"event\":\"blur\",\"trial\":3,\"time\":280214},{\"event\":\"focus\",\"trial\":3,\"time\":286441}]"}]